// General information: 
//  MT Manager version: 2022.2.0 
//  XDA version: 2022.2.0 build 7381 rev 124627 built on 2023-07-19
// Device information: 
//  DeviceId: 00B44877
//  ProductCode: MTW2-3A7G6
//  Firmware Version: 4.3.5
//  Hardware Version: 2.0.0
// Device settings: 
//  Filter Profile: human(46.1)
//  Option Flags: Orientation Smoother Disabled, Position/Velocity Smoother Disabled, Continuous Zero Rotation Update Disabled, AHS Disabled, ICC Disabled
// Coordinate system: ENU
PacketCounter	SampleTimeFine	Roll	Pitch	Yaw
51054		0.443800	-18.141485	-8.432962
51055		0.473712	-18.146500	-8.420817
51056		0.499123	-18.147890	-8.410146
51057		0.512234	-18.156396	-8.397282
51058		0.517144	-18.168856	-8.385472
51059		0.523538	-18.183189	-8.369971
51060		0.522562	-18.199491	-8.351044
51061		0.527552	-18.210923	-8.334036
51062		0.537502	-18.218383	-8.315740
51063		0.554866	-18.222329	-8.300236
51064		0.569590	-18.226269	-8.282939
51065		0.584170	-18.230047	-8.263572
51066		0.591207	-18.232934	-8.238255
51067		0.601037	-18.232652	-8.209692
51068		0.608172	-18.234059	-8.179979
51069		0.617887	-18.233121	-8.150328
51070		0.619532	-18.227277	-8.121677
51071		0.618189	-18.219698	-8.098215
51072		0.615793	-18.212498	-8.074252
51073		0.611096	-18.198503	-8.052289
51074		0.608923	-18.186359	-8.030706
51075		0.615475	-18.174932	-8.017541
51076		0.617794	-18.165877	-8.011214
51077		0.621463	-18.158425	-8.008323
51078		0.625887	-18.154548	-8.009066
51079		0.638445	-18.144200	-8.014680
51080		0.657219	-18.134496	-8.020846
51081		0.673843	-18.128307	-8.027673
51082		0.697547	-18.117379	-8.037013
51083		0.712967	-18.111195	-8.045079
51084		0.726387	-18.107935	-8.048608
51085		0.738578	-18.106871	-8.049227
51086		0.747523	-18.107036	-8.049537
51087		0.757486	-18.112432	-8.049257
51088		0.767505	-18.117429	-8.050243
51089		0.773083	-18.122858	-8.049322
51090		0.785963	-18.128267	-8.046550
51091		0.797848	-18.134893	-8.041628
51092		0.807811	-18.148992	-8.035263
51093		0.813836	-18.162148	-8.033162
51094		0.812541	-18.179811	-8.025597
51095		0.822133	-18.194518	-8.020339
51096		0.834021	-18.204104	-8.014138
51097		0.845717	-18.219078	-8.004776
51098		0.855313	-18.234648	-7.993017
51099		0.862999	-18.247731	-7.984092
51100		0.868176	-18.267102	-7.977705
51101		0.867262	-18.287075	-7.972437
51102		0.868201	-18.307758	-7.967075
51103		0.873657	-18.329440	-7.962523
51104		0.875242	-18.345595	-7.958341
51105		0.871074	-18.361565	-7.952596
51106		0.866113	-18.375214	-7.950193
51107		0.861186	-18.385912	-7.949268
51108		0.861600	-18.390787	-7.948185
51109		0.852282	-18.394146	-7.950526
51110		0.847599	-18.399593	-7.949185
51111		0.838213	-18.406315	-7.949017
51112		0.831208	-18.414597	-7.956266
51113		0.821987	-18.426252	-7.967735
51114		0.814807	-18.434106	-7.985693
51115		0.800601	-18.448960	-8.006850
51116		0.781995	-18.463282	-8.032256
51117		0.766187	-18.478208	-8.060264
51118		0.737784	-18.493169	-8.090689
51119		0.699875	-18.504047	-8.124107
51120		0.649507	-18.508471	-8.156978
51121		0.590736	-18.515276	-8.194589
51122		0.542046	-18.531124	-8.250310
51123		0.494248	-18.553642	-8.332426
51124		0.455521	-18.576429	-8.429867
51125		0.411194	-18.601003	-8.538501
51126		0.358353	-18.620066	-8.652746
51127		0.298406	-18.637443	-8.771637
51128		0.235783	-18.659299	-8.897799
51129		0.175451	-18.676540	-9.031766
51130		0.104187	-18.691386	-9.174545
51131		0.029231	-18.701284	-9.326940
51132		-0.052415	-18.707300	-9.490981
51133		-0.133806	-18.720511	-9.667990
51134		-0.211434	-18.731497	-9.859652
51135		-0.290788	-18.738286	-10.067033
51136		-0.369236	-18.748976	-10.291050
51137		-0.444780	-18.760894	-10.530696
51138		-0.528953	-18.769355	-10.785077
51139		-0.617414	-18.775144	-11.048743
51140		-0.702487	-18.783885	-11.325716
51141		-0.807667	-18.781783	-11.610408
51142		-0.925411	-18.766016	-11.900149
51143		-1.066838	-18.728228	-12.197266
51144		-1.198488	-18.699889	-12.506179
51145		-1.297571	-18.692324	-12.835737
51146		-1.379966	-18.694879	-13.189252
51147		-1.454026	-18.681802	-13.564040
51148		-1.532194	-18.647422	-13.955812
51149		-1.630770	-18.634862	-14.333563
51150		-1.728368	-18.609110	-14.714693
51151		-1.813292	-18.592895	-15.100141
51152		-1.920489	-18.550969	-15.485739
51153		-2.033551	-18.484277	-15.865484
51154		-2.157787	-18.412800	-16.243623
51155		-2.296160	-18.323249	-16.621172
51156		-2.452167	-18.227421	-17.002499
51157		-2.611103	-18.130123	-17.389164
51158		-2.788447	-18.008763	-17.779957
51159		-2.982819	-17.853739	-18.164334
51160		-3.180756	-17.698809	-18.542347
51161		-3.419061	-17.526922	-18.918429
51162		-3.673447	-17.340269	-19.292979
51163		-3.776583	-17.262801	-19.696687
51164		-3.828552	-17.207730	-20.118288
51165		-3.891310	-17.104748	-20.558805
51166		-3.971377	-17.000168	-20.999312
51167		-4.102320	-16.900591	-21.417101
51168		-4.279382	-16.742112	-21.829653
51169		-4.492146	-16.568612	-22.243403
51170		-4.631116	-16.412620	-22.661582
51171		-4.717987	-16.272148	-23.092559
51172		-4.750766	-16.151216	-23.543173
51173		-4.815798	-16.010579	-23.999075
51174		-4.933314	-15.820774	-24.452360
51175		-5.095712	-15.575188	-24.886718
51176		-5.303499	-15.285767	-25.298189
51177		-5.535417	-15.021677	-25.702619
51178		-5.642714	-14.849691	-26.129252
51179		-5.733160	-14.698789	-26.573198
51180		-5.856274	-14.531008	-27.035311
51181		-5.958550	-14.361095	-27.498242
51182		-6.089506	-14.160943	-27.953963
51183		-6.218715	-13.936618	-28.409727
51184		-6.368904	-13.714953	-28.861858
51185		-6.425873	-13.574935	-29.331457
51186		-6.420779	-13.459762	-29.817392
51187		-6.484740	-13.302495	-30.318419
51188		-6.525459	-13.152354	-30.824196
51189		-6.584003	-12.991921	-31.317339
51190		-6.697759	-12.796280	-31.800726
51191		-6.797493	-12.595023	-32.281833
51192		-6.905523	-12.407469	-32.745796
51193		-7.030168	-12.223441	-33.192920
51194		-7.173956	-12.010148	-33.647413
51195		-7.322418	-11.811288	-34.109503
51196		-7.398243	-11.663948	-34.574783
51197		-7.429670	-11.538768	-35.046061
51198		-7.483176	-11.395979	-35.515657
51199		-7.512793	-11.260567	-35.972597
51200		-7.548441	-11.106360	-36.415163
51201		-7.631307	-10.942555	-36.861411
51202		-7.713225	-10.805966	-37.300612
51203		-7.686736	-10.708328	-37.719595
51204		-7.670667	-10.637243	-38.152010
51205		-7.591131	-10.612866	-38.601289
51206		-7.556296	-10.552887	-39.047786
51207		-7.548061	-10.475767	-39.480455
51208		-7.536642	-10.384884	-39.904506
51209		-7.549007	-10.270289	-40.315439
51210		-7.636779	-10.115367	-40.721123
51211		-7.738625	-9.954697	-41.120223
51212		-7.845620	-9.827343	-41.526705
51213		-7.890673	-9.739252	-41.944872
51214		-7.933242	-9.630776	-42.362929
51215		-7.994800	-9.523495	-42.770889
51216		-8.072192	-9.412555	-43.175847
51217		-8.147225	-9.313863	-43.568112
51218		-8.228367	-9.224997	-43.954603
51219		-8.293738	-9.148173	-44.338689
51220		-8.329542	-9.068222	-44.712388
51221		-8.369886	-8.980711	-45.080821
51222		-8.418483	-8.870440	-45.445106
51223		-8.477468	-8.743682	-45.810063
51224		-8.567440	-8.613889	-46.179326
51225		-8.671226	-8.493200	-46.548870
51226		-8.734474	-8.394817	-46.916860
51227		-8.764455	-8.313318	-47.288477
51228		-8.781848	-8.239071	-47.654372
51229		-8.787297	-8.168966	-48.007224
51230		-8.788427	-8.105488	-48.348362
51231		-8.773006	-8.041720	-48.684820
51232		-8.755026	-7.955589	-49.040442
51233		-8.733304	-7.868493	-49.424355
51234		-8.726043	-7.797260	-49.813012
51235		-8.686454	-7.749922	-50.189387
51236		-8.605105	-7.711553	-50.559522
51237		-8.519596	-7.680179	-50.918788
51238		-8.438529	-7.671732	-51.271123
51239		-8.352840	-7.679554	-51.620902
51240		-8.259919	-7.684708	-51.970936
51241		-8.163560	-7.701211	-52.322929
51242		-8.055703	-7.721445	-52.667063
51243		-7.964544	-7.742320	-53.003350
51244		-7.884208	-7.766465	-53.327945
51245		-7.811640	-7.790455	-53.643567
51246		-7.743113	-7.822953	-53.950184
51247		-7.678398	-7.862898	-54.252725
51248		-7.600610	-7.905305	-54.549395
51249		-7.518325	-7.943783	-54.848146
51250		-7.434183	-7.981446	-55.145685
51251		-7.341736	-8.022034	-55.440038
51252		-7.249531	-8.066807	-55.735391
51253		-7.154865	-8.120929	-56.034298
51254		-7.071215	-8.178765	-56.335141
51255		-7.003943	-8.223547	-56.638826
51256		-6.937967	-8.270247	-56.942010
51257		-6.870274	-8.318031	-57.242131
51258		-6.800294	-8.372026	-57.540259
51259		-6.723879	-8.422753	-57.832162
51260		-6.647880	-8.482183	-58.124333
51261		-6.567488	-8.542732	-58.415184
51262		-6.482495	-8.603399	-58.706072
51263		-6.399468	-8.666123	-58.994183
51264		-6.340244	-8.718761	-59.281442
51265		-6.295494	-8.774779	-59.567090
51266		-6.227443	-8.831404	-59.847878
51267		-6.160075	-8.887574	-60.123889
51268		-6.095951	-8.941636	-60.397425
51269		-6.028847	-9.005441	-60.660849
51270		-5.956446	-9.074540	-60.919214
51271		-5.878772	-9.148163	-61.168944
51272		-5.807459	-9.214368	-61.414280
51273		-5.737413	-9.275175	-61.649817
51274		-5.670850	-9.338974	-61.879529
51275		-5.610889	-9.405339	-62.098754
51276		-5.557268	-9.468026	-62.316962
51277		-5.499611	-9.533513	-62.531443
51278		-5.451561	-9.607531	-62.739393
51279		-5.413111	-9.681930	-62.940927
51280		-5.374353	-9.757853	-63.128906
51281		-5.334556	-9.831217	-63.305764
51282		-5.309518	-9.898717	-63.469902
51283		-5.296637	-9.954700	-63.624871
51284		-5.295548	-10.001897	-63.773271
51285		-5.307866	-10.050718	-63.909930
51286		-5.321174	-10.104246	-64.039272
51287		-5.325780	-10.158435	-64.154780
51288		-5.328376	-10.214626	-64.264415
51289		-5.321119	-10.263701	-64.373893
51290		-5.321313	-10.314798	-64.472596
51291		-5.312620	-10.366982	-64.561789
51292		-5.299438	-10.413502	-64.648374
51293		-5.293765	-10.450555	-64.732050
51294		-5.293758	-10.495741	-64.809963
51295		-5.285263	-10.535644	-64.880055
51296		-5.269148	-10.575421	-64.944802
51297		-5.250678	-10.616230	-65.003776
51298		-5.224591	-10.661391	-65.056718
51299		-5.201632	-10.700800	-65.101509
51300		-5.188716	-10.738343	-65.138780
51301		-5.187801	-10.773031	-65.173810
51302		-5.183175	-10.798475	-65.208176
51303		-5.190269	-10.820599	-65.239661
51304		-5.193464	-10.843363	-65.268596
51305		-5.195075	-10.865697	-65.293335
51306		-5.193910	-10.889718	-65.315251
51307		-5.185549	-10.914805	-65.333296
51308		-5.182450	-10.933326	-65.354458
51309		-5.174408	-10.954980	-65.371200
51310		-5.165159	-10.976102	-65.388953
51311		-5.164358	-10.990108	-65.407260
51312		-5.168616	-10.999096	-65.425568
51313		-5.176183	-11.006505	-65.445159
51314		-5.190741	-11.003239	-65.467268
51315		-5.208328	-10.998528	-65.487395
51316		-5.214700	-10.995459	-65.504485
51317		-5.223822	-10.991073	-65.516334
51318		-5.230353	-10.994012	-65.522676
51319		-5.228307	-11.006388	-65.528284
51320		-5.219338	-11.019830	-65.535241
51321		-5.217254	-11.036695	-65.540151
51322		-5.214238	-11.050288	-65.542146
51323		-5.205149	-11.063865	-65.542463
51324		-5.175221	-11.078839	-65.539300
51325		-5.142111	-11.093493	-65.530599
51326		-5.113383	-11.108043	-65.514698
51327		-5.084431	-11.117475	-65.490084
51328		-5.065191	-11.122622	-65.457663
51329		-5.053559	-11.127113	-65.417585
51330		-5.039485	-11.133041	-65.375826
51331		-5.015761	-11.151387	-65.325366
51332		-5.008819	-11.160944	-65.267825
51333		-4.991060	-11.164839	-65.204149
51334		-4.968699	-11.161573	-65.130190
51335		-4.949355	-11.149488	-65.042310
51336		-4.941413	-11.129580	-64.943374
51337		-4.937340	-11.103225	-64.837319
51338		-4.926517	-11.084909	-64.724639
51339		-4.920657	-11.058337	-64.607547
51340		-4.929247	-11.031843	-64.480065
51341		-4.935061	-11.009735	-64.344787
51342		-4.931472	-10.986502	-64.203854
51343		-4.921550	-10.964298	-64.060715
51344		-4.907971	-10.940817	-63.911733
51345		-4.896365	-10.913555	-63.753944
51346		-4.883527	-10.893586	-63.586557
51347		-4.866976	-10.872115	-63.408019
51348		-4.853067	-10.845600	-63.225412
51349		-4.837000	-10.817583	-63.035140
51350		-4.808940	-10.804320	-62.836252
51351		-4.764858	-10.800387	-62.628268
51352		-4.717497	-10.810157	-62.410262
51353		-4.670083	-10.819375	-62.183868
51354		-4.631643	-10.826298	-61.946544
51355		-4.602853	-10.846091	-61.693774
51356		-4.556002	-10.894870	-61.426461
51357		-4.489211	-10.971661	-61.137789
51358		-4.420977	-11.052226	-60.834701
51359		-4.371806	-11.124788	-60.520264
51360		-4.340390	-11.176895	-60.199632
51361		-4.332675	-11.201162	-59.872340
51362		-4.346585	-11.217057	-59.537226
51363		-4.355519	-11.235043	-59.198457
51364		-4.371861	-11.252432	-58.852829
51365		-4.395783	-11.266309	-58.496537
51366		-4.417581	-11.278667	-58.129066
51367		-4.454445	-11.276856	-57.754689
51368		-4.510080	-11.259019	-57.365185
51369		-4.546419	-11.256161	-56.966708
51370		-4.576743	-11.238804	-56.563146
51371		-4.626221	-11.220983	-56.153308
51372		-4.679544	-11.212673	-55.732353
51373		-4.751387	-11.199327	-55.300345
51374		-4.849220	-11.178712	-54.856711
51375		-4.939331	-11.165213	-54.401031
51376		-5.001815	-11.162563	-53.940247
51377		-5.070674	-11.138397	-53.472094
51378		-5.188286	-11.099506	-52.995307
51379		-5.326559	-11.051001	-52.507880
51380		-5.471477	-10.995732	-52.016664
51381		-5.646280	-10.926007	-51.525601
51382		-5.825063	-10.851501	-51.029911
51383		-6.011671	-10.765239	-50.540241
51384		-6.194051	-10.682982	-50.051837
51385		-6.386639	-10.583619	-49.569969
51386		-6.562104	-10.503326	-49.081575
51387		-6.736217	-10.438226	-48.594912
51388		-6.886706	-10.384192	-48.118574
51389		-6.981625	-10.358455	-47.639110
51390		-7.063547	-10.358846	-47.154620
51391		-7.112961	-10.375174	-46.674502
51392		-7.061304	-10.423388	-46.203491
51393		-6.969306	-10.505495	-45.737560
51394		-6.831292	-10.608151	-45.272418
51395		-6.690015	-10.753146	-44.802459
51396		-6.538879	-10.924260	-44.321042
51397		-6.471298	-11.060095	-43.829801
51398		-6.407182	-11.190197	-43.327482
51399		-6.346340	-11.322155	-42.818729
51400		-6.277657	-11.445458	-42.302356
51401		-6.201772	-11.574334	-41.772681
51402		-6.129118	-11.715961	-41.232720
51403		-6.066923	-11.864210	-40.689545
51404		-5.980320	-12.011942	-40.161815
51405		-5.861916	-12.172163	-39.651386
51406		-5.750254	-12.357299	-39.140037
51407		-5.658046	-12.551424	-38.617298
51408		-5.604750	-12.756217	-38.084240
51409		-5.545874	-12.946211	-37.542864
51410		-5.432666	-13.161749	-36.984739
51411		-5.319612	-13.362398	-36.409598
51412		-5.212523	-13.554819	-35.827590
51413		-5.087152	-13.747970	-35.250600
51414		-4.923390	-13.955763	-34.684589
51415		-4.733372	-14.162295	-34.144134
51416		-4.537750	-14.385214	-33.618550
51417		-4.342499	-14.617567	-33.085776
51418		-4.143049	-14.832760	-32.536843
51419		-3.945274	-15.044949	-31.970151
51420		-3.787121	-15.233035	-31.397694
51421		-3.618798	-15.412671	-30.837765
51422		-3.444948	-15.584911	-30.293355
51423		-3.280212	-15.754400	-29.760642
51424		-3.133218	-15.929151	-29.231160
51425		-2.979982	-16.092495	-28.701857
51426		-2.834331	-16.259830	-28.165425
51427		-2.695710	-16.413034	-27.628272
51428		-2.559247	-16.561829	-27.093641
51429		-2.424209	-16.707406	-26.565356
51430		-2.284296	-16.862729	-26.044278
51431		-2.166131	-17.037575	-25.530857
51432		-2.076486	-17.206558	-25.025336
51433		-1.972354	-17.370494	-24.530238
51434		-1.883961	-17.518424	-24.043749
51435		-1.772877	-17.664221	-23.576708
51436		-1.660060	-17.849935	-23.103504
51437		-1.594966	-18.040343	-22.617749
51438		-1.561655	-18.223017	-22.109813
51439		-1.557412	-18.448564	-21.571251
51440		-1.563488	-18.661935	-21.025182
51441		-1.551504	-18.863780	-20.488595
51442		-1.547927	-19.027950	-19.982907
51443		-1.517867	-19.172650	-19.502345
51444		-1.465367	-19.305907	-19.033548
51445		-1.399926	-19.451172	-18.571683
51446		-1.351028	-19.595567	-18.115457
51447		-1.296082	-19.718126	-17.670741
51448		-1.220717	-19.843329	-17.236690
51449		-1.144737	-19.951254	-16.816377
51450		-1.085214	-20.047220	-16.409966
51451		-1.009129	-20.143103	-16.027391
51452		-0.917582	-20.247182	-15.677540
51453		-0.832618	-20.321252	-15.350826
51454		-0.722466	-20.393997	-15.036426
51455		-0.610197	-20.473404	-14.710326
51456		-0.497580	-20.555139	-14.375864
51457		-0.393581	-20.643149	-14.043255
51458		-0.296543	-20.725860	-13.720887
51459		-0.199953	-20.812081	-13.407886
51460		-0.106608	-20.878992	-13.107531
51461		-0.006985	-20.939831	-12.808213
51462		0.081495	-21.004794	-12.508831
51463		0.166431	-21.070976	-12.208796
51464		0.252577	-21.135992	-11.921119
51465		0.327983	-21.187237	-11.651093
51466		0.397815	-21.227967	-11.387556
51467		0.458393	-21.248057	-11.131843
51468		0.512175	-21.275147	-10.895056
51469		0.582329	-21.294924	-10.683064
51470		0.656746	-21.299721	-10.484924
51471		0.728494	-21.311764	-10.297269
51472		0.808634	-21.334362	-10.109731
51473		0.880941	-21.364209	-9.923308
51474		0.950033	-21.387452	-9.739167
51475		1.001861	-21.411391	-9.560625
51476		1.042819	-21.432171	-9.401575
51477		1.091125	-21.448183	-9.260385
51478		1.128946	-21.455847	-9.127108
51479		1.155116	-21.463870	-8.993094
51480		1.185990	-21.459851	-8.860317
51481		1.217385	-21.450813	-8.734443
51482		1.253896	-21.445717	-8.615430
51483		1.292510	-21.432768	-8.509481
51484		1.315834	-21.420020	-8.411700
51485		1.349249	-21.398954	-8.324044
51486		1.386270	-21.363484	-8.244544
51487		1.427398	-21.327651	-8.160463
51488		1.455956	-21.283448	-8.065804
51489		1.482878	-21.239290	-7.963349
51490		1.507452	-21.199941	-7.863994
51491		1.515275	-21.165673	-7.771394
51492		1.519386	-21.143664	-7.684768
51493		1.525671	-21.129173	-7.609880
51494		1.541466	-21.112688	-7.550791
51495		1.556852	-21.090357	-7.504019
51496		1.583895	-21.072487	-7.465398
51497		1.608490	-21.060087	-7.430339
51498		1.630946	-21.053768	-7.400526
51499		1.665357	-21.042751	-7.374067
51500		1.690699	-21.030162	-7.351769
51501		1.700909	-21.015783	-7.332386
51502		1.706448	-21.010962	-7.327511
51503		1.720698	-21.009561	-7.330413
51504		1.734737	-21.007052	-7.338468
51505		1.748855	-20.996855	-7.341175
51506		1.751672	-20.981121	-7.336885
51507		1.748681	-20.956541	-7.332854
51508		1.740784	-20.936750	-7.347358
51509		1.734779	-20.929653	-7.380907
51510		1.752018	-20.925981	-7.429018
51511		1.780282	-20.923243	-7.484489
51512		1.819167	-20.911732	-7.542848
51513		1.865289	-20.904883	-7.602329
51514		1.906204	-20.889337	-7.652314
51515		1.955932	-20.865897	-7.696839
51516		1.990362	-20.847319	-7.726608
51517		2.019544	-20.825991	-7.751167
51518		2.047156	-20.810322	-7.767532
51519		2.079955	-20.801688	-7.779771
51520		2.116786	-20.796032	-7.785372
51521		2.154125	-20.790459	-7.786422
51522		2.185871	-20.777453	-7.783106
51523		2.203043	-20.769725	-7.771033
51524		2.213931	-20.753512	-7.754380
51525		2.225112	-20.738323	-7.732604
51526		2.233358	-20.720144	-7.713071
51527		2.237923	-20.699483	-7.695572
51528		2.235958	-20.679440	-7.681462
51529		2.222953	-20.652851	-7.667737
51530		2.202741	-20.624174	-7.656651
51531		2.185503	-20.591041	-7.651026
51532		2.172814	-20.553992	-7.651355
51533		2.153657	-20.521435	-7.656722
51534		2.126003	-20.495130	-7.661409
51535		2.079031	-20.471146	-7.664859
51536		2.022661	-20.441101	-7.669271
51537		1.974278	-20.416512	-7.682301
51538		1.932970	-20.387675	-7.702536
51539		1.902945	-20.360916	-7.732242
51540		1.874576	-20.335765	-7.763009
51541		1.843015	-20.311013	-7.792878
51542		1.803387	-20.291399	-7.816954
51543		1.751909	-20.270045	-7.832980
51544		1.691170	-20.247438	-7.842280
51545		1.622329	-20.217719	-7.845573
51546		1.540029	-20.181025	-7.844074
51547		1.460699	-20.139093	-7.854363
51548		1.410724	-20.083542	-7.900991
51549		1.387601	-20.034114	-7.973446
51550		1.374929	-20.000551	-8.045865
51551		1.363046	-19.977354	-8.112320
51552		1.340646	-19.968471	-8.168197
51553		1.294562	-19.956678	-8.213862
51554		1.230104	-19.944200	-8.247705
51555		1.173307	-19.931922	-8.283663
51556		1.135403	-19.923904	-8.334310
51557		1.090879	-19.910908	-8.392533
51558		1.043201	-19.890065	-8.462992
51559		1.001991	-19.875234	-8.541560
51560		0.961823	-19.868963	-8.623654
51561		0.924925	-19.867124	-8.705635
51562		0.888870	-19.865776	-8.784734
51563		0.842673	-19.858266	-8.861580
51564		0.771909	-19.853332	-8.925485
51565		0.681786	-19.843890	-8.990951
51566		0.598428	-19.837622	-9.070935
51567		0.524282	-19.824586	-9.170246
51568		0.446328	-19.809111	-9.280158
51569		0.364196	-19.798470	-9.400565
51570		0.285330	-19.788832	-9.522469
51571		0.214652	-19.776604	-9.644562
51572		0.142359	-19.758584	-9.764214
51573		0.063002	-19.732863	-9.881528
51574		-0.025223	-19.693053	-9.990810
51575		-0.117493	-19.645667	-10.101796
51576		-0.214625	-19.590788	-10.217453
51577		-0.329983	-19.531628	-10.335833
51578		-0.456362	-19.451101	-10.462736
51579		-0.561230	-19.376130	-10.603472
51580		-0.662784	-19.304475	-10.759021
51581		-0.758506	-19.232921	-10.926900
51582		-0.864069	-19.162264	-11.106714
51583		-0.983844	-19.093925	-11.292577
51584		-1.120603	-19.025775	-11.486515
51585		-1.269971	-18.957960	-11.692356
51586		-1.415231	-18.887989	-11.911368
51587		-1.550261	-18.818632	-12.142937
51588		-1.707748	-18.744061	-12.378849
51589		-1.871135	-18.664373	-12.623410
51590		-1.979577	-18.606060	-12.888868
51591		-2.070350	-18.569788	-13.174622
51592		-2.170536	-18.523071	-13.474041
51593		-2.273937	-18.478248	-13.778909
51594		-2.372795	-18.445855	-14.082388
51595		-2.520585	-18.381641	-14.386131
51596		-2.723299	-18.306531	-14.679307
51597		-2.933076	-18.239506	-14.976618
51598		-3.115686	-18.172292	-15.283516
51599		-3.255506	-18.120013	-15.613954
51600		-3.368394	-18.063179	-15.961410
51601		-3.544431	-17.972619	-16.310988
51602		-3.780223	-17.854531	-16.654140
51603		-4.037360	-17.725246	-16.987408
51604		-4.288152	-17.598434	-17.322352
51605		-4.540806	-17.475214	-17.665070
51606		-4.717966	-17.388363	-18.022210
51607		-4.823403	-17.325834	-18.389695
51608		-4.955330	-17.236833	-18.771057
51609		-5.133693	-17.148333	-19.151925
51610		-5.323850	-17.056015	-19.528144
51611		-5.541116	-16.954531	-19.909716
51612		-5.678361	-16.876410	-20.301994
51613		-5.689849	-16.840580	-20.722281
51614		-5.706488	-16.805598	-21.162900
51615		-5.748941	-16.765866	-21.615255
51616		-5.835406	-16.713535	-22.067821
51617		-5.945715	-16.660434	-22.518363
51618		-6.027735	-16.621171	-22.971477
51619		-6.069760	-16.583460	-23.429084
51620		-6.058640	-16.575316	-23.895048
51621		-6.036493	-16.567888	-24.378609
51622		-6.045506	-16.543286	-24.872473
51623		-6.076164	-16.504404	-25.369623
51624		-6.118296	-16.447604	-25.863694
51625		-6.158898	-16.383170	-26.358167
51626		-6.218454	-16.299688	-26.853413
51627		-6.294205	-16.233085	-27.345534
51628		-6.319870	-16.186452	-27.854095
51629		-6.338081	-16.142234	-28.367196
51630		-6.399707	-16.087111	-28.873736
51631		-6.446679	-16.025741	-29.381835
51632		-6.483262	-15.951732	-29.890338
51633		-6.562706	-15.860175	-30.391234
51634		-6.696542	-15.747485	-30.881034
51635		-6.829746	-15.625582	-31.364374
51636		-6.962985	-15.471466	-31.850232
51637		-7.109718	-15.300597	-32.334090
51638		-7.281133	-15.131382	-32.809592
51639		-7.431222	-14.974763	-33.280428
51640		-7.493915	-14.868031	-33.773900
51641		-7.386618	-14.844678	-34.300515
51642		-7.243322	-14.843625	-34.848978
51643		-7.115231	-14.837391	-35.408487
51644		-6.972859	-14.847585	-35.963092
51645		-6.807189	-14.853564	-36.507415
51646		-6.700833	-14.825398	-37.045059
51647		-6.640049	-14.790521	-37.569272
51648		-6.601185	-14.738998	-38.085483
51649		-6.600765	-14.660531	-38.601660
51650		-6.632041	-14.581837	-39.112782
51651		-6.651502	-14.503295	-39.630533
51652		-6.689692	-14.404378	-40.154933
51653		-6.750563	-14.306118	-40.679941
51654		-6.802071	-14.209378	-41.209246
51655		-6.876360	-14.127078	-41.743575
51656		-6.957623	-14.056985	-42.277145
51657		-6.991767	-14.004067	-42.806582
51658		-6.984433	-13.957461	-43.325932
51659		-6.988395	-13.895249	-43.831409
51660		-7.016101	-13.817597	-44.326479
51661		-7.049168	-13.728628	-44.812179
51662		-7.099467	-13.628306	-45.291373
51663		-7.192257	-13.528724	-45.765510
51664		-7.284589	-13.415423	-46.247923
51665		-7.376845	-13.311727	-46.720689
51666		-7.476612	-13.215365	-47.189940
51667		-7.539889	-13.138852	-47.648841
51668		-7.592369	-13.076107	-48.100596
51669		-7.614287	-13.026800	-48.564660
51670		-7.570157	-13.009115	-49.027553
51671		-7.512802	-13.003405	-49.482788
51672		-7.476424	-12.987614	-49.929305
51673		-7.473228	-12.973453	-50.360307
51674		-7.471442	-12.965646	-50.773943
51675		-7.457900	-12.965794	-51.174792
51676		-7.464167	-12.955840	-51.579450
51677		-7.501714	-12.953785	-51.989942
51678		-7.528384	-12.953239	-52.394679
51679		-7.567131	-12.949190	-52.794465
51680		-7.624381	-12.958955	-53.183031
51681		-7.659597	-12.967851	-53.558010
51682		-7.708008	-12.971589	-53.930824
51683		-7.758074	-12.985202	-54.296169
51684		-7.818233	-13.015031	-54.659994
51685		-7.880678	-13.032910	-55.034500
51686		-7.927215	-13.031216	-55.436967
51687		-7.961874	-13.070444	-55.827348
51688		-7.950067	-13.111854	-56.226925
51689		-7.943469	-13.148366	-56.622624
51690		-7.946303	-13.177974	-56.991944
51691		-7.960986	-13.217796	-57.339887
51692		-7.976660	-13.264623	-57.680256
51693		-7.978570	-13.310122	-58.016937
51694		-7.973093	-13.357271	-58.347190
51695		-7.973100	-13.411262	-58.672469
51696		-7.985551	-13.468282	-58.990913
51697		-8.005932	-13.531010	-59.308048
51698		-8.002530	-13.608423	-59.611710
51699		-7.974433	-13.705589	-59.904449
51700		-7.921373	-13.797402	-60.195413
51701		-7.834729	-13.877058	-60.500065
51702		-7.748680	-13.929939	-60.828558
51703		-7.662569	-13.976241	-61.165471
51704		-7.546352	-14.036275	-61.490898
51705		-7.440783	-14.081323	-61.806880
51706		-7.361779	-14.128320	-62.110039
51707		-7.297502	-14.170785	-62.402156
51708		-7.244030	-14.217458	-62.678984
51709		-7.195311	-14.263890	-62.953813
51710		-7.154887	-14.305327	-63.214536
51711		-7.110050	-14.339779	-63.462542
51712		-7.075407	-14.373430	-63.696961
51713		-7.057102	-14.389561	-63.919541
51714		-7.066745	-14.389573	-64.134598
51715		-7.085474	-14.378627	-64.341409
51716		-7.105159	-14.369636	-64.536538
51717		-7.131355	-14.359119	-64.720923
51718		-7.159863	-14.341775	-64.895417
51719		-7.175947	-14.338112	-65.064935
51720		-7.181316	-14.332161	-65.226119
51721		-7.193311	-14.328959	-65.379097
51722		-7.208442	-14.324701	-65.523283
51723		-7.231696	-14.315821	-65.661157
51724		-7.240810	-14.316908	-65.788858
51725		-7.246903	-14.309265	-65.908733
51726		-7.250753	-14.308981	-66.019582
51727		-7.254506	-14.305732	-66.120205
51728		-7.258036	-14.304808	-66.208465
51729		-7.256714	-14.304967	-66.285500
51730		-7.266610	-14.295957	-66.354419
51731		-7.284087	-14.290093	-66.410941
51732		-7.303817	-14.283372	-66.459109
51733		-7.325114	-14.276487	-66.504091
51734		-7.325846	-14.276433	-66.547008
51735		-7.314215	-14.277782	-66.586281
51736		-7.289251	-14.284513	-66.624535
51737		-7.258976	-14.288459	-66.659954
51738		-7.233590	-14.287556	-66.694821
51739		-7.206743	-14.289419	-66.724048
51740		-7.161931	-14.297660	-66.752146
51741		-7.107193	-14.301848	-66.774389
51742		-7.102236	-14.302733	-66.782471
51743		-7.086686	-14.294527	-66.792967
51744		-7.081895	-14.301717	-66.794437
51745		-7.082589	-14.300357	-66.788298
51746		-7.092895	-14.309733	-66.773687
51747		-7.102761	-14.309969	-66.754316
51748		-7.101627	-14.320509	-66.730289
51749		-7.096069	-14.328797	-66.702502
51750		-7.096199	-14.335135	-66.672862
51751		-7.089462	-14.338775	-66.642329
51752		-7.089608	-14.340710	-66.606861
51753		-7.080764	-14.339114	-66.567902
51754		-7.052016	-14.343751	-66.525842
51755		-6.998527	-14.359170	-66.476688
51756		-6.942257	-14.373142	-66.418339
51757		-6.879079	-14.388084	-66.352242
51758		-6.802760	-14.403996	-66.270540
51759		-6.720179	-14.416646	-66.180310
51760		-6.634144	-14.423570	-66.076570
51761		-6.552314	-14.413037	-65.959888
51762		-6.480117	-14.396752	-65.833950
51763		-6.426711	-14.379575	-65.698175
51764		-6.371910	-14.368527	-65.562769
51765		-6.338538	-14.339931	-65.423791
51766		-6.337049	-14.298766	-65.267669
51767		-6.336655	-14.256122	-65.098350
51768		-6.312175	-14.209578	-64.923338
51769		-6.282826	-14.175846	-64.739096
51770		-6.222293	-14.163428	-64.538908
51771		-6.139074	-14.156704	-64.326522
51772		-6.060874	-14.157861	-64.097525
51773		-5.995487	-14.147904	-63.851507
51774		-5.961710	-14.121625	-63.586463
51775		-5.960057	-14.085829	-63.303395
51776		-5.963076	-14.040637	-63.000818
51777		-5.977702	-13.993775	-62.680795
51778		-6.007434	-13.956935	-62.343918
51779		-6.037826	-13.923195	-61.990876
51780		-6.075871	-13.886266	-61.619896
51781		-6.108858	-13.857090	-61.235375
51782		-6.096374	-13.845828	-60.856544
51783		-6.075363	-13.830745	-60.478629
51784		-6.072037	-13.814655	-60.087292
51785		-6.083457	-13.802435	-59.677131
51786		-6.100834	-13.790575	-59.262069
51787		-6.147574	-13.770414	-58.838774
51788		-6.212785	-13.752964	-58.406322
51789		-6.270549	-13.741682	-57.960677
51790		-6.287035	-13.748344	-57.504488
51791		-6.296770	-13.746739	-57.044237
51792		-6.349712	-13.726656	-56.584581
51793		-6.421433	-13.706515	-56.112089
51794		-6.475243	-13.690546	-55.625182
51795		-6.557337	-13.664937	-55.112907
51796		-6.636177	-13.663883	-54.618723
51797		-6.665847	-13.693776	-54.136441
51798		-6.667851	-13.722485	-53.651237
51799		-6.705802	-13.726531	-53.164026
51800		-6.758534	-13.734121	-52.666728
51801		-6.801121	-13.737476	-52.162728
51802		-6.851823	-13.731309	-51.660270
51803		-6.916918	-13.718219	-51.162743
51804		-7.000538	-13.694022	-50.680313
51805		-7.076619	-13.707154	-50.199775
51806		-7.154584	-13.721259	-49.714892
51807		-7.263925	-13.717715	-49.214000
51808		-7.366679	-13.724927	-48.683403
51809		-7.482020	-13.716063	-48.143026
51810		-7.603382	-13.704234	-47.589627
51811		-7.703623	-13.713938	-47.012530
51812		-7.797888	-13.738180	-46.423265
51813		-7.880474	-13.764620	-45.827284
51814		-7.949622	-13.800877	-45.230865
51815		-8.001601	-13.850949	-44.624846
51816		-8.038829	-13.903709	-44.022055
51817		-8.056009	-13.967267	-43.415055
51818		-8.106888	-14.028948	-42.806071
51819		-8.170274	-14.090542	-42.200441
51820		-8.194957	-14.186351	-41.586556
51821		-8.223815	-14.270555	-40.973612
51822		-8.254865	-14.340553	-40.373342
51823		-8.291730	-14.414641	-39.784736
51824		-8.275232	-14.507706	-39.204686
51825		-8.247003	-14.598580	-38.646952
51826		-8.196051	-14.716226	-38.118212
51827		-8.143836	-14.857272	-37.604772
51828		-8.105043	-15.006576	-37.088297
51829		-8.048605	-15.168036	-36.557860
51830		-8.021768	-15.304774	-36.017846
51831		-7.971614	-15.449082	-35.473233
51832		-7.905716	-15.597916	-34.927934
51833		-7.829299	-15.740184	-34.395972
51834		-7.758976	-15.869482	-33.886008
51835		-7.687152	-16.006685	-33.386281
51836		-7.615131	-16.134726	-32.891880
51837		-7.550536	-16.248929	-32.388117
51838		-7.450150	-16.369405	-31.872855
51839		-7.388264	-16.479255	-31.346272
51840		-7.358281	-16.570434	-30.820081
51841		-7.329813	-16.661849	-30.301071
51842		-7.313512	-16.748072	-29.785788
51843		-7.281343	-16.829711	-29.274046
51844		-7.244691	-16.911577	-28.762898
51845		-7.220179	-16.962142	-28.256352
51846		-7.172829	-17.026837	-27.763362
51847		-7.157628	-17.106437	-27.263399
51848		-7.128263	-17.189002	-26.752163
51849		-7.122953	-17.258252	-26.237811
51850		-7.110547	-17.321653	-25.724767
51851		-7.079564	-17.388188	-25.221384
51852		-7.035944	-17.463861	-24.725152
51853		-7.009709	-17.542657	-24.237146
51854		-6.960504	-17.622755	-23.759117
51855		-6.901253	-17.703970	-23.293096
51856		-6.819945	-17.790560	-22.833241
51857		-6.770029	-17.865768	-22.367082
51858		-6.717701	-17.956647	-21.896253
51859		-6.658646	-18.038081	-21.425281
51860		-6.615746	-18.131269	-20.962353
51861		-6.555319	-18.238457	-20.514768
51862		-6.479326	-18.362698	-20.088659
51863		-6.400749	-18.484065	-19.674121
51864		-6.323975	-18.599400	-19.266625
51865		-6.247309	-18.707922	-18.858733
51866		-6.167391	-18.842445	-18.445634
51867		-6.090660	-18.963371	-18.034130
51868		-6.014476	-19.087602	-17.625891
51869		-5.938389	-19.209050	-17.226760
51870		-5.863731	-19.348551	-16.829563
51871		-5.770756	-19.478943	-16.443706
51872		-5.688503	-19.608290	-16.064822
51873		-5.608335	-19.745410	-15.692615
51874		-5.538696	-19.862408	-15.331285
51875		-5.451037	-19.964226	-14.979371
51876		-5.350738	-20.066610	-14.633500
51877		-5.219747	-20.165313	-14.296900
51878		-5.101385	-20.273843	-13.957733
51879		-4.994568	-20.379777	-13.620711
51880		-4.867919	-20.486939	-13.287880
51881		-4.745912	-20.572220	-12.961218
51882		-4.642801	-20.659374	-12.637125
51883		-4.535382	-20.745593	-12.316898
51884		-4.426487	-20.830932	-12.007376
51885		-4.305059	-20.904984	-11.700216
51886		-4.216615	-20.989928	-11.378292
51887		-4.147604	-21.073436	-11.039913
51888		-4.151858	-21.158519	-10.675202
51889		-4.192264	-21.241884	-10.315995
51890		-4.262826	-21.299697	-9.986055
51891		-4.277226	-21.345635	-9.695095
51892		-4.280865	-21.369201	-9.430972
51893		-4.296555	-21.398552	-9.168655
51894		-4.312167	-21.424616	-8.914199
51895		-4.331400	-21.458810	-8.664734
51896		-4.343952	-21.469038	-8.436760
51897		-4.353703	-21.469391	-8.237810
51898		-4.343186	-21.463642	-8.069334
51899		-4.305037	-21.465822	-7.917531
51900		-4.275040	-21.476163	-7.768955
51901		-4.245087	-21.485859	-7.618847
51902		-4.231228	-21.499067	-7.467928
51903		-4.213980	-21.506758	-7.330471
51904		-4.190952	-21.517253	-7.208292
51905		-4.157682	-21.524772	-7.096529
51906		-4.116015	-21.527986	-6.986880
51907		-4.087364	-21.541178	-6.879949
51908		-4.057848	-21.553677	-6.777065
51909		-4.029731	-21.554387	-6.681375
51910		-3.987095	-21.557182	-6.596497
51911		-3.944020	-21.560239	-6.514905
51912		-3.913224	-21.569490	-6.434894
51913		-3.896072	-21.576865	-6.355450
51914		-3.886202	-21.568751	-6.278101
51915		-3.864523	-21.556391	-6.208484
51916		-3.841533	-21.535779	-6.153996
51917		-3.810426	-21.535218	-6.112713
51918		-3.770898	-21.543949	-6.082743
51919		-3.741187	-21.562653	-6.057402
51920		-3.719704	-21.571224	-6.031967
51921		-3.719294	-21.581476	-5.998493
51922		-3.736933	-21.594491	-5.960392
51923		-3.757714	-21.608646	-5.931376
51924		-3.748248	-21.612559	-5.913436
51925		-3.730728	-21.615726	-5.908853
51926		-3.703983	-21.622901	-5.909224
51927		-3.680337	-21.644581	-5.913723
51928		-3.659099	-21.666241	-5.921243
51929		-3.658236	-21.686268	-5.925339
51930		-3.671933	-21.703725	-5.923408
51931		-3.685487	-21.710634	-5.915282
51932		-3.685340	-21.716791	-5.917313
51933		-3.663704	-21.713005	-5.926960
51934		-3.634219	-21.695988	-5.945852
51935		-3.599139	-21.675970	-5.964906
51936		-3.566959	-21.669455	-5.980238
51937		-3.539484	-21.662061	-5.992234
51938		-3.512250	-21.660449	-6.000636
51939		-3.484113	-21.657001	-6.007842
51940		-3.458538	-21.649388	-6.005571
51941		-3.426221	-21.638019	-6.004883
51942		-3.394352	-21.627223	-6.004006
51943		-3.355993	-21.614202	-6.001386
51944		-3.323739	-21.598455	-5.992448
51945		-3.286756	-21.581167	-5.983346
51946		-3.254697	-21.567990	-5.974208
51947		-3.229797	-21.561979	-5.956915
51948		-3.207790	-21.562348	-5.936863
51949		-3.195679	-21.563247	-5.910383
51950		-3.185846	-21.563404	-5.879080
51951		-3.176671	-21.555917	-5.850146
51952		-3.177806	-21.544390	-5.817514
51953		-3.170847	-21.533922	-5.790247
51954		-3.163623	-21.524564	-5.765617
51955		-3.158867	-21.516050	-5.741328
51956		-3.158357	-21.500642	-5.716771
51957		-3.158711	-21.487753	-5.699229
51958		-3.172261	-21.476245	-5.676383
51959		-3.201552	-21.463640	-5.651915
51960		-3.245121	-21.449698	-5.628349
51961		-3.312260	-21.438174	-5.601342
51962		-3.376996	-21.422130	-5.577906
51963		-3.445602	-21.401427	-5.553717
51964		-3.516494	-21.381063	-5.538407
51965		-3.582368	-21.348860	-5.549479
51966		-3.643730	-21.317247	-5.587653
51967		-3.702695	-21.301947	-5.635544
51968		-3.759699	-21.287787	-5.692384
51969		-3.798372	-21.273669	-5.761103
51970		-3.838670	-21.252783	-5.836706
51971		-3.884944	-21.226374	-5.919527
51972		-3.939181	-21.197083	-6.015738
51973		-3.997371	-21.176548	-6.125200
51974		-4.031965	-21.158698	-6.264186
51975		-4.047097	-21.143886	-6.433692
51976		-4.061715	-21.124266	-6.626482
51977		-4.075689	-21.107565	-6.826257
51978		-4.097431	-21.104001	-7.029543
51979		-4.121927	-21.099860	-7.241817
51980		-4.147022	-21.097820	-7.463459
51981		-4.168007	-21.095025	-7.698105
51982		-4.190296	-21.084232	-7.942631
51983		-4.206599	-21.083691	-8.193075
51984		-4.226574	-21.085138	-8.440425
51985		-4.260900	-21.088083	-8.674505
51986		-4.311869	-21.085929	-8.898258
51987		-4.382233	-21.073465	-9.114568
51988		-4.449829	-21.057564	-9.345899
51989		-4.502620	-21.038851	-9.592801
51990		-4.558718	-21.011750	-9.844427
51991		-4.629949	-20.980865	-10.100100
51992		-4.714566	-20.948846	-10.365462
51993		-4.811041	-20.919749	-10.636981
51994		-4.928728	-20.891765	-10.912381
51995		-5.063341	-20.855234	-11.184419
51996		-5.196516	-20.815596	-11.460743
51997		-5.324784	-20.764540	-11.751522
51998		-5.444812	-20.716840	-12.063550
51999		-5.585520	-20.663354	-12.386387
52000		-5.753828	-20.600471	-12.720877
52001		-5.909046	-20.530018	-13.071977
52002		-6.046443	-20.468111	-13.445552
52003		-6.177380	-20.407136	-13.839377
52004		-6.351190	-20.339389	-14.236970
52005		-6.556286	-20.271014	-14.638296
52006		-6.764338	-20.203578	-15.043823
52007		-6.946342	-20.127712	-15.465319
52008		-7.113194	-20.071572	-15.900864
52009		-7.297587	-20.037863	-16.347152
52010		-7.499506	-20.019698	-16.809335
52011		-7.702550	-20.009586	-17.285549
52012		-7.866194	-20.003544	-17.793035
52013		-8.002397	-19.991839	-18.328287
52014		-8.163985	-19.967645	-18.879098
52015		-8.341802	-19.934333	-19.439818
52016		-8.479768	-19.893985	-20.003397
52017		-8.604438	-19.840962	-20.574689
52018		-8.695716	-19.785238	-21.156756
52019		-8.783053	-19.707481	-21.741386
52020		-8.890904	-19.618832	-22.321446
52021		-9.016164	-19.520488	-22.893147
52022		-9.176359	-19.381808	-23.446006
52023		-9.403423	-19.208461	-23.980550
52024		-9.620021	-19.024047	-24.516894
52025		-9.797590	-18.852288	-25.053658
52026		-9.938468	-18.689097	-25.595812
52027		-10.129734	-18.494085	-26.139109
52028		-10.354039	-18.271821	-26.667860
52029		-10.603091	-18.032393	-27.188980
52030		-10.796594	-17.822532	-27.727004
52031		-10.896467	-17.670811	-28.285989
52032		-10.916191	-17.565956	-28.859476
52033		-10.919667	-17.450824	-29.448624
52034		-10.979236	-17.317704	-30.028344
52035		-11.070237	-17.173590	-30.579069
52036		-11.199672	-17.008068	-31.106963
52037		-11.358068	-16.804088	-31.628034
52038		-11.522224	-16.586653	-32.150991
52039		-11.744689	-16.406764	-32.676820
52040		-11.872255	-16.272375	-33.218156
52041		-11.988561	-16.135028	-33.773366
52042		-12.107449	-15.986146	-34.340655
52043		-12.223655	-15.827901	-34.921422
52044		-12.330936	-15.674980	-35.498889
52045		-12.449631	-15.526064	-36.069225
52046		-12.567542	-15.400228	-36.636895
52047		-12.687637	-15.265872	-37.198758
52048		-12.851875	-15.119974	-37.755112
52049		-13.021164	-14.960676	-38.310744
52050		-13.208435	-14.778877	-38.892480
52051		-13.342995	-14.622854	-39.489422
52052		-13.457509	-14.456629	-40.097194
52053		-13.596009	-14.282829	-40.703630
52054		-13.755829	-14.121533	-41.300285
52055		-13.858869	-13.982198	-41.880375
52056		-13.897251	-13.850721	-42.458952
52057		-13.973507	-13.718956	-43.035718
52058		-14.063060	-13.583045	-43.602152
52059		-14.165231	-13.437373	-44.158857
52060		-14.273327	-13.296438	-44.711760
52061		-14.387205	-13.163213	-45.267632
52062		-14.480989	-13.062618	-45.826795
52063		-14.472142	-12.984245	-46.381040
52064		-14.462406	-12.902524	-46.937433
52065		-14.477682	-12.829119	-47.485125
52066		-14.459202	-12.756854	-48.027074
52067		-14.434398	-12.690037	-48.560995
52068		-14.416720	-12.635135	-49.087435
52069		-14.410160	-12.582667	-49.606372
52070		-14.410042	-12.534969	-50.115457
52071		-14.363202	-12.483590	-50.626171
52072		-14.317534	-12.448933	-51.132118
52073		-14.261143	-12.422800	-51.634923
52074		-14.186274	-12.383886	-52.140785
52075		-14.123678	-12.336791	-52.636678
52076		-14.042150	-12.291113	-53.125522
52077		-13.920560	-12.255164	-53.609602
52078		-13.797039	-12.218648	-54.088017
52079		-13.695428	-12.163910	-54.559809
52080		-13.592770	-12.100199	-55.020193
52081		-13.500121	-12.018692	-55.458663
52082		-13.442564	-11.911329	-55.876424
52083		-13.429364	-11.801271	-56.281389
52084		-13.398278	-11.697287	-56.681055
52085		-13.347553	-11.597519	-57.078079
52086		-13.329256	-11.497271	-57.473975
52087		-13.337941	-11.421028	-57.865024
52088		-13.284294	-11.376842	-58.248376
52089		-13.198408	-11.325108	-58.627754
52090		-13.114240	-11.265930	-59.001304
52091		-13.024406	-11.204132	-59.362238
52092		-12.933280	-11.130278	-59.722651
52093		-12.827393	-11.059521	-60.085408
52094		-12.723250	-10.997285	-60.438487
52095		-12.608000	-10.932086	-60.778848
52096		-12.479793	-10.865977	-61.105735
52097		-12.343265	-10.817198	-61.420231
52098		-12.209001	-10.771922	-61.731838
52099		-12.082633	-10.720858	-62.051315
52100		-11.943252	-10.677525	-62.366829
52101		-11.780923	-10.648222	-62.664754
52102		-11.606455	-10.627159	-62.939372
52103		-11.469599	-10.599533	-63.197381
52104		-11.333991	-10.577502	-63.445942
52105		-11.221631	-10.539614	-63.686445
52106		-11.134734	-10.510601	-63.919707
52107		-11.032448	-10.487587	-64.147457
52108		-10.929444	-10.467592	-64.373488
52109		-10.837977	-10.448842	-64.597131
52110		-10.752391	-10.430120	-64.819879
52111		-10.687485	-10.419211	-65.062235
52112		-10.609760	-10.371220	-65.286994
52113		-10.573813	-10.332932	-65.483173
52114		-10.542647	-10.283024	-65.677659
52115		-10.535578	-10.227075	-65.862961
52116		-10.534808	-10.168432	-66.035860
52117		-10.524762	-10.105336	-66.200909
52118		-10.515899	-10.041203	-66.357394
52119		-10.494821	-9.990908	-66.499696
52120		-10.458149	-9.947927	-66.630612
52121		-10.433467	-9.912171	-66.749257
52122		-10.423040	-9.878542	-66.852154
52123		-10.414920	-9.843522	-66.938546
52124		-10.404288	-9.806287	-67.008996
52125		-10.397725	-9.767101	-67.071495
52126		-10.384298	-9.729877	-67.117281
52127		-10.369533	-9.696068	-67.157434
52128		-10.360241	-9.674069	-67.189672
52129		-10.344515	-9.660237	-67.213188
52130		-10.318225	-9.648983	-67.231729
52131		-10.296760	-9.635150	-67.244652
52132		-10.277645	-9.625046	-67.255084
52133		-10.241042	-9.616243	-67.260972
52134		-10.206790	-9.604848	-67.265669
52135		-10.162519	-9.598818	-67.264481
52136		-10.121568	-9.583802	-67.266348
52137		-10.094542	-9.570195	-67.262708
52138		-10.080025	-9.553830	-67.252609
52139		-10.075717	-9.534455	-67.233175
52140		-10.086505	-9.510957	-67.202388
52141		-10.116103	-9.483359	-67.165294
52142		-10.139433	-9.462107	-67.126131
52143		-10.178101	-9.437410	-67.083168
52144		-10.236778	-9.417569	-67.035449
52145		-10.308724	-9.397669	-66.983643
52146		-10.391098	-9.379808	-66.928555
52147		-10.478040	-9.359505	-66.866685
52148		-10.560466	-9.341727	-66.805717
52149		-10.630299	-9.318729	-66.745806
52150		-10.695873	-9.290529	-66.692482
52151		-10.760117	-9.259207	-66.644033
52152		-10.827811	-9.233422	-66.596856
52153		-10.893440	-9.211257	-66.547606
52154		-10.942878	-9.186808	-66.501187
52155		-10.979532	-9.164886	-66.450105
52156		-11.008177	-9.138456	-66.391144
52157		-11.024768	-9.120129	-66.325198
52158		-11.030818	-9.103744	-66.245584
52159		-11.034215	-9.091739	-66.155601
52160		-11.022255	-9.088165	-66.055413
52161		-10.978984	-9.093211	-65.949135
52162		-10.910796	-9.107247	-65.836378
52163		-10.823811	-9.131442	-65.718943
52164		-10.732804	-9.163253	-65.589573
52165		-10.672219	-9.194802	-65.449320
52166		-10.613254	-9.223987	-65.296914
52167		-10.532211	-9.252294	-65.139727
52168		-10.438695	-9.285774	-64.978255
52169		-10.350981	-9.302542	-64.808667
52170		-10.281847	-9.302998	-64.629173
52171		-10.224696	-9.299529	-64.434314
52172		-10.189333	-9.289953	-64.226967
52173		-10.166727	-9.291085	-64.008861
52174		-10.159493	-9.294325	-63.785798
52175		-10.145241	-9.321247	-63.551097
52176		-10.137061	-9.346177	-63.313982
52177		-10.138286	-9.381444	-63.062472
52178		-10.144214	-9.413238	-62.798847
52179		-10.179249	-9.448098	-62.519732
52180		-10.240591	-9.489518	-62.221409
52181		-10.321325	-9.544896	-61.910452
52182		-10.398331	-9.597387	-61.591352
52183		-10.474316	-9.637161	-61.275696
52184		-10.528116	-9.673986	-60.959089
52185		-10.591936	-9.713155	-60.632097
52186		-10.673878	-9.765704	-60.285058
52187		-10.753803	-9.835543	-59.919036
52188		-10.846266	-9.924817	-59.541944
52189		-10.928518	-10.018607	-59.157623
52190		-10.987625	-10.119389	-58.768216
52191		-11.037620	-10.221425	-58.370203
52192		-11.072557	-10.331515	-57.961928
52193		-11.089980	-10.446769	-57.547454
52194		-11.110827	-10.566857	-57.125740
52195		-11.116361	-10.693141	-56.700547
52196		-11.107179	-10.837172	-56.269955
52197		-11.113857	-10.969652	-55.837960
52198		-11.127537	-11.100767	-55.398791
52199		-11.130684	-11.231359	-54.957174
52200		-11.121152	-11.362899	-54.514314
52201		-11.132159	-11.482306	-54.068388
52202		-11.140126	-11.600681	-53.621208
52203		-11.123569	-11.726949	-53.175734
52204		-11.095262	-11.851748	-52.727025
52205		-11.076283	-11.963582	-52.267917
52206		-11.078792	-12.069027	-51.798007
52207		-11.067650	-12.183786	-51.325607
52208		-11.065302	-12.297808	-50.853336
52209		-11.058787	-12.413646	-50.383457
52210		-11.049185	-12.534059	-49.915625
52211		-11.006377	-12.657087	-49.448213
52212		-10.965729	-12.782060	-48.974488
52213		-10.947624	-12.900264	-48.497307
52214		-10.926781	-13.032202	-48.020163
52215		-10.877110	-13.166786	-47.537833
52216		-10.862066	-13.277635	-47.053927
52217		-10.864604	-13.380879	-46.568721
52218		-10.881697	-13.481543	-46.084654
52219		-10.905389	-13.596696	-45.595229
52220		-10.953602	-13.721958	-45.099480
52221		-11.028692	-13.845278	-44.594938
52222		-11.101476	-13.973531	-44.084070
52223		-11.164132	-14.093334	-43.567122
52224		-11.218360	-14.204482	-43.047176
52225		-11.276216	-14.307056	-42.529779
52226		-11.331603	-14.411479	-42.014296
52227		-11.409479	-14.508568	-41.502658
52228		-11.499489	-14.600905	-40.989882
52229		-11.582905	-14.683531	-40.481688
52230		-11.664135	-14.771740	-39.967830
52231		-11.757582	-14.853479	-39.460882
52232		-11.802228	-14.959632	-38.952956
52233		-11.826669	-15.047944	-38.452744
52234		-11.855353	-15.135636	-37.946703
52235		-11.886021	-15.222146	-37.432303
52236		-11.923281	-15.308994	-36.894463
52237		-11.930949	-15.400040	-36.360586
52238		-11.938821	-15.487437	-35.828276
52239		-11.937920	-15.574755	-35.306601
52240		-11.956877	-15.657681	-34.792720
52241		-11.976889	-15.749216	-34.289989
52242		-11.945378	-15.850081	-33.804392
52243		-11.913748	-15.936804	-33.330928
52244		-11.887220	-16.032449	-32.858935
52245		-11.843011	-16.124997	-32.391828
52246		-11.784937	-16.218940	-31.929904
52247		-11.705053	-16.311392	-31.460288
52248		-11.630603	-16.390940	-30.988800
52249		-11.561153	-16.472643	-30.513795
52250		-11.510365	-16.561504	-30.041218
52251		-11.472074	-16.652476	-29.579843
52252		-11.438400	-16.743291	-29.134344
52253		-11.394510	-16.830713	-28.707729
52254		-11.323520	-16.894296	-28.280671
52255		-11.259115	-16.985255	-27.888501
52256		-11.196237	-17.083868	-27.521574
52257		-11.120310	-17.184498	-27.147268
52258		-11.034600	-17.290645	-26.756800
52259		-10.941566	-17.390399	-26.347965
52260		-10.869503	-17.483445	-25.931860
52261		-10.790823	-17.587311	-25.510570
52262		-10.717104	-17.681414	-25.084196
52263		-10.639537	-17.779389	-24.654587
52264		-10.569664	-17.879211	-24.213959
52265		-10.471102	-17.954659	-23.770708
52266		-10.386796	-18.021478	-23.329940
52267		-10.274157	-18.095657	-22.884563
52268		-10.174301	-18.180227	-22.435003
52269		-10.083682	-18.257321	-21.986113
52270		-10.012733	-18.327729	-21.547667
52271		-9.955662	-18.408651	-21.134679
52272		-9.898774	-18.500595	-20.752126
52273		-9.819867	-18.592890	-20.390902
52274		-9.721522	-18.688564	-20.044258
52275		-9.639659	-18.778405	-19.701487
52276		-9.549083	-18.882197	-19.354554
52277		-9.469577	-18.978410	-18.998406
52278		-9.383175	-19.075983	-18.632165
52279		-9.284068	-19.157776	-18.274867
52280		-9.203095	-19.235590	-17.935576
52281		-9.126565	-19.315475	-17.626751
52282		-9.035977	-19.388133	-17.341136
52283		-8.938657	-19.459381	-17.062657
52284		-8.844214	-19.530401	-16.775866
52285		-8.739914	-19.601831	-16.474536
52286		-8.651514	-19.666063	-16.165573
52287		-8.562216	-19.733848	-15.864033
52288		-8.485097	-19.791075	-15.580934
52289		-8.388322	-19.839017	-15.318346
52290		-8.298034	-19.896385	-15.048082
52291		-8.220268	-19.953046	-14.766461
52292		-8.151872	-20.016191	-14.468019
52293		-8.111195	-20.074688	-14.153937
52294		-8.076195	-20.126512	-13.847471
52295		-8.027889	-20.162326	-13.577185
52296		-7.938180	-20.182627	-13.349399
52297		-7.826333	-20.201253	-13.137847
52298		-7.724326	-20.226606	-12.914734
52299		-7.651792	-20.255995	-12.676499
52300		-7.594060	-20.286274	-12.435989
52301		-7.551212	-20.306918	-12.208951
52302		-7.527768	-20.321097	-11.999447
52303		-7.482502	-20.332412	-11.807748
52304		-7.408649	-20.338028	-11.628952
52305		-7.304317	-20.332216	-11.459152
52306		-7.204097	-20.332077	-11.292832
52307		-7.094321	-20.330030	-11.128142
52308		-6.986846	-20.338173	-10.961430
52309		-6.887991	-20.343068	-10.791445
52310		-6.810162	-20.348396	-10.612588
52311		-6.755013	-20.349296	-10.430279
52312		-6.717732	-20.342381	-10.252138
52313		-6.676255	-20.339867	-10.081668
52314		-6.640647	-20.327127	-9.913197
52315		-6.611015	-20.307230	-9.750561
52316		-6.593942	-20.285143	-9.593803
52317		-6.588797	-20.262428	-9.447109
52318		-6.588376	-20.240253	-9.309548
52319		-6.568810	-20.214572	-9.195020
52320		-6.539013	-20.192532	-9.090834
52321		-6.497685	-20.175534	-8.996002
52322		-6.438549	-20.165634	-8.918935
52323		-6.357533	-20.157081	-8.860187
52324		-6.259495	-20.145708	-8.808233
52325		-6.153186	-20.127723	-8.762901
52326		-6.066771	-20.110809	-8.721070
52327		-5.990603	-20.104061	-8.684200
52328		-5.912689	-20.118660	-8.662169
52329		-5.815943	-20.135518	-8.657643
52330		-5.702765	-20.143954	-8.659818
52331		-5.584163	-20.138348	-8.662774
52332		-5.465379	-20.138302	-8.663582
52333		-5.341466	-20.149037	-8.666277
52334		-5.225312	-20.172279	-8.666832
52335		-5.119101	-20.198003	-8.657735
52336		-5.023294	-20.222277	-8.635961
52337		-4.934515	-20.244849	-8.604609
52338		-4.858916	-20.260790	-8.567891
52339		-4.793630	-20.276315	-8.522739
52340		-4.728373	-20.286267	-8.478693
52341		-4.677873	-20.291636	-8.430281
52342		-4.637031	-20.287297	-8.383577
52343		-4.602019	-20.279143	-8.334152
52344		-4.578130	-20.275663	-8.282506
52345		-4.570372	-20.272417	-8.229918
52346		-4.571241	-20.271168	-8.178695
52347		-4.576500	-20.269006	-8.132865
52348		-4.590571	-20.263821	-8.087231
52349		-4.592734	-20.260404	-8.047156
52350		-4.592185	-20.245873	-8.016920
52351		-4.584907	-20.230173	-7.993887
52352		-4.582302	-20.217622	-7.976336
52353		-4.594956	-20.216810	-7.962289
52354		-4.612143	-20.214866	-7.953638
52355		-4.640038	-20.212537	-7.943346
52356		-4.670220	-20.205657	-7.940974
52357		-4.707129	-20.189712	-7.942612
52358		-4.746686	-20.171379	-7.945981
52359		-4.786573	-20.145776	-7.951081
52360		-4.837293	-20.112089	-7.955888
52361		-4.890056	-20.075598	-7.966929
52362		-4.944077	-20.040895	-7.982354
52363		-4.987221	-19.998039	-8.004097
52364		-5.025623	-19.952376	-8.028459
52365		-5.058933	-19.903363	-8.049118
52366		-5.095980	-19.854171	-8.075354
52367		-5.143011	-19.798076	-8.099312
52368		-5.190677	-19.732927	-8.133823
52369		-5.238758	-19.662463	-8.172621
52370		-5.279900	-19.584138	-8.216246
52371		-5.317050	-19.500039	-8.264771
52372		-5.350480	-19.422640	-8.318436
52373		-5.388103	-19.349170	-8.376616
52374		-5.447991	-19.281056	-8.435316
52375		-5.517397	-19.214609	-8.504519
52376		-5.596437	-19.148500	-8.583328
52377		-5.651335	-19.081694	-8.674131
52378		-5.713770	-19.020148	-8.775035
52379		-5.770250	-18.959627	-8.888708
52380		-5.852448	-18.893857	-9.001812
52381		-5.942045	-18.827381	-9.127451
52382		-6.026857	-18.768396	-9.267069
52383		-6.092164	-18.707151	-9.429602
52384		-6.150712	-18.650632	-9.612829
52385		-6.203035	-18.598305	-9.809675
52386		-6.253282	-18.553206	-10.020395
52387		-6.296089	-18.501637	-10.243094
52388		-6.362249	-18.447000	-10.473426
52389		-6.448776	-18.380987	-10.698587
52390		-6.565131	-18.305751	-10.930310
52391		-6.710993	-18.221796	-11.166665
52392		-6.859375	-18.139017	-11.424661
52393		-6.974983	-18.051827	-11.714682
52394		-7.099579	-17.956905	-12.034824
52395		-7.233725	-17.853907	-12.378178
52396		-7.338105	-17.722186	-12.743622
52397		-7.429122	-17.564806	-13.125053
52398		-7.477315	-17.402308	-13.522200
52399		-7.537624	-17.240952	-13.931729
52400		-7.588970	-17.087210	-14.357286
52401		-7.636454	-16.940902	-14.792361
52402		-7.705767	-16.776470	-15.238367
52403		-7.805803	-16.605538	-15.692403
52404		-7.910849	-16.432293	-16.154921
52405		-7.994654	-16.260309	-16.637164
52406		-8.049471	-16.097813	-17.139210
52407		-8.089701	-15.944918	-17.658358
52408		-8.120374	-15.803200	-18.191379
52409		-8.191367	-15.666181	-18.727717
52410		-8.287029	-15.532212	-19.260237
52411		-8.414037	-15.389482	-19.783467
52412		-8.548223	-15.252715	-20.300614
52413		-8.670156	-15.108942	-20.821381
52414		-8.747782	-14.969537	-21.348534
52415		-8.838100	-14.839100	-21.875060
52416		-8.937693	-14.724407	-22.392694
52417		-9.058134	-14.596118	-22.906060
52418		-9.214445	-14.459232	-23.414420
52419		-9.323398	-14.338183	-23.924351
52420		-9.432219	-14.206901	-24.437716
52421		-9.543039	-14.086957	-24.958067
52422		-9.591922	-13.989726	-25.480162
52423		-9.674243	-13.904342	-25.998961
52424		-9.759837	-13.817779	-26.526933
52425		-9.842501	-13.722433	-27.051808
52426		-9.941293	-13.607646	-27.566134
52427		-10.088106	-13.466004	-28.066131
52428		-10.276347	-13.301712	-28.552153
52429		-10.497117	-13.131671	-29.031751
52430		-10.729390	-12.988990	-29.517526
52431		-10.866750	-12.862590	-30.029959
52432		-10.978793	-12.748240	-30.572516
52433		-10.987993	-12.670454	-31.142335
52434		-10.958086	-12.615159	-31.720157
52435		-10.942445	-12.556191	-32.300150
52436		-10.966934	-12.470968	-32.871988
52437		-11.039951	-12.351342	-33.429856
52438		-11.168686	-12.217985	-33.976633
52439		-11.321605	-12.091502	-34.520329
52440		-11.432845	-11.979098	-35.072434
52441		-11.558266	-11.866718	-35.636691
52442		-11.703680	-11.751183	-36.202796
52443		-11.860361	-11.630300	-36.767295
52444		-11.990926	-11.511468	-37.331645
52445		-12.089236	-11.405037	-37.891396
52446		-12.155753	-11.339427	-38.445590
52447		-12.137657	-11.307340	-39.004567
52448		-12.136814	-11.272458	-39.564994
52449		-12.198642	-11.224899	-40.122500
52450		-12.267384	-11.168580	-40.675943
52451		-12.318387	-11.110887	-41.226086
52452		-12.381443	-11.053028	-41.780192
52453		-12.435650	-11.006763	-42.342558
52454		-12.452837	-10.972614	-42.905530
52455		-12.467615	-10.933559	-43.460303
52456		-12.458188	-10.894122	-44.008418
52457		-12.477022	-10.851281	-44.558155
52458		-12.505860	-10.813166	-45.104020
52459		-12.535481	-10.765068	-45.641061
52460		-12.578247	-10.708367	-46.165646
52461		-12.608119	-10.646068	-46.682781
52462		-12.632865	-10.576653	-47.199548
52463		-12.691971	-10.516300	-47.722355
52464		-12.698885	-10.487532	-48.248121
52465		-12.652568	-10.466859	-48.776863
52466		-12.609072	-10.453387	-49.299637
52467		-12.597072	-10.439306	-49.813922
52468		-12.563909	-10.437121	-50.317819
52469		-12.483503	-10.447389	-50.820195
52470		-12.407561	-10.464651	-51.319000
52471		-12.361389	-10.490343	-51.802824
52472		-12.302078	-10.526599	-52.278699
52473		-12.249967	-10.554005	-52.745386
52474		-12.208568	-10.586242	-53.203137
52475		-12.199016	-10.618197	-53.653887
52476		-12.209746	-10.641722	-54.114896
52477		-12.222904	-10.677166	-54.582354
52478		-12.219005	-10.737980	-55.065368
52479		-12.201152	-10.784457	-55.537765
52480		-12.210501	-10.811375	-55.975718
52481		-12.215686	-10.847789	-56.411952
52482		-12.188861	-10.887727	-56.843666
52483		-12.145992	-10.923584	-57.267457
52484		-12.121673	-10.949803	-57.683312
52485		-12.101203	-10.964593	-58.091128
52486		-12.087023	-10.976828	-58.489553
52487		-12.087081	-10.985716	-58.884183
52488		-12.095264	-10.997226	-59.272678
52489		-12.083286	-11.015347	-59.654460
52490		-12.062430	-11.036312	-60.034777
52491		-12.007569	-11.068594	-60.414512
52492		-11.926001	-11.091953	-60.803183
52493		-11.849659	-11.118296	-61.191550
52494		-11.774775	-11.153711	-61.574613
52495		-11.699528	-11.190145	-61.947162
52496		-11.628037	-11.225946	-62.314797
52497		-11.568124	-11.263930	-62.674905
52498		-11.506401	-11.309811	-63.026771
52499		-11.443041	-11.353020	-63.368281
52500		-11.378060	-11.398078	-63.700336
52501		-11.309161	-11.432741	-64.023390
52502		-11.242292	-11.466386	-64.334984
52503		-11.183935	-11.491858	-64.633959
52504		-11.138427	-11.509499	-64.918796
52505		-11.129261	-11.505339	-65.196010
52506		-11.152997	-11.493754	-65.460007
52507		-11.169114	-11.479694	-65.712469
52508		-11.176714	-11.469640	-65.947605
52509		-11.182650	-11.457628	-66.168809
52510		-11.168024	-11.440835	-66.385413
52511		-11.143635	-11.423450	-66.593371
52512		-11.124217	-11.393316	-66.796465
52513		-11.097393	-11.372815	-66.985315
52514		-11.045340	-11.353834	-67.170336
52515		-10.983157	-11.330300	-67.349738
52516		-10.931626	-11.297275	-67.527977
52517		-10.889272	-11.257067	-67.696294
52518		-10.843771	-11.214510	-67.854838
52519		-10.787166	-11.168285	-68.007510
52520		-10.734085	-11.129413	-68.145373
52521		-10.693133	-11.081383	-68.272261
52522		-10.662007	-11.032949	-68.384923
52523		-10.628985	-10.983341	-68.485264
52524		-10.606037	-10.922366	-68.581895
52525		-10.585059	-10.865297	-68.679683
52526		-10.561677	-10.808808	-68.769701
52527		-10.540641	-10.748172	-68.855501
52528		-10.532548	-10.681872	-68.935341
52529		-10.528270	-10.616224	-69.007766
52530		-10.515302	-10.559443	-69.068048
52531		-10.499826	-10.500079	-69.121893
52532		-10.494616	-10.443563	-69.166924
52533		-10.494662	-10.378103	-69.203218
52534		-10.489457	-10.325331	-69.231834
52535		-10.471903	-10.279289	-69.248221
52536		-10.447385	-10.230997	-69.256655
52537		-10.435435	-10.180129	-69.254758
52538		-10.431869	-10.132324	-69.241440
52539		-10.429741	-10.084421	-69.220108
52540		-10.436038	-10.038281	-69.191738
52541		-10.438862	-9.998275	-69.148410
52542		-10.432988	-9.956246	-69.098934
52543		-10.428775	-9.910478	-69.042953
52544		-10.421416	-9.870040	-68.980497
52545		-10.416003	-9.825609	-68.912715
52546		-10.411661	-9.785465	-68.838384
52547		-10.410755	-9.746838	-68.759464
52548		-10.421638	-9.707058	-68.678678
52549		-10.439352	-9.665033	-68.594531
52550		-10.458985	-9.623166	-68.507709
52551		-10.476228	-9.579863	-68.419040
52552		-10.492992	-9.540789	-68.322340
52553		-10.522232	-9.498170	-68.215987
52554		-10.556236	-9.460308	-68.097529
52555		-10.588751	-9.417928	-67.973428
52556		-10.624547	-9.369361	-67.841762
52557		-10.666418	-9.318912	-67.704422
52558		-10.692064	-9.274113	-67.564398
52559		-10.713671	-9.222891	-67.417972
52560		-10.743229	-9.176353	-67.263641
52561		-10.764357	-9.137726	-67.099729
52562		-10.775860	-9.105455	-66.926037
52563		-10.791425	-9.070261	-66.743881
52564		-10.815001	-9.037453	-66.550966
52565		-10.834647	-9.006561	-66.354294
52566		-10.850561	-8.980986	-66.153761
52567		-10.864275	-8.953771	-65.952503
52568		-10.866850	-8.934061	-65.747119
52569		-10.871012	-8.908257	-65.536867
52570		-10.884854	-8.878433	-65.319903
52571		-10.904558	-8.847273	-65.093398
52572		-10.918563	-8.817658	-64.861227
52573		-10.931936	-8.788123	-64.622789
52574		-10.946148	-8.764430	-64.377854
52575		-10.950498	-8.747725	-64.126052
52576		-10.959702	-8.729496	-63.869127
52577		-10.989709	-8.705739	-63.600525
52578		-11.023503	-8.680963	-63.319955
52579		-11.060994	-8.655331	-63.030423
52580		-11.104003	-8.628748	-62.738210
52581		-11.144532	-8.600600	-62.445230
52582		-11.162903	-8.584427	-62.152802
52583		-11.138518	-8.588843	-61.856814
52584		-11.105188	-8.602311	-61.555966
52585		-11.101871	-8.611670	-61.245533
52586		-11.115833	-8.624101	-60.926843
52587		-11.114362	-8.632273	-60.601467
52588		-11.117642	-8.649123	-60.266620
52589		-11.119116	-8.669346	-59.918063
52590		-11.098260	-8.697260	-59.560251
52591		-11.061669	-8.730765	-59.198084
52592		-11.021075	-8.773298	-58.828867
52593		-10.988008	-8.811525	-58.454905
52594		-10.966885	-8.851545	-58.079878
52595		-10.923716	-8.908869	-57.698781
52596		-10.822772	-8.988347	-57.309938
52597		-10.681399	-9.090637	-56.916147
52598		-10.532430	-9.198235	-56.516581
52599		-10.431863	-9.305778	-56.107758
52600		-10.395817	-9.398484	-55.689093
52601		-10.370178	-9.484744	-55.264438
52602		-10.354631	-9.567196	-54.837748
52603		-10.359239	-9.643428	-54.408358
52604		-10.370507	-9.716536	-53.979341
52605		-10.378548	-9.789744	-53.546860
52606		-10.364529	-9.860321	-53.111561
52607		-10.351031	-9.935274	-52.668778
52608		-10.328729	-10.022022	-52.212263
52609		-10.309745	-10.110690	-51.745056
52610		-10.289728	-10.206016	-51.269729
52611		-10.267849	-10.306136	-50.786339
52612		-10.264170	-10.400725	-50.296604
52613		-10.284922	-10.482301	-49.804711
52614		-10.318670	-10.560163	-49.303462
52615		-10.345379	-10.643339	-48.800874
52616		-10.347760	-10.736439	-48.306851
52617		-10.335136	-10.841261	-47.812984
52618		-10.339164	-10.941786	-47.316128
52619		-10.342298	-11.032432	-46.820421
52620		-10.332699	-11.134826	-46.323758
52621		-10.324586	-11.234160	-45.832589
52622		-10.325328	-11.334895	-45.337858
52623		-10.337034	-11.436216	-44.838624
52624		-10.365838	-11.532577	-44.334616
52625		-10.408283	-11.622994	-43.828705
52626		-10.423912	-11.716572	-43.320024
52627		-10.425262	-11.811527	-42.812058
52628		-10.420418	-11.905104	-42.292502
52629		-10.425805	-11.998818	-41.762112
52630		-10.452918	-12.087620	-41.230389
52631		-10.483188	-12.167953	-40.695720
52632		-10.532474	-12.236928	-40.163245
52633		-10.584019	-12.293473	-39.635381
52634		-10.622709	-12.339562	-39.114396
52635		-10.654280	-12.381424	-38.597493
52636		-10.706201	-12.422853	-38.081065
52637		-10.750661	-12.453847	-37.573104
52638		-10.783109	-12.488867	-37.062881
52639		-10.810743	-12.523359	-36.545792
52640		-10.841743	-12.556903	-36.022613
52641		-10.877667	-12.607459	-35.486681
52642		-10.926096	-12.663003	-34.941132
52643		-10.961929	-12.708615	-34.406232
52644		-10.979591	-12.756403	-33.870386
52645		-10.954710	-12.814534	-33.338318
52646		-10.912865	-12.869740	-32.812926
52647		-10.905626	-12.925628	-32.293656
52648		-10.868149	-12.991263	-31.771967
52649		-10.838043	-13.071648	-31.241214
52650		-10.833344	-13.146686	-30.708724
52651		-10.853301	-13.213334	-30.185806
52652		-10.864310	-13.282982	-29.668069
52653		-10.864323	-13.348415	-29.157657
52654		-10.834250	-13.419289	-28.657510
52655		-10.790502	-13.485897	-28.164781
52656		-10.746519	-13.561656	-27.679982
52657		-10.732159	-13.647518	-27.199276
52658		-10.706310	-13.743154	-26.719477
52659		-10.634081	-13.854528	-26.231419
52660		-10.565646	-13.969566	-25.735765
52661		-10.492588	-14.080609	-25.245619
52662		-10.409827	-14.199226	-24.765317
52663		-10.325833	-14.316304	-24.289908
52664		-10.238788	-14.437124	-23.813484
52665		-10.166540	-14.562559	-23.337269
52666		-10.091403	-14.690231	-22.866749
52667		-10.030078	-14.820874	-22.398117
52668		-9.964647	-14.953914	-21.934854
52669		-9.912401	-15.084933	-21.476971
52670		-9.881497	-15.223603	-21.025507
52671		-9.848022	-15.360491	-20.588218
52672		-9.826725	-15.497158	-20.164736
52673		-9.795400	-15.632127	-19.748404
52674		-9.775135	-15.760464	-19.337625
52675		-9.741260	-15.885764	-18.938974
52676		-9.709603	-16.015118	-18.547686
52677		-9.675617	-16.135104	-18.164440
52678		-9.667290	-16.251810	-17.785466
52679		-9.685080	-16.355429	-17.414455
52680		-9.704597	-16.454950	-17.058222
52681		-9.690123	-16.546101	-16.722494
52682		-9.667603	-16.629512	-16.397782
52683		-9.660367	-16.714204	-16.077665
52684		-9.625168	-16.801834	-15.759825
52685		-9.577622	-16.883540	-15.436114
52686		-9.524920	-16.952711	-15.107296
52687		-9.460790	-17.001901	-14.793322
52688		-9.395358	-17.054865	-14.495728
52689		-9.314909	-17.106218	-14.215812
52690		-9.220850	-17.165358	-13.940183
52691		-9.109344	-17.215193	-13.677052
52692		-8.975775	-17.249352	-13.425039
52693		-8.848677	-17.288051	-13.176051
52694		-8.738469	-17.341243	-12.928983
52695		-8.613847	-17.389650	-12.697538
52696		-8.481183	-17.441408	-12.473185
52697		-8.357352	-17.483534	-12.249805
52698		-8.228302	-17.535594	-12.026068
52699		-8.107410	-17.579382	-11.807840
52700		-7.990118	-17.621796	-11.597790
52701		-7.861998	-17.665611	-11.397941
52702		-7.750041	-17.703227	-11.211381
52703		-7.631941	-17.739787	-11.028820
52704		-7.531029	-17.780778	-10.839379
52705		-7.431606	-17.831866	-10.649404
52706		-7.362788	-17.885859	-10.464576
52707		-7.303772	-17.920893	-10.299319
52708		-7.242371	-17.930913	-10.153451
52709		-7.169210	-17.935443	-10.011704
52710		-7.112662	-17.930591	-9.870006
52711		-7.072366	-17.931485	-9.728217
52712		-7.062038	-17.937933	-9.584416
52713		-7.090738	-17.943717	-9.435216
52714		-7.132580	-17.951437	-9.286114
52715		-7.156108	-17.931238	-9.143797
52716		-7.191073	-17.901934	-9.002044
52717		-7.216239	-17.861350	-8.871912
52718		-7.246636	-17.826895	-8.769246
52719		-7.267401	-17.817025	-8.691663
52720		-7.265567	-17.813183	-8.640661
52721		-7.242832	-17.812283	-8.609150
52722		-7.197688	-17.814420	-8.593713
52723		-7.137858	-17.816236	-8.588164
52724		-7.075802	-17.824910	-8.577733
52725		-7.031009	-17.834715	-8.559418
52726		-6.996918	-17.845756	-8.540166
52727		-6.992006	-17.859719	-8.520951
52728		-6.979378	-17.864841	-8.515211
52729		-6.955625	-17.864638	-8.521521
52730		-6.934337	-17.862834	-8.530805
52731		-6.906735	-17.860348	-8.540518
52732		-6.892500	-17.858374	-8.544961
52733		-6.903952	-17.856832	-8.541885
52734		-6.914823	-17.858764	-8.542776
52735		-6.922189	-17.857790	-8.546536
52736		-6.937179	-17.852978	-8.552448
52737		-6.954661	-17.844410	-8.564912
52738		-6.971390	-17.840650	-8.579550
52739		-6.972478	-17.834839	-8.597478
52740		-6.970180	-17.830729	-8.619189
52741		-6.952326	-17.828741	-8.648982
52742		-6.940131	-17.838882	-8.671275
52743		-6.941626	-17.852808	-8.690990
52744		-6.956867	-17.870928	-8.704234
52745		-6.973354	-17.888325	-8.716215
52746		-6.980791	-17.905558	-8.731906
52747		-6.971753	-17.925242	-8.751473
52748		-6.953379	-17.943544	-8.780468
52749		-6.941274	-17.952144	-8.810099
52750		-6.946407	-17.961615	-8.835709
52751		-6.948473	-17.974181	-8.860445
52752		-6.957310	-17.991438	-8.885664
52753		-6.961298	-18.010289	-8.911186
52754		-6.958330	-18.025893	-8.935507
52755		-6.954702	-18.042704	-8.960341
52756		-6.938853	-18.054045	-8.984959
52757		-6.926307	-18.065223	-9.011051
52758		-6.916242	-18.083190	-9.037730
52759		-6.911885	-18.107306	-9.069828
52760		-6.911888	-18.121817	-9.110082
52761		-6.920845	-18.131936	-9.151736
52762		-6.926068	-18.144597	-9.193304
52763		-6.934812	-18.156030	-9.233178
52764		-6.936735	-18.168979	-9.273835
52765		-6.941701	-18.186897	-9.316861
52766		-6.943346	-18.201147	-9.355740
52767		-6.947906	-18.209102	-9.392751
52768		-6.965334	-18.219660	-9.423717
52769		-6.996617	-18.224319	-9.449185
52770		-7.038224	-18.218693	-9.474482
52771		-7.064145	-18.208245	-9.503535
52772		-7.086577	-18.191269	-9.540999
52773		-7.107714	-18.174539	-9.576531
52774		-7.115825	-18.153130	-9.616845
52775		-7.122479	-18.128840	-9.653557
52776		-7.138336	-18.099480	-9.691770
52777		-7.158657	-18.070895	-9.729973
52778		-7.182286	-18.044618	-9.768224
52779		-7.214499	-18.020769	-9.809113
52780		-7.256536	-17.992765	-9.846867
52781		-7.300238	-17.961373	-9.887029
52782		-7.354357	-17.922014	-9.924575
52783		-7.396479	-17.875412	-9.967638
52784		-7.437095	-17.833258	-10.014776
52785		-7.474121	-17.787639	-10.074860
52786		-7.515340	-17.736256	-10.146067
52787		-7.562304	-17.681080	-10.227137
52788		-7.615496	-17.629413	-10.321799
52789		-7.668846	-17.576673	-10.433235
52790		-7.727846	-17.516532	-10.560249
52791		-7.801750	-17.462473	-10.692170
52792		-7.875675	-17.407546	-10.834786
52793		-7.936542	-17.359755	-10.988698
52794		-8.009525	-17.313069	-11.155007
52795		-8.083868	-17.269194	-11.331214
52796		-8.169080	-17.229934	-11.518835
52797		-8.246878	-17.189937	-11.719860
52798		-8.313432	-17.141710	-11.929897
52799		-8.374849	-17.090953	-12.152319
52800		-8.451963	-17.037063	-12.384274
52801		-8.543215	-16.976460	-12.623291
52802		-8.637799	-16.913597	-12.868628
52803		-8.737348	-16.849419	-13.120933
52804		-8.836760	-16.789191	-13.378817
52805		-8.933110	-16.724968	-13.649595
52806		-9.011818	-16.660491	-13.928596
52807		-9.114066	-16.579907	-14.225929
52808		-9.205847	-16.496332	-14.540375
52809		-9.282174	-16.411055	-14.867128
52810		-9.357564	-16.331537	-15.206032
52811		-9.412345	-16.255557	-15.564150
52812		-9.470858	-16.185277	-15.932912
52813		-9.541848	-16.103238	-16.305160
52814		-9.612252	-16.013213	-16.685683
52815		-9.702061	-15.919698	-17.073498
52816		-9.791541	-15.816751	-17.471543
52817		-9.900644	-15.706576	-17.874541
52818		-9.989167	-15.588411	-18.290416
52819		-10.084977	-15.464014	-18.724198
52820		-10.145380	-15.354026	-19.172272
52821		-10.197870	-15.242910	-19.625709
52822		-10.244904	-15.134711	-20.085694
52823		-10.316770	-15.022422	-20.555353
52824		-10.399952	-14.913149	-21.026677
52825		-10.470966	-14.799018	-21.496148
52826		-10.565549	-14.671974	-21.965664
52827		-10.671302	-14.540683	-22.436050
52828		-10.763398	-14.412404	-22.906703
52829		-10.803448	-14.290205	-23.389779
52830		-10.830591	-14.173234	-23.884654
52831		-10.831736	-14.068254	-24.389859
52832		-10.815948	-13.961630	-24.905440
52833		-10.781723	-13.855250	-25.435233
52834		-10.769253	-13.743702	-25.970722
52835		-10.740178	-13.635006	-26.517070
52836		-10.699567	-13.511589	-27.071129
52837		-10.665598	-13.395624	-27.632923
52838		-10.629651	-13.308067	-28.194052
52839		-10.578539	-13.228431	-28.760831
52840		-10.548979	-13.158849	-29.328504
52841		-10.469039	-13.110989	-29.899326
52842		-10.363560	-13.080908	-30.466662
52843		-10.269043	-13.057944	-31.032554
52844		-10.171341	-13.049044	-31.598775
52845		-10.073785	-13.046961	-32.164317
52846		-10.000478	-13.034899	-32.724708
52847		-9.953303	-13.005472	-33.281367
52848		-9.948918	-12.958366	-33.830305
52849		-9.953705	-12.900956	-34.373160
52850		-9.955640	-12.841950	-34.917863
52851		-9.946103	-12.802011	-35.460284
52852		-9.922648	-12.769807	-36.012387
52853		-9.897028	-12.733488	-36.568873
52854		-9.888167	-12.688312	-37.124425
52855		-9.884595	-12.636874	-37.668553
52856		-9.943958	-12.573102	-38.201544
52857		-10.025117	-12.499421	-38.730163
52858		-10.097719	-12.423434	-39.258673
52859		-10.121282	-12.375030	-39.802048
52860		-10.067390	-12.346229	-40.348787
52861		-10.011383	-12.322039	-40.898264
52862		-9.979793	-12.291284	-41.450001
52863		-9.983440	-12.237043	-41.991430
52864		-10.007551	-12.165528	-42.523064
52865		-10.051896	-12.076115	-43.041653
52866		-10.113821	-11.992568	-43.549367
52867		-10.146686	-11.928167	-44.049095
52868		-10.162237	-11.865454	-44.545061
52869		-10.213535	-11.781791	-45.041513
52870		-10.261577	-11.700139	-45.522236
52871		-10.290233	-11.622212	-45.991445
52872		-10.324195	-11.556746	-46.465158
52873		-10.297857	-11.529375	-46.944034
52874		-10.231063	-11.519389	-47.418740
52875		-10.156925	-11.508147	-47.885105
52876		-10.100973	-11.485154	-48.349002
52877		-10.045522	-11.446566	-48.810275
52878		-9.992005	-11.399024	-49.261005
52879		-9.954499	-11.343196	-49.706472
52880		-9.938890	-11.273970	-50.146964
52881		-9.942109	-11.193756	-50.581828
52882		-9.939900	-11.116716	-51.012392
52883		-9.958259	-11.027773	-51.436141
52884		-10.001676	-10.936260	-51.847420
52885		-10.037729	-10.851819	-52.253035
52886		-10.046902	-10.771951	-52.651744
52887		-10.029345	-10.699172	-53.049383
52888		-10.002318	-10.629822	-53.440010
52889		-9.964551	-10.559661	-53.821743
52890		-9.933040	-10.488867	-54.199819
52891		-9.875929	-10.426145	-54.576039
52892		-9.808795	-10.363888	-54.948447
52893		-9.740285	-10.298523	-55.321871
52894		-9.686678	-10.240348	-55.698243
52895		-9.656078	-10.176596	-56.060288
52896		-9.630523	-10.109668	-56.394375
52897		-9.621772	-10.035247	-56.715684
52898		-9.622426	-9.951880	-57.036996
52899		-9.619182	-9.868525	-57.348628
52900		-9.585486	-9.793982	-57.656392
52901		-9.559049	-9.729682	-57.958034
52902		-9.526212	-9.678002	-58.244062
52903		-9.485060	-9.620218	-58.518971
52904		-9.441680	-9.569075	-58.780470
52905		-9.388042	-9.513775	-59.030317
52906		-9.326840	-9.454468	-59.271514
52907		-9.272407	-9.404179	-59.505421
52908		-9.232206	-9.357426	-59.724646
52909		-9.199905	-9.308404	-59.937623
52910		-9.176026	-9.268324	-60.155103
52911		-9.144605	-9.232952	-60.369868
52912		-9.122579	-9.185997	-60.585795
52913		-9.101915	-9.147098	-60.802338
52914		-9.071333	-9.123817	-61.013898
52915		-9.040215	-9.099579	-61.226808
52916		-9.013668	-9.093636	-61.435904
52917		-8.972232	-9.098639	-61.641047
52918		-8.919125	-9.120551	-61.843166
52919		-8.867520	-9.149921	-62.036089
52920		-8.815402	-9.168112	-62.233459
52921		-8.768500	-9.188097	-62.433011
52922		-8.722493	-9.218936	-62.626919
52923		-8.682085	-9.242007	-62.819818
52924		-8.642540	-9.274547	-63.011469
52925		-8.585094	-9.326069	-63.194522
52926		-8.524630	-9.373028	-63.370506
52927		-8.477602	-9.419552	-63.544349
52928		-8.441377	-9.467396	-63.720545
52929		-8.390197	-9.521456	-63.887215
52930		-8.331610	-9.568140	-64.050887
52931		-8.275693	-9.603008	-64.211259
52932		-8.208574	-9.640378	-64.367581
52933		-8.133850	-9.657393	-64.532608
52934		-8.099396	-9.659004	-64.684428
52935		-8.067591	-9.661717	-64.820267
52936		-8.035539	-9.664620	-64.944391
52937		-7.994044	-9.657601	-65.058257
52938		-7.981185	-9.635297	-65.158743
52939		-8.004045	-9.608672	-65.246917
52940		-8.024688	-9.583518	-65.323427
52941		-8.028225	-9.555571	-65.391276
52942		-8.042454	-9.520640	-65.453412
52943		-8.061392	-9.480878	-65.504198
52944		-8.078157	-9.446643	-65.542523
52945		-8.097410	-9.404049	-65.574180
52946		-8.120717	-9.359836	-65.602522
52947		-8.139952	-9.307706	-65.627892
52948		-8.152882	-9.262707	-65.653670
52949		-8.164689	-9.217445	-65.669534
52950		-8.178961	-9.169936	-65.684351
52951		-8.181276	-9.134767	-65.690323
52952		-8.165109	-9.110974	-65.689998
52953		-8.135520	-9.093236	-65.684946
52954		-8.113008	-9.074600	-65.671359
52955		-8.095733	-9.044982	-65.658475
52956		-8.094471	-9.009056	-65.643801
52957		-8.105025	-8.970580	-65.628530
52958		-8.121615	-8.930055	-65.609386
52959		-8.130988	-8.882997	-65.587580
52960		-8.146832	-8.830055	-65.564562
52961		-8.166274	-8.775138	-65.534099
52962		-8.193270	-8.707792	-65.500081
52963		-8.243283	-8.635837	-65.459881
52964		-8.302863	-8.572271	-65.411064
52965		-8.346465	-8.519060	-65.350916
52966		-8.372150	-8.465611	-65.281546
52967		-8.403640	-8.402537	-65.207148
52968		-8.443490	-8.342707	-65.125096
52969		-8.481835	-8.285375	-65.027740
52970		-8.526483	-8.227605	-64.924095
52971		-8.577930	-8.173658	-64.816158
52972		-8.613897	-8.122068	-64.703782
52973		-8.644793	-8.063804	-64.585560
52974		-8.674334	-8.016941	-64.453331
52975		-8.711789	-7.974866	-64.308872
52976		-8.773003	-7.930441	-64.148440
52977		-8.829657	-7.891754	-63.969226
52978		-8.859709	-7.856711	-63.776051
52979		-8.855947	-7.830078	-63.569533
52980		-8.844777	-7.816617	-63.353804
52981		-8.836340	-7.811631	-63.133268
52982		-8.837168	-7.814062	-62.914982
52983		-8.841067	-7.816134	-62.688170
52984		-8.831918	-7.824203	-62.445492
52985		-8.822092	-7.826279	-62.186682
52986		-8.807281	-7.818701	-61.908708
52987		-8.797346	-7.808820	-61.607141
52988		-8.793669	-7.793194	-61.284096
52989		-8.790466	-7.773722	-60.946012
52990		-8.788897	-7.758749	-60.593259
52991		-8.785686	-7.748554	-60.230241
52992		-8.769663	-7.753100	-59.850693
52993		-8.746100	-7.764183	-59.454557
52994		-8.720208	-7.786305	-59.042063
52995		-8.691683	-7.817592	-58.617959
52996		-8.642945	-7.854025	-58.184902
52997		-8.591700	-7.894606	-57.739455
52998		-8.531768	-7.940416	-57.280912
52999		-8.482391	-7.978967	-56.808575
53000		-8.442848	-8.015582	-56.323507
53001		-8.401403	-8.044026	-55.831449
53002		-8.380465	-8.070747	-55.326725
53003		-8.375931	-8.087759	-54.812346
53004		-8.382635	-8.121095	-54.287813
53005		-8.396484	-8.157767	-53.758818
53006		-8.403399	-8.197130	-53.230850
53007		-8.403114	-8.232089	-52.698636
53008		-8.420781	-8.259539	-52.159363
53009		-8.465271	-8.290028	-51.612250
53010		-8.520762	-8.322128	-51.054970
53011		-8.571151	-8.343022	-50.494622
53012		-8.623917	-8.369217	-49.932546
53013		-8.697694	-8.395225	-49.372865
53014		-8.759937	-8.424340	-48.812329
53015		-8.809504	-8.462717	-48.256669
53016		-8.851231	-8.515866	-47.706346
53017		-8.890759	-8.577274	-47.161582
53018		-8.938690	-8.647084	-46.622185
53019		-8.991652	-8.720064	-46.091524
53020		-9.034800	-8.796690	-45.567093
53021		-9.065283	-8.882556	-45.038064
53022		-9.118990	-8.971351	-44.502015
53023		-9.160185	-9.070060	-43.963929
53024		-9.157514	-9.171986	-43.420899
53025		-9.125599	-9.281282	-42.869709
53026		-9.133409	-9.393893	-42.300505
53027		-9.194888	-9.503565	-41.714311
53028		-9.280417	-9.608069	-41.119268
53029		-9.356608	-9.717407	-40.521845
53030		-9.429516	-9.835088	-39.927455
53031		-9.507861	-9.950793	-39.336497
53032		-9.587425	-10.074032	-38.754347
53033		-9.650504	-10.207571	-38.176289
53034		-9.698658	-10.345516	-37.600049
53035		-9.734337	-10.474634	-37.025105
53036		-9.741579	-10.624750	-36.458909
53037		-9.745762	-10.790379	-35.891324
53038		-9.788018	-10.943198	-35.316734
53039		-9.870704	-11.079446	-34.729262
53040		-9.936894	-11.212699	-34.137226
53041		-9.978260	-11.359463	-33.548684
53042		-10.029501	-11.494581	-32.968706
53043		-10.081560	-11.618527	-32.386296
53044		-10.133819	-11.742114	-31.804119
53045		-10.186453	-11.863921	-31.227307
53046		-10.234612	-11.987218	-30.643440
53047		-10.304759	-12.127659	-30.052313
53048		-10.387368	-12.263131	-29.460522
53049		-10.473631	-12.382656	-28.867011
53050		-10.515554	-12.515563	-28.267557
53051		-10.536357	-12.651736	-27.671335
53052		-10.571568	-12.783793	-27.084374
53053		-10.592333	-12.913535	-26.513890
53054		-10.594829	-13.041851	-25.955675
53055		-10.582856	-13.144969	-25.416657
53056		-10.583043	-13.244077	-24.893201
53057		-10.585787	-13.358023	-24.376904
53058		-10.568307	-13.501520	-23.860187
53059		-10.556786	-13.646412	-23.344334
53060		-10.563622	-13.800702	-22.822265
53061		-10.544447	-13.954685	-22.297754
53062		-10.529545	-14.107089	-21.775393
53063		-10.503341	-14.251633	-21.256478
53064		-10.488305	-14.390542	-20.751301
53065		-10.479453	-14.545651	-20.254841
53066		-10.478182	-14.701410	-19.764723
53067		-10.485592	-14.863742	-19.276954
53068		-10.492011	-15.026877	-18.790106
53069		-10.518911	-15.183390	-18.304804
53070		-10.539293	-15.329771	-17.826934
53071		-10.562461	-15.484303	-17.350076
53072		-10.558689	-15.649459	-16.870493
53073		-10.532889	-15.817888	-16.394860
53074		-10.527756	-15.988068	-15.926282
53075		-10.511232	-16.161569	-15.467549
53076		-10.512946	-16.345123	-15.013566
53077		-10.490171	-16.512612	-14.585434
53078		-10.407047	-16.680260	-14.173970
53079		-10.360074	-16.847881	-13.755264
53080		-10.343762	-17.026478	-13.326897
53081		-10.323462	-17.203677	-12.897245
53082		-10.312643	-17.387206	-12.476986
53083		-10.254944	-17.551519	-12.071260
53084		-10.190479	-17.720376	-11.675369
53085		-10.127108	-17.871463	-11.294113
53086		-10.066518	-18.024652	-10.915025
53087		-10.009802	-18.170555	-10.553575
53088		-9.951835	-18.319786	-10.208930
53089		-9.888600	-18.478085	-9.869864
53090		-9.827434	-18.612080	-9.530713
53091		-9.755248	-18.738296	-9.189579
53092		-9.675825	-18.870425	-8.850716
53093		-9.591245	-18.995671	-8.517658
53094		-9.531887	-19.124687	-8.211026
53095		-9.451419	-19.241827	-7.942660
53096		-9.347469	-19.380101	-7.698251
53097		-9.252100	-19.506227	-7.463173
53098		-9.171024	-19.641619	-7.220711
53099		-9.102660	-19.765402	-6.970275
53100		-9.055775	-19.879818	-6.725874
53101		-8.987331	-19.974280	-6.511839
53102		-8.904712	-20.051218	-6.339729
53103		-8.798725	-20.118344	-6.189784
53104		-8.688653	-20.176629	-6.054406
53105		-8.566764	-20.238529	-5.931423
53106		-8.451257	-20.289858	-5.812482
53107		-8.359861	-20.342009	-5.700427
53108		-8.282597	-20.393954	-5.595040
53109		-8.203046	-20.440566	-5.499090
53110		-8.117935	-20.467055	-5.411137
53111		-8.033089	-20.478258	-5.326635
53112		-7.948536	-20.473457	-5.247298
53113		-7.865784	-20.463448	-5.184487
53114		-7.768696	-20.456357	-5.125833
53115		-7.673075	-20.448609	-5.069200
53116		-7.594986	-20.444356	-5.004339
53117		-7.529048	-20.448137	-4.930677
53118		-7.472986	-20.451563	-4.848097
53119		-7.430299	-20.453541	-4.768539
53120		-7.373671	-20.451696	-4.705234
53121		-7.297569	-20.445772	-4.655782
53122		-7.208128	-20.440909	-4.609499
53123		-7.129685	-20.432058	-4.560143
53124		-7.077232	-20.426886	-4.498739
53125		-7.046824	-20.420974	-4.433638
53126		-7.034092	-20.416473	-4.375913
53127		-7.022403	-20.417695	-4.328959
53128		-6.995136	-20.411908	-4.294257
53129		-6.949519	-20.399808	-4.265286
53130		-6.906379	-20.391372	-4.235040
53131		-6.882799	-20.377479	-4.197612
53132		-6.872267	-20.361254	-4.161699
53133		-6.867609	-20.345876	-4.128010
53134		-6.855300	-20.333440	-4.102262
53135		-6.830124	-20.317830	-4.090136
53136		-6.797820	-20.301434	-4.086477
53137		-6.771550	-20.288077	-4.082416
53138		-6.740899	-20.274815	-4.082700
53139		-6.706878	-20.266242	-4.087371
53140		-6.670773	-20.257212	-4.095907
53141		-6.639684	-20.248726	-4.100377
53142		-6.617311	-20.231686	-4.099252
53143		-6.604848	-20.211654	-4.096744
53144		-6.598559	-20.189177	-4.096944
53145		-6.592014	-20.170271	-4.103139
53146		-6.566817	-20.154881	-4.115524
53147		-6.538338	-20.136857	-4.134109
53148		-6.509727	-20.123306	-4.145916
53149		-6.484566	-20.106349	-4.158567
53150		-6.460665	-20.086126	-4.166554
53151		-6.436135	-20.073246	-4.175048
53152		-6.419030	-20.054848	-4.182119
53153		-6.398351	-20.040215	-4.194331
53154		-6.385152	-20.028325	-4.207473
53155		-6.369556	-20.005858	-4.230722
53156		-6.346372	-19.986212	-4.256982
53157		-6.335077	-19.963429	-4.280313
53158		-6.332916	-19.934417	-4.303578
53159		-6.334969	-19.906591	-4.325605
53160		-6.340189	-19.876144	-4.350603
53161		-6.329784	-19.840131	-4.382060
53162		-6.310232	-19.803379	-4.423551
53163		-6.285020	-19.763518	-4.467500
53164		-6.268984	-19.731353	-4.511677
53165		-6.270543	-19.698856	-4.548886
53166		-6.271859	-19.665249	-4.581453
53167		-6.281092	-19.629710	-4.610249
53168		-6.297485	-19.589475	-4.633803
53169		-6.328557	-19.547940	-4.659507
53170		-6.351759	-19.498711	-4.688542
53171		-6.374842	-19.452636	-4.716507
53172		-6.388458	-19.410484	-4.753207
53173		-6.409947	-19.372507	-4.791107
53174		-6.434011	-19.341324	-4.829409
53175		-6.467758	-19.305827	-4.865089
53176		-6.498456	-19.262551	-4.902412
53177		-6.536477	-19.209298	-4.937632
53178		-6.575060	-19.145562	-4.979102
53179		-6.620868	-19.083577	-5.021323
53180		-6.662313	-19.021081	-5.079022
53181		-6.711804	-18.964591	-5.146394
53182		-6.757016	-18.913321	-5.222138
53183		-6.802879	-18.861120	-5.303462
53184		-6.852799	-18.812291	-5.387175
53185		-6.906137	-18.761745	-5.472144
53186		-6.975475	-18.708631	-5.560052
53187		-7.053945	-18.649740	-5.649294
53188		-7.129966	-18.582133	-5.747505
53189		-7.199856	-18.513877	-5.854577
53190		-7.274254	-18.453525	-5.967021
53191		-7.353661	-18.396819	-6.087172
53192		-7.440029	-18.342718	-6.213726
53193		-7.515880	-18.289575	-6.349442
53194		-7.584543	-18.244049	-6.495739
53195		-7.635301	-18.195900	-6.663071
53196		-7.679070	-18.153678	-6.853781
53197		-7.728963	-18.109335	-7.059446
53198		-7.781085	-18.068002	-7.270321
53199		-7.824823	-18.024639	-7.487756
53200		-7.867350	-17.979102	-7.708024
53201		-7.920600	-17.931619	-7.928364
53202		-7.987565	-17.885159	-8.151546
53203		-8.049588	-17.836065	-8.383610
53204		-8.120267	-17.794720	-8.624699
53205		-8.175120	-17.749255	-8.882138
53206		-8.233572	-17.703172	-9.144517
53207		-8.293945	-17.654884	-9.412238
53208		-8.355729	-17.609009	-9.684910
53209		-8.424741	-17.561763	-9.961603
53210		-8.523458	-17.515174	-10.236632
53211		-8.628020	-17.470712	-10.519633
53212		-8.701124	-17.429599	-10.820761
53213		-8.761411	-17.392792	-11.149496
53214		-8.794594	-17.356774	-11.493950
53215		-8.823492	-17.319825	-11.846652
53216		-8.864078	-17.283732	-12.202677
53217		-8.909180	-17.251463	-12.562703
53218		-8.950362	-17.215146	-12.928529
53219		-8.993310	-17.175691	-13.301405
53220		-9.045489	-17.143889	-13.678806
53221		-9.093405	-17.098568	-14.072280
53222		-9.112551	-17.055892	-14.480873
53223		-9.131975	-17.014645	-14.904341
53224		-9.156255	-16.966937	-15.338675
53225		-9.208691	-16.913391	-15.769266
53226		-9.303001	-16.853387	-16.191491
53227		-9.391633	-16.792398	-16.611311
53228		-9.449852	-16.741136	-17.039381
53229		-9.467354	-16.692513	-17.480090
53230		-9.494069	-16.638677	-17.931166
53231		-9.533730	-16.580204	-18.381618
53232		-9.577522	-16.521129	-18.822393
53233		-9.617094	-16.464708	-19.261698
53234		-9.637235	-16.411688	-19.708802
53235		-9.648707	-16.359741	-20.169286
53236		-9.659135	-16.307545	-20.639973
53237		-9.685518	-16.246825	-21.116369
53238		-9.735176	-16.179002	-21.594161
53239		-9.826994	-16.094325	-22.060657
53240		-9.933956	-16.003625	-22.523911
53241		-10.035060	-15.908338	-22.987456
53242		-10.106358	-15.814457	-23.463434
53243		-10.087923	-15.729718	-23.962964
53244		-10.052970	-15.658327	-24.464483
53245		-10.035649	-15.586034	-24.953873
53246		-10.069938	-15.512182	-25.430462
53247		-10.119957	-15.443749	-25.902192
53248		-10.175638	-15.380289	-26.371565
53249		-10.231691	-15.315270	-26.840067
53250		-10.283487	-15.248829	-27.303750
53251		-10.322583	-15.171547	-27.764566
53252		-10.357265	-15.083638	-28.223362
53253		-10.394598	-15.000664	-28.682225
53254		-10.409364	-14.936903	-29.156464
53255		-10.416934	-14.874658	-29.640949
53256		-10.449703	-14.808251	-30.121411
53257		-10.507599	-14.731164	-30.587227
53258		-10.586283	-14.635819	-31.033630
53259		-10.664190	-14.526490	-31.468279
53260		-10.731815	-14.417618	-31.900925
53261		-10.782306	-14.328845	-32.344873
53262		-10.791509	-14.244153	-32.804452
53263		-10.818421	-14.139550	-33.266969
53264		-10.846400	-14.030766	-33.724034
53265		-10.844457	-13.931438	-34.169653
53266		-10.861505	-13.831523	-34.603634
53267		-10.908298	-13.714192	-35.031481
53268		-10.957761	-13.597967	-35.452851
53269		-11.033259	-13.470938	-35.857197
53270		-11.128881	-13.341646	-36.245534
53271		-11.207689	-13.213704	-36.624291
53272		-11.259526	-13.113838	-37.004413
53273		-11.231099	-13.043652	-37.410053
53274		-11.123949	-13.004957	-37.829708
53275		-11.030051	-12.966590	-38.255784
53276		-10.956828	-12.919178	-38.667245
53277		-10.893804	-12.870921	-39.069859
53278		-10.862082	-12.810629	-39.461882
53279		-10.884752	-12.727279	-39.844795
53280		-10.900641	-12.639130	-40.221975
53281		-10.940722	-12.544843	-40.603577
53282		-10.941273	-12.459850	-40.994612
53283		-10.884647	-12.389794	-41.404961
53284		-10.812786	-12.324387	-41.834550
53285		-10.759165	-12.260252	-42.275460
53286		-10.702738	-12.201516	-42.714063
53287		-10.663822	-12.134478	-43.148801
53288		-10.646847	-12.068662	-43.574747
53289		-10.631075	-12.004294	-43.997190
53290		-10.610258	-11.933287	-44.424114
53291		-10.607396	-11.854070	-44.848482
53292		-10.572662	-11.787404	-45.275162
53293		-10.509259	-11.727306	-45.708958
53294		-10.472923	-11.670908	-46.149934
53295		-10.421252	-11.618079	-46.593736
53296		-10.361789	-11.564944	-47.038607
53297		-10.291793	-11.521375	-47.479124
53298		-10.194145	-11.488415	-47.912053
53299		-10.105145	-11.451160	-48.337876
53300		-10.026957	-11.413557	-48.749015
53301		-9.951790	-11.359902	-49.141134
53302		-9.907987	-11.293924	-49.525679
53303		-9.883467	-11.227681	-49.909790
53304		-9.836186	-11.183805	-50.295357
53305		-9.733488	-11.166749	-50.680334
53306		-9.638771	-11.153892	-51.061372
53307		-9.549729	-11.136321	-51.444151
53308		-9.463064	-11.131370	-51.833267
53309		-9.395643	-11.110783	-52.212979
53310		-9.359545	-11.070400	-52.561243
53311		-9.351227	-11.024918	-52.895396
53312		-9.350278	-10.981486	-53.220349
53313		-9.384623	-10.934726	-53.542160
53314		-9.416543	-10.903597	-53.863316
53315		-9.431957	-10.870303	-54.185958
53316		-9.449767	-10.835279	-54.508075
53317		-9.464800	-10.801333	-54.828134
53318		-9.461892	-10.765722	-55.144040
53319		-9.456754	-10.729135	-55.452313
53320		-9.448998	-10.688118	-55.749890
53321		-9.441585	-10.644252	-56.037750
53322		-9.444923	-10.596700	-56.320355
53323		-9.448559	-10.557270	-56.599760
53324		-9.441742	-10.519747	-56.880916
53325		-9.411781	-10.494558	-57.153219
53326		-9.366349	-10.479256	-57.415728
53327		-9.322209	-10.462950	-57.662126
53328		-9.274646	-10.437842	-57.895738
53329		-9.231196	-10.401692	-58.116010
53330		-9.189076	-10.356301	-58.329480
53331		-9.140736	-10.318679	-58.539438
53332		-9.080872	-10.281500	-58.751297
53333		-9.034399	-10.233894	-58.965237
53334		-8.987322	-10.190206	-59.184727
53335		-8.929225	-10.145458	-59.393690
53336		-8.866468	-10.097603	-59.589550
53337		-8.808478	-10.044657	-59.775258
53338		-8.748640	-9.982849	-59.957539
53339		-8.688530	-9.912214	-60.136869
53340		-8.644804	-9.839333	-60.309942
53341		-8.612988	-9.775249	-60.469661
53342		-8.565865	-9.719826	-60.615672
53343		-8.502480	-9.670353	-60.752601
53344		-8.454100	-9.611652	-60.880239
53345		-8.408732	-9.550404	-60.997865
53346		-8.370867	-9.482759	-61.114098
53347		-8.334695	-9.422730	-61.228971
53348		-8.300717	-9.366485	-61.333943
53349		-8.272241	-9.315778	-61.431949
53350		-8.235677	-9.270118	-61.521277
53351		-8.189122	-9.223561	-61.603802
53352		-8.131703	-9.183201	-61.679057
53353		-8.076655	-9.135031	-61.752876
53354		-8.021790	-9.093814	-61.820881
53355		-7.967993	-9.052396	-61.883542
53356		-7.922940	-9.007755	-61.944302
53357		-7.895773	-8.956362	-61.996424
53358		-7.870630	-8.913071	-62.041214
53359		-7.839575	-8.871887	-62.081889
53360		-7.816923	-8.834049	-62.121594
53361		-7.806905	-8.793386	-62.165341
53362		-7.802200	-8.752811	-62.205196
53363		-7.801705	-8.715425	-62.238198
53364		-7.799622	-8.670539	-62.272395
53365		-7.806368	-8.614059	-62.302010
53366		-7.815412	-8.561997	-62.322511
53367		-7.813679	-8.509615	-62.337104
53368		-7.811435	-8.465504	-62.347552
53369		-7.809773	-8.427165	-62.352940
53370		-7.802009	-8.391949	-62.350242
53371		-7.796871	-8.346706	-62.343254
53372		-7.795016	-8.299382	-62.329349
53373		-7.796050	-8.247276	-62.310460
53374		-7.798076	-8.196481	-62.287507
53375		-7.805802	-8.148033	-62.259889
53376		-7.809277	-8.105783	-62.226745
53377		-7.808845	-8.061464	-62.194957
53378		-7.818271	-8.013690	-62.157875
53379		-7.836718	-7.965909	-62.113204
53380		-7.852477	-7.922893	-62.061201
53381		-7.863983	-7.888023	-62.000965
53382		-7.878121	-7.851573	-61.931437
53383		-7.896587	-7.815917	-61.856712
53384		-7.919433	-7.790197	-61.775726
53385		-7.942077	-7.761125	-61.689981
53386		-7.973149	-7.730550	-61.596963
53387		-8.006839	-7.696706	-61.497946
53388		-8.055696	-7.663962	-61.392503
53389		-8.102783	-7.634924	-61.277717
53390		-8.164567	-7.605213	-61.155755
53391		-8.232807	-7.576313	-61.024279
53392		-8.312396	-7.551864	-60.883092
53393		-8.393359	-7.535164	-60.730451
53394		-8.467537	-7.528324	-60.569368
53395		-8.540571	-7.523014	-60.402309
53396		-8.615872	-7.525899	-60.229836
53397		-8.679845	-7.536655	-60.054281
53398		-8.736848	-7.548975	-59.873102
53399		-8.801732	-7.563489	-59.687347
53400		-8.865902	-7.584777	-59.501734
53401		-8.925027	-7.607402	-59.310908
53402		-8.990417	-7.632934	-59.115692
53403		-9.052805	-7.661347	-58.914350
53404		-9.114414	-7.688985	-58.703174
53405		-9.186851	-7.710736	-58.486421
53406		-9.246218	-7.744450	-58.259986
53407		-9.278360	-7.790907	-58.027150
53408		-9.287714	-7.851484	-57.790788
53409		-9.304518	-7.903355	-57.549225
53410		-9.332001	-7.940926	-57.304129
53411		-9.371945	-7.978164	-57.053082
53412		-9.413197	-8.022774	-56.796539
53413		-9.467986	-8.057818	-56.534634
53414		-9.538431	-8.095024	-56.263579
53415		-9.610547	-8.127936	-55.975905
53416		-9.681503	-8.161746	-55.672575
53417		-9.738065	-8.199250	-55.356325
53418		-9.771800	-8.247215	-55.033989
53419		-9.813000	-8.295423	-54.702767
53420		-9.874873	-8.342479	-54.363377
53421		-9.962227	-8.384418	-54.013846
53422		-10.071666	-8.420199	-53.656517
53423		-10.187764	-8.451908	-53.294473
53424		-10.286875	-8.486263	-52.929297
53425		-10.346749	-8.544258	-52.557190
53426		-10.388595	-8.607492	-52.179780
53427		-10.446460	-8.663674	-51.794615
53428		-10.515937	-8.723562	-51.403499
53429		-10.575147	-8.789441	-51.009685
53430		-10.602700	-8.861849	-50.622113
53431		-10.628804	-8.926883	-50.234446
53432		-10.678424	-8.989772	-49.841487
53433		-10.741489	-9.042749	-49.449591
53434		-10.806086	-9.102468	-49.055526
53435		-10.864213	-9.173472	-48.656419
53436		-10.912510	-9.242689	-48.251249
53437		-10.991169	-9.311474	-47.839097
53438		-11.075337	-9.379023	-47.421531
53439		-11.160687	-9.436974	-47.000318
53440		-11.268398	-9.497226	-46.569015
53441		-11.374055	-9.553732	-46.129979
53442		-11.474749	-9.621566	-45.683612
53443		-11.580003	-9.689976	-45.241233
53444		-11.652890	-9.763503	-44.799593
53445		-11.708775	-9.836976	-44.355855
53446		-11.779955	-9.913276	-43.914068
53447		-11.843350	-9.995736	-43.476961
53448		-11.918813	-10.075457	-43.041966
53449		-12.013234	-10.163179	-42.604494
53450		-12.100418	-10.243974	-42.170456
53451		-12.159607	-10.320841	-41.745847
53452		-12.222619	-10.399988	-41.331236
53453		-12.270399	-10.494603	-40.927959
53454		-12.278879	-10.607111	-40.536417
53455		-12.292676	-10.719986	-40.155007
53456		-12.327388	-10.831255	-39.766525
53457		-12.393294	-10.932108	-39.366746
53458		-12.471237	-11.036437	-38.960915
53459		-12.543218	-11.129375	-38.540440
53460		-12.610798	-11.225572	-38.115469
53461		-12.666709	-11.335603	-37.674655
53462		-12.719740	-11.439223	-37.230231
53463		-12.751647	-11.547242	-36.774463
53464		-12.756437	-11.663330	-36.308791
53465		-12.756300	-11.776435	-35.841822
53466		-12.754033	-11.892590	-35.367556
53467		-12.766656	-12.017609	-34.884867
53468		-12.764367	-12.147232	-34.388820
53469		-12.735808	-12.280536	-33.888579
53470		-12.688350	-12.433208	-33.384904
53471		-12.628155	-12.610892	-32.870625
53472		-12.580065	-12.787146	-32.351852
53473		-12.520472	-12.971309	-31.834742
53474		-12.436456	-13.150260	-31.322278
53475		-12.365948	-13.334288	-30.817239
53476		-12.303318	-13.520773	-30.318377
53477		-12.229292	-13.717297	-29.821994
53478		-12.124658	-13.920137	-29.337253
53479		-11.995608	-14.115717	-28.873243
53480		-11.882069	-14.319465	-28.413537
53481		-11.802630	-14.526784	-27.956227
53482		-11.731347	-14.732166	-27.499756
53483		-11.673494	-14.927947	-27.048895
53484		-11.631507	-15.120666	-26.597595
53485		-11.591758	-15.319262	-26.155336
53486		-11.513891	-15.522711	-25.730550
53487		-11.417073	-15.721384	-25.316470
53488		-11.341429	-15.935562	-24.903766
53489		-11.246616	-16.150101	-24.495036
53490		-11.149352	-16.353127	-24.096545
53491		-11.059528	-16.534314	-23.706687
53492		-10.976665	-16.706787	-23.322810
53493		-10.896985	-16.869933	-22.933516
53494		-10.839903	-17.033230	-22.537295
53495		-10.770575	-17.191216	-22.139126
53496		-10.710063	-17.346961	-21.726822
53497		-10.656593	-17.500015	-21.310689
53498		-10.604197	-17.631534	-20.908512
53499		-10.544352	-17.746104	-20.513417
53500		-10.490103	-17.871076	-20.112765
53501		-10.429761	-17.995700	-19.697532
53502		-10.336153	-18.123710	-19.277765
53503		-10.282602	-18.247738	-18.855995
53504		-10.243214	-18.363902	-18.441523
53505		-10.164487	-18.456247	-18.035815
53506		-10.076400	-18.544056	-17.620090
53507		-9.983467	-18.623409	-17.206076
53508		-9.898375	-18.692632	-16.800945
53509		-9.847213	-18.791628	-16.396094
53510		-9.823811	-18.874353	-16.001611
53511		-9.752763	-18.933767	-15.626726
53512		-9.681985	-18.990430	-15.254282
53513		-9.625140	-19.056548	-14.875700
53514		-9.585396	-19.134453	-14.500355
53515		-9.558505	-19.226138	-14.115565
53516		-9.556768	-19.324307	-13.727538
53517		-9.555101	-19.392563	-13.363000
53518		-9.509049	-19.446551	-13.033980
53519		-9.471139	-19.493765	-12.722273
53520		-9.426094	-19.554055	-12.416614
53521		-9.379922	-19.607785	-12.118883
53522		-9.328248	-19.657320	-11.830233
53523		-9.315800	-19.723276	-11.537865
53524		-9.357431	-19.819681	-11.256549
53525		-9.355574	-19.893471	-10.995466
53526		-9.322804	-19.948058	-10.749918
53527		-9.265826	-19.991836	-10.515882
53528		-9.215125	-20.035790	-10.289367
53529		-9.181266	-20.087760	-10.071835
53530		-9.151011	-20.123983	-9.871960
53531		-9.090245	-20.146123	-9.693292
53532		-9.019361	-20.162072	-9.525256
53533		-8.943129	-20.178428	-9.361728
53534		-8.868038	-20.210688	-9.202019
53535		-8.788722	-20.235109	-9.054915
53536		-8.704748	-20.253552	-8.926981
53537		-8.599721	-20.248397	-8.818791
53538		-8.457389	-20.244176	-8.727892
53539		-8.337782	-20.230731	-8.634470
53540		-8.199770	-20.209851	-8.538798
53541		-8.085042	-20.190422	-8.435629
53542		-7.974128	-20.163314	-8.336172
53543		-7.869040	-20.135942	-8.230153
53544		-7.798145	-20.118227	-8.111231
53545		-7.698473	-20.101016	-7.991839
53546		-7.585576	-20.073195	-7.885841
53547		-7.464754	-20.059353	-7.783723
53548		-7.343821	-20.047439	-7.687163
53549		-7.240157	-20.028008	-7.597290
53550		-7.130411	-20.018304	-7.498554
53551		-7.034022	-19.996950	-7.389589
53552		-6.964086	-19.988145	-7.273523
53553		-6.936746	-19.993628	-7.162189
53554		-6.894046	-19.997489	-7.067412
53555		-6.849352	-19.984572	-6.984051
53556		-6.803919	-19.974735	-6.900070
53557		-6.775544	-19.962059	-6.815244
53558		-6.756423	-19.963990	-6.731169
53559		-6.733568	-19.964647	-6.653805
53560		-6.694599	-19.955338	-6.585680
53561		-6.663913	-19.944364	-6.523120
53562		-6.633562	-19.929524	-6.465769
53563		-6.618686	-19.916650	-6.411889
53564		-6.615381	-19.915276	-6.358861
53565		-6.604343	-19.904394	-6.318562
53566		-6.596917	-19.905566	-6.285227
53567		-6.568649	-19.904498	-6.259953
53568		-6.547782	-19.898615	-6.232319
53569		-6.542416	-19.898203	-6.197633
53570		-6.539355	-19.903187	-6.153531
53571		-6.553487	-19.912299	-6.101857
53572		-6.581080	-19.920756	-6.042649
53573		-6.623011	-19.911227	-5.991981
53574		-6.650114	-19.900837	-5.960481
53575		-6.666201	-19.905973	-5.940820
53576		-6.668195	-19.922001	-5.931219
53577		-6.669222	-19.931260	-5.927226
53578		-6.661484	-19.943879	-5.922872
53579		-6.650827	-19.950132	-5.925463
53580		-6.638311	-19.957045	-5.930896
53581		-6.631467	-19.966956	-5.938891
53582		-6.635565	-19.982573	-5.948164
53583		-6.625637	-19.997042	-5.966600
53584		-6.597240	-20.012322	-5.991674
53585		-6.558035	-20.025493	-6.025082
53586		-6.519039	-20.037143	-6.059777
53587		-6.476048	-20.049347	-6.095615
53588		-6.433790	-20.057508	-6.131517
53589		-6.388437	-20.066439	-6.170061
53590		-6.336238	-20.070251	-6.217858
53591		-6.273162	-20.063919	-6.270592
53592		-6.215017	-20.051966	-6.328128
53593		-6.144826	-20.042900	-6.398914
53594		-6.065413	-20.039688	-6.476334
53595		-5.983996	-20.033031	-6.555637
53596		-5.912491	-20.028279	-6.625097
53597		-5.848753	-20.016372	-6.683772
53598		-5.812705	-19.997639	-6.728588
53599		-5.787257	-19.976075	-6.770888
53600		-5.766252	-19.960383	-6.810118
53601		-5.736996	-19.940514	-6.856738
53602		-5.703565	-19.926979	-6.899725
53603		-5.661805	-19.916313	-6.937454
53604		-5.627039	-19.906888	-6.969373
53605		-5.606880	-19.897403	-6.991523
53606		-5.595789	-19.890559	-7.010110
53607		-5.595842	-19.876568	-7.027301
53608		-5.598132	-19.850912	-7.049250
53609		-5.606951	-19.821448	-7.076191
53610		-5.614075	-19.789144	-7.113909
53611		-5.622068	-19.754222	-7.157968
53612		-5.630041	-19.722261	-7.211374
53613		-5.635087	-19.691136	-7.267304
53614		-5.641548	-19.662472	-7.324672
53615		-5.649566	-19.634003	-7.380167
53616		-5.666523	-19.601141	-7.433018
53617		-5.693251	-19.558183	-7.482734
53618		-5.731397	-19.514188	-7.530490
53619		-5.776732	-19.475517	-7.580739
53620		-5.820892	-19.430751	-7.644537
53621		-5.853742	-19.384675	-7.714048
53622		-5.883515	-19.343577	-7.792891
53623		-5.905843	-19.303027	-7.876797
53624		-5.930318	-19.266197	-7.967902
53625		-5.954043	-19.233607	-8.067160
53626		-5.979697	-19.200192	-8.170634
53627		-6.013509	-19.172599	-8.275502
53628		-6.045157	-19.140407	-8.384199
53629		-6.081855	-19.111512	-8.497134
53630		-6.119881	-19.082871	-8.623552
53631		-6.154208	-19.050880	-8.765208
53632		-6.189512	-19.025169	-8.914423
53633		-6.240005	-19.006821	-9.069296
53634		-6.283649	-18.996358	-9.236823
53635		-6.317444	-18.988782	-9.413227
53636		-6.360974	-18.976752	-9.592314
53637		-6.401026	-18.964155	-9.775180
53638		-6.436195	-18.959824	-9.962847
53639		-6.480428	-18.950451	-10.148580
53640		-6.531882	-18.932269	-10.328851
53641		-6.596303	-18.910320	-10.508085
53642		-6.653184	-18.885631	-10.701186
53643		-6.702579	-18.866760	-10.907668
53644		-6.745685	-18.843396	-11.136326
53645		-6.786236	-18.813940	-11.390352
53646		-6.804673	-18.784216	-11.655810
53647		-6.824343	-18.754139	-11.914095
53648		-6.851392	-18.731152	-12.163607
53649		-6.890480	-18.702648	-12.407066
53650		-6.938411	-18.667149	-12.646362
53651		-6.990134	-18.618898	-12.882246
53652		-7.061864	-18.552094	-13.111814
53653		-7.125441	-18.474469	-13.344837
53654		-7.190830	-18.395160	-13.593273
53655		-7.232882	-18.313397	-13.860456
53656		-7.262803	-18.226425	-14.136938
53657		-7.290568	-18.142094	-14.415229
53658		-7.300023	-18.057232	-14.703014
53659		-7.317599	-17.972049	-14.996281
53660		-7.343333	-17.877240	-15.286639
53661		-7.367929	-17.762868	-15.576058
53662		-7.391091	-17.642961	-15.868217
53663		-7.408419	-17.526160	-16.171514
53664		-7.403260	-17.424381	-16.496799
53665		-7.379949	-17.329209	-16.843171
53666		-7.342163	-17.229753	-17.202774
53667		-7.330319	-17.137411	-17.560525
53668		-7.344358	-17.047619	-17.911083
53669		-7.398814	-16.956996	-18.259619
53670		-7.465375	-16.867615	-18.610668
53671		-7.498627	-16.776594	-18.975651
53672		-7.507953	-16.681592	-19.355748
53673		-7.514207	-16.583209	-19.746544
53674		-7.536292	-16.491014	-20.150128
53675		-7.562867	-16.400509	-20.561695
53676		-7.597830	-16.311445	-20.977176
53677		-7.624653	-16.225522	-21.392153
53678		-7.656816	-16.130847	-21.805953
53679		-7.703523	-16.030110	-22.221539
53680		-7.762610	-15.940030	-22.640378
53681		-7.812988	-15.852317	-23.065510
53682		-7.865986	-15.768175	-23.493636
53683		-7.946108	-15.673835	-23.923953
53684		-8.044505	-15.567058	-24.349709
53685		-8.143445	-15.464985	-24.777734
53686		-8.197552	-15.369165	-25.219957
53687		-8.230546	-15.267458	-25.681062
53688		-8.219392	-15.179311	-26.158447
53689		-8.193829	-15.099017	-26.635734
53690		-8.197846	-15.020528	-27.116353
53691		-8.219696	-14.949521	-27.597146
53692		-8.242593	-14.878925	-28.081392
53693		-8.281142	-14.804880	-28.552013
53694		-8.365270	-14.721687	-29.013997
53695		-8.452435	-14.634415	-29.472226
53696		-8.513696	-14.547418	-29.935513
53697		-8.532063	-14.493450	-30.409325
53698		-8.507891	-14.448751	-30.891430
53699		-8.507364	-14.395715	-31.372059
53700		-8.529845	-14.334970	-31.839208
53701		-8.536610	-14.270310	-32.289887
53702		-8.565515	-14.181483	-32.723390
53703		-8.656402	-14.058022	-33.147048
53704		-8.781644	-13.919279	-33.568223
53705		-8.970327	-13.801307	-33.987776
53706		-9.056594	-13.722926	-34.423032
53707		-9.097288	-13.649587	-34.872644
53708		-9.160643	-13.584490	-35.324893
53709		-9.229367	-13.516725	-35.774755
53710		-9.290065	-13.454544	-36.212043
53711		-9.356925	-13.396089	-36.638604
53712		-9.421725	-13.342489	-37.054144
53713		-9.475501	-13.290097	-37.457009
53714		-9.555912	-13.235527	-37.845470
53715		-9.630227	-13.195765	-38.228007
53716		-9.680730	-13.165211	-38.609741
53717		-9.743555	-13.133345	-38.992189
53718		-9.797596	-13.101955	-39.380586
53719		-9.820893	-13.086427	-39.766574
53720		-9.826882	-13.085192	-40.149649
53721		-9.829242	-13.083047	-40.528159
53722		-9.819573	-13.082956	-40.902732
53723		-9.806510	-13.071653	-41.270977
53724		-9.812033	-13.040833	-41.633121
53725		-9.836122	-12.995116	-41.994593
53726		-9.877862	-12.940716	-42.352011
53727		-9.920614	-12.892273	-42.710087
53728		-9.948961	-12.850116	-43.076075
53729		-9.967052	-12.810404	-43.445459
53730		-10.012192	-12.777406	-43.811713
53731		-10.011782	-12.764151	-44.178172
53732		-9.990120	-12.761756	-44.547841
53733		-9.977670	-12.755368	-44.917358
53734		-9.985552	-12.742269	-45.279144
53735		-9.997728	-12.719845	-45.633961
53736		-10.022249	-12.676464	-45.987983
53737		-10.043155	-12.627749	-46.338547
53738		-10.062335	-12.572861	-46.683676
53739		-10.066910	-12.520896	-47.021347
53740		-10.066344	-12.468235	-47.352295
53741		-10.064955	-12.407528	-47.669053
53742		-10.069137	-12.357003	-47.982592
53743		-10.033764	-12.328262	-48.285638
53744		-9.981724	-12.309010	-48.584357
53745		-9.959789	-12.282158	-48.880150
53746		-9.923889	-12.260617	-49.177866
53747		-9.873780	-12.240353	-49.475321
53748		-9.847833	-12.208640	-49.765313
53749		-9.844186	-12.169454	-50.050798
53750		-9.855378	-12.132499	-50.329023
53751		-9.888186	-12.089136	-50.603681
53752		-9.944172	-12.048029	-50.875207
53753		-9.953353	-12.028279	-51.153708
53754		-9.916863	-12.039902	-51.437255
53755		-9.851357	-12.069181	-51.729486
53756		-9.780177	-12.112815	-52.032706
53757		-9.715608	-12.146143	-52.331983
53758		-9.669760	-12.168199	-52.613318
53759		-9.651893	-12.185973	-52.878852
53760		-9.639348	-12.211575	-53.135329
53761		-9.615671	-12.236380	-53.386900
53762		-9.592368	-12.266861	-53.627703
53763		-9.578702	-12.295797	-53.860310
53764		-9.563888	-12.318183	-54.094201
53765		-9.566115	-12.333275	-54.328692
53766		-9.572157	-12.347897	-54.563348
53767		-9.565805	-12.367362	-54.792754
53768		-9.561061	-12.388653	-55.020481
53769		-9.545156	-12.409558	-55.247346
53770		-9.528962	-12.411578	-55.476610
53771		-9.528566	-12.402477	-55.701135
53772		-9.532183	-12.378935	-55.918513
53773		-9.541095	-12.347907	-56.128703
53774		-9.547423	-12.322873	-56.328289
53775		-9.558672	-12.291331	-56.523477
53776		-9.565847	-12.275536	-56.711381
53777		-9.556836	-12.262348	-56.896020
53778		-9.546522	-12.246927	-57.076700
53779		-9.540234	-12.229196	-57.256866
53780		-9.536596	-12.210560	-57.430419
53781		-9.538765	-12.196458	-57.603140
53782		-9.543216	-12.188490	-57.775224
53783		-9.525217	-12.174491	-57.961909
53784		-9.506919	-12.170042	-58.130885
53785		-9.498963	-12.168470	-58.289512
53786		-9.488675	-12.165309	-58.437451
53787		-9.473391	-12.163158	-58.579543
53788		-9.451823	-12.160272	-58.711928
53789		-9.427665	-12.156653	-58.840980
53790		-9.411859	-12.147919	-58.967551
53791		-9.384524	-12.138937	-59.094099
53792		-9.328369	-12.133281	-59.225985
53793		-9.271870	-12.123858	-59.356932
53794		-9.232316	-12.113324	-59.483268
53795		-9.198309	-12.096488	-59.607100
53796		-9.175038	-12.077393	-59.727566
53797		-9.145983	-12.058428	-59.844235
53798		-9.111636	-12.040684	-59.961443
53799		-9.095371	-12.014884	-60.075769
53800		-9.084937	-11.995754	-60.184293
53801		-9.076389	-11.980080	-60.288991
53802		-9.062514	-11.972125	-60.390452
53803		-9.041298	-11.960202	-60.487409
53804		-9.022669	-11.949231	-60.574195
53805		-9.006097	-11.928089	-60.651827
53806		-8.995782	-11.903589	-60.724413
53807		-8.991809	-11.870892	-60.793523
53808		-8.998104	-11.839044	-60.853970
53809		-8.996695	-11.809397	-60.904290
53810		-8.982080	-11.790095	-60.946996
53811		-8.954075	-11.769448	-60.985533
53812		-8.931362	-11.749930	-61.017171
53813		-8.915054	-11.731991	-61.041297
53814		-8.888267	-11.718759	-61.064266
53815		-8.866919	-11.702298	-61.082603
53816		-8.856788	-11.683751	-61.093051
53817		-8.820905	-11.669527	-61.098790
53818		-8.745078	-11.668182	-61.101041
53819		-8.677433	-11.665474	-61.095080
53820		-8.637723	-11.663020	-61.078517
53821		-8.610237	-11.658382	-61.052795
53822		-8.584247	-11.646742	-61.020090
53823		-8.563074	-11.630558	-60.979556
53824		-8.528490	-11.616534	-60.934340
53825		-8.475879	-11.610771	-60.885072
53826		-8.411507	-11.607307	-60.828203
53827		-8.353097	-11.603166	-60.762403
53828		-8.307607	-11.600685	-60.684277
53829		-8.267288	-11.591708	-60.601844
53830		-8.235830	-11.580219	-60.510675
53831		-8.213238	-11.566357	-60.416159
53832		-8.189515	-11.557619	-60.313353
53833		-8.152468	-11.546392	-60.201655
53834		-8.124228	-11.536251	-60.079731
53835		-8.106091	-11.530021	-59.945935
53836		-8.106184	-11.529646	-59.805582
53837		-8.119194	-11.533455	-59.663080
53838		-8.159645	-11.526549	-59.520473
53839		-8.214326	-11.514100	-59.375575
53840		-8.301464	-11.493508	-59.222178
53841		-8.416420	-11.458340	-59.051078
53842		-8.566619	-11.417674	-58.857173
53843		-8.742020	-11.383652	-58.638283
53844		-8.933415	-11.370371	-58.400986
53845		-9.122158	-11.372551	-58.144068
53846		-9.312390	-11.378602	-57.873629
53847		-9.485072	-11.389044	-57.595687
53848		-9.638836	-11.406281	-57.312598
53849		-9.780525	-11.434504	-57.030493
53850		-9.901042	-11.476050	-56.749481
53851		-10.008768	-11.525965	-56.471835
53852		-10.099440	-11.588683	-56.192993
53853		-10.187656	-11.652747	-55.903035
53854		-10.272747	-11.716567	-55.603750
53855		-10.341384	-11.783986	-55.296492
53856		-10.393195	-11.849042	-54.981938
53857		-10.449698	-11.916164	-54.660562
53858		-10.494601	-11.983782	-54.329690
53859		-10.538539	-12.044821	-53.991095
53860		-10.583891	-12.100618	-53.642894
53861		-10.639414	-12.148408	-53.286342
53862		-10.698211	-12.206450	-52.918586
53863		-10.767845	-12.265439	-52.538580
53864		-10.826465	-12.331203	-52.147426
53865		-10.889141	-12.396588	-51.749183
53866		-10.956744	-12.456322	-51.344272
53867		-11.004449	-12.514962	-50.931467
53868		-11.033601	-12.566620	-50.519483
53869		-11.055987	-12.616603	-50.103262
53870		-11.077608	-12.674649	-49.682607
53871		-11.087762	-12.740082	-49.258948
53872		-11.076935	-12.816241	-48.835597
53873		-11.037759	-12.896644	-48.413087
53874		-10.969026	-12.986006	-47.983407
53875		-10.881435	-13.072538	-47.560350
53876		-10.804409	-13.156073	-47.125458
53877		-10.763941	-13.228245	-46.686348
53878		-10.751967	-13.289000	-46.241148
53879		-10.767677	-13.341066	-45.788019
53880		-10.783073	-13.397973	-45.330542
53881		-10.791741	-13.452600	-44.871870
53882		-10.804729	-13.513087	-44.409319
53883		-10.844208	-13.570041	-43.942717
53884		-10.890437	-13.621100	-43.480589
53885		-10.946341	-13.682913	-43.016719
53886		-11.021634	-13.734210	-42.549529
53887		-11.103192	-13.787194	-42.079791
53888		-11.200715	-13.837262	-41.608157
53889		-11.268419	-13.895729	-41.132332
53890		-11.320089	-13.952998	-40.656911
53891		-11.378462	-14.009654	-40.184071
53892		-11.444065	-14.069194	-39.702900
53893		-11.514966	-14.123457	-39.217995
53894		-11.567932	-14.189250	-38.720752
53895		-11.620641	-14.249593	-38.216161
53896		-11.667682	-14.318868	-37.702061
53897		-11.734853	-14.373648	-37.179552
53898		-11.829615	-14.425040	-36.648103
53899		-11.906320	-14.476451	-36.112859
53900		-11.968039	-14.527440	-35.574799
53901		-12.027117	-14.576662	-35.034867
53902		-12.087531	-14.624842	-34.491120
53903		-12.116931	-14.681402	-33.945629
53904		-12.154418	-14.729024	-33.406705
53905		-12.177072	-14.775105	-32.871945
53906		-12.212600	-14.821707	-32.340691
53907		-12.215363	-14.868325	-31.817720
53908		-12.204256	-14.891872	-31.308148
53909		-12.189878	-14.904745	-30.808650
53910		-12.199878	-14.924538	-30.317075
53911		-12.202662	-14.964597	-29.824013
53912		-12.173931	-15.019848	-29.332917
53913		-12.165295	-15.082464	-28.838900
53914		-12.177397	-15.158073	-28.339952
53915		-12.223294	-15.234353	-27.840888
53916		-12.269352	-15.330204	-27.335450
53917		-12.250947	-15.449868	-26.824878
53918		-12.249520	-15.540405	-26.318537
53919		-12.230537	-15.658062	-25.822424
53920		-12.221431	-15.768253	-25.355259
53921		-12.188789	-15.904754	-24.894056
53922		-12.163838	-16.033416	-24.434405
53923		-12.154586	-16.160825	-23.977186
53924		-12.140794	-16.278666	-23.515481
53925		-12.128354	-16.389761	-23.072249
53926		-12.104197	-16.517202	-22.641035
53927		-12.093575	-16.646247	-22.207967
53928		-12.091613	-16.778714	-21.762390
53929		-12.086311	-16.939879	-21.304230
53930		-12.101074	-17.123215	-20.819987
53931		-12.113147	-17.282345	-20.343750
53932		-12.103099	-17.387470	-19.904305
53933		-12.042874	-17.480522	-19.489591
53934		-11.981219	-17.575529	-19.080132
53935		-11.932455	-17.677013	-18.659550
53936		-11.910547	-17.776306	-18.214884
53937		-11.873206	-17.855517	-17.767727
53938		-11.828563	-17.950863	-17.319600
53939		-11.793396	-18.067290	-16.863896
53940		-11.768469	-18.176603	-16.424411
53941		-11.741994	-18.250647	-16.026145
53942		-11.649896	-18.311180	-15.655875
53943		-11.544105	-18.347558	-15.301755
53944		-11.452407	-18.388210	-14.939753
53945		-11.372879	-18.426770	-14.556224
53946		-11.329016	-18.486842	-14.146850
53947		-11.298408	-18.563574	-13.734992
53948		-11.258629	-18.637089	-13.340117
53949		-11.178038	-18.678226	-12.982819
53950		-11.110764	-18.694401	-12.665118
53951		-11.026033	-18.702672	-12.364246
53952		-10.923272	-18.711405	-12.069069
53953		-10.829640	-18.724789	-11.758050
53954		-10.736143	-18.742229	-11.429115
53955		-10.646064	-18.744310	-11.101560
53956		-10.582044	-18.749801	-10.787075
53957		-10.497160	-18.749369	-10.491968
53958		-10.419765	-18.739036	-10.216711
53959		-10.297480	-18.732016	-9.959733
53960		-10.159560	-18.705773	-9.719285
53961		-10.063068	-18.707948	-9.473269
53962		-9.963696	-18.697124	-9.231947
53963		-9.849796	-18.703554	-8.992773
53964		-9.743510	-18.717639	-8.778171
53965		-9.603269	-18.706944	-8.613689
53966		-9.434672	-18.670802	-8.483442
53967		-9.260594	-18.664279	-8.344729
53968		-9.089377	-18.671188	-8.192876
53969		-8.917495	-18.691566	-8.020782
53970		-8.738934	-18.678893	-7.849379
53971		-8.584265	-18.660246	-7.668815
53972		-8.443462	-18.625384	-7.489103
53973		-8.353903	-18.609394	-7.303216
53974		-8.242538	-18.595364	-7.131122
53975		-8.098423	-18.548968	-6.978945
53976		-7.941928	-18.495254	-6.841803
53977		-7.800319	-18.444115	-6.699004
53978		-7.689244	-18.411761	-6.544631
53979		-7.577175	-18.386513	-6.363728
53980		-7.443755	-18.346728	-6.179298
53981		-7.326666	-18.300121	-6.000503
53982		-7.211249	-18.265288	-5.829998
53983		-7.102756	-18.212777	-5.678452
53984		-7.005369	-18.179534	-5.535105
53985		-6.900638	-18.142540	-5.404096
53986		-6.819983	-18.082979	-5.289189
53987		-6.736893	-18.023906	-5.178739
53988		-6.661196	-17.964948	-5.069014
53989		-6.579478	-17.908185	-4.965416
53990		-6.512549	-17.854214	-4.862365
53991		-6.449417	-17.809145	-4.764417
53992		-6.392043	-17.774297	-4.675303
53993		-6.345573	-17.751767	-4.592158
53994		-6.291526	-17.719154	-4.507395
53995		-6.237954	-17.674167	-4.416275
53996		-6.187093	-17.615907	-4.332185
53997		-6.134349	-17.560494	-4.247011
53998		-6.073865	-17.505678	-4.167918
53999		-6.024608	-17.463968	-4.094127
54000		-5.988802	-17.430456	-4.027045
54001		-5.958218	-17.392115	-3.966989
54002		-5.932992	-17.355567	-3.911877
54003		-5.906270	-17.317645	-3.859457
54004		-5.871644	-17.273970	-3.810026
54005		-5.830747	-17.244226	-3.763217
54006		-5.787466	-17.217024	-3.724407
54007		-5.747649	-17.186353	-3.695633
54008		-5.720260	-17.151166	-3.669164
54009		-5.691078	-17.107736	-3.648882
54010		-5.664958	-17.067923	-3.631666
54011		-5.644356	-17.018924	-3.616829
54012		-5.621858	-16.963696	-3.600548
54013		-5.612042	-16.897410	-3.581087
54014		-5.602229	-16.828021	-3.565265
54015		-5.588803	-16.759485	-3.556072
54016		-5.572814	-16.703527	-3.548529
54017		-5.551867	-16.653264	-3.549232
54018		-5.521336	-16.604525	-3.553076
54019		-5.490764	-16.558965	-3.553197
54020		-5.463605	-16.513537	-3.553443
54021		-5.436730	-16.469774	-3.555622
54022		-5.419139	-16.429264	-3.562449
54023		-5.407146	-16.384844	-3.575623
54024		-5.390590	-16.343096	-3.594661
54025		-5.366584	-16.302172	-3.620898
54026		-5.333618	-16.264675	-3.657087
54027		-5.304505	-16.235631	-3.695494
54028		-5.285908	-16.213388	-3.730457
54029		-5.279311	-16.191997	-3.763858
54030		-5.270931	-16.166173	-3.801832
54031		-5.255611	-16.142051	-3.841166
54032		-5.245053	-16.122707	-3.885223
54033		-5.237985	-16.100703	-3.935247
54034		-5.236858	-16.082022	-3.988803
54035		-5.245343	-16.067170	-4.043196
54036		-5.264460	-16.049128	-4.102953
54037		-5.279581	-16.031877	-4.168512
54038		-5.307974	-16.016338	-4.237959
54039		-5.342038	-16.004664	-4.308802
54040		-5.388528	-15.994477	-4.379437
54041		-5.444047	-15.973695	-4.453327
54042		-5.494220	-15.956586	-4.541534
54043		-5.541873	-15.935837	-4.642168
54044		-5.586792	-15.914177	-4.751954
54045		-5.633328	-15.886653	-4.877361
54046		-5.684378	-15.857395	-5.008173
54047		-5.746376	-15.817444	-5.140961
54048		-5.809590	-15.781739	-5.275371
54049		-5.873258	-15.745752	-5.415388
54050		-5.932150	-15.715373	-5.565472
54051		-6.011535	-15.686982	-5.731502
54052		-6.075813	-15.657313	-5.924625
54053		-6.113602	-15.627250	-6.136261
54054		-6.148862	-15.599040	-6.353644
54055		-6.189840	-15.567838	-6.571986
54056		-6.251554	-15.523415	-6.780078
54057		-6.346747	-15.460396	-6.983805
54058		-6.471994	-15.385270	-7.190584
54059		-6.595503	-15.303506	-7.405419
54060		-6.700505	-15.216236	-7.640384
54061		-6.808865	-15.120340	-7.894356
54062		-6.919729	-15.009267	-8.160646
54063		-7.034132	-14.890713	-8.432961
54064		-7.162418	-14.770724	-8.714873
54065		-7.277608	-14.650083	-9.009263
54066		-7.380691	-14.528461	-9.307645
54067		-7.478131	-14.409289	-9.609655
54068		-7.586154	-14.293588	-9.907068
54069		-7.727797	-14.172830	-10.204284
54070		-7.893971	-14.054028	-10.492980
54071		-8.017766	-13.929228	-10.790841
54072		-8.117374	-13.810691	-11.102478
54073		-8.199722	-13.698351	-11.426953
54074		-8.295030	-13.595534	-11.768995
54075		-8.365492	-13.490098	-12.127773
54076		-8.443218	-13.392190	-12.493664
54077		-8.555551	-13.290344	-12.855825
54078		-8.685523	-13.190839	-13.211975
54079		-8.818687	-13.099452	-13.561425
54080		-8.932103	-13.018155	-13.910892
54081		-9.036922	-12.924941	-14.264900
54082		-9.165299	-12.828246	-14.621350
54083		-9.285461	-12.722924	-14.974940
54084		-9.400349	-12.612164	-15.333012
54085		-9.512067	-12.502278	-15.693828
54086		-9.598679	-12.387353	-16.057729
54087		-9.692956	-12.259827	-16.426488
54088		-9.794374	-12.131226	-16.796692
54089		-9.910661	-12.019546	-17.171470
54090		-10.017766	-11.921142	-17.559260
54091		-10.115465	-11.832261	-17.959790
54092		-10.223107	-11.746694	-18.367605
54093		-10.319190	-11.668926	-18.778483
54094		-10.390551	-11.598054	-19.185378
54095		-10.465576	-11.522666	-19.591713
54096		-10.540578	-11.453765	-19.990279
54097		-10.598557	-11.394648	-20.386438
54098		-10.632327	-11.329497	-20.794341
54099		-10.665432	-11.236583	-21.213834
54100		-10.712272	-11.133914	-21.635587
54101		-10.751248	-11.024245	-22.059706
54102		-10.796074	-10.914011	-22.473642
54103		-10.811726	-10.812597	-22.877720
54104		-10.810195	-10.701574	-23.278081
54105		-10.812749	-10.588871	-23.669547
54106		-10.844645	-10.462701	-24.048269
54107		-10.898765	-10.336629	-24.421296
54108		-10.937385	-10.217990	-24.813106
54109		-10.922148	-10.118298	-25.217366
54110		-10.928677	-10.014213	-25.629649
54111		-10.922722	-9.919544	-26.041868
54112		-10.924534	-9.817624	-26.453964
54113		-10.942324	-9.717257	-26.855834
54114		-10.960414	-9.611475	-27.251172
54115		-11.004045	-9.495795	-27.637258
54116		-11.003726	-9.395502	-28.028766
54117		-10.961857	-9.297783	-28.418943
54118		-10.915237	-9.201180	-28.809760
54119		-10.851130	-9.113236	-29.194983
54120		-10.818133	-9.009671	-29.576533
54121		-10.828471	-8.901264	-29.955300
54122		-10.843553	-8.786643	-30.326977
54123		-10.894534	-8.655662	-30.691640
54124		-10.921923	-8.525141	-31.047221
54125		-10.926556	-8.401994	-31.403602
54126		-10.895759	-8.281761	-31.770203
54127		-10.882823	-8.165199	-32.140306
54128		-10.890341	-8.056642	-32.515888
54129		-10.845741	-7.972258	-32.903150
54130		-10.777327	-7.897165	-33.294699
