// General information: 
//  MT Manager version: 2022.2.0 
//  XDA version: 2022.2.0 build 7381 rev 124627 built on 2023-07-19
// Device information: 
//  DeviceId: 00B44876
//  ProductCode: MTW2-3A7G6
//  Firmware Version: 4.3.5
//  Hardware Version: 2.0.0
// Device settings: 
//  Filter Profile: human(46.1)
//  Option Flags: Orientation Smoother Disabled, Position/Velocity Smoother Disabled, Continuous Zero Rotation Update Disabled, AHS Disabled, ICC Disabled
// Coordinate system: ENU
PacketCounter	SampleTimeFine	Roll	Pitch	Yaw
51054		-7.424025	-5.675396	14.730135
51055		-7.370109	-5.716628	14.766638
51056		-7.273154	-5.792240	14.806627
51057		-7.144442	-5.901050	14.843722
51058		-7.008715	-6.028450	14.871577
51059		-6.889475	-6.150590	14.893811
51060		-6.804364	-6.239723	14.910911
51061		-6.756422	-6.281325	14.929373
51062		-6.746809	-6.282234	14.947594
51063		-6.762411	-6.252340	14.963389
51064		-6.789584	-6.207655	14.973207
51065		-6.817090	-6.163601	14.977382
51066		-6.836629	-6.133691	14.977595
51067		-6.841466	-6.126469	14.979010
51068		-6.839766	-6.133587	14.973957
51069		-6.833207	-6.141890	14.966717
51070		-6.820661	-6.141864	14.958484
51071		-6.809753	-6.131041	14.949837
51072		-6.803914	-6.110265	14.942524
51073		-6.804454	-6.078852	14.940714
51074		-6.810109	-6.042595	14.946497
51075		-6.813534	-6.009155	14.960500
51076		-6.812073	-5.988253	14.980109
51077		-6.795534	-5.988890	14.994464
51078		-6.766885	-6.004275	15.009513
51079		-6.732947	-6.027615	15.021452
51080		-6.707589	-6.053488	15.030689
51081		-6.689156	-6.073595	15.037329
51082		-6.679247	-6.082806	15.038805
51083		-6.667865	-6.075318	15.032196
51084		-6.658381	-6.059864	15.024878
51085		-6.659422	-6.041777	15.015323
51086		-6.666380	-6.023618	15.010003
51087		-6.669956	-6.008262	15.007056
51088		-6.665242	-5.992638	15.011796
51089		-6.644148	-5.974212	15.020135
51090		-6.616998	-5.958099	15.032796
51091		-6.585496	-5.950908	15.044543
51092		-6.553450	-5.959292	15.058074
51093		-6.512783	-5.979635	15.071491
51094		-6.476009	-6.008952	15.085025
51095		-6.447150	-6.038165	15.098163
51096		-6.432619	-6.058860	15.110304
51097		-6.418548	-6.066463	15.119478
51098		-6.398220	-6.062697	15.125234
51099		-6.363999	-6.051954	15.130480
51100		-6.319149	-6.040235	15.132910
51101		-6.271885	-6.033320	15.134857
51102		-6.232525	-6.031068	15.129938
51103		-6.200232	-6.031749	15.115284
51104		-6.177668	-6.038110	15.095836
51105		-6.160621	-6.051242	15.070160
51106		-6.142643	-6.069742	15.046029
51107		-6.113752	-6.089948	15.020413
51108		-6.082030	-6.112312	14.997399
51109		-6.052786	-6.136325	14.967297
51110		-6.031662	-6.160079	14.933866
51111		-6.019023	-6.185864	14.892347
51112		-6.010926	-6.218125	14.844145
51113		-5.992824	-6.249438	14.783617
51114		-5.969716	-6.279549	14.711817
51115		-5.961120	-6.295857	14.629180
51116		-5.971525	-6.302596	14.536203
51117		-5.995416	-6.294046	14.436843
51118		-6.026202	-6.279879	14.324616
51119		-6.050220	-6.268509	14.202052
51120		-6.061731	-6.267631	14.063075
51121		-6.055432	-6.289765	13.906015
51122		-6.033144	-6.337109	13.733622
51123		-5.999195	-6.407566	13.544686
51124		-5.963522	-6.485155	13.334922
51125		-5.924196	-6.558867	13.102887
51126		-5.887952	-6.615575	12.854594
51127		-5.864731	-6.657333	12.591000
51128		-5.863574	-6.687143	12.315684
51129		-5.875287	-6.711111	12.026086
51130		-5.897586	-6.734597	11.724245
51131		-5.918934	-6.761660	11.408901
51132		-5.936011	-6.796844	11.082823
51133		-5.928531	-6.835117	10.740488
51134		-5.900054	-6.877198	10.387331
51135		-5.856773	-6.926696	10.019594
51136		-5.821159	-6.982228	9.633206
51137		-5.796509	-7.044459	9.229827
51138		-5.788297	-7.105871	8.811586
51139		-5.789830	-7.162553	8.381819
51140		-5.804823	-7.210559	7.941580
51141		-5.821078	-7.253970	7.496336
51142		-5.845737	-7.301603	7.044122
51143		-5.870123	-7.363390	6.586119
51144		-5.896107	-7.446356	6.128323
51145		-5.916023	-7.551675	5.673313
51146		-5.938595	-7.672766	5.226132
51147		-5.946762	-7.795145	4.783703
51148		-5.945616	-7.914844	4.342057
51149		-5.926157	-8.027591	3.891840
51150		-5.899837	-8.133846	3.431218
51151		-5.865024	-8.232887	2.954787
51152		-5.838555	-8.322088	2.465708
51153		-5.807600	-8.403687	1.967627
51154		-5.772426	-8.474391	1.460393
51155		-5.729699	-8.538041	0.945790
51156		-5.698777	-8.597461	0.430420
51157		-5.658719	-8.657960	-0.089717
51158		-5.618584	-8.714319	-0.614341
51159		-5.557732	-8.769860	-1.147994
51160		-5.482612	-8.821083	-1.684214
51161		-5.391413	-8.863778	-2.227960
51162		-5.306175	-8.906871	-2.772341
51163		-5.210609	-8.960021	-3.327228
51164		-5.119406	-9.013496	-3.900498
51165		-5.028999	-9.062716	-4.500747
51166		-4.944861	-9.099917	-5.122096
51167		-4.847963	-9.123078	-5.764390
51168		-4.743202	-9.135618	-6.414665
51169		-4.626702	-9.140221	-7.075872
51170		-4.509305	-9.137739	-7.744345
51171		-4.389797	-9.128580	-8.432577
51172		-4.279512	-9.112403	-9.133834
51173		-4.169928	-9.082538	-9.853784
51174		-4.082370	-9.022742	-10.581713
51175		-4.011156	-8.934607	-11.320130
51176		-3.966130	-8.829264	-12.062754
51177		-3.909702	-8.738455	-12.808385
51178		-3.817805	-8.678071	-13.553564
51179		-3.681704	-8.637664	-14.304427
51180		-3.532416	-8.607330	-15.058900
51181		-3.377674	-8.573032	-15.820737
51182		-3.246808	-8.521354	-16.579699
51183		-3.131891	-8.445661	-17.335839
51184		-3.052913	-8.343321	-18.080967
51185		-3.005800	-8.225147	-18.815675
51186		-3.013052	-8.088831	-19.554542
51187		-3.072411	-7.952947	-20.301484
51188		-3.157938	-7.822867	-21.062233
51189		-3.238854	-7.715376	-21.837958
51190		-3.301784	-7.625241	-22.615799
51191		-3.333707	-7.532023	-23.394627
51192		-3.346278	-7.425843	-24.167242
51193		-3.329905	-7.305127	-24.942324
51194		-3.296410	-7.176018	-25.713986
51195		-3.250258	-7.046021	-26.482823
51196		-3.206542	-6.909509	-27.239275
51197		-3.175461	-6.777183	-27.986008
51198		-3.184177	-6.657585	-28.723220
51199		-3.220472	-6.565426	-29.463366
51200		-3.272069	-6.497497	-30.203619
51201		-3.303068	-6.444982	-30.947501
51202		-3.296288	-6.401594	-31.689885
51203		-3.242850	-6.372371	-32.437172
51204		-3.161529	-6.358566	-33.185091
51205		-3.065678	-6.339547	-33.936723
51206		-2.992031	-6.299160	-34.684144
51207		-2.954832	-6.233433	-35.428452
51208		-2.966088	-6.147563	-36.166333
51209		-2.996605	-6.056146	-36.901187
51210		-3.023030	-5.988902	-37.633475
51211		-3.027950	-5.963854	-38.363532
51212		-3.009847	-5.976082	-39.086608
51213		-2.973090	-6.022369	-39.805244
51214		-2.937095	-6.094050	-40.519309
51215		-2.907740	-6.169229	-41.221223
51216		-2.896607	-6.234810	-41.903672
51217		-2.918857	-6.271734	-42.573116
51218		-2.968315	-6.273460	-43.231278
51219		-3.001417	-6.241375	-43.885243
51220		-2.995630	-6.176555	-44.545479
51221		-2.899038	-6.105368	-45.219921
51222		-2.696402	-6.053004	-45.917986
51223		-2.386197	-6.044915	-46.637242
51224		-1.980794	-6.082750	-47.373396
51225		-1.483068	-6.155753	-48.121055
51226		-0.924138	-6.244070	-48.864003
51227		-0.343205	-6.331914	-49.592769
51228		0.196308	-6.395042	-50.293455
51229		0.652664	-6.430083	-50.970864
51230		0.997784	-6.447632	-51.624735
51231		1.244231	-6.469000	-52.270140
51232		1.427309	-6.529379	-52.914483
51233		1.586228	-6.629652	-53.555853
51234		1.734337	-6.747270	-54.185270
51235		1.864781	-6.859582	-54.802442
51236		1.943139	-6.961750	-55.408107
51237		1.968412	-7.041645	-56.008471
51238		1.947834	-7.087610	-56.604405
51239		1.900976	-7.087597	-57.192979
51240		1.841014	-7.065641	-57.782161
51241		1.783961	-7.047796	-58.375225
51242		1.734614	-7.037242	-58.978032
51243		1.696874	-7.048254	-59.589352
51244		1.663849	-7.070925	-60.197644
51245		1.621673	-7.094598	-60.804505
51246		1.565218	-7.122927	-61.407703
51247		1.503583	-7.154877	-62.007311
51248		1.438865	-7.183086	-62.596768
51249		1.394563	-7.211007	-63.178581
51250		1.378519	-7.235004	-63.748988
51251		1.397506	-7.270456	-64.303693
51252		1.451309	-7.325378	-64.842836
51253		1.535023	-7.394976	-65.360175
51254		1.614437	-7.467773	-65.856903
51255		1.679475	-7.535407	-66.337504
51256		1.719395	-7.592926	-66.811749
51257		1.730285	-7.632735	-67.288006
51258		1.707008	-7.647191	-67.770079
51259		1.642068	-7.636549	-68.255422
51260		1.543760	-7.598935	-68.733529
51261		1.425561	-7.551374	-69.202137
51262		1.305959	-7.501828	-69.665291
51263		1.213656	-7.458350	-70.126233
51264		1.170831	-7.430557	-70.590524
51265		1.179502	-7.415914	-71.059330
51266		1.217386	-7.413325	-71.528529
51267		1.250966	-7.414270	-71.988620
51268		1.254629	-7.402792	-72.434797
51269		1.228983	-7.373127	-72.868544
51270		1.174084	-7.329989	-73.292829
51271		1.106642	-7.287083	-73.720120
51272		1.035290	-7.256050	-74.146912
51273		0.957861	-7.249360	-74.565234
51274		0.891653	-7.271791	-74.974580
51275		0.857615	-7.312812	-75.376488
51276		0.855992	-7.359022	-75.771363
51277		0.873851	-7.396400	-76.154321
51278		0.890056	-7.397964	-76.518535
51279		0.884210	-7.364075	-76.864503
51280		0.853569	-7.309608	-77.195509
51281		0.809633	-7.247921	-77.513128
51282		0.776072	-7.191651	-77.828912
51283		0.761614	-7.156890	-78.145475
51284		0.764049	-7.145967	-78.458608
51285		0.788760	-7.160646	-78.759650
51286		0.829183	-7.186788	-79.039099
51287		0.887941	-7.219998	-79.302247
51288		0.965748	-7.256390	-79.547959
51289		1.055263	-7.300955	-79.778828
51290		1.145701	-7.355550	-79.999929
51291		1.228135	-7.412967	-80.203477
51292		1.304904	-7.459495	-80.390522
51293		1.371495	-7.491337	-80.556632
51294		1.434027	-7.507559	-80.704234
51295		1.489307	-7.525873	-80.842201
51296		1.540226	-7.552869	-80.969701
51297		1.582810	-7.583735	-81.083781
51298		1.624865	-7.614478	-81.184021
51299		1.665921	-7.647775	-81.262908
51300		1.708615	-7.683025	-81.330156
51301		1.745610	-7.724872	-81.392101
51302		1.774496	-7.766717	-81.438790
51303		1.791017	-7.802225	-81.476174
51304		1.799145	-7.833494	-81.503437
51305		1.795737	-7.857723	-81.523977
51306		1.786388	-7.871373	-81.540703
51307		1.767321	-7.872725	-81.546717
51308		1.750205	-7.863457	-81.550359
51309		1.727695	-7.847721	-81.536739
51310		1.724874	-7.833781	-81.518641
51311		1.737891	-7.828284	-81.497630
51312		1.770263	-7.834691	-81.479399
51313		1.814704	-7.852588	-81.462354
51314		1.879632	-7.879056	-81.443950
51315		1.960815	-7.905389	-81.425747
51316		2.077543	-7.919262	-81.407413
51317		2.201212	-7.924663	-81.386630
51318		2.315821	-7.927262	-81.365578
51319		2.389806	-7.923267	-81.332025
51320		2.412192	-7.914470	-81.285661
51321		2.388393	-7.903338	-81.232289
51322		2.341704	-7.895370	-81.178019
51323		2.301035	-7.894758	-81.121974
51324		2.291839	-7.908078	-81.073511
51325		2.315521	-7.931939	-81.028340
51326		2.364043	-7.965422	-80.989580
51327		2.412829	-8.002286	-80.949478
51328		2.457996	-8.039636	-80.908412
51329		2.500751	-8.073895	-80.862035
51330		2.559671	-8.100395	-80.803268
51331		2.619371	-8.109291	-80.734026
51332		2.675355	-8.104595	-80.655913
51333		2.743887	-8.096210	-80.582926
51334		2.841314	-8.096241	-80.516002
51335		2.970506	-8.106356	-80.453349
51336		3.134033	-8.118513	-80.390053
51337		3.293012	-8.121720	-80.312377
51338		3.426488	-8.109488	-80.219667
51339		3.500419	-8.086787	-80.099454
51340		3.536467	-8.050809	-79.953848
51341		3.546879	-8.009346	-79.782943
51342		3.568825	-7.956829	-79.585987
51343		3.621086	-7.886787	-79.372812
51344		3.725621	-7.803620	-79.159427
51345		3.878641	-7.711444	-78.951382
51346		4.067953	-7.619982	-78.752180
51347		4.251491	-7.533692	-78.544961
51348		4.402900	-7.458381	-78.329458
51349		4.494187	-7.392156	-78.088418
51350		4.537164	-7.329596	-77.834144
51351		4.536077	-7.264950	-77.558936
51352		4.524591	-7.190796	-77.264174
51353		4.514061	-7.095186	-76.943910
51354		4.520603	-6.979613	-76.596335
51355		4.532699	-6.845635	-76.223712
51356		4.554639	-6.713784	-75.830263
51357		4.570997	-6.593060	-75.420598
51358		4.594352	-6.497128	-75.004184
51359		4.615271	-6.425533	-74.578911
51360		4.632538	-6.374749	-74.138544
51361		4.620957	-6.335323	-73.666652
51362		4.589865	-6.302825	-73.160703
51363		4.526522	-6.257783	-72.610290
51364		4.445781	-6.198886	-72.009236
51365		4.345128	-6.127377	-71.358415
51366		4.273492	-6.053339	-70.667864
51367		4.226966	-5.997256	-69.946101
51368		4.208018	-5.976820	-69.199090
51369		4.178370	-5.981781	-68.425735
51370		4.126895	-6.005020	-67.621427
51371		4.023556	-6.032383	-66.781021
51372		3.879552	-6.050717	-65.913050
51373		3.696267	-6.058247	-65.019854
51374		3.522585	-6.058462	-64.115038
51375		3.379617	-6.061539	-63.210242
51376		3.310208	-6.091644	-62.312074
51377		3.298771	-6.148559	-61.408383
51378		3.337623	-6.226641	-60.498111
51379		3.386193	-6.306837	-59.572961
51380		3.443168	-6.403660	-58.646992
51381		3.492126	-6.506007	-57.709613
51382		3.562508	-6.620814	-56.774387
51383		3.667203	-6.740505	-55.831230
51384		3.833043	-6.876383	-54.886324
51385		4.026083	-7.021775	-53.931646
51386		4.233543	-7.174202	-52.972269
51387		4.403757	-7.311879	-51.991266
51388		4.541064	-7.434421	-50.999616
51389		4.648367	-7.534722	-49.989677
51390		4.757331	-7.620860	-48.978875
51391		4.868771	-7.684070	-47.971997
51392		5.012529	-7.736145	-46.986091
51393		5.184543	-7.783061	-46.014664
51394		5.416647	-7.847658	-45.067030
51395		5.698848	-7.932202	-44.131260
51396		6.029978	-8.043646	-43.202333
51397		6.363627	-8.158762	-42.260005
51398		6.680914	-8.272648	-41.306102
51399		6.931587	-8.362224	-40.326821
51400		7.115333	-8.434247	-39.329480
51401		7.207930	-8.490085	-38.314389
51402		7.250988	-8.545209	-37.291384
51403		7.264467	-8.606757	-36.262491
51404		7.315802	-8.691271	-35.242141
51405		7.419465	-8.794068	-34.227588
51406		7.611789	-8.905070	-33.227705
51407		7.879078	-9.024363	-32.235318
51408		8.191364	-9.158825	-31.252388
51409		8.468287	-9.290096	-30.266388
51410		8.654621	-9.407577	-29.274934
51411		8.699315	-9.487100	-28.265931
51412		8.627836	-9.541972	-27.251301
51413		8.483549	-9.596102	-26.244974
51414		8.355489	-9.699748	-25.264527
51415		8.298869	-9.842029	-24.308523
51416		8.334856	-10.001643	-23.371475
51417		8.427740	-10.137094	-22.439138
51418		8.553097	-10.229842	-21.513388
51419		8.661818	-10.274219	-20.597908
51420		8.745236	-10.291412	-19.698184
51421		8.780426	-10.286919	-18.806873
51422		8.778162	-10.277852	-17.932415
51423		8.735686	-10.263821	-17.069956
51424		8.696060	-10.250899	-16.224023
51425		8.672730	-10.231620	-15.389885
51426		8.699071	-10.217902	-14.567845
51427		8.770100	-10.219627	-13.749823
51428		8.891965	-10.247301	-12.935302
51429		9.018097	-10.295239	-12.112476
51430		9.131519	-10.374796	-11.287960
51431		9.184012	-10.459539	-10.456176
51432		9.168841	-10.548094	-9.620500
51433		9.059197	-10.626197	-8.779605
51434		8.867481	-10.699214	-7.941747
51435		8.605255	-10.765534	-7.109359
51436		8.320825	-10.836247	-6.291568
51437		8.032495	-10.907104	-5.483810
51438		7.739287	-10.979031	-4.679211
51439		7.416593	-11.040096	-3.876734
51440		7.055326	-11.085081	-3.080061
51441		6.624049	-11.092164	-2.291884
51442		6.107607	-11.062579	-1.526054
51443		5.507853	-10.995907	-0.774838
51444		4.870018	-10.907921	-0.046565
51445		4.232756	-10.812213	0.662519
51446		3.639094	-10.746009	1.341805
51447		3.132139	-10.726337	1.993256
51448		2.742997	-10.752684	2.623258
51449		2.448558	-10.794263	3.240464
51450		2.204239	-10.845035	3.857049
51451		1.968501	-10.893242	4.482822
51452		1.740682	-10.942606	5.105218
51453		1.527561	-10.996185	5.717115
51454		1.331459	-11.056944	6.309681
51455		1.132617	-11.108544	6.887574
51456		0.918263	-11.141361	7.452046
51457		0.665188	-11.145561	8.010929
51458		0.389700	-11.135835	8.556346
51459		0.117323	-11.120984	9.082301
51460		-0.123918	-11.126852	9.581517
51461		-0.298011	-11.153235	10.057863
51462		-0.391419	-11.201857	10.513756
51463		-0.447261	-11.255965	10.961252
51464		-0.494664	-11.311255	11.399882
51465		-0.555788	-11.360791	11.827571
51466		-0.637136	-11.410639	12.238156
51467		-0.730479	-11.460735	12.635070
51468		-0.818188	-11.524415	13.023172
51469		-0.886803	-11.586549	13.396504
51470		-0.954900	-11.645612	13.747757
51471		-1.048306	-11.688124	14.074660
51472		-1.182298	-11.707478	14.376197
51473		-1.377318	-11.691073	14.669180
51474		-1.632786	-11.639428	14.965199
51475		-1.924326	-11.558943	15.269571
51476		-2.227539	-11.464434	15.580911
51477		-2.542432	-11.366933	15.892233
51478		-2.856617	-11.278779	16.198370
51479		-3.140452	-11.206328	16.496289
51480		-3.354818	-11.163514	16.786274
51481		-3.461103	-11.157322	17.064525
51482		-3.475568	-11.181767	17.333709
51483		-3.410384	-11.219359	17.585353
51484		-3.276722	-11.280124	17.821870
51485		-3.101324	-11.357883	18.045263
51486		-2.914566	-11.451809	18.249226
51487		-2.744902	-11.551754	18.431578
51488		-2.618010	-11.644090	18.594431
51489		-2.526982	-11.731650	18.739847
51490		-2.474507	-11.820921	18.874597
51491		-2.461125	-11.911911	19.003620
51492		-2.485490	-12.001543	19.133435
51493		-2.524505	-12.071849	19.261603
51494		-2.574031	-12.120292	19.386244
51495		-2.623211	-12.148151	19.497488
51496		-2.672263	-12.163238	19.589048
51497		-2.713262	-12.173470	19.657119
51498		-2.761813	-12.182023	19.707512
51499		-2.818257	-12.185650	19.738437
51500		-2.884316	-12.182871	19.757829
51501		-2.941534	-12.172106	19.770645
51502		-2.981742	-12.159645	19.779320
51503		-2.997822	-12.138468	19.786030
51504		-3.002853	-12.101586	19.788553
51505		-3.007442	-12.045345	19.785622
51506		-3.015651	-11.977846	19.780332
51507		-3.024040	-11.905075	19.772574
51508		-3.045885	-11.840378	19.765397
51509		-3.073658	-11.788287	19.755887
51510		-3.122149	-11.733939	19.743786
51511		-3.209980	-11.664536	19.728316
51512		-3.347110	-11.583204	19.718896
51513		-3.514815	-11.496895	19.714223
51514		-3.677066	-11.423179	19.717137
51515		-3.774749	-11.383583	19.722542
51516		-3.753671	-11.391479	19.729628
51517		-3.613299	-11.442216	19.735747
51518		-3.405495	-11.519118	19.738197
51519		-3.177397	-11.598081	19.726740
51520		-2.969344	-11.669014	19.706958
51521		-2.810595	-11.723193	19.683427
51522		-2.716917	-11.761190	19.664256
51523		-2.676110	-11.790139	19.645650
51524		-2.657568	-11.814927	19.625284
51525		-2.629773	-11.832680	19.601791
51526		-2.574042	-11.843437	19.576485
51527		-2.488261	-11.851164	19.543673
51528		-2.394890	-11.857338	19.505006
51529		-2.309731	-11.854513	19.457921
51530		-2.252540	-11.840795	19.402991
51531		-2.222357	-11.817327	19.343705
51532		-2.217247	-11.785276	19.282588
51533		-2.230035	-11.740853	19.224040
51534		-2.255072	-11.682585	19.171807
51535		-2.276335	-11.614951	19.124120
51536		-2.290031	-11.549123	19.080032
51537		-2.285694	-11.491037	19.033711
51538		-2.260033	-11.455157	18.979113
51539		-2.214930	-11.447568	18.911367
51540		-2.169303	-11.460963	18.828067
51541		-2.135767	-11.484305	18.734690
51542		-2.128089	-11.505632	18.631903
51543		-2.137282	-11.525736	18.528273
51544		-2.152478	-11.533870	18.425001
51545		-2.155095	-11.527979	18.321849
51546		-2.148285	-11.521934	18.221172
51547		-2.120171	-11.535674	18.117673
51548		-2.058974	-11.585131	17.996789
51549		-1.956944	-11.676963	17.842379
51550		-1.841316	-11.799579	17.647047
51551		-1.737626	-11.927660	17.412228
51552		-1.676851	-12.037434	17.145414
51553		-1.675289	-12.109326	16.868187
51554		-1.726096	-12.134788	16.593516
51555		-1.789746	-12.116642	16.329202
51556		-1.824133	-12.067218	16.077400
51557		-1.783041	-11.994261	15.817194
51558		-1.670695	-11.913803	15.550813
51559		-1.524125	-11.838996	15.278615
51560		-1.392525	-11.781360	15.002025
51561		-1.293877	-11.740880	14.722554
51562		-1.240936	-11.710777	14.439442
51563		-1.221906	-11.697081	14.156637
51564		-1.219247	-11.688317	13.880481
51565		-1.213202	-11.696382	13.602157
51566		-1.197302	-11.725145	13.327401
51567		-1.168451	-11.777106	13.049875
51568		-1.132087	-11.846324	12.764542
51569		-1.082756	-11.927884	12.471275
51570		-1.046035	-12.021489	12.168442
51571		-1.009000	-12.126422	11.850973
51572		-0.980183	-12.240298	11.523256
51573		-0.959594	-12.370043	11.185539
51574		-0.949692	-12.509262	10.841111
51575		-0.936287	-12.655791	10.489261
51576		-0.921536	-12.806349	10.127061
51577		-0.898197	-12.968109	9.745973
51578		-0.879262	-13.142243	9.349382
51579		-0.861991	-13.334065	8.923412
51580		-0.854155	-13.540949	8.463376
51581		-0.839931	-13.750481	7.976190
51582		-0.817926	-13.955496	7.461230
51583		-0.779229	-14.143820	6.923790
51584		-0.734072	-14.311727	6.373660
51585		-0.679633	-14.457984	5.817866
51586		-0.628834	-14.576356	5.260476
51587		-0.570380	-14.670013	4.702056
51588		-0.519620	-14.729645	4.150870
51589		-0.459995	-14.749062	3.610056
51590		-0.397546	-14.736440	3.080466
51591		-0.325611	-14.704223	2.551658
51592		-0.266781	-14.657312	2.016569
51593		-0.219649	-14.603097	1.468552
51594		-0.197101	-14.543825	0.908432
51595		-0.189507	-14.486291	0.340245
51596		-0.209408	-14.424371	-0.230108
51597		-0.230101	-14.362451	-0.802436
51598		-0.252925	-14.300418	-1.375917
51599		-0.260823	-14.246158	-1.960184
51600		-0.243154	-14.199374	-2.556881
51601		-0.201090	-14.149204	-3.162998
51602		-0.163581	-14.088389	-3.776578
51603		-0.133138	-14.024903	-4.398452
51604		-0.115013	-13.966455	-5.029746
51605		-0.101020	-13.921335	-5.673267
51606		-0.091713	-13.893469	-6.324821
51607		-0.076155	-13.863904	-6.994987
51608		-0.073817	-13.822674	-7.675678
51609		-0.070425	-13.766913	-8.369072
51610		-0.083674	-13.700996	-9.072147
51611		-0.106036	-13.639903	-9.784176
51612		-0.146696	-13.600761	-10.500199
51613		-0.180126	-13.573769	-11.227899
51614		-0.219535	-13.551358	-11.966358
51615		-0.253998	-13.520614	-12.715697
51616		-0.304840	-13.480033	-13.469566
51617		-0.366279	-13.437043	-14.228926
51618		-0.446734	-13.394613	-14.986543
51619		-0.510738	-13.350726	-15.753479
51620		-0.560503	-13.304019	-16.517836
51621		-0.589641	-13.258138	-17.283715
51622		-0.604154	-13.216151	-18.060976
51623		-0.589987	-13.179987	-18.847280
51624		-0.549282	-13.150242	-19.639158
51625		-0.471966	-13.125286	-20.434062
51626		-0.381827	-13.108130	-21.228059
51627		-0.282474	-13.094628	-22.023858
51628		-0.204881	-13.076281	-22.816474
51629		-0.138311	-13.047495	-23.610118
51630		-0.096257	-13.011061	-24.400906
51631		-0.081100	-12.977686	-25.187987
51632		-0.104466	-12.960905	-25.975215
51633		-0.141867	-12.970131	-26.769837
51634		-0.192515	-13.011137	-27.572790
51635		-0.232157	-13.079860	-28.386462
51636		-0.259218	-13.160976	-29.201668
51637		-0.256154	-13.236249	-30.012674
51638		-0.224029	-13.305147	-30.822600
51639		-0.151949	-13.362795	-31.627130
51640		-0.062087	-13.421357	-32.426663
51641		0.051616	-13.485893	-33.230156
51642		0.160017	-13.561738	-34.042374
51643		0.275504	-13.664697	-34.875515
51644		0.392807	-13.789587	-35.725708
51645		0.520906	-13.926993	-36.600146
51646		0.642024	-14.070102	-37.493335
51647		0.763651	-14.206940	-38.402248
51648		0.864224	-14.323414	-39.314809
51649		0.942340	-14.412524	-40.224012
51650		0.999357	-14.461377	-41.116076
51651		1.046066	-14.465357	-41.988518
51652		1.074104	-14.432303	-42.841550
51653		1.109555	-14.386293	-43.692869
51654		1.146324	-14.353373	-44.535060
51655		1.206772	-14.349904	-45.382120
51656		1.289396	-14.385598	-46.233662
51657		1.399009	-14.453762	-47.099644
51658		1.512348	-14.536087	-47.968241
51659		1.625268	-14.614005	-48.832392
51660		1.726136	-14.662369	-49.684035
51661		1.833423	-14.677557	-50.524245
51662		1.953336	-14.671687	-51.360166
51663		2.092818	-14.669548	-52.194953
51664		2.250671	-14.698066	-53.041513
51665		2.483286	-14.764319	-53.912055
51666		2.766998	-14.861270	-54.798224
51667		3.100951	-14.976467	-55.694658
51668		3.462950	-15.088387	-56.598053
51669		3.843394	-15.199162	-57.517556
51670		4.207102	-15.308440	-58.445692
51671		4.541235	-15.410591	-59.382583
51672		4.827994	-15.495796	-60.310958
51673		5.076756	-15.553766	-61.229415
51674		5.282724	-15.582888	-62.130928
51675		5.466520	-15.596877	-63.025554
51676		5.628653	-15.605524	-63.913889
51677		5.772622	-15.609584	-64.800869
51678		5.880881	-15.603900	-65.673783
51679		5.965027	-15.582244	-66.532256
51680		6.012386	-15.544565	-67.372800
51681		6.031002	-15.497719	-68.201606
51682		6.032887	-15.449784	-69.013388
51683		6.037515	-15.404531	-69.821675
51684		6.040996	-15.370472	-70.618341
51685		6.047949	-15.338376	-71.400115
51686		6.049739	-15.298960	-72.162955
51687		6.041374	-15.250087	-72.901906
51688		6.007798	-15.183813	-73.620408
51689		5.952718	-15.110053	-74.326266
51690		5.868866	-15.027984	-75.018591
51691		5.757804	-14.939067	-75.689037
51692		5.628112	-14.852882	-76.336575
51693		5.517306	-14.778521	-76.977597
51694		5.450350	-14.719022	-77.612926
51695		5.443185	-14.679677	-78.248310
51696		5.487208	-14.650024	-78.868580
51697		5.576974	-14.625453	-79.472614
51698		5.703478	-14.609362	-80.064423
51699		5.869624	-14.610737	-80.647037
51700		6.058925	-14.646450	-81.213589
51701		6.265381	-14.727098	-81.768239
51702		6.504306	-14.855933	-82.322673
51703		6.797499	-15.005873	-82.881270
51704		7.132400	-15.148590	-83.436690
51705		7.457860	-15.257274	-83.982466
51706		7.728385	-15.319703	-84.505426
51707		7.913664	-15.325421	-84.991562
51708		8.002749	-15.286106	-85.436330
51709		8.014750	-15.223719	-85.850599
51710		7.979851	-15.149352	-86.234896
51711		7.937456	-15.086898	-86.600601
51712		7.919823	-15.042126	-86.954025
51713		7.943286	-15.015624	-87.294836
51714		8.013274	-15.007924	-87.622650
51715		8.116778	-15.014035	-87.938522
51716		8.227367	-15.026806	-88.236867
51717		8.323926	-15.040224	-88.516401
51718		8.388569	-15.037027	-88.764232
51719		8.421150	-15.016505	-88.979027
51720		8.440342	-14.985293	-89.162655
51721		8.454093	-14.955348	-89.326257
51722		8.458310	-14.935520	-89.476417
51723		8.453130	-14.934025	-89.611268
51724		8.444866	-14.947855	-89.734569
51725		8.426914	-14.972576	-89.833095
51726		8.414714	-15.001459	-89.914061
51727		8.405769	-15.033263	-89.975385
51728		8.407712	-15.062523	-90.025778
51729		8.413967	-15.086192	-90.065387
51730		8.421490	-15.099300	-90.095591
51731		8.411235	-15.103097	-90.113563
51732		8.383582	-15.090835	-90.116449
51733		8.339082	-15.067528	-90.100416
51734		8.283089	-15.044165	-90.069024
51735		8.218270	-15.020961	-90.021426
51736		8.159547	-15.007310	-89.965169
51737		8.099356	-15.015952	-89.905836
51738		8.036389	-15.051679	-89.850355
51739		7.979652	-15.109402	-89.796159
51740		7.940840	-15.181183	-89.741799
51741		7.901570	-15.256550	-89.682448
51742		7.844737	-15.329724	-89.620387
51743		7.789636	-15.391216	-89.568925
51744		7.742737	-15.432189	-89.517586
51745		7.684796	-15.454627	-89.462762
51746		7.635069	-15.463558	-89.410174
51747		7.584617	-15.458826	-89.353668
51748		7.543750	-15.447608	-89.301116
51749		7.508769	-15.431498	-89.248446
51750		7.496082	-15.415318	-89.194935
51751		7.491131	-15.407337	-89.144113
51752		7.496558	-15.410989	-89.097727
51753		7.505142	-15.427887	-89.049788
51754		7.520541	-15.455187	-88.999425
51755		7.534050	-15.487210	-88.949382
51756		7.541717	-15.517385	-88.893887
51757		7.533379	-15.547271	-88.832378
51758		7.513503	-15.560966	-88.752033
51759		7.482227	-15.557200	-88.645084
51760		7.450819	-15.544293	-88.518588
51761		7.422604	-15.528313	-88.368907
51762		7.410855	-15.513985	-88.203589
51763		7.394654	-15.492550	-88.012739
51764		7.362762	-15.461390	-87.786629
51765		7.265799	-15.426979	-87.498316
51766		7.076814	-15.395844	-87.134248
51767		6.778698	-15.369157	-86.690475
51768		6.394184	-15.353075	-86.174693
51769		5.939323	-15.333441	-85.583804
51770		5.475632	-15.298430	-84.926994
51771		5.045505	-15.239029	-84.210063
51772		4.702541	-15.159912	-83.454512
51773		4.427290	-15.070042	-82.680556
51774		4.200167	-14.971904	-81.915777
51775		3.969874	-14.876721	-81.160372
51776		3.744346	-14.786734	-80.423757
51777		3.531844	-14.686301	-79.697398
51778		3.371528	-14.573370	-78.983917
51779		3.272222	-14.446333	-78.276619
51780		3.255114	-14.328943	-77.569600
51781		3.294155	-14.228221	-76.860646
51782		3.393313	-14.152314	-76.147949
51783		3.500276	-14.087418	-75.414282
51784		3.603856	-14.033174	-74.654961
51785		3.660856	-13.978797	-73.864285
51786		3.670278	-13.927113	-73.050399
51787		3.611052	-13.872814	-72.218066
51788		3.531427	-13.829810	-71.393108
51789		3.467082	-13.808742	-70.571506
51790		3.463096	-13.821425	-69.762169
51791		3.481761	-13.856099	-68.944108
51792		3.520921	-13.893784	-68.119726
51793		3.548718	-13.917487	-67.278544
51794		3.570065	-13.934284	-66.418159
51795		3.563674	-13.943632	-65.540410
51796		3.576243	-13.959183	-64.658396
51797		3.637022	-13.987824	-63.786413
51798		3.774050	-14.033665	-62.928449
51799		3.949399	-14.076264	-62.072636
51800		4.153376	-14.114232	-61.223695
51801		4.334828	-14.140533	-60.367301
51802		4.489429	-14.163713	-59.503930
51803		4.586754	-14.179107	-58.628274
51804		4.680846	-14.194487	-57.743980
51805		4.801577	-14.208676	-56.837809
51806		4.970010	-14.236731	-55.909475
51807		5.143548	-14.259486	-54.949169
51808		5.303636	-14.275054	-53.968054
51809		5.372440	-14.269812	-52.960418
51810		5.341468	-14.249806	-51.944072
51811		5.197580	-14.204657	-50.906573
51812		4.990290	-14.152120	-49.847735
51813		4.753478	-14.095569	-48.767106
51814		4.559810	-14.038590	-47.673790
51815		4.419881	-13.972109	-46.577180
51816		4.361794	-13.906371	-45.491959
51817		4.361636	-13.841415	-44.417437
51818		4.407040	-13.790665	-43.359872
51819		4.452905	-13.743618	-42.306168
51820		4.481873	-13.702621	-41.254265
51821		4.451423	-13.649815	-40.187571
51822		4.384448	-13.583898	-39.112239
51823		4.284546	-13.494475	-38.029633
51824		4.210316	-13.396572	-36.961345
51825		4.197843	-13.311748	-35.919618
51826		4.287610	-13.260318	-34.915105
51827		4.444095	-13.228315	-33.928205
51828		4.616224	-13.213492	-32.950974
51829		4.736930	-13.186701	-31.960757
51830		4.783672	-13.134327	-30.958454
51831		4.730596	-13.059262	-29.950586
51832		4.609386	-12.986111	-28.953279
51833		4.438955	-12.902704	-27.958743
51834		4.280102	-12.801942	-26.974504
51835		4.158185	-12.682573	-25.997586
51836		4.145865	-12.558142	-25.045729
51837		4.226802	-12.446844	-24.112862
51838		4.399932	-12.382270	-23.213996
51839		4.583922	-12.378179	-22.330298
51840		4.717127	-12.398473	-21.442454
51841		4.764481	-12.396835	-20.542390
51842		4.744293	-12.347571	-19.623586
51843		4.670908	-12.226575	-18.687977
51844		4.606504	-12.052330	-17.751090
51845		4.590184	-11.842980	-16.826284
51846		4.645831	-11.643487	-15.923007
51847		4.725408	-11.469658	-15.020596
51848		4.792385	-11.321667	-14.121090
51849		4.792174	-11.182789	-13.214074
51850		4.724776	-11.043903	-12.306937
51851		4.574059	-10.885663	-11.402646
51852		4.383176	-10.700305	-10.517502
51853		4.175645	-10.492536	-9.653830
51854		4.015959	-10.290700	-8.820930
51855		3.921870	-10.105363	-8.013044
51856		3.891680	-9.950581	-7.229919
51857		3.882800	-9.827433	-6.458398
51858		3.865741	-9.740274	-5.691387
51859		3.780190	-9.665065	-4.914473
51860		3.634641	-9.605652	-4.138771
51861		3.443715	-9.560652	-3.369003
51862		3.237687	-9.535072	-2.616051
51863		3.044701	-9.509940	-1.875820
51864		2.878614	-9.487688	-1.150496
51865		2.744263	-9.462586	-0.440107
51866		2.649292	-9.453850	0.257978
51867		2.583004	-9.472981	0.943342
51868		2.542615	-9.531781	1.611458
51869		2.511438	-9.618779	2.266648
51870		2.473879	-9.723957	2.911790
51871		2.407040	-9.833505	3.545543
51872		2.313947	-9.944123	4.168049
51873		2.203449	-10.050191	4.783706
51874		2.112548	-10.153235	5.392836
51875		2.060941	-10.249729	5.994351
51876		2.062861	-10.345178	6.584808
51877		2.103237	-10.439625	7.161461
51878		2.150339	-10.530054	7.731324
51879		2.152094	-10.615083	8.298838
51880		2.088411	-10.688959	8.867848
51881		1.956706	-10.744419	9.440516
51882		1.799956	-10.785148	10.010084
51883		1.658532	-10.825060	10.560234
51884		1.571204	-10.887744	11.085095
51885		1.546854	-10.978693	11.583628
51886		1.572505	-11.094023	12.060539
51887		1.603017	-11.214184	12.528405
51888		1.610625	-11.331647	12.985290
51889		1.592417	-11.442812	13.434884
51890		1.555961	-11.556339	13.881901
51891		1.499021	-11.659596	14.326354
51892		1.438716	-11.742406	14.762968
51893		1.365743	-11.801103	15.186586
51894		1.269293	-11.842701	15.595832
51895		1.160771	-11.873241	15.988164
51896		1.049218	-11.915930	16.364541
51897		0.956487	-11.975538	16.725168
51898		0.883044	-12.050753	17.067748
51899		0.814771	-12.125588	17.389619
51900		0.730058	-12.187402	17.687375
51901		0.624814	-12.222413	17.966774
51902		0.499638	-12.231290	18.223848
51903		0.365389	-12.216343	18.461074
51904		0.233758	-12.184539	18.673378
51905		0.113210	-12.136466	18.858044
51906		0.010821	-12.088552	19.013141
51907		-0.053667	-12.051568	19.142559
51908		-0.088362	-12.039194	19.247707
51909		-0.099722	-12.049635	19.341254
51910		-0.113816	-12.073182	19.425496
51911		-0.146678	-12.102262	19.503458
51912		-0.218170	-12.123822	19.578006
51913		-0.323081	-12.132186	19.654539
51914		-0.448628	-12.128328	19.734113
51915		-0.564839	-12.125366	19.815433
51916		-0.659868	-12.141420	19.896428
51917		-0.733647	-12.170175	19.972344
51918		-0.806521	-12.208247	20.044120
51919		-0.885927	-12.248689	20.103926
51920		-0.974638	-12.284633	20.148910
51921		-1.062887	-12.305225	20.176848
51922		-1.132995	-12.320887	20.184377
51923		-1.156581	-12.342810	20.177660
51924		-1.140861	-12.371828	20.162774
51925		-1.111567	-12.392560	20.141933
51926		-1.107884	-12.395201	20.113811
51927		-1.139040	-12.381433	20.075063
51928		-1.200213	-12.353686	20.034171
51929		-1.269287	-12.314995	19.997159
51930		-1.332663	-12.277283	19.967989
51931		-1.364752	-12.254185	19.945969
51932		-1.348779	-12.249858	19.928277
51933		-1.280220	-12.271283	19.907281
51934		-1.181113	-12.309291	19.883511
51935		-1.084112	-12.356786	19.855143
51936		-1.015275	-12.398857	19.826934
51937		-0.977795	-12.425868	19.796861
51938		-0.962903	-12.435814	19.764806
51939		-0.941453	-12.423737	19.727970
51940		-0.917962	-12.383265	19.696652
51941		-0.882030	-12.327003	19.668568
51942		-0.829400	-12.270223	19.639822
51943		-0.728620	-12.218093	19.608660
51944		-0.584032	-12.175273	19.574981
51945		-0.414013	-12.142536	19.536577
51946		-0.247683	-12.119250	19.491737
51947		-0.103867	-12.102374	19.442720
51948		-0.015943	-12.088123	19.394283
51949		0.006899	-12.065640	19.350094
51950		-0.021619	-12.028576	19.309454
51951		-0.064411	-11.977163	19.268949
51952		-0.092471	-11.909798	19.228748
51953		-0.082162	-11.838665	19.185334
51954		-0.038831	-11.785427	19.138203
51955		0.032355	-11.755652	19.084696
51956		0.108301	-11.752685	19.024973
51957		0.182506	-11.761501	18.959090
51958		0.238472	-11.770549	18.882728
51959		0.287660	-11.771599	18.798418
51960		0.329989	-11.765901	18.707135
51961		0.374697	-11.759921	18.610946
51962		0.414600	-11.754735	18.509279
51963		0.453178	-11.738353	18.396914
51964		0.484750	-11.718162	18.277912
51965		0.519162	-11.699014	18.139911
51966		0.549537	-11.687901	17.979097
51967		0.585027	-11.688461	17.786396
51968		0.611502	-11.697048	17.571466
51969		0.631900	-11.701788	17.336795
51970		0.634369	-11.694901	17.084818
51971		0.632825	-11.675402	16.813460
51972		0.623471	-11.645414	16.519702
51973		0.608337	-11.607820	16.207994
51974		0.587584	-11.568757	15.880544
51975		0.568859	-11.538136	15.538745
51976		0.551081	-11.507408	15.177136
51977		0.541400	-11.474973	14.793270
51978		0.529652	-11.442346	14.391462
51979		0.523185	-11.422189	13.972786
51980		0.538002	-11.414248	13.538420
51981		0.588097	-11.424529	13.081471
51982		0.659824	-11.447438	12.604919
51983		0.750221	-11.469079	12.101982
51984		0.825260	-11.485306	11.578940
51985		0.864539	-11.481738	11.040109
51986		0.844438	-11.463413	10.491411
51987		0.786502	-11.444627	9.935776
51988		0.716047	-11.432963	9.379694
51989		0.675111	-11.429190	8.820413
51990		0.657264	-11.423883	8.264751
51991		0.661233	-11.409310	7.708745
51992		0.652433	-11.385885	7.150808
51993		0.633797	-11.363004	6.590611
51994		0.583630	-11.343832	6.033831
51995		0.529894	-11.331519	5.476198
51996		0.473986	-11.331134	4.922021
51997		0.433759	-11.351012	4.362916
51998		0.407274	-11.386199	3.799775
51999		0.402057	-11.430793	3.219332
52000		0.394945	-11.477156	2.627924
52001		0.392304	-11.523079	2.019207
52002		0.374233	-11.571535	1.398389
52003		0.363243	-11.615436	0.755712
52004		0.352462	-11.661591	0.093221
52005		0.358477	-11.708440	-0.587210
52006		0.376160	-11.764101	-1.289769
52007		0.418333	-11.827023	-2.015904
52008		0.468525	-11.900227	-2.763357
52009		0.515385	-11.974960	-3.529613
52010		0.508741	-12.031158	-4.304003
52011		0.443899	-12.053249	-5.079468
52012		0.272667	-12.026882	-5.837032
52013		-0.007962	-11.946522	-6.584872
52014		-0.382869	-11.808098	-7.314251
52015		-0.784046	-11.631140	-8.038112
52016		-1.174705	-11.429993	-8.760766
52017		-1.491900	-11.240450	-9.492316
52018		-1.718300	-11.097698	-10.240001
52019		-1.843454	-11.004777	-11.003682
52020		-1.926731	-10.948800	-11.778300
52021		-1.988508	-10.909382	-12.561103
52022		-2.060448	-10.868181	-13.347692
52023		-2.136355	-10.812415	-14.143008
52024		-2.220958	-10.734998	-14.944525
52025		-2.275591	-10.652298	-15.755259
52026		-2.296453	-10.567840	-16.578844
52027		-2.273279	-10.497158	-17.417381
52028		-2.226892	-10.442712	-18.265064
52029		-2.142691	-10.412343	-19.115383
52030		-2.038856	-10.409276	-19.970742
52031		-1.896031	-10.428754	-20.839931
52032		-1.744974	-10.447911	-21.731188
52033		-1.604964	-10.446029	-22.649651
52034		-1.521087	-10.409524	-23.596081
52035		-1.479730	-10.334841	-24.564909
52036		-1.499534	-10.210735	-25.545759
52037		-1.539003	-10.052800	-26.533712
52038		-1.577350	-9.861715	-27.511934
52039		-1.576603	-9.660675	-28.477574
52040		-1.546354	-9.448153	-29.426193
52041		-1.493054	-9.222869	-30.357091
52042		-1.460958	-8.991621	-31.262107
52043		-1.445451	-8.767305	-32.139663
52044		-1.462253	-8.549664	-32.984266
52045		-1.500999	-8.339772	-33.793903
52046		-1.569644	-8.132673	-34.572649
52047		-1.659161	-7.923548	-35.335982
52048		-1.781379	-7.714523	-36.100700
52049		-1.923412	-7.523475	-36.893760
52050		-2.084396	-7.357612	-37.707061
52051		-2.227598	-7.208818	-38.537377
52052		-2.342907	-7.075309	-39.374853
52053		-2.410027	-6.971055	-40.220033
52054		-2.433006	-6.909508	-41.068795
52055		-2.397807	-6.898548	-41.926422
52056		-2.339698	-6.924311	-42.792768
52057		-2.257872	-6.954078	-43.667165
52058		-2.176052	-6.964800	-44.539505
52059		-2.092375	-6.958995	-45.408808
52060		-2.019541	-6.937958	-46.278479
52061		-1.948264	-6.914465	-47.149109
52062		-1.895628	-6.906138	-48.021923
52063		-1.844635	-6.921674	-48.906604
52064		-1.802809	-6.961143	-49.801472
52065		-1.741652	-7.022267	-50.705968
52066		-1.664153	-7.098541	-51.614681
52067		-1.558899	-7.190458	-52.527053
52068		-1.451612	-7.284185	-53.448430
52069		-1.342797	-7.377810	-54.381642
52070		-1.260153	-7.456291	-55.322253
52071		-1.184080	-7.520565	-56.268927
52072		-1.118213	-7.568572	-57.216187
52073		-1.035795	-7.605026	-58.158733
52074		-0.941574	-7.630023	-59.090642
52075		-0.815875	-7.643649	-60.012587
52076		-0.685474	-7.647449	-60.915121
52077		-0.560125	-7.639775	-61.803587
52078		-0.485926	-7.613335	-62.669298
52079		-0.464935	-7.562960	-63.515342
52080		-0.498186	-7.484470	-64.342776
52081		-0.548314	-7.396207	-65.161802
52082		-0.594330	-7.318201	-65.969009
52083		-0.599624	-7.258889	-66.768138
52084		-0.579404	-7.216557	-67.554354
52085		-0.552581	-7.167049	-68.325452
52086		-0.541121	-7.093828	-69.068919
52087		-0.537098	-6.995180	-69.793709
52088		-0.525548	-6.881029	-70.501291
52089		-0.480062	-6.780909	-71.197841
52090		-0.396175	-6.711107	-71.889111
52091		-0.248241	-6.679548	-72.571325
52092		-0.053764	-6.677088	-73.239204
52093		0.163359	-6.685371	-73.895040
52094		0.365909	-6.682914	-74.532420
52095		0.547650	-6.667370	-75.156047
52096		0.727638	-6.646095	-75.767426
52097		0.933667	-6.633600	-76.372140
52098		1.163167	-6.633523	-76.966984
52099		1.394525	-6.643977	-77.560644
52100		1.596440	-6.662021	-78.143885
52101		1.741085	-6.683772	-78.720257
52102		1.810483	-6.696152	-79.282013
52103		1.806583	-6.679480	-79.823621
52104		1.722595	-6.638133	-80.331642
52105		1.588030	-6.582920	-80.805092
52106		1.428090	-6.515842	-81.241807
52107		1.267174	-6.438212	-81.640383
52108		1.124490	-6.359056	-81.995696
52109		1.004969	-6.286903	-82.298990
52110		0.917475	-6.229538	-82.551620
52111		0.878479	-6.191154	-82.762550
52112		0.896152	-6.177195	-82.950181
52113		0.958136	-6.197753	-83.124422
52114		1.054656	-6.256721	-83.293797
52115		1.166003	-6.338966	-83.455522
52116		1.265425	-6.434711	-83.605556
52117		1.341479	-6.530843	-83.739996
52118		1.384308	-6.594934	-83.851860
52119		1.391103	-6.616952	-83.942329
52120		1.390176	-6.601751	-84.018740
52121		1.385236	-6.562527	-84.086121
52122		1.390943	-6.510255	-84.148180
52123		1.407867	-6.459029	-84.209843
52124		1.429862	-6.409347	-84.262843
52125		1.431269	-6.361615	-84.306102
52126		1.406265	-6.311378	-84.344210
52127		1.358961	-6.253127	-84.369344
52128		1.309587	-6.187403	-84.388259
52129		1.276453	-6.119688	-84.400847
52130		1.279188	-6.057427	-84.412353
52131		1.306192	-6.008083	-84.417762
52132		1.353356	-5.974608	-84.427038
52133		1.404791	-5.958688	-84.425056
52134		1.471007	-5.962464	-84.412905
52135		1.538654	-5.973695	-84.385768
52136		1.597830	-5.980851	-84.348321
52137		1.631754	-5.971307	-84.304760
52138		1.646250	-5.949794	-84.263422
52139		1.647843	-5.922128	-84.225176
52140		1.646250	-5.900855	-84.177916
52141		1.649812	-5.900667	-84.117704
52142		1.675795	-5.911050	-84.037570
52143		1.701554	-5.928612	-83.941898
52144		1.710249	-5.944563	-83.847372
52145		1.693184	-5.963864	-83.756464
52146		1.659269	-5.997541	-83.671813
52147		1.625122	-6.047692	-83.588300
52148		1.605335	-6.115137	-83.497959
52149		1.600923	-6.188152	-83.390918
52150		1.620283	-6.259524	-83.276161
52151		1.648405	-6.321931	-83.152045
52152		1.685933	-6.377360	-83.027784
52153		1.721797	-6.430865	-82.903754
52154		1.764938	-6.483761	-82.773019
52155		1.806584	-6.526266	-82.645816
52156		1.853000	-6.557724	-82.522047
52157		1.895326	-6.575278	-82.408569
52158		1.930049	-6.579048	-82.299805
52159		1.935962	-6.568234	-82.190288
52160		1.920017	-6.549079	-82.076987
52161		1.895142	-6.523566	-81.957002
52162		1.871575	-6.494612	-81.830919
52163		1.855585	-6.460739	-81.691696
52164		1.850743	-6.430598	-81.534809
52165		1.842815	-6.398772	-81.353436
52166		1.845433	-6.375824	-81.144033
52167		1.849727	-6.362433	-80.904850
52168		1.857165	-6.362308	-80.642781
52169		1.845583	-6.372876	-80.353782
52170		1.813575	-6.392810	-80.031759
52171		1.736615	-6.416843	-79.671803
52172		1.618559	-6.447260	-79.271352
52173		1.446418	-6.470582	-78.819198
52174		1.252174	-6.477467	-78.317708
52175		1.024510	-6.480276	-77.769005
52176		0.777309	-6.496582	-77.178689
52177		0.501225	-6.536222	-76.554153
52178		0.230512	-6.608166	-75.914396
52179		-0.022147	-6.694210	-75.275681
52180		-0.209917	-6.791246	-74.639009
52181		-0.334008	-6.883225	-73.998248
52182		-0.388122	-6.971640	-73.352341
52183		-0.407636	-7.047782	-72.690385
52184		-0.417055	-7.123150	-72.029657
52185		-0.463343	-7.200578	-71.374309
52186		-0.542374	-7.278748	-70.728551
52187		-0.663813	-7.347831	-70.087282
52188		-0.790207	-7.411253	-69.452335
52189		-0.905144	-7.468904	-68.818963
52190		-0.978580	-7.525878	-68.185136
52191		-1.029076	-7.589943	-67.544301
52192		-1.045328	-7.672379	-66.902259
52193		-1.042217	-7.772566	-66.254701
52194		-1.003106	-7.900706	-65.608583
52195		-0.948418	-8.054990	-64.960570
52196		-0.878534	-8.227697	-64.316147
52197		-0.821314	-8.402154	-63.656515
52198		-0.766907	-8.577413	-62.987291
52199		-0.724779	-8.747420	-62.297570
52200		-0.669742	-8.919931	-61.595594
52201		-0.618140	-9.090932	-60.875155
52202		-0.547687	-9.263926	-60.150246
52203		-0.460630	-9.438743	-59.417403
52204		-0.339402	-9.625181	-58.684259
52205		-0.217171	-9.814308	-57.949431
52206		-0.103193	-10.000054	-57.210317
52207		-0.027341	-10.165387	-56.468571
52208		0.021242	-10.307995	-55.728659
52209		0.037395	-10.419968	-54.990659
52210		0.054604	-10.512320	-54.262587
52211		0.075591	-10.582218	-53.538326
52212		0.120035	-10.643176	-52.810977
52213		0.153109	-10.694997	-52.069831
52214		0.160309	-10.738599	-51.312856
52215		0.110359	-10.778977	-50.535214
52216		0.018629	-10.825020	-49.747681
52217		-0.107210	-10.870060	-48.949042
52218		-0.235968	-10.916805	-48.148809
52219		-0.365311	-10.949706	-47.342641
52220		-0.459642	-10.978806	-46.542415
52221		-0.541025	-11.003069	-45.751853
52222		-0.599386	-11.035148	-44.972121
52223		-0.658434	-11.071311	-44.200329
52224		-0.705390	-11.113111	-43.428124
52225		-0.756496	-11.149354	-42.638679
52226		-0.790530	-11.179055	-41.841904
52227		-0.831644	-11.204376	-41.034506
52228		-0.864604	-11.229442	-40.225514
52229		-0.900342	-11.247622	-39.410076
52230		-0.904853	-11.282007	-38.593295
52231		-0.881269	-11.335613	-37.773475
52232		-0.795757	-11.428118	-36.960116
52233		-0.656439	-11.553407	-36.145097
52234		-0.474252	-11.705273	-35.328530
52235		-0.298096	-11.853380	-34.508822
52236		-0.144255	-11.988449	-33.685004
52237		-0.047793	-12.098703	-32.859544
52238		0.026705	-12.187798	-32.038671
52239		0.084374	-12.254538	-31.219325
52240		0.164207	-12.311244	-30.402140
52241		0.281228	-12.360497	-29.585638
52242		0.464755	-12.421902	-28.773465
52243		0.688330	-12.506378	-27.965400
52244		0.948168	-12.621682	-27.167790
52245		1.227071	-12.749367	-26.376166
52246		1.504575	-12.878398	-25.594067
52247		1.728555	-12.978913	-24.813362
52248		1.877889	-13.036261	-24.026272
52249		1.924413	-13.041940	-23.223167
52250		1.908154	-13.017009	-22.417024
52251		1.861928	-12.976844	-21.611606
52252		1.831972	-12.933199	-20.816152
52253		1.820004	-12.879688	-20.022787
52254		1.838230	-12.837965	-19.230476
52255		1.855048	-12.810061	-18.438511
52256		1.854364	-12.800524	-17.642862
52257		1.806532	-12.782650	-16.840877
52258		1.717432	-12.751632	-16.036026
52259		1.602747	-12.699461	-15.228960
52260		1.500882	-12.641949	-14.434519
52261		1.416755	-12.577282	-13.652893
52262		1.355099	-12.517725	-12.881618
52263		1.278089	-12.462295	-12.117513
52264		1.183881	-12.414467	-11.362625
52265		1.070799	-12.366169	-10.611184
52266		0.961040	-12.314891	-9.864628
52267		0.834269	-12.258087	-9.115093
52268		0.690380	-12.196980	-8.374803
52269		0.533457	-12.126696	-7.638646
52270		0.387948	-12.075793	-6.920064
52271		0.257317	-12.040720	-6.211053
52272		0.148973	-12.028524	-5.515655
52273		0.062920	-12.026752	-4.826760
52274		-0.013369	-12.037711	-4.147244
52275		-0.096293	-12.051407	-3.472021
52276		-0.181602	-12.059076	-2.804392
52277		-0.296545	-12.049808	-2.142645
52278		-0.431238	-12.025935	-1.488521
52279		-0.570672	-11.993370	-0.847314
52280		-0.681657	-11.973423	-0.226116
52281		-0.745846	-11.976338	0.376278
52282		-0.744225	-12.002128	0.959182
52283		-0.702866	-12.034408	1.529382
52284		-0.646460	-12.062826	2.086053
52285		-0.616563	-12.074462	2.634235
52286		-0.614173	-12.074676	3.176039
52287		-0.649401	-12.073614	3.715749
52288		-0.702866	-12.087179	4.249676
52289		-0.765485	-12.113719	4.778744
52290		-0.829791	-12.140929	5.307845
52291		-0.917471	-12.140430	5.838051
52292		-1.039707	-12.100740	6.380070
52293		-1.189365	-12.016453	6.928888
52294		-1.325748	-11.910720	7.471866
52295		-1.421717	-11.818847	7.999261
52296		-1.449364	-11.771907	8.513286
52297		-1.416131	-11.764312	9.016706
52298		-1.363304	-11.792879	9.518457
52299		-1.325926	-11.834946	10.026407
52300		-1.316768	-11.868305	10.537200
52301		-1.346084	-11.880281	11.048375
52302		-1.395592	-11.868879	11.554141
52303		-1.443315	-11.835506	12.041371
52304		-1.464090	-11.787421	12.505112
52305		-1.462478	-11.734828	12.950037
52306		-1.444357	-11.676194	13.383277
52307		-1.450384	-11.601510	13.808783
52308		-1.496915	-11.515356	14.229340
52309		-1.581576	-11.404663	14.643170
52310		-1.693879	-11.261070	15.037826
52311		-1.836393	-11.094788	15.417235
52312		-1.976228	-10.920816	15.775383
52313		-2.112728	-10.753660	16.109318
52314		-2.224955	-10.594813	16.425481
52315		-2.297920	-10.447199	16.723364
52316		-2.352426	-10.334632	17.004539
52317		-2.387937	-10.254982	17.270045
52318		-2.427295	-10.215469	17.522764
52319		-2.456658	-10.219828	17.760680
52320		-2.474353	-10.252412	17.982279
52321		-2.497796	-10.293189	18.185217
52322		-2.527004	-10.327164	18.365534
52323		-2.552596	-10.354409	18.527877
52324		-2.566654	-10.371959	18.664749
52325		-2.579792	-10.392716	18.783696
52326		-2.592305	-10.415158	18.888402
52327		-2.605400	-10.435560	18.982890
52328		-2.626868	-10.453218	19.069213
52329		-2.652280	-10.466753	19.143045
52330		-2.688972	-10.475057	19.204500
52331		-2.725586	-10.482386	19.259951
52332		-2.764968	-10.485861	19.314811
52333		-2.802769	-10.488769	19.359536
52334		-2.849008	-10.484849	19.390361
52335		-2.905164	-10.473794	19.404620
52336		-2.969947	-10.448663	19.406211
52337		-3.030194	-10.409857	19.404410
52338		-3.083674	-10.363232	19.404345
52339		-3.130170	-10.319101	19.403867
52340		-3.180321	-10.284341	19.398097
52341		-3.226373	-10.269725	19.384452
52342		-3.262898	-10.272383	19.363127
52343		-3.276541	-10.285587	19.337297
52344		-3.272227	-10.299672	19.312162
52345		-3.251936	-10.317065	19.291159
52346		-3.233584	-10.341802	19.276524
52347		-3.230835	-10.374748	19.266305
52348		-3.240457	-10.414648	19.261962
52349		-3.259881	-10.450107	19.263309
52350		-3.290121	-10.474608	19.273904
52351		-3.318348	-10.488684	19.290397
52352		-3.334422	-10.498794	19.313684
52353		-3.324215	-10.514366	19.335873
52354		-3.298284	-10.533632	19.352570
52355		-3.271916	-10.558867	19.359354
52356		-3.256126	-10.581371	19.351267
52357		-3.248899	-10.597997	19.339657
52358		-3.256819	-10.603862	19.324904
52359		-3.264779	-10.599964	19.306563
52360		-3.267833	-10.589553	19.285734
52361		-3.257831	-10.578347	19.259644
52362		-3.248227	-10.569030	19.226730
52363		-3.236731	-10.565771	19.187126
52364		-3.223806	-10.566859	19.137031
52365		-3.191758	-10.573688	19.070690
52366		-3.137189	-10.579865	18.994774
52367		-3.049285	-10.591103	18.899440
52368		-2.931390	-10.607868	18.790371
52369		-2.789252	-10.638682	18.664892
52370		-2.646716	-10.684514	18.528224
52371		-2.507259	-10.736254	18.376340
52372		-2.386759	-10.787436	18.207007
52373		-2.270723	-10.840161	18.016386
52374		-2.150018	-10.879702	17.802524
52375		-2.032906	-10.899541	17.559887
52376		-1.926674	-10.901636	17.295850
52377		-1.836600	-10.877852	17.016140
52378		-1.782424	-10.823331	16.728397
52379		-1.767098	-10.741998	16.433830
52380		-1.795299	-10.630791	16.129698
52381		-1.851284	-10.504291	15.819792
52382		-1.931484	-10.372531	15.499328
52383		-2.009563	-10.251485	15.161662
52384		-2.071995	-10.147011	14.803420
52385		-2.104336	-10.064271	14.422585
52386		-2.112561	-10.000326	14.018396
52387		-2.086090	-9.952323	13.594072
52388		-2.040266	-9.905681	13.155169
52389		-1.981358	-9.869567	12.701653
52390		-1.926778	-9.837513	12.238268
52391		-1.855633	-9.820625	11.767531
52392		-1.767292	-9.824374	11.291281
52393		-1.651816	-9.851487	10.805858
52394		-1.527730	-9.894223	10.307346
52395		-1.397426	-9.958149	9.803466
52396		-1.280908	-10.032126	9.302108
52397		-1.152874	-10.149213	8.813502
52398		-1.025180	-10.301004	8.341636
52399		-0.898383	-10.499981	7.880963
52400		-0.770771	-10.735192	7.420127
52401		-0.660691	-10.996522	6.944983
52402		-0.599994	-11.275715	6.446418
52403		-0.548974	-11.557941	5.911220
52404		-0.512920	-11.826269	5.332324
52405		-0.459043	-12.074916	4.714681
52406		-0.379547	-12.287988	4.059950
52407		-0.255604	-12.460461	3.367076
52408		-0.103146	-12.582954	2.634509
52409		0.080055	-12.667108	1.855957
52410		0.267440	-12.711805	1.030471
52411		0.454868	-12.732227	0.164169
52412		0.619007	-12.729552	-0.730928
52413		0.781769	-12.707793	-1.651994
52414		0.930250	-12.667591	-2.592192
52415		1.093938	-12.619241	-3.553379
52416		1.264639	-12.557043	-4.536384
52417		1.457168	-12.488866	-5.541468
52418		1.644677	-12.421786	-6.555552
52419		1.838386	-12.363154	-7.579044
52420		2.018506	-12.316431	-8.604384
52421		2.188986	-12.284112	-9.638404
52422		2.348862	-12.257144	-10.682317
52423		2.519643	-12.238036	-11.743824
52424		2.666003	-12.221384	-12.807310
52425		2.786600	-12.208342	-13.875078
52426		2.869872	-12.186380	-14.942176
52427		2.926218	-12.157209	-16.004730
52428		2.962460	-12.118122	-17.066866
52429		3.017530	-12.084914	-18.129791
52430		3.099026	-12.059960	-19.177991
52431		3.228315	-12.047889	-20.215219
52432		3.364220	-12.046492	-21.241127
52433		3.512609	-12.056216	-22.261364
52434		3.638341	-12.070310	-23.284111
52435		3.718025	-12.086662	-24.296377
52436		3.747839	-12.097638	-25.297405
52437		3.756659	-12.113085	-26.296518
52438		3.765793	-12.147330	-27.303233
52439		3.836899	-12.212007	-28.323224
52440		3.982846	-12.281574	-29.345016
52441		4.210944	-12.340828	-30.370194
52442		4.465481	-12.374478	-31.389395
52443		4.709723	-12.392310	-32.402869
52444		4.891880	-12.400326	-33.397116
52445		5.035618	-12.410814	-34.380142
52446		5.143860	-12.433246	-35.344393
52447		5.257623	-12.467233	-36.296368
52448		5.377879	-12.504374	-37.241720
52449		5.510936	-12.549467	-38.185556
52450		5.631191	-12.602050	-39.127045
52451		5.743425	-12.667826	-40.062357
52452		5.828262	-12.745846	-40.983443
52453		5.894204	-12.827428	-41.888358
52454		5.926150	-12.891266	-42.767297
52455		5.935086	-12.924883	-43.621667
52456		5.918248	-12.923710	-44.453292
52457		5.909453	-12.904065	-45.273202
52458		5.914638	-12.866576	-46.086834
52459		5.962493	-12.824301	-46.907494
52460		6.048548	-12.805284	-47.741563
52461		6.191391	-12.827324	-48.592212
52462		6.370508	-12.902101	-49.460509
52463		6.626469	-13.057686	-50.360055
52464		6.917093	-13.265365	-51.276817
52465		7.227859	-13.482088	-52.208955
52466		7.533918	-13.686146	-53.145238
52467		7.811403	-13.862277	-54.079270
52468		8.031337	-13.996792	-54.998257
52469		8.202309	-14.079330	-55.899889
52470		8.320216	-14.133237	-56.786712
52471		8.409927	-14.176850	-57.671061
52472		8.471693	-14.218091	-58.547233
52473		8.526495	-14.264121	-59.417170
52474		8.571294	-14.305561	-60.278744
52475		8.610954	-14.344184	-61.138670
52476		8.634898	-14.367114	-61.994779
52477		8.640918	-14.369240	-62.838290
52478		8.585930	-14.340434	-63.657971
52479		8.456845	-14.271121	-64.443253
52480		8.243528	-14.170044	-65.197770
52481		7.991571	-14.057030	-65.934798
52482		7.725532	-13.924950	-66.652436
52483		7.480118	-13.789133	-67.361774
52484		7.252485	-13.661205	-68.067662
52485		7.061097	-13.563000	-68.786420
52486		6.892950	-13.498429	-69.511455
52487		6.754725	-13.467011	-70.237695
52488		6.615524	-13.443246	-70.947130
52489		6.457160	-13.413348	-71.633959
52490		6.263001	-13.369751	-72.293817
52491		6.052287	-13.323376	-72.943415
52492		5.846989	-13.287802	-73.586627
52493		5.672215	-13.260946	-74.221854
52494		5.549491	-13.244587	-74.862938
52495		5.491718	-13.232572	-75.507421
52496		5.454792	-13.208883	-76.138806
52497		5.391664	-13.161650	-76.750285
52498		5.267841	-13.074568	-77.333465
52499		5.098757	-12.951481	-77.899862
52500		4.909681	-12.817243	-78.464712
52501		4.735105	-12.690237	-79.027752
52502		4.597124	-12.592514	-79.600343
52503		4.525777	-12.532011	-80.188486
52504		4.499238	-12.499893	-80.778045
52505		4.490763	-12.482305	-81.361508
52506		4.471390	-12.469514	-81.932632
52507		4.449554	-12.458694	-82.485112
52508		4.448655	-12.442314	-83.021243
52509		4.480059	-12.416273	-83.537244
52510		4.536773	-12.371127	-84.037509
52511		4.591343	-12.301245	-84.517661
52512		4.622527	-12.209995	-84.970221
52513		4.617933	-12.091103	-85.393772
52514		4.574368	-11.947278	-85.785023
52515		4.501539	-11.792299	-86.143626
52516		4.408346	-11.635728	-86.470143
52517		4.307612	-11.494177	-86.766996
52518		4.215572	-11.372571	-87.048247
52519		4.149756	-11.283360	-87.315864
52520		4.137966	-11.201502	-87.573210
52521		4.154976	-11.124467	-87.808724
52522		4.196234	-11.042235	-88.019151
52523		4.256457	-10.965236	-88.202581
52524		4.331377	-10.901130	-88.368917
52525		4.411658	-10.849957	-88.519839
52526		4.496996	-10.822746	-88.664989
52527		4.566487	-10.803729	-88.792309
52528		4.620537	-10.782699	-88.898339
52529		4.642888	-10.750262	-88.979834
52530		4.657075	-10.699091	-89.032839
52531		4.673360	-10.632633	-89.065859
52532		4.691056	-10.564588	-89.080910
52533		4.706550	-10.496146	-89.079567
52534		4.727332	-10.436137	-89.074794
52535		4.747324	-10.374470	-89.067623
52536		4.757060	-10.307396	-89.053307
52537		4.755178	-10.235008	-89.028649
52538		4.753394	-10.166834	-88.995230
52539		4.756565	-10.107984	-88.959334
52540		4.774669	-10.061253	-88.913907
52541		4.802927	-10.024667	-88.873482
52542		4.833584	-9.990458	-88.824014
52543		4.851311	-9.953676	-88.759007
52544		4.866748	-9.915720	-88.680001
52545		4.869303	-9.876001	-88.583198
52546		4.863705	-9.837358	-88.474469
52547		4.848459	-9.796148	-88.347204
52548		4.832408	-9.761566	-88.202302
52549		4.823359	-9.729566	-88.043850
52550		4.825124	-9.703016	-87.873452
52551		4.841126	-9.683070	-87.695792
52552		4.868246	-9.666046	-87.519463
52553		4.885709	-9.649237	-87.343121
52554		4.885636	-9.628685	-87.164510
52555		4.862418	-9.596455	-86.973904
52556		4.822335	-9.556919	-86.776403
52557		4.774060	-9.514771	-86.568843
52558		4.749354	-9.476525	-86.368670
52559		4.750091	-9.434547	-86.166331
52560		4.795326	-9.392509	-85.968092
52561		4.873973	-9.344179	-85.774948
52562		4.970105	-9.298107	-85.584859
52563		5.067519	-9.259976	-85.399448
52564		5.158278	-9.237957	-85.209831
52565		5.236450	-9.225917	-85.007799
52566		5.299560	-9.223826	-84.787799
52567		5.358170	-9.210121	-84.552244
52568		5.406219	-9.190163	-84.301145
52569		5.436322	-9.166641	-84.033369
52570		5.461776	-9.149291	-83.749071
52571		5.476337	-9.130703	-83.448331
52572		5.498200	-9.108500	-83.137458
52573		5.504255	-9.080376	-82.807700
52574		5.515499	-9.049848	-82.471624
52575		5.519071	-9.010413	-82.122839
52576		5.510183	-8.968807	-81.761773
52577		5.476493	-8.927683	-81.387673
52578		5.444531	-8.901979	-81.003566
52579		5.413431	-8.891679	-80.609400
52580		5.400436	-8.895208	-80.201518
52581		5.394854	-8.901934	-79.771242
52582		5.400662	-8.913953	-79.328382
52583		5.403775	-8.930803	-78.873668
52584		5.424066	-8.950378	-78.416983
52585		5.437915	-8.968462	-77.955449
52586		5.460859	-8.984086	-77.492367
52587		5.471245	-9.001608	-77.021945
52588		5.473758	-9.016855	-76.547815
52589		5.448856	-9.033042	-76.061805
52590		5.414550	-9.053716	-75.568662
52591		5.379592	-9.073410	-75.063681
52592		5.375754	-9.095680	-74.556693
52593		5.390740	-9.117166	-74.047935
52594		5.431129	-9.140565	-73.542259
52595		5.471624	-9.171450	-73.035890
52596		5.520052	-9.217264	-72.534622
52597		5.560127	-9.266005	-72.032892
52598		5.608678	-9.317582	-71.528971
52599		5.645497	-9.355659	-71.006478
52600		5.675197	-9.383406	-70.469330
52601		5.686387	-9.398955	-69.914114
52602		5.691312	-9.412837	-69.345555
52603		5.673436	-9.424004	-68.749686
52604		5.642270	-9.442699	-68.137586
52605		5.594812	-9.467413	-67.506510
52606		5.548463	-9.497968	-66.860431
52607		5.512267	-9.537455	-66.208636
52608		5.505456	-9.594034	-65.560747
52609		5.506704	-9.663438	-64.914128
52610		5.521386	-9.741301	-64.264611
52611		5.522075	-9.818093	-63.603514
52612		5.526935	-9.897043	-62.932940
52613		5.524132	-9.979728	-62.255201
52614		5.539264	-10.071975	-61.569908
52615		5.556213	-10.169281	-60.870479
52616		5.582903	-10.275914	-60.158271
52617		5.593668	-10.387796	-59.437828
52618		5.598628	-10.507567	-58.712196
52619		5.589837	-10.628724	-57.981930
52620		5.591506	-10.752105	-57.244746
52621		5.582652	-10.871202	-56.491627
52622		5.583046	-10.981628	-55.733860
52623		5.576104	-11.083631	-54.975927
52624		5.587336	-11.184066	-54.225865
52625		5.619199	-11.280571	-53.478935
52626		5.692298	-11.384246	-52.739798
52627		5.784015	-11.491856	-51.994155
52628		5.891038	-11.611056	-51.242248
52629		5.974994	-11.722953	-50.474724
52630		6.033669	-11.823319	-49.692456
52631		6.056388	-11.905712	-48.895349
52632		6.084274	-11.984061	-48.093343
52633		6.133677	-12.063865	-47.287790
52634		6.242653	-12.166221	-46.483752
52635		6.427734	-12.287878	-45.680679
52636		6.713705	-12.435568	-44.889852
52637		7.084868	-12.595210	-44.098786
52638		7.510744	-12.763562	-43.318076
52639		7.914755	-12.923671	-42.537170
52640		8.256428	-13.067558	-41.751075
52641		8.487318	-13.177016	-40.941806
52642		8.614635	-13.223706	-40.097760
52643		8.659067	-13.200411	-39.215189
52644		8.680007	-13.129827	-38.308281
52645		8.679285	-13.041030	-37.387399
52646		8.668404	-12.964838	-36.468046
52647		8.653185	-12.930085	-35.557580
52648		8.666707	-12.936473	-34.654009
52649		8.686341	-12.962351	-33.752087
52650		8.728565	-12.990636	-32.863100
52651		8.749839	-13.003589	-31.977600
52652		8.733574	-13.001710	-31.090382
52653		8.658121	-12.973839	-30.183771
52654		8.518139	-12.933884	-29.257259
52655		8.330181	-12.881791	-28.312568
52656		8.144500	-12.829718	-27.368795
52657		8.000695	-12.783272	-26.431586
52658		7.951225	-12.756256	-25.514928
52659		7.958274	-12.756679	-24.615654
52660		7.990857	-12.793606	-23.734226
52661		7.960779	-12.839839	-22.852887
52662		7.838727	-12.877327	-21.972513
52663		7.611694	-12.880904	-21.089105
52664		7.322340	-12.859330	-20.214413
52665		7.006943	-12.821969	-19.354085
52666		6.731902	-12.779088	-18.516664
52667		6.513200	-12.741656	-17.694307
52668		6.363687	-12.724133	-16.899610
52669		6.259956	-12.739734	-16.124095
52670		6.190884	-12.794927	-15.380306
52671		6.139200	-12.865781	-14.657949
52672		6.078834	-12.934874	-13.948172
52673		5.977856	-12.973531	-13.239008
52674		5.831518	-12.977779	-12.520389
52675		5.607637	-12.952268	-11.788577
52676		5.337892	-12.913893	-11.048989
52677		5.042939	-12.865984	-10.305725
52678		4.775077	-12.814527	-9.571802
52679		4.545701	-12.769585	-8.852322
52680		4.379088	-12.735057	-8.152329
52681		4.255078	-12.714723	-7.464542
52682		4.170744	-12.710318	-6.782445
52683		4.101853	-12.712710	-6.106812
52684		4.066194	-12.726014	-5.443385
52685		4.054070	-12.750806	-4.796131
52686		4.101667	-12.807912	-4.172147
52687		4.196203	-12.891341	-3.563322
52688		4.336483	-12.997611	-2.974898
52689		4.509523	-13.115407	-2.406651
52690		4.734208	-13.236746	-1.866358
52691		5.015879	-13.351001	-1.349267
52692		5.325818	-13.454262	-0.844820
52693		5.633327	-13.530740	-0.351607
52694		5.914852	-13.582174	0.132762
52695		6.150244	-13.609985	0.608109
52696		6.318227	-13.626724	1.078042
52697		6.413570	-13.629890	1.539640
52698		6.451394	-13.617103	1.997710
52699		6.448190	-13.594879	2.450884
52700		6.436637	-13.568404	2.900069
52701		6.423284	-13.534272	3.333312
52702		6.410944	-13.500880	3.757409
52703		6.403485	-13.454724	4.169824
52704		6.389892	-13.396843	4.571780
52705		6.364516	-13.328878	4.959873
52706		6.337330	-13.262496	5.333176
52707		6.318472	-13.215558	5.685104
52708		6.312602	-13.196535	6.023467
52709		6.305437	-13.193502	6.345297
52710		6.284591	-13.195418	6.657210
52711		6.241105	-13.190715	6.963472
52712		6.179302	-13.176026	7.260783
52713		6.111446	-13.157473	7.549088
52714		6.064182	-13.139338	7.826090
52715		6.053362	-13.132015	8.089833
52716		6.082234	-13.143883	8.338454
52717		6.139500	-13.167684	8.576309
52718		6.206137	-13.206437	8.796199
52719		6.273573	-13.252897	8.986251
52720		6.352390	-13.296471	9.139667
52721		6.429989	-13.328000	9.258174
52722		6.482298	-13.330735	9.352065
52723		6.496116	-13.306052	9.420180
52724		6.452384	-13.245113	9.471171
52725		6.361556	-13.159983	9.502885
52726		6.247774	-13.058146	9.527176
52727		6.135977	-12.955967	9.547291
52728		6.044319	-12.861750	9.567024
52729		5.980693	-12.784141	9.587004
52730		5.929912	-12.721050	9.606748
52731		5.887419	-12.672031	9.630997
52732		5.846461	-12.638851	9.647527
52733		5.807650	-12.622018	9.665564
52734		5.772206	-12.617816	9.681426
52735		5.747683	-12.633607	9.697078
52736		5.726700	-12.666174	9.715977
52737		5.710983	-12.710643	9.735476
52738		5.691358	-12.757644	9.754553
52739		5.664303	-12.798721	9.770275
52740		5.630049	-12.823802	9.781471
52741		5.602527	-12.841967	9.781361
52742		5.578533	-12.850706	9.778234
52743		5.546036	-12.855264	9.771718
52744		5.487134	-12.847789	9.767786
52745		5.399323	-12.833253	9.767581
52746		5.297722	-12.811131	9.769489
52747		5.208144	-12.795440	9.769152
52748		5.149424	-12.787334	9.766174
52749		5.137278	-12.795943	9.753247
52750		5.159807	-12.817709	9.735321
52751		5.193963	-12.848188	9.713029
52752		5.210390	-12.877009	9.688368
52753		5.202614	-12.904310	9.663897
52754		5.174858	-12.926240	9.638576
52755		5.143221	-12.946086	9.619702
52756		5.111643	-12.957816	9.601331
52757		5.094278	-12.965262	9.582222
52758		5.080393	-12.967878	9.563642
52759		5.067008	-12.975454	9.546845
52760		5.047379	-12.987550	9.535418
52761		5.023932	-13.010735	9.525929
52762		5.000327	-13.041631	9.511994
52763		4.984562	-13.076969	9.489478
52764		4.981632	-13.106474	9.458350
52765		4.980749	-13.128370	9.422932
52766		4.973410	-13.136527	9.384005
52767		4.953144	-13.132319	9.344780
52768		4.914004	-13.119029	9.304212
52769		4.870364	-13.102979	9.263197
52770		4.831144	-13.089758	9.222635
52771		4.813803	-13.086410	9.176899
52772		4.820124	-13.092594	9.117743
52773		4.858442	-13.110392	9.043489
52774		4.908015	-13.136562	8.953700
52775		4.959461	-13.167376	8.847311
52776		5.000431	-13.200727	8.728157
52777		5.036507	-13.226276	8.595319
52778		5.066906	-13.231782	8.451800
52779		5.091482	-13.209676	8.295317
52780		5.099852	-13.163098	8.126165
52781		5.099054	-13.098771	7.938678
52782		5.080343	-13.029646	7.733300
52783		5.054991	-12.962970	7.512848
52784		5.028800	-12.895422	7.282569
52785		5.018873	-12.831891	7.041223
52786		5.032747	-12.777624	6.786332
52787		5.079891	-12.735712	6.508755
52788		5.137263	-12.700398	6.213526
52789		5.195371	-12.672962	5.898973
52790		5.226160	-12.639105	5.575221
52791		5.237548	-12.591337	5.238580
52792		5.222060	-12.524744	4.894166
52793		5.200745	-12.438104	4.539984
52794		5.175297	-12.334184	4.179257
52795		5.153731	-12.225043	3.811652
52796		5.136203	-12.117659	3.431043
52797		5.137990	-12.022026	3.029873
52798		5.141762	-11.945158	2.613025
52799		5.159154	-11.888498	2.173189
52800		5.189657	-11.843998	1.715352
52801		5.239510	-11.809171	1.237440
52802		5.301089	-11.777306	0.744600
52803		5.383882	-11.749204	0.235785
52804		5.462163	-11.725073	-0.282945
52805		5.532803	-11.707866	-0.806164
52806		5.586438	-11.688665	-1.334978
52807		5.638098	-11.671166	-1.869059
52808		5.689044	-11.653670	-2.410871
52809		5.755714	-11.638597	-2.965751
52810		5.813045	-11.621318	-3.528749
52811		5.863441	-11.604266	-4.101386
52812		5.896724	-11.586846	-4.683534
52813		5.922796	-11.573159	-5.279436
52814		5.946588	-11.557317	-5.890338
52815		5.983271	-11.540262	-6.516310
52816		6.026757	-11.519387	-7.149341
52817		6.091000	-11.498613	-7.788740
52818		6.161981	-11.477271	-8.435915
52819		6.253331	-11.457558	-9.094241
52820		6.351440	-11.442091	-9.762266
52821		6.459992	-11.435285	-10.445865
52822		6.553837	-11.418923	-11.137403
52823		6.643883	-11.395729	-11.842173
52824		6.710583	-11.358896	-12.562121
52825		6.778342	-11.318935	-13.302110
52826		6.849050	-11.279834	-14.051965
52827		6.944230	-11.243535	-14.814200
52828		7.062810	-11.214777	-15.587651
52829		7.213587	-11.202903	-16.382712
52830		7.367770	-11.197367	-17.186667
52831		7.531986	-11.194861	-18.000177
52832		7.682268	-11.183606	-18.816535
52833		7.840119	-11.170385	-19.646118
52834		7.997337	-11.159359	-20.488210
52835		8.170386	-11.157613	-21.349776
52836		8.339380	-11.161776	-22.222584
52837		8.500036	-11.168825	-23.112500
52838		8.629320	-11.168739	-24.006824
52839		8.742743	-11.150320	-24.908715
52840		8.832428	-11.113489	-25.816622
52841		8.915010	-11.071005	-26.732325
52842		8.970233	-11.023695	-27.651733
52843		8.955265	-10.990255	-28.572887
52844		8.844197	-10.973244	-29.495094
52845		8.691547	-10.975255	-30.427625
52846		8.506569	-10.987391	-31.359693
52847		8.337194	-11.000146	-32.289709
52848		8.200919	-11.003862	-33.215741
52849		8.131284	-10.999118	-34.136593
52850		8.103906	-10.981345	-35.051114
52851		8.136605	-10.956960	-35.958698
52852		8.191353	-10.930032	-36.858924
52853		8.246945	-10.902619	-37.752045
52854		8.270772	-10.874908	-38.631303
52855		8.253144	-10.857882	-39.496167
52856		8.181404	-10.851456	-40.339841
52857		8.088418	-10.854032	-41.166023
52858		7.992849	-10.862403	-41.973145
52859		7.920989	-10.882395	-42.768458
52860		7.874666	-10.904144	-43.556061
52861		7.858601	-10.918552	-44.343004
52862		7.835513	-10.924512	-45.124903
52863		7.799464	-10.928709	-45.900277
52864		7.730838	-10.934759	-46.662738
52865		7.652454	-10.942041	-47.410680
52866		7.574853	-10.950314	-48.144457
52867		7.542227	-10.959537	-48.882123
52868		7.555054	-10.977821	-49.628086
52869		7.621232	-11.018257	-50.383771
52870		7.708587	-11.078931	-51.139585
52871		7.799563	-11.155377	-51.889605
52872		7.868067	-11.241761	-52.627794
52873		7.907972	-11.330522	-53.355327
52874		7.883848	-11.393982	-54.060778
52875		7.828803	-11.416784	-54.745188
52876		7.770559	-11.384403	-55.411278
52877		7.715159	-11.339942	-56.070029
52878		7.694287	-11.286515	-56.730246
52879		7.733381	-11.245203	-57.397059
52880		7.806351	-11.220968	-58.058557
52881		7.898880	-11.214371	-58.721005
52882		7.975297	-11.216881	-59.385622
52883		8.035584	-11.215577	-60.053050
52884		8.067770	-11.211610	-60.712729
52885		8.090473	-11.195311	-61.364776
52886		8.086587	-11.165443	-61.995883
52887		8.077793	-11.115088	-62.614113
52888		8.068702	-11.053125	-63.221145
52889		8.084440	-10.995212	-63.827542
52890		8.132196	-10.944261	-64.430080
52891		8.218924	-10.905453	-65.036161
52892		8.326988	-10.873794	-65.642958
52893		8.451933	-10.850639	-66.249240
52894		8.584998	-10.841679	-66.856416
52895		8.723214	-10.837290	-67.459403
52896		8.858041	-10.837799	-68.056834
52897		8.989696	-10.846082	-68.646589
52898		9.107197	-10.850825	-69.220326
52899		9.225476	-10.842300	-69.783288
52900		9.340700	-10.822734	-70.330981
52901		9.464316	-10.786409	-70.870905
52902		9.584264	-10.743946	-71.405400
52903		9.692571	-10.711255	-71.936724
52904		9.777467	-10.688063	-72.460479
52905		9.838733	-10.667271	-72.968880
52906		9.852875	-10.631654	-73.454056
52907		9.824735	-10.578324	-73.918883
52908		9.773332	-10.530204	-74.377427
52909		9.730700	-10.498110	-74.842976
52910		9.702663	-10.496919	-75.315574
52911		9.677666	-10.516171	-75.791734
52912		9.631349	-10.554588	-76.260522
52913		9.557420	-10.602606	-76.721121
52914		9.431301	-10.628270	-77.162333
52915		9.261561	-10.616182	-77.592543
52916		9.065528	-10.575524	-78.015678
52917		8.872349	-10.513559	-78.435922
52918		8.693254	-10.427950	-78.848179
52919		8.553917	-10.338994	-79.260414
52920		8.459271	-10.268347	-79.681098
52921		8.417109	-10.224121	-80.119464
52922		8.423937	-10.208806	-80.568980
52923		8.454889	-10.224304	-81.027221
52924		8.466982	-10.251056	-81.479047
52925		8.466414	-10.268516	-81.922533
52926		8.444692	-10.255408	-82.349956
52927		8.401278	-10.209741	-82.756766
52928		8.338549	-10.139037	-83.141909
52929		8.281725	-10.062034	-83.518869
52930		8.257790	-9.992494	-83.887245
52931		8.287194	-9.944619	-84.252928
52932		8.374140	-9.925823	-84.610572
52933		8.526307	-9.938338	-84.960208
52934		8.749844	-9.964010	-85.298017
52935		9.006856	-9.979923	-85.622029
52936		9.293046	-9.985909	-85.932746
52937		9.562776	-9.972581	-86.231007
52938		9.774615	-9.929349	-86.507718
52939		9.905535	-9.862348	-86.754746
52940		9.968438	-9.776543	-86.971655
52941		9.962029	-9.682249	-87.158727
52942		9.915488	-9.568265	-87.312988
52943		9.876613	-9.426086	-87.435762
52944		9.871289	-9.253776	-87.533682
52945		9.892289	-9.055039	-87.606162
52946		9.917984	-8.842938	-87.664325
52947		9.938070	-8.646535	-87.720289
52948		9.937197	-8.475008	-87.769786
52949		9.912878	-8.338492	-87.816675
52950		9.883291	-8.229016	-87.856523
52951		9.861471	-8.143892	-87.890472
52952		9.855101	-8.070005	-87.915573
52953		9.857337	-8.004776	-87.927913
52954		9.879336	-7.948467	-87.936928
52955		9.920482	-7.901468	-87.940959
52956		9.983677	-7.869079	-87.940699
52957		10.048340	-7.849545	-87.931674
52958		10.106660	-7.828336	-87.906535
52959		10.146790	-7.808359	-87.865593
52960		10.169357	-7.783329	-87.808676
52961		10.171332	-7.750091	-87.737803
52962		10.155473	-7.704708	-87.655207
52963		10.121572	-7.642073	-87.558232
52964		10.082731	-7.572191	-87.450355
52965		10.040757	-7.496264	-87.319497
52966		10.006720	-7.421179	-87.164138
52967		9.977118	-7.342767	-86.976576
52968		9.957810	-7.258315	-86.764106
52969		9.933358	-7.165992	-86.530347
52970		9.904202	-7.075175	-86.287808
52971		9.865245	-6.996787	-86.043738
52972		9.810158	-6.941378	-85.807134
52973		9.731547	-6.909909	-85.560730
52974		9.643305	-6.904379	-85.296342
52975		9.546588	-6.906488	-85.007173
52976		9.448144	-6.903307	-84.693684
52977		9.348318	-6.884812	-84.358981
52978		9.246122	-6.855985	-84.000744
52979		9.130570	-6.824923	-83.625108
52980		9.005923	-6.800024	-83.228778
52981		8.865675	-6.774261	-82.814524
52982		8.707043	-6.751765	-82.378852
52983		8.512814	-6.730802	-81.910734
52984		8.295556	-6.724166	-81.415609
52985		8.056016	-6.729939	-80.891122
52986		7.825550	-6.752099	-80.343528
52987		7.610758	-6.795524	-79.771260
52988		7.436366	-6.858808	-79.176888
52989		7.298710	-6.922681	-78.564313
52990		7.212086	-6.977777	-77.937583
52991		7.154425	-7.013627	-77.299627
52992		7.120484	-7.033647	-76.655395
52993		7.073261	-7.040173	-76.003058
52994		7.016949	-7.046572	-75.345563
52995		6.929239	-7.059766	-74.674647
52996		6.829516	-7.089588	-73.986424
52997		6.719006	-7.133902	-73.272651
52998		6.636114	-7.192074	-72.544791
52999		6.583051	-7.261816	-71.800558
53000		6.582768	-7.339045	-71.055228
53001		6.614453	-7.409536	-70.306555
53002		6.670343	-7.456974	-69.548807
53003		6.702224	-7.479635	-68.786103
53004		6.701209	-7.481550	-68.000802
53005		6.627980	-7.466582	-67.194028
53006		6.515338	-7.446451	-66.373320
53007		6.357256	-7.426693	-65.537872
53008		6.181560	-7.409796	-64.686802
53009		5.992146	-7.391957	-63.820064
53010		5.829256	-7.382391	-62.938070
53011		5.686811	-7.373094	-62.045016
53012		5.582477	-7.371589	-61.142348
53013		5.490284	-7.371120	-60.224591
53014		5.400781	-7.370809	-59.291852
53015		5.276679	-7.366470	-58.334575
53016		5.117084	-7.354743	-57.346242
53017		4.894912	-7.326299	-56.323969
53018		4.630121	-7.277820	-55.271694
53019		4.323272	-7.208280	-54.193265
53020		4.021539	-7.127147	-53.105775
53021		3.754986	-7.034879	-52.004583
53022		3.599151	-6.957757	-50.902067
53023		3.534103	-6.891902	-49.796710
53024		3.575296	-6.840439	-48.711979
53025		3.707259	-6.803812	-47.662097
53026		3.928706	-6.779861	-46.660866
53027		4.139707	-6.751809	-45.704702
53028		4.304615	-6.726077	-44.806375
53029		4.383759	-6.703108	-43.946997
53030		4.383208	-6.697421	-43.111143
53031		4.307120	-6.713492	-42.276445
53032		4.205890	-6.759863	-41.440134
53033		4.125867	-6.829851	-40.600374
53034		4.145645	-6.929503	-39.768759
53035		4.285588	-7.051164	-38.943781
53036		4.564485	-7.197695	-38.137946
53037		4.944745	-7.361729	-37.348716
53038		5.376385	-7.541084	-36.566661
53039		5.776982	-7.713304	-35.773579
53040		6.099154	-7.875217	-34.962506
53041		6.299408	-8.027292	-34.123787
53042		6.403773	-8.167569	-33.253237
53043		6.420468	-8.288504	-32.347642
53044		6.419632	-8.397940	-31.411877
53045		6.452377	-8.511169	-30.454144
53046		6.585993	-8.652768	-29.498600
53047		6.836838	-8.823894	-28.547635
53048		7.183325	-9.011249	-27.595894
53049		7.531900	-9.184605	-26.625612
53050		7.798337	-9.316927	-25.617870
53051		7.904857	-9.374532	-24.562471
53052		7.843443	-9.361615	-23.463709
53053		7.636416	-9.293386	-22.348987
53054		7.383781	-9.201818	-21.241145
53055		7.172116	-9.122546	-20.153281
53056		7.069449	-9.105244	-19.091278
53057		7.066557	-9.166576	-18.042360
53058		7.136906	-9.292987	-17.009906
53059		7.197877	-9.450999	-15.979937
53060		7.193976	-9.588498	-14.950115
53061		7.099304	-9.671325	-13.917745
53062		6.938040	-9.692321	-12.894512
53063		6.715088	-9.641338	-11.878152
53064		6.486078	-9.539483	-10.878896
53065		6.274797	-9.426512	-9.898555
53066		6.094123	-9.330161	-8.945605
53067		5.948498	-9.260677	-8.020664
53068		5.872421	-9.254160	-7.127072
53069		5.818460	-9.300769	-6.247976
53070		5.779226	-9.389057	-5.379615
53071		5.744745	-9.499240	-4.519031
53072		5.711459	-9.620149	-3.671010
53073		5.643654	-9.726255	-2.828610
53074		5.554626	-9.807404	-1.999488
53075		5.449797	-9.856628	-1.192110
53076		5.351920	-9.903258	-0.410038
53077		5.271053	-9.971523	0.343785
53078		5.243234	-10.078341	1.069241
53079		5.235204	-10.202096	1.783640
53080		5.249022	-10.338723	2.496703
53081		5.228542	-10.459121	3.211076
53082		5.150077	-10.550861	3.928062
53083		4.990820	-10.617130	4.641972
53084		4.795430	-10.664835	5.339748
53085		4.592170	-10.709742	6.013711
53086		4.407885	-10.764344	6.664403
53087		4.258634	-10.828888	7.297355
53088		4.161892	-10.907935	7.907576
53089		4.107236	-10.997343	8.496198
53090		4.078671	-11.090099	9.069617
53091		4.041128	-11.195776	9.627818
53092		4.003591	-11.316717	10.173934
53093		3.948242	-11.447730	10.714423
53094		3.897013	-11.580906	11.255625
53095		3.843671	-11.717794	11.792094
53096		3.794827	-11.835734	12.323101
53097		3.716132	-11.915955	12.853913
53098		3.608387	-11.947719	13.376061
53099		3.477519	-11.941386	13.886886
53100		3.337838	-11.906584	14.384306
53101		3.210388	-11.860363	14.865360
53102		3.110045	-11.818899	15.325800
53103		3.028144	-11.768236	15.773109
53104		2.945018	-11.714668	16.206252
53105		2.849255	-11.662981	16.626526
53106		2.736385	-11.618792	17.033640
53107		2.614547	-11.587585	17.424735
53108		2.494758	-11.567295	17.799809
53109		2.390811	-11.562350	18.157375
53110		2.310690	-11.565476	18.492888
53111		2.239526	-11.573624	18.806736
53112		2.170817	-11.588633	19.093334
53113		2.106203	-11.622130	19.350114
53114		2.047589	-11.659715	19.585358
53115		1.992023	-11.693337	19.809609
53116		1.932853	-11.702396	20.023811
53117		1.860968	-11.686117	20.221872
53118		1.770467	-11.654005	20.399106
53119		1.679058	-11.626610	20.553170
53120		1.599747	-11.608540	20.686401
53121		1.542654	-11.605841	20.801397
53122		1.509294	-11.612434	20.901193
53123		1.488163	-11.622426	20.988765
53124		1.457351	-11.637328	21.068196
53125		1.410474	-11.653254	21.146984
53126		1.361395	-11.680028	21.220730
53127		1.310138	-11.724193	21.286012
53128		1.257228	-11.783242	21.342697
53129		1.208231	-11.858450	21.392099
53130		1.160337	-11.935241	21.434378
53131		1.109377	-12.008492	21.481197
53132		1.054688	-12.078281	21.528645
53133		1.016252	-12.141437	21.578057
53134		0.982208	-12.209445	21.632389
53135		0.971651	-12.293381	21.693567
53136		0.982920	-12.388756	21.759602
53137		1.006448	-12.491345	21.824578
53138		1.023327	-12.591084	21.882708
53139		1.047810	-12.691295	21.935046
53140		1.062403	-12.777891	21.982432
53141		1.083533	-12.855388	22.020506
53142		1.096271	-12.919792	22.050368
53143		1.113601	-12.973423	22.065439
53144		1.136623	-13.018779	22.071705
53145		1.164775	-13.058807	22.070268
53146		1.197502	-13.088234	22.063479
53147		1.230020	-13.105159	22.056383
53148		1.255828	-13.112124	22.036417
53149		1.281933	-13.114438	22.008326
53150		1.311737	-13.122729	21.973276
53151		1.348577	-13.140792	21.932856
53152		1.385049	-13.167561	21.888977
53153		1.424387	-13.211828	21.831524
53154		1.461874	-13.275178	21.767481
53155		1.502049	-13.350368	21.694496
53156		1.546382	-13.431989	21.620635
53157		1.599190	-13.514378	21.555133
53158		1.645813	-13.582499	21.495474
53159		1.682128	-13.635214	21.440992
53160		1.706632	-13.664071	21.393064
53161		1.729058	-13.673172	21.348512
53162		1.749848	-13.673552	21.300240
53163		1.778862	-13.675431	21.238530
53164		1.796043	-13.670419	21.169634
53165		1.808186	-13.649632	21.090780
53166		1.806443	-13.608546	21.005863
53167		1.800909	-13.550251	20.911757
53168		1.788371	-13.483553	20.811020
53169		1.792479	-13.422420	20.694477
53170		1.818306	-13.365522	20.562927
53171		1.867756	-13.315529	20.411417
53172		1.929717	-13.266361	20.242931
53173		1.985431	-13.220890	20.050769
53174		2.012896	-13.164680	19.839062
53175		2.010898	-13.109000	19.600598
53176		1.986834	-13.053684	19.342402
53177		1.968166	-13.010124	19.067411
53178		1.944951	-12.989838	18.783281
53179		1.930525	-13.005224	18.498111
53180		1.913559	-13.050962	18.195717
53181		1.896998	-13.124989	17.882708
53182		1.849003	-13.193063	17.547912
53183		1.769373	-13.247715	17.195388
53184		1.662971	-13.268835	16.826209
53185		1.541917	-13.254022	16.444949
53186		1.416402	-13.200064	16.053385
53187		1.290207	-13.129015	15.654676
53188		1.194342	-13.046657	15.257845
53189		1.163002	-12.976857	14.855421
53190		1.151191	-12.922020	14.453143
53191		1.171360	-12.879408	14.043953
53192		1.216032	-12.838672	13.629988
53193		1.276937	-12.797421	13.210711
53194		1.329080	-12.758311	12.793493
53195		1.374886	-12.724988	12.375320
53196		1.398310	-12.696664	11.957677
53197		1.424151	-12.673792	11.530128
53198		1.461675	-12.645885	11.097474
53199		1.540403	-12.615312	10.659090
53200		1.651820	-12.586430	10.212261
53201		1.802359	-12.566035	9.749592
53202		1.962177	-12.555209	9.277395
53203		2.119888	-12.549528	8.790443
53204		2.259944	-12.543686	8.296029
53205		2.391986	-12.544847	7.783103
53206		2.510581	-12.552163	7.263033
53207		2.627934	-12.567982	6.732787
53208		2.737809	-12.582555	6.202717
53209		2.858464	-12.594005	5.670304
53210		2.972674	-12.594598	5.136602
53211		3.094577	-12.589419	4.597523
53212		3.217746	-12.590137	4.043858
53213		3.352067	-12.615005	3.473357
53214		3.478833	-12.659629	2.885189
53215		3.612222	-12.729486	2.281402
53216		3.728039	-12.807299	1.663347
53217		3.834598	-12.893111	1.028876
53218		3.934589	-12.980917	0.384740
53219		4.046448	-13.065996	-0.272188
53220		4.167236	-13.144582	-0.923918
53221		4.313224	-13.215665	-1.577094
53222		4.469502	-13.282905	-2.227885
53223		4.654626	-13.348914	-2.889797
53224		4.852976	-13.413763	-3.563532
53225		5.087305	-13.479315	-4.254048
53226		5.325179	-13.541348	-4.950199
53227		5.569200	-13.610053	-5.651413
53228		5.800422	-13.687869	-6.353047
53229		6.019138	-13.777973	-7.059672
53230		6.207045	-13.868522	-7.774957
53231		6.373980	-13.956105	-8.502782
53232		6.515334	-14.035224	-9.233857
53233		6.662355	-14.110744	-9.971625
53234		6.828979	-14.181679	-10.713343
53235		7.014800	-14.255867	-11.464571
53236		7.202117	-14.324374	-12.219630
53237		7.409014	-14.386678	-12.980905
53238		7.602438	-14.439754	-13.739022
53239		7.789968	-14.488402	-14.495286
53240		7.957730	-14.537474	-15.248702
53241		8.121383	-14.597820	-16.005509
53242		8.273513	-14.661555	-16.768407
53243		8.436480	-14.729815	-17.537392
53244		8.609190	-14.798422	-18.314605
53245		8.799939	-14.870583	-19.102554
53246		8.987895	-14.934324	-19.895335
53247		9.160889	-14.983721	-20.695470
53248		9.294077	-15.020132	-21.501372
53249		9.411035	-15.046485	-22.319469
53250		9.506328	-15.058863	-23.143792
53251		9.612841	-15.067611	-23.974132
53252		9.729707	-15.081310	-24.796051
53253		9.878529	-15.113289	-25.611010
53254		10.037127	-15.157945	-26.414363
53255		10.188363	-15.196600	-27.206076
53256		10.289053	-15.207613	-27.973281
53257		10.336409	-15.186980	-28.722467
53258		10.330417	-15.143860	-29.454886
53259		10.320765	-15.094705	-30.181386
53260		10.336004	-15.060704	-30.895118
53261		10.416555	-15.049902	-31.606251
53262		10.555837	-15.057542	-32.322032
53263		10.739092	-15.081035	-33.051340
53264		10.918484	-15.110092	-33.789824
53265		11.081955	-15.146766	-34.537950
53266		11.209551	-15.176716	-35.286975
53267		11.292990	-15.196307	-36.030201
53268		11.335951	-15.196872	-36.756677
53269		11.366987	-15.164546	-37.472477
53270		11.396960	-15.105841	-38.184012
53271		11.459516	-15.036740	-38.896995
53272		11.541324	-14.970315	-39.607821
53273		11.642513	-14.917939	-40.324840
53274		11.732797	-14.882658	-41.046550
53275		11.805769	-14.858442	-41.771377
53276		11.834364	-14.848448	-42.485787
53277		11.820867	-14.862015	-43.184218
53278		11.740586	-14.897829	-43.843443
53279		11.608459	-14.935226	-44.470099
53280		11.409923	-14.962553	-45.052062
53281		11.165217	-14.983326	-45.597365
53282		10.891693	-15.000841	-46.106882
53283		10.630404	-15.030435	-46.611541
53284		10.397410	-15.072159	-47.126395
53285		10.213553	-15.138821	-47.672127
53286		10.056700	-15.223347	-48.253590
53287		9.926405	-15.315061	-48.866695
53288		9.800132	-15.396803	-49.497140
53289		9.676002	-15.444209	-50.129268
53290		9.565707	-15.443606	-50.758839
53291		9.507327	-15.411452	-51.399720
53292		9.507312	-15.371708	-52.056220
53293		9.565506	-15.349939	-52.726302
53294		9.662800	-15.339310	-53.404593
53295		9.783992	-15.341122	-54.093096
53296		9.919069	-15.344325	-54.792879
53297		10.058398	-15.346742	-55.508936
53298		10.186904	-15.343894	-56.232109
53299		10.309156	-15.334413	-56.956014
53300		10.408174	-15.310706	-57.668887
53301		10.501866	-15.276841	-58.377306
53302		10.598187	-15.243119	-59.084977
53303		10.718069	-15.212436	-59.798855
53304		10.851971	-15.186211	-60.509006
53305		11.012201	-15.156340	-61.215553
53306		11.161641	-15.106961	-61.910908
53307		11.275255	-15.038904	-62.595106
53308		11.319734	-14.944494	-63.266676
53309		11.297061	-14.836132	-63.927263
53310		11.219152	-14.714233	-64.575890
53311		11.113773	-14.576550	-65.214068
53312		10.993216	-14.424843	-65.835873
53313		10.882423	-14.273393	-66.445800
53314		10.775102	-14.126584	-67.038355
53315		10.662739	-13.984663	-67.611178
53316		10.538940	-13.851637	-68.169152
53317		10.404228	-13.731134	-68.716993
53318		10.249533	-13.623686	-69.254667
53319		10.092268	-13.524568	-69.789736
53320		9.941691	-13.426080	-70.322422
53321		9.809938	-13.327635	-70.860554
53322		9.705529	-13.233656	-71.406612
53323		9.649437	-13.149418	-71.964762
53324		9.651097	-13.080769	-72.536890
53325		9.707645	-13.031008	-73.120908
53326		9.794015	-12.994523	-73.699569
53327		9.894563	-12.971471	-74.270759
53328		9.985460	-12.951420	-74.818074
53329		10.062491	-12.929215	-75.336483
53330		10.134946	-12.903508	-75.824397
53331		10.224820	-12.875855	-76.281644
53332		10.342053	-12.844925	-76.716963
53333		10.480511	-12.823861	-77.141355
53334		10.603642	-12.814737	-77.548774
53335		10.701334	-12.816629	-77.944421
53336		10.770008	-12.824330	-78.328692
53337		10.825319	-12.837199	-78.704121
53338		10.883224	-12.845080	-79.071266
53339		10.962157	-12.848845	-79.429888
53340		11.055597	-12.838480	-79.778228
53341		11.162297	-12.806844	-80.110878
53342		11.260574	-12.755403	-80.433290
53343		11.352558	-12.682581	-80.740226
53344		11.431686	-12.584643	-81.030418
53345		11.487814	-12.479195	-81.299264
53346		11.527055	-12.369893	-81.545827
53347		11.545689	-12.258548	-81.770491
53348		11.545572	-12.140575	-81.976044
53349		11.526672	-12.018588	-82.174342
53350		11.501521	-11.897706	-82.363105
53351		11.476485	-11.789464	-82.551558
53352		11.460673	-11.694420	-82.733757
53353		11.456369	-11.609597	-82.901219
53354		11.461572	-11.527909	-83.048347
53355		11.473578	-11.444993	-83.179267
53356		11.483417	-11.363690	-83.298754
53357		11.491266	-11.284648	-83.414273
53358		11.487234	-11.216905	-83.528407
53359		11.472780	-11.155958	-83.631181
53360		11.444267	-11.105564	-83.726590
53361		11.400566	-11.065006	-83.810843
53362		11.337370	-11.029003	-83.892549
53363		11.296891	-10.991330	-83.966007
53364		11.277853	-10.955139	-84.050418
53365		11.270979	-10.924737	-84.134878
53366		11.282075	-10.893247	-84.221108
53367		11.290756	-10.863698	-84.301920
53368		11.286598	-10.824681	-84.372623
53369		11.249810	-10.762596	-84.420091
53370		11.185155	-10.678132	-84.439095
53371		11.095850	-10.578694	-84.436406
53372		10.998949	-10.482271	-84.424057
53373		10.911368	-10.399764	-84.407670
53374		10.847338	-10.334607	-84.390226
53375		10.803371	-10.284068	-84.376430
53376		10.790644	-10.240313	-84.366686
53377		10.796661	-10.199105	-84.356396
53378		10.812241	-10.154855	-84.344231
53379		10.822186	-10.106754	-84.323444
53380		10.823683	-10.052521	-84.291413
53381		10.823674	-9.991503	-84.246698
53382		10.820955	-9.933251	-84.188427
53383		10.806281	-9.886344	-84.112662
53384		10.782296	-9.857586	-84.026086
53385		10.739743	-9.847736	-83.928938
53386		10.688665	-9.854791	-83.831945
53387		10.618901	-9.898458	-83.743672
53388		10.511886	-9.987349	-83.667280
53389		10.384961	-10.106428	-83.604365
53390		10.226134	-10.243214	-83.555967
53391		10.019640	-10.394355	-83.515325
53392		9.720870	-10.557282	-83.452795
53393		9.375149	-10.717796	-83.358247
53394		9.054120	-10.845406	-83.227981
53395		8.772922	-10.930699	-83.060868
53396		8.562010	-10.977861	-82.882539
53397		8.420067	-10.990551	-82.696380
53398		8.331684	-10.985271	-82.516871
53399		8.258368	-10.987566	-82.333371
53400		8.200430	-11.011788	-82.140899
53401		8.143600	-11.067337	-81.930201
53402		8.089166	-11.156634	-81.698301
53403		8.036047	-11.263237	-81.439387
53404		8.001919	-11.371184	-81.159326
53405		7.989585	-11.463042	-80.865712
53406		8.003738	-11.534179	-80.553063
53407		8.030787	-11.587097	-80.222620
53408		8.068518	-11.624463	-79.877638
53409		8.102827	-11.654466	-79.516149
53410		8.137299	-11.678548	-79.139431
53411		8.147267	-11.697780	-78.738814
53412		8.131814	-11.722006	-78.324369
53413		8.085255	-11.756601	-77.891313
53414		8.026727	-11.812050	-77.451324
53415		7.963340	-11.878118	-77.003265
53416		7.907354	-11.950153	-76.549551
53417		7.849723	-12.020163	-76.087213
53418		7.799401	-12.077346	-75.623172
53419		7.741140	-12.119406	-75.149758
53420		7.670467	-12.153599	-74.670270
53421		7.569688	-12.181687	-74.183019
53422		7.450895	-12.207394	-73.690960
53423		7.323643	-12.232208	-73.189724
53424		7.221006	-12.260975	-72.682153
53425		7.150206	-12.295958	-72.161839
53426		7.120199	-12.336349	-71.633134
53427		7.096193	-12.382709	-71.085506
53428		7.064779	-12.425952	-70.523159
53429		7.020051	-12.470781	-69.944861
53430		6.977371	-12.512426	-69.346601
53431		6.927250	-12.547673	-68.729353
53432		6.884353	-12.579344	-68.102276
53433		6.836389	-12.597762	-67.466412
53434		6.803826	-12.615812	-66.827223
53435		6.777747	-12.629163	-66.182964
53436		6.768290	-12.648791	-65.541753
53437		6.750789	-12.666986	-64.893700
53438		6.732838	-12.701651	-64.245196
53439		6.696794	-12.750014	-63.590316
53440		6.664623	-12.816100	-62.932127
53441		6.640655	-12.895353	-62.264621
53442		6.652629	-12.989027	-61.596221
53443		6.687998	-13.085258	-60.925581
53444		6.752122	-13.181419	-60.254718
53445		6.830023	-13.269270	-59.587481
53446		6.931348	-13.350254	-58.924965
53447		7.009598	-13.426148	-58.256354
53448		7.068573	-13.502154	-57.587737
53449		7.093290	-13.584173	-56.914241
53450		7.130273	-13.678481	-56.240063
53451		7.197943	-13.778508	-55.563085
53452		7.324920	-13.887781	-54.898600
53453		7.498891	-13.991437	-54.243419
53454		7.706363	-14.093870	-53.599277
53455		7.912561	-14.188148	-52.953918
53456		8.117888	-14.279331	-52.300350
53457		8.313224	-14.367241	-51.628502
53458		8.516154	-14.463492	-50.933253
53459		8.701707	-14.557654	-50.206133
53460		8.867726	-14.650689	-49.439794
53461		8.977258	-14.729805	-48.620221
53462		9.041039	-14.804654	-47.756738
53463		9.054913	-14.884840	-46.854973
53464		9.059993	-14.983503	-45.925540
53465		9.051737	-15.107822	-44.971657
53466		9.054291	-15.257744	-44.008905
53467		9.051374	-15.430677	-43.044199
53468		9.059318	-15.611549	-42.086167
53469		9.067986	-15.800373	-41.130208
53470		9.088700	-15.987970	-40.175149
53471		9.082331	-16.169424	-39.217138
53472		9.042716	-16.339509	-38.259359
53473		8.939079	-16.489513	-37.291336
53474		8.789116	-16.616140	-36.321277
53475		8.592498	-16.713507	-35.343879
53476		8.381260	-16.792306	-34.373106
53477		8.172460	-16.853800	-33.413968
53478		8.012940	-16.923874	-32.478770
53479		7.893555	-17.011627	-31.564311
53480		7.799050	-17.121457	-30.669905
53481		7.694358	-17.240250	-29.787135
53482		7.564746	-17.361297	-28.907484
53483		7.403859	-17.469031	-28.026823
53484		7.234331	-17.560633	-27.142040
53485		7.045409	-17.637110	-26.249892
53486		6.872842	-17.713636	-25.370208
53487		6.719755	-17.792036	-24.507233
53488		6.581917	-17.880557	-23.671199
53489		6.446091	-17.974337	-22.858461
53490		6.338683	-18.077978	-22.070483
53491		6.267985	-18.192670	-21.298060
53492		6.251277	-18.316170	-20.546078
53493		6.263723	-18.439499	-19.796534
53494		6.275579	-18.555380	-19.050556
53495		6.239680	-18.651009	-18.292039
53496		6.171758	-18.723655	-17.527049
53497		6.074037	-18.773957	-16.751084
53498		5.970817	-18.811667	-15.973964
53499		5.867610	-18.834970	-15.190305
53500		5.753697	-18.849213	-14.411987
53501		5.601765	-18.851798	-13.637244
53502		5.435813	-18.858733	-12.879391
53503		5.263126	-18.870218	-12.125975
53504		5.108763	-18.884775	-11.372691
53505		4.957094	-18.889183	-10.613628
53506		4.809356	-18.877371	-9.851247
53507		4.657815	-18.844928	-9.087780
53508		4.520987	-18.812321	-8.333046
53509		4.400473	-18.799360	-7.592989
53510		4.305426	-18.811612	-6.864213
53511		4.207661	-18.844583	-6.139047
53512		4.094406	-18.881672	-5.416486
53513		3.939283	-18.900327	-4.688748
53514		3.747355	-18.895526	-3.964596
53515		3.529046	-18.864023	-3.242058
53516		3.326032	-18.823226	-2.532288
53517		3.177910	-18.799618	-1.834411
53518		3.099467	-18.809263	-1.152159
53519		3.041020	-18.831436	-0.480594
53520		2.944794	-18.852335	0.180943
53521		2.841041	-18.852783	0.832067
53522		2.723423	-18.834167	1.472713
53523		2.586587	-18.789537	2.095714
53524		2.460376	-18.735159	2.699275
53525		2.360353	-18.695256	3.283510
53526		2.294460	-18.668353	3.845219
53527		2.249569	-18.637479	4.387958
53528		2.225456	-18.609010	4.908621
53529		2.217879	-18.592092	5.404599
53530		2.229653	-18.595461	5.876557
53531		2.249775	-18.612466	6.331950
53532		2.257448	-18.631185	6.779552
53533		2.226531	-18.633520	7.218118
53534		2.143399	-18.608271	7.650877
53535		1.998363	-18.568954	8.072064
53536		1.824610	-18.525548	8.475122
53537		1.661968	-18.486385	8.851079
53538		1.545603	-18.458502	9.187106
53539		1.490320	-18.442648	9.482959
53540		1.475588	-18.443901	9.755427
53541		1.474540	-18.460204	10.006605
53542		1.465439	-18.477686	10.246442
53543		1.430383	-18.486054	10.475752
53544		1.364050	-18.474555	10.703298
53545		1.276625	-18.439527	10.923996
53546		1.178421	-18.389543	11.143510
53547		1.090958	-18.327973	11.361489
53548		1.031452	-18.264140	11.565963
53549		0.996365	-18.193029	11.761646
53550		0.993138	-18.115169	11.941338
53551		1.006469	-18.040891	12.107529
53552		1.018064	-17.976528	12.255243
53553		1.028683	-17.934525	12.383481
53554		1.038333	-17.908839	12.492038
53555		1.039732	-17.890834	12.589263
53556		1.025458	-17.864642	12.678936
53557		0.998727	-17.823710	12.768036
53558		0.965973	-17.771310	12.862532
53559		0.941208	-17.718527	12.958732
53560		0.915947	-17.669580	13.057156
53561		0.885441	-17.626481	13.153184
53562		0.824820	-17.594150	13.247700
53563		0.726212	-17.578159	13.336716
53564		0.599725	-17.584501	13.424547
53565		0.472456	-17.617743	13.502111
53566		0.370182	-17.658417	13.563515
53567		0.293874	-17.684999	13.609659
53568		0.234172	-17.683072	13.646365
53569		0.181557	-17.657950	13.678319
53570		0.125522	-17.617997	13.712365
53571		0.067632	-17.571845	13.753290
53572		0.000432	-17.520935	13.798850
53573		-0.058438	-17.476963	13.842425
53574		-0.092479	-17.452711	13.880736
53575		-0.085348	-17.454728	13.904792
53576		-0.051530	-17.480640	13.918863
53577		-0.015470	-17.514718	13.925007
53578		-0.015585	-17.541453	13.930550
53579		-0.052140	-17.554960	13.932212
53580		-0.118181	-17.552128	13.931170
53581		-0.182180	-17.532551	13.926332
53582		-0.227750	-17.503221	13.909779
53583		-0.251536	-17.464800	13.885886
53584		-0.269610	-17.421778	13.856815
53585		-0.294945	-17.375998	13.823704
53586		-0.336920	-17.332350	13.791593
53587		-0.389545	-17.293118	13.761065
53588		-0.445217	-17.268003	13.730565
53589		-0.487399	-17.265063	13.698938
53590		-0.507227	-17.292559	13.667049
53591		-0.488434	-17.344714	13.630188
53592		-0.442753	-17.413310	13.591356
53593		-0.372691	-17.486195	13.549677
53594		-0.295725	-17.546768	13.507712
53595		-0.231631	-17.584621	13.465270
53596		-0.189531	-17.590562	13.422898
53597		-0.175578	-17.573783	13.380229
53598		-0.178573	-17.545877	13.338603
53599		-0.170019	-17.517689	13.293959
53600		-0.140867	-17.494525	13.245646
53601		-0.082123	-17.491151	13.188067
53602		-0.012101	-17.496465	13.121666
53603		0.043428	-17.501739	13.044595
53604		0.059351	-17.496802	12.972957
53605		0.042486	-17.476655	12.903522
53606		0.017177	-17.445837	12.836494
53607		0.014607	-17.408604	12.767688
53608		0.045203	-17.372700	12.693000
53609		0.121087	-17.355284	12.614305
53610		0.228998	-17.360953	12.537139
53611		0.346366	-17.380044	12.462157
53612		0.440214	-17.402372	12.387788
53613		0.501015	-17.416962	12.308538
53614		0.516076	-17.410959	12.226707
53615		0.501943	-17.387204	12.139076
53616		0.476994	-17.353804	12.038599
53617		0.470897	-17.324168	11.920479
53618		0.501812	-17.309983	11.783504
53619		0.576247	-17.308412	11.627000
53620		0.669457	-17.316985	11.456088
53621		0.741878	-17.336127	11.272735
53622		0.773018	-17.354426	11.080869
53623		0.775575	-17.375492	10.872434
53624		0.762765	-17.386471	10.650205
53625		0.754411	-17.392561	10.412227
53626		0.729407	-17.393379	10.166508
53627		0.693442	-17.396066	9.907926
53628		0.669300	-17.384993	9.636085
53629		0.661557	-17.367132	9.352477
53630		0.681768	-17.334920	9.062286
53631		0.723940	-17.306188	8.770296
53632		0.763669	-17.277114	8.476331
53633		0.815954	-17.251926	8.164408
53634		0.862332	-17.226951	7.831302
53635		0.895660	-17.205227	7.475336
53636		0.902439	-17.183171	7.102120
53637		0.899895	-17.164887	6.717085
53638		0.893894	-17.142355	6.320333
53639		0.884233	-17.116672	5.918593
53640		0.820602	-17.089703	5.529085
53641		0.733587	-17.066284	5.138192
53642		0.644544	-17.042175	4.748780
53643		0.573255	-17.016772	4.349131
53644		0.536959	-16.985011	3.928602
53645		0.542972	-16.951713	3.486328
53646		0.571582	-16.918283	3.028547
53647		0.617415	-16.887493	2.553995
53648		0.649483	-16.851640	2.070524
53649		0.664956	-16.812000	1.582388
53650		0.655702	-16.768513	1.091835
53651		0.665717	-16.722135	0.598521
53652		0.692270	-16.678066	0.113595
53653		0.760263	-16.631225	-0.368873
53654		0.856025	-16.582057	-0.842942
53655		0.991065	-16.535785	-1.330407
53656		1.135187	-16.497242	-1.831407
53657		1.272794	-16.468590	-2.346073
53658		1.395156	-16.444627	-2.872244
53659		1.517377	-16.429159	-3.417796
53660		1.641759	-16.414755	-3.978996
53661		1.797156	-16.401207	-4.557649
53662		1.992529	-16.403904	-5.149207
53663		2.233373	-16.429958	-5.755128
53664		2.499617	-16.457678	-6.373306
53665		2.780241	-16.471167	-7.003103
53666		3.038935	-16.446014	-7.637532
53667		3.258769	-16.379523	-8.270649
53668		3.419025	-16.281256	-8.896816
53669		3.530945	-16.181040	-9.520739
53670		3.616557	-16.081169	-10.144642
53671		3.710508	-15.998501	-10.781063
53672		3.819009	-15.929015	-11.423764
53673		3.954950	-15.871786	-12.077448
53674		4.090521	-15.825896	-12.737141
53675		4.240630	-15.788925	-13.405319
53676		4.392066	-15.760814	-14.081623
53677		4.559909	-15.749871	-14.765812
53678		4.730480	-15.744881	-15.462946
53679		4.897038	-15.747021	-16.171514
53680		5.042407	-15.746555	-16.881096
53681		5.181220	-15.750112	-17.585525
53682		5.303937	-15.731048	-18.276536
53683		5.440092	-15.692850	-18.961179
53684		5.592887	-15.641699	-19.651522
53685		5.782082	-15.596550	-20.355275
53686		5.992509	-15.574679	-21.071161
53687		6.218261	-15.586822	-21.805764
53688		6.433902	-15.627707	-22.556133
53689		6.648684	-15.691836	-23.323144
53690		6.844401	-15.755910	-24.096517
53691		7.018661	-15.804942	-24.870976
53692		7.140862	-15.826050	-25.639869
53693		7.230540	-15.818820	-26.402321
53694		7.280703	-15.782897	-27.161115
53695		7.321462	-15.734358	-27.916769
53696		7.366379	-15.686795	-28.663227
53697		7.441475	-15.646399	-29.400626
53698		7.531709	-15.613858	-30.133343
53699		7.628052	-15.584858	-30.874419
53700		7.706183	-15.554040	-31.621809
53701		7.778212	-15.521876	-32.373868
53702		7.840066	-15.493039	-33.119704
53703		7.921940	-15.474178	-33.856613
53704		8.027239	-15.466149	-34.572355
53705		8.173468	-15.484764	-35.278122
53706		8.352293	-15.521136	-35.978742
53707		8.557847	-15.565193	-36.689833
53708		8.744491	-15.599486	-37.391976
53709		8.911581	-15.618913	-38.085699
53710		9.017373	-15.607340	-38.757636
53711		9.065646	-15.573042	-39.419719
53712		9.053457	-15.521624	-40.073570
53713		8.990143	-15.469960	-40.724679
53714		8.898454	-15.434898	-41.370183
53715		8.824296	-15.426758	-42.013758
53716		8.788736	-15.445876	-42.659597
53717		8.828979	-15.481457	-43.317055
53718		8.905535	-15.508717	-43.971599
53719		8.992333	-15.519313	-44.622329
53720		9.044797	-15.508546	-45.255217
53721		9.046592	-15.471322	-45.868111
53722		8.987150	-15.403715	-46.457817
53723		8.905671	-15.315598	-47.033111
53724		8.828249	-15.211282	-47.596264
53725		8.781168	-15.112332	-48.162669
53726		8.798070	-15.041877	-48.738352
53727		8.869606	-15.019119	-49.319957
53728		8.944476	-15.024125	-49.904858
53729		9.014429	-15.038420	-50.488842
53730		9.047001	-15.039288	-51.063324
53731		9.029754	-15.010527	-51.621560
53732		8.968787	-14.943616	-52.167011
53733		8.895417	-14.863954	-52.708244
53734		8.840403	-14.787416	-53.265863
53735		8.833233	-14.728719	-53.847991
53736		8.873617	-14.703549	-54.440655
53737		8.945642	-14.709566	-55.030606
53738		9.009857	-14.729776	-55.604995
53739		9.063179	-14.754316	-56.176128
53740		9.099572	-14.770093	-56.744486
53741		9.130927	-14.780606	-57.315943
53742		9.158278	-14.785106	-57.879684
53743		9.190795	-14.773846	-58.438634
53744		9.211676	-14.735416	-58.990725
53745		9.233816	-14.674279	-59.544588
53746		9.253884	-14.609276	-60.107248
53747		9.285100	-14.552405	-60.684440
53748		9.336530	-14.507223	-61.276592
53749		9.414571	-14.478286	-61.880230
53750		9.509829	-14.475946	-62.489222
53751		9.614647	-14.489953	-63.093730
53752		9.713443	-14.513280	-63.682372
53753		9.805175	-14.536336	-64.260739
53754		9.882124	-14.545158	-64.828449
53755		9.961422	-14.536077	-65.393126
53756		10.044137	-14.499462	-65.954939
53757		10.147329	-14.430728	-66.515216
53758		10.262948	-14.337815	-67.071031
53759		10.390051	-14.240333	-67.632070
53760		10.522411	-14.141136	-68.199879
53761		10.652640	-14.047311	-68.787120
53762		10.775659	-13.974959	-69.379408
53763		10.893738	-13.903978	-69.979880
53764		10.991818	-13.829257	-70.564295
53765		11.059693	-13.754667	-71.129422
53766		11.086848	-13.665190	-71.652647
53767		11.083289	-13.560459	-72.143198
53768		11.041753	-13.442352	-72.602795
53769		10.991632	-13.315544	-73.042127
53770		10.960313	-13.199086	-73.473911
53771		10.960624	-13.125668	-73.911653
53772		11.019518	-13.113746	-74.370973
53773		11.138075	-13.150709	-74.842593
53774		11.287090	-13.214479	-75.318385
53775		11.428959	-13.284450	-75.787054
53776		11.540337	-13.330301	-76.238557
53777		11.606738	-13.343076	-76.661579
53778		11.630326	-13.329083	-77.056009
53779		11.635481	-13.309217	-77.436849
53780		11.651239	-13.286778	-77.813759
53781		11.673346	-13.282360	-78.195519
53782		11.679795	-13.298733	-78.584419
53783		11.690144	-13.331002	-78.983578
53784		11.693299	-13.372749	-79.379155
53785		11.683939	-13.408706	-79.759374
53786		11.618520	-13.437068	-80.110329
53787		11.497693	-13.456130	-80.420128
53788		11.349675	-13.475185	-80.696239
53789		11.208762	-13.491998	-80.939150
53790		11.109915	-13.521796	-81.177566
53791		11.086387	-13.566098	-81.421145
53792		11.146558	-13.611132	-81.667132
53793		11.251306	-13.647326	-81.902619
53794		11.350009	-13.659501	-82.120177
53795		11.415692	-13.641823	-82.312065
53796		11.446984	-13.602066	-82.487802
53797		11.459636	-13.556757	-82.652412
53798		11.475778	-13.513871	-82.811109
53799		11.516829	-13.482588	-82.966406
53800		11.580400	-13.459998	-83.121446
53801		11.649919	-13.446288	-83.278347
53802		11.712609	-13.434561	-83.429720
53803		11.748136	-13.419330	-83.566900
53804		11.748765	-13.395824	-83.681647
53805		11.721955	-13.362278	-83.768327
53806		11.685159	-13.320398	-83.841849
53807		11.640074	-13.267917	-83.894839
53808		11.603903	-13.206893	-83.939657
53809		11.586981	-13.152993	-83.984722
53810		11.594983	-13.114390	-84.030987
53811		11.624425	-13.095023	-84.077402
53812		11.660114	-13.087431	-84.120894
53813		11.685317	-13.081305	-84.155786
53814		11.694398	-13.068339	-84.180235
53815		11.685209	-13.043625	-84.188380
53816		11.668115	-13.010526	-84.181826
53817		11.656384	-12.980222	-84.164348
53818		11.656750	-12.959992	-84.138341
53819		11.667082	-12.949712	-84.112828
53820		11.684199	-12.948783	-84.084265
53821		11.687605	-12.948688	-84.043121
53822		11.669117	-12.948285	-83.981974
53823		11.627931	-12.938928	-83.897975
53824		11.586911	-12.922980	-83.807121
53825		11.558449	-12.899705	-83.705887
53826		11.545925	-12.877694	-83.600720
53827		11.534595	-12.859354	-83.488764
53828		11.514835	-12.843410	-83.360480
53829		11.478155	-12.830996	-83.212684
53830		11.432012	-12.810519	-83.036459
53831		11.387461	-12.779156	-82.833646
53832		11.369146	-12.735189	-82.613215
53833		11.375049	-12.683956	-82.378231
53834		11.404839	-12.633007	-82.135143
53835		11.429378	-12.588157	-81.879274
53836		11.446730	-12.549864	-81.607324
53837		11.445297	-12.525672	-81.320271
53838		11.403336	-12.506241	-81.016693
53839		11.307012	-12.476079	-80.696635
53840		11.145133	-12.427578	-80.366516
53841		10.933687	-12.345711	-80.035781
53842		10.687064	-12.221016	-79.708435
53843		10.416176	-12.068510	-79.382773
53844		10.158612	-11.901434	-79.059762
53845		9.934298	-11.736607	-78.739265
53846		9.755121	-11.597929	-78.413342
53847		9.603900	-11.510018	-78.081600
53848		9.502274	-11.485427	-77.746623
53849		9.457353	-11.516962	-77.398964
53850		9.476796	-11.587234	-77.033741
53851		9.527905	-11.681613	-76.647703
53852		9.593669	-11.785364	-76.250689
53853		9.645059	-11.898416	-75.840996
53854		9.670729	-12.028316	-75.416881
53855		9.662096	-12.173804	-74.970384
53856		9.650006	-12.340452	-74.508335
53857		9.628403	-12.523542	-74.021609
53858		9.632271	-12.713141	-73.519897
53859		9.670816	-12.899693	-73.006422
53860		9.760204	-13.077061	-72.486787
53861		9.853710	-13.236536	-71.950941
53862		9.940303	-13.370280	-71.406442
53863		9.966180	-13.483158	-70.846249
53864		9.943941	-13.581036	-70.281531
53865		9.862043	-13.660399	-69.719882
53866		9.743837	-13.735271	-69.159014
53867		9.614025	-13.796018	-68.591746
53868		9.514276	-13.857539	-68.018233
53869		9.448606	-13.907453	-67.432176
53870		9.420819	-13.954799	-66.835841
53871		9.412420	-13.996402	-66.228481
53872		9.426102	-14.042216	-65.618331
53873		9.448802	-14.085327	-64.993925
53874		9.477861	-14.130094	-64.365638
53875		9.495203	-14.168206	-63.727972
53876		9.481561	-14.196967	-63.079545
53877		9.407028	-14.215053	-62.419630
53878		9.268153	-14.223287	-61.738983
53879		9.080616	-14.226846	-61.040069
53880		8.902056	-14.234386	-60.330926
53881		8.757756	-14.250658	-59.608768
53882		8.668596	-14.285193	-58.886565
53883		8.608530	-14.332976	-58.158787
53884		8.556150	-14.388171	-57.418832
53885		8.477691	-14.437112	-56.658961
53886		8.376802	-14.473175	-55.880587
53887		8.254017	-14.492426	-55.081113
53888		8.144060	-14.507494	-54.265867
53889		8.055657	-14.532326	-53.435028
53890		8.007869	-14.582302	-52.593357
53891		7.969284	-14.648502	-51.741715
53892		7.932734	-14.726223	-50.884923
53893		7.873181	-14.810698	-50.023941
53894		7.809117	-14.900871	-49.166073
53895		7.744362	-14.989488	-48.307562
53896		7.699144	-15.081712	-47.459125
53897		7.653336	-15.177852	-46.613532
53898		7.611553	-15.277631	-45.774176
53899		7.565101	-15.368735	-44.926475
53900		7.519032	-15.445632	-44.068620
53901		7.469326	-15.505300	-43.207442
53902		7.438459	-15.557551	-42.351372
53903		7.418945	-15.607334	-41.504752
53904		7.428751	-15.649501	-40.658861
53905		7.414218	-15.679786	-39.805117
53906		7.372045	-15.704789	-38.956877
53907		7.270050	-15.728697	-38.106234
53908		7.129816	-15.756676	-37.253229
53909		6.964368	-15.791371	-36.401001
53910		6.796393	-15.837390	-35.548991
53911		6.622605	-15.885995	-34.695759
53912		6.437933	-15.935176	-33.842514
53913		6.219069	-15.977882	-32.981769
53914		5.976813	-16.006262	-32.118686
53915		5.717953	-16.018083	-31.243878
53916		5.483170	-16.024457	-30.374147
53917		5.275176	-16.041304	-29.503320
53918		5.124090	-16.082423	-28.632116
53919		4.994973	-16.153021	-27.753630
53920		4.884388	-16.244916	-26.869129
53921		4.762347	-16.347029	-25.977203
53922		4.654477	-16.456627	-25.084008
53923		4.576622	-16.559350	-24.193895
53924		4.586256	-16.656083	-23.316013
53925		4.645839	-16.751346	-22.437849
53926		4.723216	-16.837030	-21.558459
53927		4.755070	-16.897909	-20.672457
53928		4.721508	-16.934620	-19.773049
53929		4.613300	-16.944148	-18.862435
53930		4.475272	-16.955919	-17.953127
53931		4.345611	-16.988028	-17.046896
53932		4.315707	-17.049390	-16.165968
53933		4.371101	-17.126310	-15.300886
53934		4.484955	-17.197778	-14.461859
53935		4.558223	-17.231917	-13.623053
53936		4.544503	-17.213461	-12.774428
53937		4.408238	-17.150820	-11.901644
53938		4.172882	-17.062598	-11.017730
53939		3.883932	-16.962716	-10.138530
53940		3.644697	-16.874781	-9.282437
53941		3.497052	-16.830605	-8.443753
53942		3.460279	-16.852839	-7.638531
53943		3.480228	-16.902618	-6.856146
53944		3.522711	-16.952115	-6.100818
53945		3.548181	-16.976858	-5.359577
53946		3.534224	-16.964872	-4.624510
53947		3.456559	-16.916620	-3.896143
53948		3.353627	-16.856180	-3.186083
53949		3.258025	-16.797993	-2.507937
53950		3.210480	-16.748137	-1.860861
53951		3.211133	-16.704582	-1.242349
53952		3.245200	-16.669061	-0.652738
53953		3.272323	-16.627357	-0.082987
53954		3.261514	-16.575042	0.479231
53955		3.203308	-16.501367	1.040811
53956		3.122075	-16.414673	1.600170
53957		3.043096	-16.317906	2.147289
53958		2.998922	-16.226901	2.674268
53959		2.993492	-16.147692	3.175056
53960		3.033036	-16.089243	3.661887
53961		3.085611	-16.039093	4.142962
53962		3.117655	-15.993476	4.626667
53963		3.101767	-15.947490	5.113088
53964		3.056493	-15.902206	5.597625
53965		2.990466	-15.870124	6.066245
53966		2.918632	-15.840452	6.516399
53967		2.821062	-15.809597	6.953342
53968		2.686718	-15.759786	7.395103
53969		2.483886	-15.677663	7.851256
53970		2.247390	-15.571728	8.316673
53971		1.981736	-15.462295	8.783067
53972		1.728804	-15.361841	9.240073
53973		1.523414	-15.285139	9.685210
53974		1.378517	-15.235424	10.100080
53975		1.297995	-15.212823	10.489433
53976		1.296700	-15.206815	10.849067
53977		1.324934	-15.198740	11.188226
53978		1.349775	-15.172605	11.499076
53979		1.333152	-15.119991	11.795308
53980		1.272809	-15.046501	12.079780
53981		1.172225	-14.956252	12.367325
53982		1.061887	-14.846150	12.656125
53983		0.955394	-14.721245	12.945208
53984		0.883678	-14.593013	13.227471
53985		0.853412	-14.474355	13.493793
53986		0.876189	-14.375960	13.738411
53987		0.946837	-14.305248	13.966607
53988		1.026808	-14.254665	14.183234
53989		1.078555	-14.202909	14.396994
53990		1.088469	-14.142048	14.601719
53991		1.064974	-14.068669	14.791438
53992		1.011408	-13.989508	14.963203
53993		0.935306	-13.916057	15.115776
53994		0.842508	-13.842447	15.253194
53995		0.746535	-13.760166	15.378420
53996		0.662910	-13.662126	15.491593
53997		0.585367	-13.553434	15.596057
53998		0.514735	-13.440335	15.687042
53999		0.435928	-13.333172	15.766568
54000		0.333497	-13.238580	15.840316
54001		0.213536	-13.161586	15.906847
54002		0.072886	-13.102147	15.967821
54003		-0.074917	-13.059864	16.021947
54004		-0.205453	-13.038919	16.064307
54005		-0.289605	-13.027281	16.101628
54006		-0.326559	-13.009614	16.131580
54007		-0.307201	-12.982966	16.156390
54008		-0.262980	-12.942051	16.174799
54009		-0.225612	-12.899676	16.191306
54010		-0.209454	-12.856732	16.207323
54011		-0.229797	-12.827059	16.232644
54012		-0.298562	-12.812421	16.266892
54013		-0.412951	-12.821624	16.307652
54014		-0.561775	-12.864252	16.363375
54015		-0.724226	-12.955587	16.434285
54016		-0.879383	-13.081709	16.513341
54017		-1.013636	-13.231680	16.585408
54018		-1.130248	-13.376781	16.632926
54019		-1.229246	-13.498971	16.648362
54020		-1.315372	-13.580581	16.634627
54021		-1.360231	-13.617536	16.585042
54022		-1.372123	-13.613349	16.510293
54023		-1.358158	-13.573907	16.408020
54024		-1.315639	-13.510806	16.282822
54025		-1.252391	-13.436510	16.140864
54026		-1.177543	-13.365962	15.987491
54027		-1.097139	-13.304476	15.822811
54028		-1.014181	-13.253573	15.650646
54029		-0.931279	-13.213275	15.476795
54030		-0.842671	-13.181206	15.296435
54031		-0.739352	-13.153225	15.102363
54032		-0.616786	-13.127154	14.899894
54033		-0.487954	-13.105191	14.691751
54034		-0.374025	-13.086879	14.482356
54035		-0.275177	-13.078719	14.273423
54036		-0.187718	-13.072621	14.068478
54037		-0.107149	-13.069976	13.862124
54038		-0.033099	-13.056767	13.658736
54039		0.036813	-13.036796	13.451578
54040		0.101548	-13.018123	13.237618
54041		0.164137	-13.016601	13.015638
54042		0.220614	-13.033741	12.785135
54043		0.290111	-13.068124	12.536406
54044		0.368116	-13.113586	12.269082
54045		0.459539	-13.159045	11.987141
54046		0.546457	-13.201359	11.694173
54047		0.621454	-13.241426	11.399470
54048		0.681205	-13.284615	11.104489
54049		0.717778	-13.320732	10.811157
54050		0.727328	-13.331678	10.520297
54051		0.730846	-13.324803	10.228611
54052		0.728680	-13.293913	9.934988
54053		0.724844	-13.258208	9.629627
54054		0.706693	-13.215779	9.316010
54055		0.680705	-13.175895	8.998017
54056		0.618555	-13.153184	8.699141
54057		0.533292	-13.137040	8.409289
54058		0.448684	-13.124562	8.109587
54059		0.370273	-13.123124	7.788576
54060		0.302487	-13.118807	7.453449
54061		0.259273	-13.111537	7.104983
54062		0.221984	-13.094600	6.750810
54063		0.193961	-13.070511	6.386058
54064		0.172032	-13.040031	6.004525
54065		0.174081	-13.011086	5.596056
54066		0.193935	-12.982518	5.155606
54067		0.245944	-12.954996	4.676765
54068		0.304230	-12.918834	4.173269
54069		0.375443	-12.859034	3.640277
54070		0.410557	-12.786733	3.092414
54071		0.433425	-12.705259	2.542941
54072		0.464551	-12.618650	1.988910
54073		0.521888	-12.541747	1.411617
54074		0.613974	-12.471738	0.810963
54075		0.743466	-12.408589	0.177475
54076		0.865866	-12.350469	-0.470944
54077		0.970941	-12.290924	-1.136154
54078		1.036998	-12.217871	-1.803948
54079		1.096981	-12.136039	-2.483525
54080		1.159161	-12.049312	-3.170414
54081		1.259821	-11.961631	-3.870360
54082		1.389974	-11.880667	-4.579025
54083		1.553493	-11.816124	-5.294734
54084		1.736800	-11.773866	-6.007102
54085		1.957255	-11.760266	-6.713260
54086		2.196686	-11.773890	-7.413906
54087		2.455700	-11.820222	-8.114020
54088		2.723719	-11.895117	-8.819179
54089		3.022024	-12.012623	-9.533439
54090		3.315410	-12.148147	-10.247366
54091		3.582762	-12.281841	-10.952068
54092		3.800587	-12.386162	-11.633747
54093		3.948053	-12.460193	-12.289878
54094		4.011888	-12.490961	-12.904463
54095		4.001762	-12.468050	-13.498703
54096		3.945074	-12.415463	-14.074399
54097		3.889308	-12.349208	-14.656832
54098		3.853362	-12.274741	-15.255231
54099		3.863077	-12.200394	-15.879272
54100		3.898813	-12.123335	-16.522133
54101		3.947801	-12.042287	-17.180086
54102		3.973807	-11.960072	-17.844785
54103		3.975741	-11.870026	-18.505982
54104		3.942598	-11.771657	-19.160082
54105		3.892593	-11.662915	-19.812092
54106		3.828921	-11.548290	-20.454829
54107		3.780338	-11.438580	-21.099236
54108		3.758087	-11.342848	-21.733944
54109		3.787365	-11.251811	-22.370030
54110		3.825777	-11.159919	-23.002431
54111		3.853858	-11.068769	-23.637212
54112		3.849095	-10.968703	-24.267637
54113		3.820825	-10.860239	-24.893260
54114		3.761210	-10.748665	-25.506639
54115		3.701024	-10.651546	-26.110847
54116		3.656263	-10.566664	-26.714885
54117		3.669553	-10.491601	-27.328388
54118		3.718061	-10.428745	-27.948422
54119		3.807008	-10.376247	-28.579279
54120		3.900988	-10.320736	-29.211310
54121		3.993518	-10.265579	-29.838817
54122		4.076814	-10.204415	-30.453983
54123		4.172760	-10.140513	-31.059900
54124		4.281886	-10.077998	-31.656309
54125		4.431008	-10.027326	-32.256185
54126		4.609958	-9.990694	-32.864764
54127		4.823002	-9.971594	-33.482936
54128		5.040068	-9.973752	-34.104521
54129		5.262107	-9.982671	-34.727459
54130		5.463673	-9.988184	-35.348470
54131		5.651764	-9.984356	-35.973977
54132		5.835483	-9.959829	-36.599649
54133		6.032417	-9.938730	-37.239724
54134		6.242405	-9.934540	-37.890143
54135		6.475469	-9.948520	-38.560341
54136		6.693709	-9.970813	-39.243541
54137		6.860288	-9.996259	-39.929397
54138		6.943814	-10.016170	-40.603623
54139		6.956005	-10.009942	-41.257484
54140		6.905568	-9.971251	-41.892692
54141		6.836077	-9.902144	-42.513976
54142		6.752201	-9.815549	-43.114002
54143		6.639182	-9.754710	-43.701982
54144		6.537139	-9.736146	-44.295235
54145		6.488025	-9.774251	-44.899648
54146		6.521757	-9.854114	-45.528899
54147		6.647551	-9.948775	-46.181243
54148		6.800182	-10.040700	-46.840867
54149		6.946256	-10.126710	-47.498784
54150		7.041162	-10.197638	-48.147982
54151		7.092798	-10.248993	-48.792740
54152		7.111414	-10.271234	-49.434152
54153		7.142290	-10.280150	-50.080216
54154		7.205437	-10.276985	-50.733012
54155		7.305241	-10.271127	-51.406114
54156		7.412532	-10.268195	-52.086972
54157		7.519003	-10.272311	-52.770725
54158		7.586779	-10.279972	-53.444267
54159		7.621084	-10.284375	-54.098784
54160		7.629920	-10.277595	-54.740682
54161		7.649113	-10.259628	-55.373954
54162		7.696429	-10.234434	-56.007050
54163		7.773627	-10.212020	-56.651744
54164		7.887540	-10.195944	-57.307158
54165		8.046482	-10.194542	-57.980562
54166		8.224917	-10.199001	-58.663227
54167		8.403509	-10.212918	-59.358034
54168		8.558967	-10.225932	-60.057842
54169		8.683897	-10.226104	-60.762690
54170		8.766757	-10.209322	-61.461272
54171		8.818061	-10.162007	-62.152537
54172		8.844210	-10.082703	-62.821238
54173		8.875884	-9.976238	-63.477353
54174		8.925794	-9.848185	-64.125584
54175		9.010034	-9.712601	-64.787631
54176		9.116414	-9.582788	-65.461707
54177		9.255003	-9.471987	-66.149979
54178		9.397110	-9.374601	-66.840002
54179		9.532731	-9.282507	-67.518267
54180		9.653528	-9.188043	-68.181575
54181		9.774607	-9.091831	-68.833034
54182		9.886489	-8.997200	-69.460988
54183		9.996607	-8.903134	-70.070564
54184		10.092803	-8.801553	-70.654539
54185		10.171382	-8.697228	-71.218192
54186		10.227187	-8.592760	-71.760262
54187		10.272928	-8.494138	-72.283315
54188		10.312711	-8.401399	-72.778638
54189		10.356529	-8.321114	-73.253210
54190		10.388736	-8.255540	-73.711100
54191		10.399942	-8.191980	-74.157697
54192		10.370377	-8.112228	-74.585089
54193		10.307176	-8.002350	-74.986896
54194		10.231683	-7.857969	-75.363899
54195		10.170745	-7.693380	-75.728023
54196		10.157904	-7.532338	-76.099161
54197		10.200883	-7.393291	-76.484261
54198		10.282512	-7.290531	-76.878143
54199		10.376734	-7.215751	-77.270627
54200		10.464416	-7.146299	-77.646877
54201		10.535032	-7.062882	-77.996021
54202		10.580474	-6.950089	-78.311761
54203		10.607618	-6.806354	-78.588345
54204		10.609270	-6.642484	-78.831593
54205		10.596202	-6.461131	-79.049557
54206		10.584296	-6.280437	-79.245452
54207		10.597860	-6.103781	-79.423785
54208		10.639433	-5.932943	-79.585648
54209		10.693243	-5.778922	-79.733708
54210		10.759933	-5.626932	-79.862885
54211		10.835055	-5.469935	-79.972106
54212		10.894579	-5.315432	-80.052152
54213		10.932070	-5.178073	-80.115061
54214		10.938304	-5.062948	-80.156708
54215		10.906522	-4.969145	-80.180378
54216		10.860320	-4.880798	-80.188345
54217		10.807578	-4.785925	-80.185338
54218		10.750307	-4.681026	-80.175254
54219		10.694779	-4.566223	-80.164974
54220		10.646860	-4.445976	-80.154144
54221		10.604904	-4.331058	-80.132186
54222		10.582452	-4.223303	-80.099362
54223		10.569843	-4.128475	-80.059523
54224		10.561471	-4.049733	-80.010677
54225		10.550850	-3.984234	-79.947275
54226		10.540858	-3.936577	-79.864922
54227		10.521285	-3.903398	-79.766196
54228		10.502222	-3.880954	-79.647141
54229		10.479420	-3.857301	-79.499735
54230		10.462535	-3.823777	-79.325646
54231		10.438994	-3.780747	-79.129189
54232		10.403853	-3.739421	-78.926354
54233		10.357887	-3.709852	-78.723688
54234		10.311208	-3.692289	-78.521750
54235		10.261583	-3.678827	-78.305444
