// General information: 
//  MT Manager version: 2022.2.0 
//  XDA version: 2022.2.0 build 7381 rev 124627 built on 2023-07-19
// Device information: 
//  DeviceId: 00B44856
//  ProductCode: MTW2-3A7G6
//  Firmware Version: 4.3.5
//  Hardware Version: 2.0.0
// Device settings: 
//  Filter Profile: human(46.1)
//  Option Flags: Orientation Smoother Disabled, Position/Velocity Smoother Disabled, Continuous Zero Rotation Update Disabled, AHS Disabled, ICC Disabled
// Coordinate system: ENU
PacketCounter	SampleTimeFine	Roll	Pitch	Yaw
51054		-17.463056	-3.413408	-5.923198
51055		-17.458894	-3.434874	-5.893059
51056		-17.447822	-3.448914	-5.869961
51057		-17.429380	-3.456746	-5.854757
51058		-17.393542	-3.459176	-5.838571
51059		-17.340655	-3.466131	-5.815136
51060		-17.276363	-3.469263	-5.790928
51061		-17.209316	-3.469902	-5.775761
51062		-17.141762	-3.476113	-5.760557
51063		-17.079004	-3.490505	-5.746630
51064		-17.028723	-3.503691	-5.736602
51065		-16.994087	-3.508872	-5.729379
51066		-16.963367	-3.505278	-5.721241
51067		-16.939549	-3.500165	-5.707925
51068		-16.916022	-3.496164	-5.687904
51069		-16.891971	-3.498997	-5.667360
51070		-16.886539	-3.487928	-5.649383
51071		-16.899599	-3.469401	-5.639338
51072		-16.923739	-3.447578	-5.632251
51073		-16.954847	-3.434142	-5.625904
51074		-16.978746	-3.426565	-5.620879
51075		-16.989097	-3.417063	-5.618116
51076		-16.990176	-3.404185	-5.619026
51077		-16.982516	-3.396236	-5.619618
51078		-16.966397	-3.385640	-5.615568
51079		-16.949655	-3.373307	-5.613607
51080		-16.930936	-3.360132	-5.613461
51081		-16.916853	-3.351268	-5.613100
51082		-16.909339	-3.343066	-5.615486
51083		-16.907481	-3.335569	-5.618051
51084		-16.903592	-3.330499	-5.621423
51085		-16.883432	-3.332114	-5.622216
51086		-16.844622	-3.333307	-5.625899
51087		-16.795708	-3.338028	-5.633397
51088		-16.746565	-3.343785	-5.642699
51089		-16.699163	-3.360864	-5.650284
51090		-16.658432	-3.375908	-5.657372
51091		-16.622495	-3.383600	-5.665193
51092		-16.600477	-3.394620	-5.671428
51093		-16.593957	-3.412513	-5.678289
51094		-16.603606	-3.428502	-5.681616
51095		-16.626307	-3.445969	-5.685857
51096		-16.649486	-3.459123	-5.693504
51097		-16.670615	-3.470484	-5.702109
51098		-16.679381	-3.479008	-5.711188
51099		-16.694106	-3.492740	-5.717646
51100		-16.712178	-3.516648	-5.724268
51101		-16.729794	-3.541542	-5.728311
51102		-16.750785	-3.566734	-5.735712
51103		-16.770108	-3.583264	-5.744985
51104		-16.771447	-3.593951	-5.758863
51105		-16.759923	-3.604394	-5.777279
51106		-16.745227	-3.616307	-5.798413
51107		-16.727676	-3.631823	-5.823549
51108		-16.713502	-3.644278	-5.853244
51109		-16.697586	-3.657664	-5.888083
51110		-16.689760	-3.667845	-5.924759
51111		-16.684213	-3.677874	-5.962070
51112		-16.695806	-3.685116	-5.999637
51113		-16.724132	-3.691841	-6.040011
51114		-16.768251	-3.697377	-6.085610
51115		-16.826253	-3.698796	-6.144132
51116		-16.886507	-3.693975	-6.220552
51117		-16.943764	-3.697441	-6.312170
51118		-17.010846	-3.700321	-6.417691
51119		-17.083215	-3.708239	-6.538722
51120		-17.153083	-3.718966	-6.673467
51121		-17.234690	-3.732324	-6.825084
51122		-17.310652	-3.736373	-6.999312
51123		-17.376648	-3.738330	-7.191730
51124		-17.424991	-3.746054	-7.395463
51125		-17.456553	-3.758896	-7.612033
51126		-17.459792	-3.769338	-7.845080
51127		-17.433807	-3.787216	-8.096653
51128		-17.385660	-3.814938	-8.367911
51129		-17.324714	-3.855683	-8.657065
51130		-17.267830	-3.898581	-8.964169
51131		-17.212931	-3.937610	-9.288938
51132		-17.158688	-3.970430	-9.629913
51133		-17.105608	-3.995719	-9.982168
51134		-17.062890	-4.017551	-10.348903
51135		-17.025493	-4.037954	-10.726157
51136		-16.992551	-4.057361	-11.116661
51137		-16.974149	-4.080053	-11.522212
51138		-16.966358	-4.104112	-11.942396
51139		-16.959309	-4.125637	-12.374982
51140		-16.943841	-4.143477	-12.824612
51141		-16.912682	-4.162358	-13.287855
51142		-16.849099	-4.182099	-13.767713
51143		-16.757356	-4.203298	-14.264997
51144		-16.643380	-4.221055	-14.782347
51145		-16.513684	-4.249341	-15.320444
51146		-16.363394	-4.281757	-15.870108
51147		-16.193602	-4.329469	-16.416618
51148		-16.026579	-4.373184	-16.955004
51149		-15.853085	-4.394895	-17.496038
51150		-15.675224	-4.409007	-18.040622
51151		-15.515417	-4.422662	-18.592577
51152		-15.386109	-4.434228	-19.155042
51153		-15.275723	-4.440517	-19.730853
51154		-15.186385	-4.432668	-20.323633
51155		-15.112241	-4.422888	-20.933156
51156		-15.061787	-4.411105	-21.553611
51157		-15.051083	-4.395268	-22.181367
51158		-15.082408	-4.368479	-22.810778
51159		-15.132545	-4.333690	-23.447106
51160		-15.196157	-4.287218	-24.094712
51161		-15.261714	-4.233946	-24.760119
51162		-15.324559	-4.167374	-25.449116
51163		-15.391681	-4.085604	-26.158423
51164		-15.461615	-4.002894	-26.871352
51165		-15.522427	-3.928546	-27.576415
51166		-15.549595	-3.847542	-28.277653
51167		-15.525471	-3.747836	-28.985235
51168		-15.472440	-3.632543	-29.700067
51169		-15.386889	-3.514004	-30.426545
51170		-15.271751	-3.394641	-31.163557
51171		-15.155946	-3.278068	-31.900138
51172		-15.033006	-3.155660	-32.642426
51173		-14.885455	-3.034579	-33.378794
51174		-14.728194	-2.915080	-34.112548
51175		-14.544584	-2.801058	-34.858248
51176		-14.334425	-2.672426	-35.630249
51177		-14.112882	-2.522992	-36.438068
51178		-13.911103	-2.365405	-37.270593
51179		-13.718329	-2.225801	-38.104631
51180		-13.545867	-2.109126	-38.924535
51181		-13.379404	-2.004903	-39.727403
51182		-13.232237	-1.893465	-40.519315
51183		-13.116673	-1.778013	-41.308173
51184		-13.044858	-1.656333	-42.104201
51185		-13.030575	-1.533825	-42.911206
51186		-13.079931	-1.404964	-43.716026
51187		-13.179165	-1.265829	-44.507362
51188		-13.304398	-1.115932	-45.285518
51189		-13.429022	-0.959076	-46.050472
51190		-13.569885	-0.791849	-46.804113
51191		-13.716613	-0.637030	-47.557910
51192		-13.872161	-0.492364	-48.314394
51193		-14.036369	-0.349504	-49.076570
51194		-14.194778	-0.198147	-49.846079
51195		-14.323037	-0.042174	-50.623407
51196		-14.422998	0.108437	-51.403478
51197		-14.494848	0.243943	-52.171965
51198		-14.546496	0.373707	-52.933054
51199		-14.574390	0.496508	-53.682763
51200		-14.576818	0.615240	-54.428276
51201		-14.553496	0.725710	-55.180707
51202		-14.518099	0.831311	-55.940128
51203		-14.461724	0.937744	-56.697413
51204		-14.394620	1.039033	-57.445037
51205		-14.312229	1.122402	-58.177586
51206		-14.226700	1.195059	-58.890507
51207		-14.127034	1.266882	-59.591107
51208		-14.034652	1.337911	-60.285523
51209		-13.961327	1.406573	-60.980023
51210		-13.908908	1.475699	-61.684224
51211		-13.868499	1.541797	-62.399062
51212		-13.847621	1.606219	-63.123025
51213		-13.858572	1.665941	-63.847287
51214		-13.901329	1.733739	-64.564424
51215		-13.966885	1.800643	-65.274806
51216		-14.042258	1.860666	-65.976316
51217		-14.134730	1.906857	-66.673449
51218		-14.247521	1.950209	-67.368922
51219		-14.369352	1.999597	-68.062784
51220		-14.495708	2.061307	-68.754798
51221		-14.622744	2.130984	-69.452685
51222		-14.752299	2.204574	-70.153971
51223		-14.867020	2.280787	-70.861712
51224		-14.976262	2.360264	-71.573622
51225		-15.067188	2.444292	-72.286878
51226		-15.138938	2.534041	-72.993910
51227		-15.190239	2.621096	-73.692568
51228		-15.222546	2.709219	-74.387170
51229		-15.227786	2.804053	-75.078058
51230		-15.217917	2.912423	-75.771160
51231		-15.174807	3.034173	-76.466493
51232		-15.111719	3.160707	-77.162181
51233		-15.003625	3.271561	-77.849201
51234		-14.882976	3.356854	-78.524243
51235		-14.762019	3.410996	-79.178315
51236		-14.655102	3.463075	-79.822397
51237		-14.559793	3.533832	-80.457492
51238		-14.474679	3.616120	-81.090816
51239		-14.395514	3.702925	-81.723257
51240		-14.323898	3.793257	-82.357619
51241		-14.242038	3.880618	-82.987176
51242		-14.166334	3.954702	-83.605382
51243		-14.104935	4.013743	-84.214497
51244		-14.056193	4.054543	-84.812920
51245		-14.019103	4.092901	-85.405633
51246		-13.989870	4.138736	-85.992229
51247		-13.952632	4.187744	-86.571020
51248		-13.908299	4.240439	-87.139798
51249		-13.854008	4.287672	-87.692544
51250		-13.798576	4.327043	-88.228509
51251		-13.751450	4.378999	-88.754176
51252		-13.722237	4.445271	-89.281976
51253		-13.718111	4.522671	-89.819356
51254		-13.740165	4.595273	-90.354395
51255		-13.760011	4.650269	-90.876871
51256		-13.788346	4.701699	-91.382272
51257		-13.809553	4.759566	-91.872183
51258		-13.821114	4.814407	-92.354535
51259		-13.826992	4.850408	-92.828880
51260		-13.824415	4.881310	-93.296530
51261		-13.818665	4.917487	-93.756917
51262		-13.821793	4.964228	-94.211370
51263		-13.831988	5.012411	-94.654052
51264		-13.857218	5.060057	-95.087735
51265		-13.887649	5.105079	-95.515709
51266		-13.923780	5.148894	-95.939980
51267		-13.956245	5.177094	-96.360311
51268		-13.974464	5.187701	-96.772935
51269		-13.986879	5.198590	-97.175579
51270		-14.001802	5.218123	-97.566173
51271		-14.008790	5.250703	-97.948077
51272		-14.000988	5.280403	-98.323967
51273		-13.973566	5.305303	-98.694023
51274		-13.929881	5.319122	-99.050613
51275		-13.878629	5.313721	-99.398223
51276		-13.831972	5.305535	-99.734252
51277		-13.786785	5.290319	-100.057180
51278		-13.755091	5.273026	-100.360500
51279		-13.741626	5.265809	-100.650638
51280		-13.733544	5.271814	-100.927230
51281		-13.739597	5.278529	-101.191438
51282		-13.755320	5.277396	-101.446109
51283		-13.782049	5.267204	-101.693325
51284		-13.818189	5.255788	-101.930327
51285		-13.855933	5.241052	-102.146670
51286		-13.892675	5.230025	-102.342946
51287		-13.913017	5.228857	-102.517005
51288		-13.917012	5.238676	-102.672775
51289		-13.905609	5.250593	-102.815168
51290		-13.880897	5.258990	-102.948337
51291		-13.843032	5.261290	-103.066281
51292		-13.795566	5.248074	-103.170574
51293		-13.748934	5.230403	-103.266136
51294		-13.711769	5.223857	-103.353788
51295		-13.687195	5.239262	-103.430450
51296		-13.678674	5.264204	-103.495941
51297		-13.679614	5.289724	-103.554899
51298		-13.686691	5.311910	-103.610927
51299		-13.697314	5.335097	-103.664704
51300		-13.710351	5.354677	-103.717084
51301		-13.728246	5.374433	-103.770199
51302		-13.748575	5.392655	-103.821319
51303		-13.763971	5.403112	-103.866487
51304		-13.777587	5.411826	-103.906602
51305		-13.783562	5.428998	-103.940917
51306		-13.787765	5.441584	-103.968414
51307		-13.778439	5.449363	-103.990602
51308		-13.758303	5.453010	-104.013700
51309		-13.743149	5.465396	-104.038969
51310		-13.722138	5.485333	-104.069498
51311		-13.692432	5.523484	-104.106084
51312		-13.649684	5.577797	-104.150936
51313		-13.606913	5.645369	-104.201773
51314		-13.569351	5.723554	-104.253838
51315		-13.544168	5.799374	-104.304486
51316		-13.537232	5.875653	-104.349422
51317		-13.541418	5.943774	-104.386780
51318		-13.544770	5.991964	-104.418004
51319		-13.533816	6.036355	-104.449295
51320		-13.511885	6.076860	-104.482618
51321		-13.488581	6.109493	-104.513735
51322		-13.470267	6.133717	-104.539995
51323		-13.450232	6.161694	-104.560000
51324		-13.426887	6.183678	-104.566904
51325		-13.394623	6.194592	-104.560603
51326		-13.360283	6.190561	-104.540107
51327		-13.327081	6.180139	-104.510258
51328		-13.293180	6.163670	-104.471546
51329		-13.257658	6.151320	-104.427778
51330		-13.225932	6.145970	-104.375797
51331		-13.203855	6.143715	-104.324417
51332		-13.199721	6.150196	-104.268772
51333		-13.157802	6.184797	-104.192327
51334		-13.117135	6.196777	-104.101145
51335		-13.065971	6.208599	-103.996551
51336		-13.004510	6.220342	-103.870975
51337		-12.934217	6.219944	-103.725389
51338		-12.862373	6.212416	-103.571743
51339		-12.793549	6.220473	-103.416645
51340		-12.735357	6.246899	-103.257255
51341		-12.691625	6.272588	-103.092485
51342		-12.661935	6.300907	-102.921492
51343		-12.639325	6.327810	-102.735953
51344		-12.631308	6.362237	-102.531236
51345		-12.625000	6.406507	-102.307895
51346		-12.605105	6.461840	-102.068746
51347		-12.582874	6.517068	-101.821720
51348		-12.549713	6.563756	-101.562454
51349		-12.504617	6.603668	-101.290698
51350		-12.452085	6.643178	-101.009233
51351		-12.399059	6.695790	-100.714812
51352		-12.343135	6.745402	-100.405609
51353		-12.281236	6.774077	-100.076650
51354		-12.219273	6.782794	-99.730009
51355		-12.157310	6.784027	-99.364332
51356		-12.096858	6.784430	-98.976738
51357		-12.046393	6.784257	-98.562397
51358		-12.001536	6.782778	-98.110060
51359		-11.957896	6.781907	-97.618847
51360		-11.913941	6.770296	-97.093446
51361		-11.854078	6.747421	-96.546783
51362		-11.771671	6.712336	-95.986045
51363		-11.682591	6.671654	-95.419174
51364		-11.610627	6.620381	-94.839527
51365		-11.547434	6.566711	-94.243572
51366		-11.502547	6.519190	-93.620179
51367		-11.489740	6.485755	-92.967561
51368		-11.495367	6.443807	-92.286860
51369		-11.508525	6.377892	-91.583798
51370		-11.519462	6.296142	-90.868877
51371		-11.529280	6.201622	-90.146067
51372		-11.545565	6.104676	-89.416531
51373		-11.582023	6.019203	-88.669382
51374		-11.637484	5.944981	-87.899770
51375		-11.702644	5.880439	-87.096814
51376		-11.776070	5.817310	-86.261246
51377		-11.827205	5.739409	-85.404201
51378		-11.840778	5.625776	-84.533428
51379		-11.820462	5.503285	-83.652440
51380		-11.781644	5.384337	-82.762752
51381		-11.715207	5.274914	-81.859334
51382		-11.615565	5.162685	-80.931977
51383		-11.504074	5.055070	-79.976924
51384		-11.374245	4.956559	-78.997161
51385		-11.203517	4.855017	-77.995647
51386		-11.011967	4.728611	-76.983213
51387		-10.808435	4.576996	-75.965450
51388		-10.608377	4.418073	-74.944665
51389		-10.438797	4.276169	-73.917257
51390		-10.285353	4.151631	-72.878929
51391		-10.156363	4.033120	-71.825219
51392		-10.044809	3.929248	-70.756128
51393		-9.932173	3.849910	-69.668302
51394		-9.803309	3.797158	-68.561915
51395		-9.665888	3.754136	-67.440445
51396		-9.506721	3.699013	-66.311895
51397		-9.317385	3.626108	-65.190594
51398		-9.115336	3.527965	-64.083149
51399		-8.921938	3.408663	-62.991472
51400		-8.753552	3.277206	-61.910241
51401		-8.611498	3.142131	-60.837456
51402		-8.493260	3.013154	-59.770771
51403		-8.399423	2.889135	-58.706779
51404		-8.319249	2.775341	-57.645260
51405		-8.258822	2.668471	-56.585506
51406		-8.206519	2.558228	-55.527619
51407		-8.150268	2.458877	-54.481487
51408		-8.082237	2.352658	-53.450539
51409		-8.007264	2.212070	-52.439075
51410		-7.951680	2.030401	-51.442175
51411		-7.923977	1.835981	-50.454145
51412		-7.935639	1.656862	-49.470039
51413		-7.975960	1.508363	-48.495218
51414		-8.017661	1.377515	-47.533726
51415		-8.045807	1.235861	-46.583671
51416		-8.086369	1.064425	-45.638328
51417		-8.149079	0.876015	-44.693494
51418		-8.234279	0.686995	-43.743169
51419		-8.345068	0.510659	-42.793586
51420		-8.448015	0.332110	-41.846177
51421		-8.544362	0.125082	-40.908276
51422		-8.635194	-0.100803	-39.983254
51423		-8.728042	-0.327658	-39.065116
51424		-8.816354	-0.533215	-38.150216
51425		-8.893010	-0.721405	-37.239477
51426		-8.938650	-0.905321	-36.333097
51427		-8.954019	-1.095200	-35.433490
51428		-8.947592	-1.301805	-34.548471
51429		-8.918779	-1.509967	-33.681256
51430		-8.883477	-1.704686	-32.832002
51431		-8.862357	-1.885650	-32.002084
51432		-8.855948	-2.068338	-31.187662
51433		-8.881183	-2.268194	-30.381229
51434		-8.939448	-2.469820	-29.583008
51435		-9.025687	-2.664476	-28.788623
51436		-9.150718	-2.853573	-27.996635
51437		-9.308731	-3.032629	-27.206910
51438		-9.497960	-3.211735	-26.423718
51439		-9.722437	-3.399752	-25.658659
51440		-9.993315	-3.610052	-24.915298
51441		-10.329865	-3.831594	-24.188623
51442		-10.740829	-4.051028	-23.474101
51443		-11.215809	-4.267192	-22.762911
51444		-11.743290	-4.480652	-22.045601
51445		-12.301865	-4.680926	-21.326141
51446		-12.869721	-4.865502	-20.611838
51447		-13.438280	-5.034225	-19.903754
51448		-13.987141	-5.197575	-19.205847
51449		-14.495948	-5.367696	-18.523650
51450		-14.946039	-5.534759	-17.863738
51451		-15.332903	-5.692305	-17.223028
51452		-15.639513	-5.822559	-16.605917
51453		-15.853419	-5.943391	-16.004362
51454		-15.987558	-6.066996	-15.410177
51455		-16.042739	-6.205625	-14.816258
51456		-16.038452	-6.353727	-14.232071
51457		-16.002404	-6.513012	-13.662604
51458		-15.950297	-6.677719	-13.111402
51459		-15.904546	-6.836738	-12.575162
51460		-15.880955	-6.985339	-12.052783
51461		-15.866276	-7.119678	-11.540075
51462		-15.880992	-7.224426	-11.037483
51463		-15.894451	-7.313568	-10.549910
51464		-15.919687	-7.395119	-10.077915
51465		-15.965406	-7.483335	-9.623198
51466		-16.026470	-7.570965	-9.184305
51467		-16.107525	-7.649717	-8.760799
51468		-16.217811	-7.716548	-8.352222
51469		-16.348544	-7.779042	-7.951856
51470		-16.490797	-7.839213	-7.557852
51471		-16.615550	-7.894852	-7.174387
51472		-16.715938	-7.950912	-6.799579
51473		-16.789867	-8.011332	-6.444263
51474		-16.833234	-8.066825	-6.115674
51475		-16.837115	-8.120559	-5.820774
51476		-16.822514	-8.178091	-5.549435
51477		-16.790465	-8.243187	-5.296233
51478		-16.752830	-8.314768	-5.054649
51479		-16.713981	-8.380392	-4.830184
51480		-16.657521	-8.429714	-4.623711
51481		-16.596829	-8.455142	-4.436051
51482		-16.538210	-8.465155	-4.265801
51483		-16.505150	-8.476991	-4.112006
51484		-16.510499	-8.476374	-3.968504
51485		-16.549301	-8.460709	-3.840216
51486		-16.606261	-8.430573	-3.721200
51487		-16.655272	-8.392790	-3.608015
51488		-16.668907	-8.354148	-3.503033
51489		-16.645802	-8.306387	-3.416286
51490		-16.604681	-8.241961	-3.351011
51491		-16.555835	-8.176326	-3.304967
51492		-16.506342	-8.118913	-3.269219
51493		-16.446502	-8.079032	-3.239663
51494		-16.375197	-8.048811	-3.208896
51495		-16.297524	-8.025592	-3.178052
51496		-16.222526	-8.000065	-3.146945
51497		-16.147560	-7.974544	-3.115729
51498		-16.077527	-7.956113	-3.087652
51499		-16.017882	-7.955038	-3.064404
51500		-15.970566	-7.954490	-3.049029
51501		-15.935610	-7.945858	-3.044810
51502		-15.923602	-7.925378	-3.044504
51503		-15.913049	-7.910820	-3.046555
51504		-15.905610	-7.899778	-3.046555
51505		-15.904288	-7.896243	-3.043727
51506		-15.889893	-7.894326	-3.038401
51507		-15.870397	-7.891231	-3.039729
51508		-15.848454	-7.883864	-3.044919
51509		-15.833881	-7.881410	-3.059051
51510		-15.832365	-7.885301	-3.074492
51511		-15.834568	-7.907685	-3.091931
51512		-15.835788	-7.935286	-3.112376
51513		-15.837134	-7.960570	-3.134439
51514		-15.834372	-7.973302	-3.161123
51515		-15.823939	-7.975155	-3.193202
51516		-15.804773	-7.964779	-3.228157
51517		-15.763426	-7.954887	-3.259173
51518		-15.729712	-7.940282	-3.283262
51519		-15.697777	-7.933135	-3.301261
51520		-15.673950	-7.921441	-3.313413
51521		-15.654430	-7.913150	-3.322858
51522		-15.640852	-7.908974	-3.330847
51523		-15.634724	-7.912927	-3.341867
51524		-15.619511	-7.912610	-3.350733
51525		-15.586707	-7.897364	-3.361055
51526		-15.535008	-7.870487	-3.374442
51527		-15.465857	-7.838477	-3.393670
51528		-15.391921	-7.804998	-3.418155
51529		-15.325980	-7.771407	-3.443293
51530		-15.281010	-7.732067	-3.467798
51531		-15.248972	-7.690551	-3.496886
51532		-15.224790	-7.649095	-3.526864
51533		-15.218694	-7.609767	-3.555661
51534		-15.223135	-7.570984	-3.585979
51535		-15.247279	-7.525778	-3.624988
51536		-15.281756	-7.468121	-3.677596
51537		-15.318897	-7.409226	-3.742418
51538		-15.367966	-7.347564	-3.815334
51539		-15.422211	-7.295183	-3.887026
51540		-15.473604	-7.242421	-3.958277
51541		-15.514025	-7.197730	-4.028252
51542		-15.552105	-7.156042	-4.097655
51543		-15.583720	-7.117123	-4.180391
51544		-15.607625	-7.076600	-4.275182
51545		-15.623985	-7.036875	-4.388096
51546		-15.630632	-6.997076	-4.517139
51547		-15.633526	-6.956687	-4.666651
51548		-15.635462	-6.911564	-4.824867
51549		-15.648552	-6.872611	-4.983325
51550		-15.662773	-6.833030	-5.128196
51551		-15.651526	-6.795717	-5.263400
51552		-15.603557	-6.758547	-5.392851
51553		-15.534620	-6.731543	-5.530518
51554		-15.465333	-6.706470	-5.681434
51555		-15.402458	-6.675895	-5.853998
51556		-15.364865	-6.638248	-6.044442
51557		-15.353592	-6.599279	-6.247795
51558		-15.352611	-6.561877	-6.452216
51559		-15.349703	-6.528475	-6.652748
51560		-15.336056	-6.502283	-6.844697
51561		-15.312114	-6.485688	-7.033787
51562		-15.281680	-6.469611	-7.227979
51563		-15.244756	-6.449873	-7.434287
51564		-15.218336	-6.424822	-7.659996
51565		-15.200439	-6.394260	-7.905026
51566		-15.217851	-6.362447	-8.167920
51567		-15.267901	-6.338952	-8.439283
51568		-15.332590	-6.319403	-8.711459
51569		-15.400503	-6.298925	-8.986757
51570		-15.474705	-6.271003	-9.266031
51571		-15.535843	-6.233475	-9.557553
51572		-15.583882	-6.196350	-9.864170
51573		-15.609693	-6.163986	-10.188057
51574		-15.622268	-6.131015	-10.526529
51575		-15.622486	-6.102996	-10.874256
51576		-15.623947	-6.073546	-11.231997
51577		-15.622434	-6.046830	-11.599655
51578		-15.628500	-6.012716	-11.970908
51579		-15.639455	-5.970698	-12.352334
51580		-15.657763	-5.922364	-12.746006
51581		-15.688778	-5.875502	-13.150676
51582		-15.715549	-5.830593	-13.561389
51583		-15.739987	-5.783589	-13.984059
51584		-15.755992	-5.728991	-14.417180
51585		-15.757304	-5.680121	-14.863009
51586		-15.753733	-5.635796	-15.321397
51587		-15.740184	-5.592059	-15.795208
51588		-15.711341	-5.543440	-16.280708
51589		-15.652964	-5.493300	-16.776746
51590		-15.582666	-5.442744	-17.287357
51591		-15.498148	-5.398457	-17.806642
51592		-15.422867	-5.360156	-18.326444
51593		-15.346223	-5.331607	-18.849778
51594		-15.273098	-5.304563	-19.378455
51595		-15.209593	-5.278189	-19.918260
51596		-15.162914	-5.244360	-20.473367
51597		-15.129149	-5.209404	-21.046760
51598		-15.126149	-5.170415	-21.634893
51599		-15.133470	-5.130276	-22.235327
51600		-15.150410	-5.085036	-22.838210
51601		-15.161216	-5.043508	-23.442226
51602		-15.171769	-5.003174	-24.045724
51603		-15.184412	-4.962869	-24.658921
51604		-15.201670	-4.913476	-25.288500
51605		-15.223931	-4.867876	-25.940651
51606		-15.253884	-4.827813	-26.605543
51607		-15.293345	-4.802288	-27.276651
51608		-15.343377	-4.784219	-27.942757
51609		-15.380457	-4.758942	-28.614808
51610		-15.403853	-4.722435	-29.294515
51611		-15.417310	-4.686287	-29.987911
51612		-15.427158	-4.650137	-30.695627
51613		-15.429505	-4.627057	-31.411630
51614		-15.436019	-4.609815	-32.122472
51615		-15.440322	-4.595994	-32.820689
51616		-15.438056	-4.575790	-33.511661
51617		-15.417830	-4.552536	-34.205558
51618		-15.383742	-4.527396	-34.910343
51619		-15.334851	-4.496653	-35.626169
51620		-15.291894	-4.465473	-36.356627
51621		-15.240569	-4.436270	-37.093021
51622		-15.186760	-4.406985	-37.825727
51623		-15.135295	-4.377682	-38.553017
51624		-15.086130	-4.345367	-39.278218
51625		-15.030731	-4.314140	-40.008049
51626		-14.978029	-4.280438	-40.744502
51627		-14.927913	-4.251247	-41.492843
51628		-14.890405	-4.229854	-42.247411
51629		-14.849612	-4.210349	-43.008815
51630		-14.798436	-4.188527	-43.768466
51631		-14.731341	-4.159338	-44.527992
51632		-14.653376	-4.131444	-45.290387
51633		-14.560758	-4.113313	-46.058334
51634		-14.475320	-4.100370	-46.828625
51635		-14.384377	-4.085724	-47.607643
51636		-14.303151	-4.068450	-48.397398
51637		-14.222249	-4.059564	-49.199239
51638		-14.146249	-4.049789	-50.016222
51639		-14.057646	-4.028454	-50.855627
51640		-13.963033	-3.990897	-51.715757
51641		-13.849129	-3.949930	-52.585305
51642		-13.731094	-3.916137	-53.445469
51643		-13.606743	-3.885946	-54.287447
51644		-13.462812	-3.863230	-55.114868
51645		-13.290989	-3.852319	-55.928541
51646		-13.120143	-3.844224	-56.734566
51647		-12.941055	-3.843510	-57.538487
51648		-12.760475	-3.851085	-58.341045
51649		-12.576494	-3.859668	-59.149577
51650		-12.410770	-3.865310	-59.966738
51651		-12.243586	-3.866980	-60.791678
51652		-12.101038	-3.859538	-61.623793
51653		-11.982157	-3.844227	-62.456842
51654		-11.884712	-3.815330	-63.290046
51655		-11.807874	-3.784680	-64.120144
51656		-11.760218	-3.761151	-64.936147
51657		-11.733643	-3.735337	-65.740573
51658		-11.736344	-3.701499	-66.531717
51659		-11.743346	-3.666154	-67.315053
51660		-11.751884	-3.627897	-68.103005
51661		-11.736964	-3.581863	-68.895151
51662		-11.707231	-3.522089	-69.694041
51663		-11.655152	-3.453427	-70.505292
51664		-11.574396	-3.383010	-71.323912
51665		-11.440766	-3.314466	-72.142612
51666		-11.253614	-3.257501	-72.950791
51667		-11.025190	-3.216841	-73.743720
51668		-10.763618	-3.176119	-74.527118
51669		-10.461756	-3.126193	-75.308898
51670		-10.138170	-3.077463	-76.084806
51671		-9.798220	-3.056671	-76.856344
51672		-9.454780	-3.068048	-77.625203
51673		-9.109268	-3.089625	-78.394479
51674		-8.803484	-3.107891	-79.161794
51675		-8.527194	-3.126871	-79.929411
51676		-8.279724	-3.150988	-80.692049
51677		-8.051004	-3.176692	-81.447638
51678		-7.858957	-3.207459	-82.191045
51679		-7.699416	-3.235108	-82.925364
51680		-7.577683	-3.245870	-83.647469
51681		-7.495456	-3.234379	-84.359164
51682		-7.453040	-3.215535	-85.064262
51683		-7.443498	-3.188462	-85.760376
51684		-7.467299	-3.151263	-86.447212
51685		-7.510444	-3.119506	-87.131199
51686		-7.579792	-3.085322	-87.804864
51687		-7.670487	-3.045568	-88.462654
51688		-7.780646	-3.003866	-89.100139
51689		-7.887774	-2.964653	-89.723195
51690		-7.977144	-2.930663	-90.333948
51691		-8.040553	-2.903234	-90.942827
51692		-8.087736	-2.874687	-91.548357
51693		-8.111984	-2.836863	-92.147239
51694		-8.109796	-2.798623	-92.733636
51695		-8.094480	-2.769763	-93.300997
51696		-8.073062	-2.748043	-93.854000
51697		-8.037140	-2.718465	-94.396098
51698		-7.981932	-2.668115	-94.931171
51699		-7.896546	-2.588195	-95.465110
51700		-7.777316	-2.484967	-95.999100
51701		-7.620477	-2.361436	-96.532433
51702		-7.414226	-2.245867	-97.060674
51703		-7.132873	-2.159340	-97.571230
51704		-6.807405	-2.113502	-98.052180
51705		-6.464657	-2.102950	-98.504986
51706		-6.141473	-2.111834	-98.941380
51707		-5.848680	-2.110863	-99.366161
51708		-5.599493	-2.089223	-99.780292
51709		-5.401851	-2.071710	-100.173301
51710		-5.269299	-2.071452	-100.542495
51711		-5.187556	-2.069483	-100.890667
51712		-5.170044	-2.045990	-101.208779
51713		-5.208899	-1.998076	-101.504740
51714		-5.280516	-1.944808	-101.778657
51715		-5.374805	-1.885491	-102.031928
51716		-5.471505	-1.826590	-102.268968
51717		-5.548719	-1.773632	-102.489930
51718		-5.596334	-1.735882	-102.691804
51719		-5.629214	-1.699916	-102.875797
51720		-5.641540	-1.660958	-103.045964
51721		-5.633860	-1.634072	-103.203695
51722		-5.625423	-1.619774	-103.350275
51723		-5.611143	-1.612886	-103.485770
51724		-5.596575	-1.609435	-103.608763
51725		-5.593638	-1.602074	-103.717098
51726		-5.616527	-1.581783	-103.810090
51727		-5.643882	-1.553405	-103.891630
51728		-5.673221	-1.534841	-103.963198
51729		-5.697425	-1.526666	-104.025495
51730		-5.724508	-1.520470	-104.080286
51731		-5.747236	-1.508547	-104.130473
51732		-5.773718	-1.494070	-104.176840
51733		-5.799576	-1.484530	-104.224159
51734		-5.822081	-1.483469	-104.269901
51735		-5.833267	-1.478055	-104.319648
51736		-5.829545	-1.472461	-104.371715
51737		-5.816188	-1.462754	-104.425358
51738		-5.794188	-1.453118	-104.473925
51739		-5.764193	-1.450235	-104.515645
51740		-5.738878	-1.457257	-104.543660
51741		-5.716209	-1.468124	-104.568515
51742		-5.727672	-1.468105	-104.580039
51743		-5.709627	-1.472274	-104.579565
51744		-5.720461	-1.484419	-104.583640
51745		-5.733070	-1.495330	-104.587232
51746		-5.730443	-1.494279	-104.573501
51747		-5.752200	-1.509044	-104.555344
51748		-5.765240	-1.527042	-104.530608
51749		-5.770283	-1.533856	-104.500340
51750		-5.783952	-1.539795	-104.468522
51751		-5.794756	-1.542491	-104.435823
51752		-5.802218	-1.542390	-104.403301
51753		-5.810075	-1.545432	-104.365883
51754		-5.821366	-1.550325	-104.316290
51755		-5.835336	-1.553465	-104.253535
51756		-5.846008	-1.555432	-104.182957
51757		-5.851216	-1.551256	-104.098321
51758		-5.843751	-1.546786	-104.002835
51759		-5.822355	-1.544866	-103.889906
51760		-5.806667	-1.543277	-103.755114
51761		-5.823443	-1.541425	-103.596048
51762		-5.853761	-1.542680	-103.406193
51763		-5.894150	-1.553098	-103.180000
51764		-5.944018	-1.573013	-102.917842
51765		-6.006028	-1.582078	-102.626717
51766		-6.074886	-1.581267	-102.314253
51767		-6.163865	-1.569585	-101.989437
51768		-6.290437	-1.550422	-101.658079
51769		-6.451735	-1.531671	-101.311960
51770		-6.640170	-1.519678	-100.940749
51771		-6.848684	-1.494443	-100.538303
51772		-7.072478	-1.460320	-100.107778
51773		-7.297291	-1.431049	-99.652386
51774		-7.527776	-1.418433	-99.178544
51775		-7.767216	-1.411634	-98.688708
51776		-8.003333	-1.408734	-98.183032
51777		-8.231810	-1.406387	-97.661892
51778		-8.433924	-1.411265	-97.122468
51779		-8.597552	-1.416715	-96.560444
51780		-8.725397	-1.422678	-95.975315
51781		-8.804395	-1.435324	-95.366852
51782		-8.834978	-1.466442	-94.742818
51783		-8.813764	-1.512283	-94.114324
51784		-8.744918	-1.578149	-93.484138
51785		-8.665131	-1.647643	-92.853563
51786		-8.583648	-1.720733	-92.219776
51787		-8.520695	-1.790604	-91.573167
51788		-8.484162	-1.850023	-90.909165
51789		-8.485414	-1.886595	-90.221405
51790		-8.517006	-1.910156	-89.506797
51791		-8.547650	-1.951850	-88.773739
51792		-8.555868	-2.035143	-88.028980
51793		-8.560951	-2.129302	-87.286625
51794		-8.582199	-2.209820	-86.549370
51795		-8.619519	-2.278014	-85.811874
51796		-8.667990	-2.336432	-85.051615
51797		-8.749367	-2.365369	-84.255667
51798		-8.831592	-2.371492	-83.424150
51799		-8.884272	-2.391469	-82.562895
51800		-8.913743	-2.439738	-81.671519
51801		-8.922325	-2.500727	-80.758950
51802		-8.893729	-2.575374	-79.836429
51803		-8.826639	-2.659011	-78.900420
51804		-8.731608	-2.723971	-77.935884
51805		-8.612614	-2.753908	-76.933546
51806		-8.443092	-2.758929	-75.897766
51807		-8.199418	-2.784893	-74.841825
51808		-7.919609	-2.851422	-73.774499
51809		-7.645880	-2.944715	-72.711240
51810		-7.394815	-3.048634	-71.659602
51811		-7.204205	-3.139376	-70.611682
51812		-7.075725	-3.206489	-69.568173
51813		-7.016123	-3.243128	-68.522511
51814		-6.992640	-3.269374	-67.468028
51815		-6.997665	-3.304236	-66.408512
51816		-7.048129	-3.353573	-65.340408
51817		-7.155549	-3.399745	-64.260402
51818		-7.291918	-3.429221	-63.173264
51819		-7.431271	-3.453088	-62.088220
51820		-7.567076	-3.487584	-61.006912
51821		-7.711297	-3.529102	-59.935402
51822		-7.856482	-3.580224	-58.878753
51823		-8.004509	-3.627462	-57.830275
51824		-8.170016	-3.652208	-56.786172
51825		-8.353228	-3.651511	-55.742946
51826		-8.510450	-3.643254	-54.700453
51827		-8.635637	-3.645180	-53.662965
51828		-8.709732	-3.662732	-52.631209
51829		-8.744024	-3.690347	-51.610691
51830		-8.748540	-3.730700	-50.605736
51831		-8.742293	-3.775884	-49.619812
51832		-8.726660	-3.825293	-48.648659
51833		-8.713775	-3.890469	-47.685665
51834		-8.700065	-3.966925	-46.724058
51835		-8.678955	-4.035769	-45.764453
51836		-8.652823	-4.074896	-44.805882
51837		-8.593177	-4.079059	-43.857488
51838		-8.479479	-4.059981	-42.924157
51839		-8.302329	-4.046675	-42.008867
51840		-8.079015	-4.085083	-41.113622
51841		-7.872718	-4.168130	-40.224470
51842		-7.683353	-4.252479	-39.331589
51843		-7.526621	-4.301605	-38.425447
51844		-7.403842	-4.301887	-37.509905
51845		-7.309539	-4.271636	-36.594612
51846		-7.229219	-4.234629	-35.700790
51847		-7.150373	-4.208825	-34.841648
51848		-7.090304	-4.207582	-34.011819
51849		-7.081974	-4.223352	-33.196176
51850		-7.113985	-4.230953	-32.378698
51851		-7.188775	-4.227437	-31.553072
51852		-7.315807	-4.227682	-30.718066
51853		-7.479168	-4.230883	-29.882673
51854		-7.681462	-4.230125	-29.054373
51855		-7.910565	-4.233642	-28.241747
51856		-8.134812	-4.244574	-27.448859
51857		-8.334828	-4.256910	-26.674731
51858		-8.495396	-4.274200	-25.916053
51859		-8.615033	-4.305339	-25.173834
51860		-8.717171	-4.360556	-24.443495
51861		-8.802826	-4.422193	-23.727423
51862		-8.880561	-4.485915	-23.021098
51863		-8.960611	-4.565690	-22.314184
51864		-9.035765	-4.658828	-21.609951
51865		-9.115988	-4.753137	-20.913065
51866		-9.193983	-4.834971	-20.231833
51867		-9.258004	-4.908496	-19.570223
51868		-9.308112	-4.991845	-18.923753
51869		-9.352431	-5.092545	-18.292011
51870		-9.406127	-5.215046	-17.666858
51871		-9.467152	-5.344031	-17.043846
51872		-9.529575	-5.467568	-16.421845
51873		-9.595896	-5.581801	-15.802497
51874		-9.663238	-5.685690	-15.188907
51875		-9.724756	-5.768085	-14.583299
51876		-9.763808	-5.846168	-13.983687
51877		-9.799662	-5.930309	-13.386157
51878		-9.818186	-6.029898	-12.796205
51879		-9.835340	-6.142763	-12.213868
51880		-9.870975	-6.272086	-11.640819
51881		-9.936963	-6.409182	-11.072973
51882		-10.017731	-6.534259	-10.511950
51883		-10.107627	-6.635794	-9.961261
51884		-10.197271	-6.716309	-9.414070
51885		-10.282212	-6.794504	-8.870610
51886		-10.358411	-6.878507	-8.335489
51887		-10.419821	-6.970017	-7.813448
51888		-10.474717	-7.058085	-7.314576
51889		-10.535196	-7.126963	-6.849360
51890		-10.599674	-7.175234	-6.418539
51891		-10.680303	-7.219666	-6.016294
51892		-10.785577	-7.267354	-5.635630
51893		-10.900708	-7.315570	-5.272600
51894		-11.015588	-7.357562	-4.928173
51895		-11.137524	-7.391548	-4.604442
51896		-11.259143	-7.410086	-4.304581
51897		-11.371678	-7.413928	-4.031917
51898		-11.473937	-7.419680	-3.779040
51899		-11.559350	-7.434671	-3.541340
51900		-11.624434	-7.464053	-3.323990
51901		-11.663737	-7.489395	-3.123205
51902		-11.682941	-7.504896	-2.943958
51903		-11.703670	-7.510486	-2.781020
51904		-11.729269	-7.514863	-2.630662
51905		-11.755050	-7.528616	-2.487415
51906		-11.780755	-7.538869	-2.350794
51907		-11.785187	-7.542643	-2.230902
51908		-11.768440	-7.532393	-2.125094
51909		-11.709562	-7.524506	-2.034843
51910		-11.636295	-7.532515	-1.956941
51911		-11.559966	-7.557828	-1.883390
51912		-11.483569	-7.588630	-1.814779
51913		-11.417938	-7.623016	-1.756304
51914		-11.358998	-7.657268	-1.710877
51915		-11.303514	-7.694655	-1.676452
51916		-11.284406	-7.724002	-1.650520
51917		-11.297047	-7.754781	-1.628856
51918		-11.350608	-7.790674	-1.607192
51919		-11.438473	-7.828637	-1.579792
51920		-11.543303	-7.853602	-1.551425
51921		-11.640474	-7.869397	-1.524898
51922		-11.728179	-7.869105	-1.508489
51923		-11.799448	-7.858507	-1.504319
51924		-11.861822	-7.838655	-1.509184
51925		-11.905272	-7.838216	-1.519037
51926		-11.941284	-7.853886	-1.528647
51927		-11.962958	-7.874491	-1.538241
51928		-11.966047	-7.884400	-1.547118
51929		-11.943566	-7.887444	-1.556935
51930		-11.892054	-7.888924	-1.572530
51931		-11.814342	-7.891634	-1.591608
51932		-11.723422	-7.893165	-1.624756
51933		-11.634815	-7.887505	-1.662690
51934		-11.549664	-7.874420	-1.703521
51935		-11.459912	-7.861852	-1.741497
51936		-11.377032	-7.854938	-1.771785
51937		-11.295580	-7.851037	-1.796709
51938		-11.230156	-7.847731	-1.816842
51939		-11.177929	-7.841931	-1.839291
51940		-11.123415	-7.834945	-1.863926
51941		-11.066051	-7.822948	-1.894204
51942		-11.012625	-7.799154	-1.926327
51943		-10.966686	-7.770177	-1.955858
51944		-10.932061	-7.736021	-1.978934
51945		-10.895046	-7.703532	-1.993348
51946		-10.856457	-7.672987	-1.999940
51947		-10.814444	-7.651818	-1.996763
51948		-10.773461	-7.632867	-1.991116
51949		-10.727439	-7.624783	-1.980942
51950		-10.701379	-7.615327	-1.970355
51951		-10.683151	-7.600048	-1.965073
51952		-10.667385	-7.576829	-1.968470
51953		-10.653285	-7.554719	-1.975953
51954		-10.645067	-7.534728	-1.985325
51955		-10.648322	-7.520080	-1.991637
51956		-10.660180	-7.513993	-1.997792
51957		-10.685035	-7.512351	-2.000930
51958		-10.724227	-7.503164	-2.010418
51959		-10.755402	-7.487857	-2.030111
51960		-10.786566	-7.467583	-2.062659
51961		-10.820872	-7.450214	-2.110961
51962		-10.867643	-7.437174	-2.175049
51963		-10.909379	-7.433032	-2.254683
51964		-10.977490	-7.428442	-2.346788
51965		-11.073122	-7.418123	-2.458056
51966		-11.192482	-7.399732	-2.588700
51967		-11.314148	-7.379231	-2.734753
51968		-11.435021	-7.353139	-2.894286
51969		-11.542822	-7.331216	-3.070381
51970		-11.635997	-7.309605	-3.266385
51971		-11.701800	-7.292750	-3.487535
51972		-11.753771	-7.275134	-3.732320
51973		-11.796344	-7.260967	-4.007118
51974		-11.832332	-7.231735	-4.308084
51975		-11.849003	-7.199915	-4.627255
51976		-11.852073	-7.180502	-4.953564
51977		-11.834230	-7.167757	-5.284182
51978		-11.789909	-7.148978	-5.623819
51979		-11.715368	-7.122879	-5.973978
51980		-11.650361	-7.091000	-6.329531
51981		-11.598199	-7.059136	-6.694342
51982		-11.544710	-7.025937	-7.069000
51983		-11.491732	-6.997890	-7.446678
51984		-11.450605	-6.976441	-7.828262
51985		-11.397635	-6.960756	-8.215190
51986		-11.336403	-6.942668	-8.611303
51987		-11.271217	-6.916902	-9.024905
51988		-11.217168	-6.886681	-9.460252
51989		-11.190289	-6.860787	-9.914881
51990		-11.179172	-6.846788	-10.386793
51991		-11.176486	-6.834823	-10.871072
51992		-11.187701	-6.821856	-11.366220
51993		-11.220269	-6.806789	-11.873806
51994		-11.277739	-6.789762	-12.392814
51995		-11.339580	-6.778958	-12.925489
51996		-11.427891	-6.763520	-13.474712
51997		-11.524722	-6.744035	-14.046684
51998		-11.637164	-6.721873	-14.639992
51999		-11.764519	-6.707384	-15.247414
52000		-11.898288	-6.696092	-15.869529
52001		-12.039340	-6.678642	-16.505680
52002		-12.186985	-6.653501	-17.154555
52003		-12.310086	-6.636692	-17.814697
52004		-12.423787	-6.614246	-18.489780
52005		-12.498840	-6.587557	-19.183912
52006		-12.554657	-6.554969	-19.896040
52007		-12.610657	-6.526169	-20.623775
52008		-12.656233	-6.501467	-21.369112
52009		-12.682798	-6.496812	-22.123908
52010		-12.699406	-6.521049	-22.884376
52011		-12.704306	-6.560864	-23.654986
52012		-12.716874	-6.595813	-24.436722
52013		-12.752412	-6.632301	-25.227830
52014		-12.823391	-6.659894	-26.027104
52015		-12.911380	-6.678932	-26.836867
52016		-13.048415	-6.674791	-27.654638
52017		-13.220786	-6.640948	-28.486363
52018		-13.419508	-6.578307	-29.328950
52019		-13.637064	-6.502589	-30.176675
52020		-13.878106	-6.431185	-31.022566
52021		-14.136573	-6.349594	-31.873449
52022		-14.392301	-6.256534	-32.730473
52023		-14.636120	-6.152490	-33.592102
52024		-14.866785	-6.040128	-34.465045
52025		-15.059605	-5.925169	-35.351429
52026		-15.224522	-5.815511	-36.246197
52027		-15.359536	-5.714999	-37.146204
52028		-15.441494	-5.613746	-38.059770
52029		-15.475757	-5.501528	-38.991979
52030		-15.466534	-5.382180	-39.944707
52031		-15.422414	-5.271685	-40.905644
52032		-15.354840	-5.180999	-41.860779
52033		-15.263588	-5.108585	-42.797761
52034		-15.150916	-5.038279	-43.716013
52035		-15.011287	-4.975771	-44.623293
52036		-14.888276	-4.929976	-45.529065
52037		-14.774376	-4.900888	-46.448110
52038		-14.695521	-4.887772	-47.378496
52039		-14.660042	-4.877514	-48.322103
52040		-14.690181	-4.862179	-49.270543
52041		-14.789750	-4.831239	-50.214589
52042		-14.954863	-4.779903	-51.147375
52043		-15.157759	-4.715319	-52.068815
52044		-15.408833	-4.644946	-52.980128
52045		-15.699989	-4.573032	-53.891552
52046		-16.025294	-4.512914	-54.799696
52047		-16.375289	-4.462144	-55.705064
52048		-16.731058	-4.410642	-56.607839
52049		-17.072309	-4.351425	-57.513083
52050		-17.398262	-4.282071	-58.424617
52051		-17.680277	-4.209025	-59.338660
52052		-17.924148	-4.133665	-60.251941
52053		-18.114967	-4.043528	-61.166052
52054		-18.273269	-3.956799	-62.076568
52055		-18.378665	-3.881868	-62.985235
52056		-18.438563	-3.831616	-63.890118
52057		-18.454361	-3.810607	-64.791402
52058		-18.428699	-3.804569	-65.692357
52059		-18.364117	-3.788797	-66.599884
52060		-18.277774	-3.757499	-67.517967
52061		-18.164431	-3.727828	-68.442148
52062		-18.049599	-3.705069	-69.367070
52063		-17.926510	-3.682452	-70.291076
52064		-17.801609	-3.653920	-71.209065
52065		-17.665802	-3.622295	-72.115137
52066		-17.542206	-3.592813	-73.005669
52067		-17.433086	-3.572970	-73.880056
52068		-17.340316	-3.565643	-74.740847
52069		-17.258063	-3.556748	-75.593950
52070		-17.197373	-3.535066	-76.437580
52071		-17.147911	-3.492664	-77.278920
52072		-17.093841	-3.437247	-78.117461
52073		-17.031191	-3.379294	-78.948396
52074		-16.962337	-3.328082	-79.765437
52075		-16.884754	-3.285721	-80.569317
52076		-16.814101	-3.252059	-81.355721
52077		-16.768335	-3.211806	-82.124535
52078		-16.755691	-3.163918	-82.876806
52079		-16.750983	-3.102061	-83.620837
52080		-16.744749	-3.033362	-84.357892
52081		-16.731525	-2.952562	-85.090821
52082		-16.722849	-2.864543	-85.819375
52083		-16.710242	-2.781925	-86.536850
52084		-16.695690	-2.712811	-87.231209
52085		-16.687848	-2.657542	-87.901003
52086		-16.689387	-2.603631	-88.557733
52087		-16.702006	-2.520715	-89.204135
52088		-16.729967	-2.404617	-89.838263
52089		-16.740406	-2.269779	-90.461805
52090		-16.716927	-2.131225	-91.074555
52091		-16.656123	-1.992740	-91.677132
52092		-16.577582	-1.865081	-92.266681
52093		-16.495461	-1.748424	-92.840721
52094		-16.418989	-1.646243	-93.398741
52095		-16.330262	-1.536488	-93.941439
52096		-16.222781	-1.406857	-94.473513
52097		-16.098934	-1.267445	-94.993743
52098		-15.951576	-1.141901	-95.501608
52099		-15.780325	-1.037022	-95.995542
52100		-15.606031	-0.949461	-96.472563
52101		-15.441855	-0.871970	-96.927857
52102		-15.304842	-0.816761	-97.352658
52103		-15.193050	-0.780393	-97.748104
52104		-15.117936	-0.752302	-98.121158
52105		-15.090910	-0.715489	-98.483149
52106		-15.117059	-0.678633	-98.834790
52107		-15.203517	-0.650952	-99.174918
52108		-15.338343	-0.622095	-99.500558
52109		-15.492329	-0.588234	-99.811233
52110		-15.643953	-0.542128	-100.104805
52111		-15.788336	-0.468239	-100.383761
52112		-15.915606	-0.376199	-100.640869
52113		-15.994820	-0.281293	-100.875058
52114		-16.030528	-0.193735	-101.088219
52115		-16.039740	-0.125262	-101.278735
52116		-16.041317	-0.064549	-101.454887
52117		-16.035369	0.001648	-101.618807
52118		-16.022262	0.063406	-101.768158
52119		-15.998966	0.119735	-101.902870
52120		-15.985182	0.180953	-102.021358
52121		-15.977464	0.244014	-102.123415
52122		-15.978199	0.299457	-102.209419
52123		-15.985784	0.348610	-102.285190
52124		-15.985906	0.391580	-102.348838
52125		-15.994573	0.427024	-102.400172
52126		-16.009619	0.459804	-102.437805
52127		-16.028371	0.494236	-102.462054
52128		-16.063222	0.536470	-102.477090
52129		-16.098564	0.589096	-102.483762
52130		-16.125511	0.645535	-102.484515
52131		-16.140114	0.694690	-102.479901
52132		-16.122415	0.741447	-102.473880
52133		-16.089239	0.786772	-102.465669
52134		-16.038851	0.820279	-102.456848
52135		-15.996883	0.839758	-102.445863
52136		-15.965174	0.856070	-102.437164
52137		-15.951018	0.871836	-102.431853
52138		-15.963799	0.887039	-102.429127
52139		-15.999516	0.897329	-102.427043
52140		-16.036529	0.904620	-102.420555
52141		-16.076297	0.894131	-102.404034
52142		-16.127683	0.873112	-102.372701
52143		-16.181626	0.858815	-102.330307
52144		-16.239246	0.855196	-102.281940
52145		-16.305187	0.857823	-102.231588
52146		-16.373430	0.863665	-102.180430
52147		-16.444737	0.864402	-102.127951
52148		-16.515374	0.853093	-102.073391
52149		-16.582770	0.842800	-102.015831
52150		-16.660988	0.838193	-101.960221
52151		-16.739755	0.843819	-101.908504
52152		-16.823875	0.857340	-101.862127
52153		-16.923486	0.879050	-101.816586
52154		-17.023368	0.893587	-101.767109
52155		-17.126134	0.898550	-101.711687
52156		-17.227185	0.903889	-101.650734
52157		-17.317294	0.914086	-101.577321
52158		-17.391814	0.930439	-101.490330
52159		-17.442925	0.949493	-101.390843
52160		-17.469495	0.961893	-101.284706
52161		-17.478276	0.969615	-101.175596
52162		-17.463956	0.969935	-101.060125
52163		-17.435002	0.966634	-100.933352
52164		-17.406985	0.962512	-100.788732
52165		-17.363307	0.959716	-100.623037
52166		-17.312197	0.957637	-100.435633
52167		-17.250210	0.959800	-100.225541
52168		-17.175863	0.951624	-99.992891
52169		-17.088855	0.923916	-99.737813
52170		-17.002266	0.878215	-99.454554
52171		-16.925097	0.823174	-99.152325
52172		-16.872196	0.767733	-98.838418
52173		-16.855233	0.709252	-98.512457
52174		-16.872604	0.643267	-98.172037
52175		-16.932756	0.582718	-97.812899
52176		-17.020174	0.536372	-97.434146
52177		-17.124334	0.488830	-97.032468
52178		-17.235837	0.435609	-96.607269
52179		-17.364591	0.376486	-96.171981
52180		-17.504426	0.311702	-95.731584
52181		-17.660439	0.256029	-95.291846
52182		-17.820298	0.203959	-94.848379
52183		-17.981314	0.160599	-94.397632
52184		-18.123514	0.116041	-93.933542
52185		-18.238395	0.063801	-93.448270
52186		-18.324286	-0.013384	-92.936925
52187		-18.390202	-0.113660	-92.398458
52188		-18.417651	-0.221789	-91.840590
52189		-18.417291	-0.334948	-91.268679
52190		-18.383332	-0.456400	-90.686882
52191		-18.322376	-0.585518	-90.094850
52192		-18.232154	-0.724585	-89.493057
52193		-18.137385	-0.861363	-88.877100
52194		-18.039409	-0.993383	-88.248006
52195		-17.935642	-1.113706	-87.602778
52196		-17.819685	-1.231731	-86.943161
52197		-17.693622	-1.354291	-86.270738
52198		-17.550174	-1.485584	-85.596308
52199		-17.404426	-1.620303	-84.922564
52200		-17.272208	-1.758580	-84.248430
52201		-17.153905	-1.895020	-83.574931
52202		-17.031077	-2.024661	-82.901504
52203		-16.916988	-2.133541	-82.216730
52204		-16.827553	-2.228758	-81.517335
52205		-16.754188	-2.313646	-80.804128
52206		-16.673222	-2.401920	-80.081788
52207		-16.600591	-2.487413	-79.359628
52208		-16.530714	-2.575081	-78.636532
52209		-16.475469	-2.669559	-77.908804
52210		-16.432013	-2.759260	-77.174346
52211		-16.397904	-2.842397	-76.433692
52212		-16.365742	-2.918832	-75.690370
52213		-16.308193	-3.004303	-74.950820
52214		-16.226646	-3.115229	-74.218295
52215		-16.150287	-3.231258	-73.491841
52216		-16.092542	-3.350679	-72.771400
52217		-16.049610	-3.469400	-72.052177
52218		-16.017904	-3.582628	-71.330242
52219		-16.020033	-3.686889	-70.596139
52220		-16.043234	-3.779110	-69.845753
52221		-16.078150	-3.856285	-69.079045
52222		-16.103165	-3.929301	-68.299478
52223		-16.117667	-4.001983	-67.512008
52224		-16.126413	-4.086839	-66.720066
52225		-16.136394	-4.174742	-65.927245
52226		-16.138208	-4.267242	-65.132525
52227		-16.133681	-4.354023	-64.337546
52228		-16.120209	-4.447566	-63.540731
52229		-16.111692	-4.546236	-62.737543
52230		-16.100571	-4.638673	-61.931708
52231		-16.096499	-4.713271	-61.119911
52232		-16.087498	-4.769103	-60.304319
52233		-16.084263	-4.804023	-59.486797
52234		-16.067085	-4.838616	-58.662567
52235		-16.029252	-4.875287	-57.831554
52236		-15.982753	-4.927961	-56.995827
52237		-15.919737	-4.987023	-56.165280
52238		-15.836299	-5.053112	-55.340680
52239		-15.742115	-5.120900	-54.518820
52240		-15.627877	-5.183548	-53.697891
52241		-15.506032	-5.232559	-52.876678
52242		-15.367057	-5.264832	-52.059210
52243		-15.216689	-5.276435	-51.245642
52244		-15.049826	-5.280896	-50.437186
52245		-14.883147	-5.292329	-49.627751
52246		-14.705937	-5.310703	-48.821681
52247		-14.539804	-5.343724	-48.011733
52248		-14.389324	-5.391456	-47.195712
52249		-14.263793	-5.432096	-46.381178
52250		-14.167649	-5.458991	-45.575145
52251		-14.093607	-5.470130	-44.778299
52252		-14.038486	-5.482952	-43.988721
52253		-14.015698	-5.489990	-43.198095
52254		-14.012661	-5.483946	-42.411237
52255		-14.023863	-5.465819	-41.628237
52256		-14.038149	-5.444964	-40.850168
52257		-14.053821	-5.439453	-40.079986
52258		-14.092264	-5.449726	-39.319488
52259		-14.160723	-5.456822	-38.572027
52260		-14.248376	-5.461843	-37.835384
52261		-14.345829	-5.465743	-37.103917
52262		-14.444872	-5.475873	-36.376280
52263		-14.547618	-5.493064	-35.648528
52264		-14.646885	-5.512325	-34.921604
52265		-14.753358	-5.528129	-34.201980
52266		-14.850065	-5.541466	-33.498373
52267		-14.927513	-5.559306	-32.817399
52268		-14.988860	-5.609925	-32.158756
52269		-15.048579	-5.683823	-31.515507
52270		-15.115265	-5.756604	-30.889915
52271		-15.189959	-5.814075	-30.279436
52272		-15.283428	-5.868676	-29.675199
52273		-15.386958	-5.921799	-29.070679
52274		-15.492860	-5.973045	-28.468707
52275		-15.584762	-6.025185	-27.869808
52276		-15.655979	-6.079766	-27.277380
52277		-15.703432	-6.138666	-26.698149
52278		-15.723409	-6.199728	-26.138583
52279		-15.735435	-6.255362	-25.593417
52280		-15.748194	-6.311436	-25.061118
52281		-15.768376	-6.367117	-24.531997
52282		-15.808944	-6.432530	-23.998970
52283		-15.859361	-6.500244	-23.452623
52284		-15.912446	-6.563908	-22.892448
52285		-15.958878	-6.614912	-22.334298
52286		-15.989870	-6.648560	-21.789943
52287		-16.016712	-6.668892	-21.265302
52288		-16.036354	-6.691706	-20.758181
52289		-16.061019	-6.725598	-20.259705
52290		-16.080820	-6.780970	-19.756719
52291		-16.084271	-6.841794	-19.250514
52292		-16.087414	-6.894723	-18.743295
52293		-16.080860	-6.938588	-18.250566
52294		-16.073949	-6.966968	-17.780440
52295		-16.080382	-6.969731	-17.336061
52296		-16.095270	-6.956558	-16.906281
52297		-16.111143	-6.939523	-16.480096
52298		-16.135186	-6.923641	-16.056141
52299		-16.147669	-6.911265	-15.636418
52300		-16.157639	-6.901005	-15.224835
52301		-16.172015	-6.891832	-14.822844
52302		-16.201091	-6.872658	-14.439162
52303		-16.243364	-6.837490	-14.073353
52304		-16.287245	-6.783036	-13.724341
52305		-16.319344	-6.722512	-13.386940
52306		-16.327114	-6.672231	-13.059078
52307		-16.298694	-6.640054	-12.734758
52308		-16.256681	-6.626060	-12.416258
52309		-16.209278	-6.621452	-12.100699
52310		-16.144343	-6.623228	-11.790679
52311		-16.073698	-6.621002	-11.488569
52312		-16.008786	-6.610663	-11.206430
52313		-15.947434	-6.590996	-10.944311
52314		-15.899062	-6.580589	-10.697289
52315		-15.876523	-6.580118	-10.468907
52316		-15.892829	-6.577876	-10.257406
52317		-15.947342	-6.574979	-10.053681
52318		-16.039557	-6.558766	-9.856964
52319		-16.160591	-6.533556	-9.665260
52320		-16.305379	-6.504371	-9.478366
52321		-16.442302	-6.478638	-9.302033
52322		-16.561252	-6.459596	-9.140035
52323		-16.660502	-6.446415	-8.994200
52324		-16.748133	-6.437067	-8.863067
52325		-16.807387	-6.430837	-8.749315
52326		-16.833347	-6.422271	-8.654133
52327		-16.821367	-6.424369	-8.573181
52328		-16.786122	-6.431834	-8.508715
52329		-16.716565	-6.443502	-8.457478
52330		-16.613614	-6.459732	-8.413584
52331		-16.488534	-6.475317	-8.371014
52332		-16.356486	-6.490370	-8.335437
52333		-16.235701	-6.515846	-8.303027
52334		-16.130762	-6.546782	-8.266684
52335		-16.040603	-6.582654	-8.221026
52336		-15.973661	-6.612333	-8.166996
52337		-15.919029	-6.635055	-8.113751
52338		-15.876553	-6.651810	-8.061745
52339		-15.847749	-6.667735	-8.014009
52340		-15.849051	-6.683364	-7.968147
52341		-15.867182	-6.698493	-7.922351
52342		-15.906272	-6.701696	-7.874206
52343		-15.948006	-6.691999	-7.824381
52344		-15.990405	-6.677866	-7.774068
52345		-16.018885	-6.668220	-7.728973
52346		-16.038686	-6.664408	-7.691000
52347		-16.054639	-6.664257	-7.663106
52348		-16.072465	-6.668804	-7.642381
52349		-16.084477	-6.671141	-7.629780
52350		-16.090690	-6.669863	-7.619511
52351		-16.085082	-6.670467	-7.612003
52352		-16.079685	-6.669313	-7.607040
52353		-16.073683	-6.665353	-7.604593
52354		-16.083444	-6.659155	-7.602294
52355		-16.094299	-6.654550	-7.600228
52356		-16.121262	-6.633875	-7.602821
52357		-16.151151	-6.610012	-7.609773
52358		-16.193845	-6.584942	-7.625323
52359		-16.246654	-6.561685	-7.646989
52360		-16.314445	-6.531348	-7.676100
52361		-16.383064	-6.494204	-7.711322
52362		-16.462416	-6.454117	-7.752507
52363		-16.541317	-6.409049	-7.798058
52364		-16.621367	-6.360795	-7.839383
52365		-16.688434	-6.310784	-7.881488
52366		-16.741217	-6.252309	-7.921464
52367		-16.777093	-6.185268	-7.969354
52368		-16.800534	-6.106809	-8.031540
52369		-16.811193	-6.020827	-8.114198
52370		-16.808753	-5.939834	-8.212794
52371		-16.799677	-5.866593	-8.325918
52372		-16.788870	-5.796625	-8.445495
52373		-16.768558	-5.727031	-8.563666
52374		-16.743758	-5.648444	-8.689350
52375		-16.705925	-5.558654	-8.827560
52376		-16.652475	-5.467024	-8.986137
52377		-16.590783	-5.383608	-9.167755
52378		-16.535117	-5.318403	-9.375987
52379		-16.495039	-5.265935	-9.601713
52380		-16.484381	-5.221472	-9.847165
52381		-16.499933	-5.169265	-10.114360
52382		-16.535384	-5.113292	-10.401453
52383		-16.594312	-5.053797	-10.701409
52384		-16.672685	-4.985461	-11.011383
52385		-16.754550	-4.916293	-11.333916
52386		-16.839550	-4.843655	-11.669986
52387		-16.936706	-4.767948	-12.026089
52388		-17.028242	-4.696398	-12.406744
52389		-17.116313	-4.626175	-12.809986
52390		-17.191584	-4.552428	-13.239969
52391		-17.246543	-4.470171	-13.697980
52392		-17.288112	-4.375077	-14.187197
52393		-17.307137	-4.275082	-14.699817
52394		-17.323241	-4.178276	-15.228818
52395		-17.335644	-4.070608	-15.771803
52396		-17.332519	-3.949280	-16.334520
52397		-17.299662	-3.809040	-16.919420
52398		-17.264749	-3.644034	-17.536542
52399		-17.240328	-3.477586	-18.183205
52400		-17.214730	-3.338021	-18.848939
52401		-17.186564	-3.222891	-19.525159
52402		-17.143164	-3.108283	-20.210229
52403		-17.081822	-2.972105	-20.913829
52404		-17.016464	-2.826780	-21.627500
52405		-16.942167	-2.683357	-22.354944
52406		-16.869928	-2.552322	-23.088695
52407		-16.796916	-2.423999	-23.836779
52408		-16.727497	-2.293008	-24.595850
52409		-16.651977	-2.156606	-25.368832
52410		-16.571546	-2.015201	-26.152806
52411		-16.475970	-1.884197	-26.947389
52412		-16.356009	-1.768497	-27.752234
52413		-16.222863	-1.661997	-28.571778
52414		-16.084184	-1.557552	-29.406001
52415		-15.935149	-1.460929	-30.249930
52416		-15.791199	-1.375115	-31.095210
52417		-15.645767	-1.294291	-31.942949
52418		-15.487076	-1.210864	-32.792356
52419		-15.319913	-1.126708	-33.648382
52420		-15.146599	-1.042628	-34.515655
52421		-14.967031	-0.959461	-35.391790
52422		-14.799216	-0.886867	-36.273162
52423		-14.628979	-0.821080	-37.154288
52424		-14.460169	-0.763104	-38.027401
52425		-14.289558	-0.716993	-38.894370
52426		-14.127814	-0.681187	-39.758890
52427		-13.972123	-0.647642	-40.631889
52428		-13.840186	-0.601098	-41.518168
52429		-13.708801	-0.542509	-42.433345
52430		-13.591642	-0.485142	-43.370474
52431		-13.484977	-0.428560	-44.322874
52432		-13.397534	-0.378502	-45.274942
52433		-13.329216	-0.335936	-46.217972
52434		-13.272096	-0.297291	-47.147078
52435		-13.203867	-0.263383	-48.057051
52436		-13.126371	-0.236528	-48.951595
52437		-13.015513	-0.215001	-49.835484
52438		-12.894491	-0.184302	-50.718993
52439		-12.748614	-0.147777	-51.607201
52440		-12.570888	-0.121194	-52.495800
52441		-12.381796	-0.114736	-53.378903
52442		-12.182736	-0.124634	-54.257127
52443		-11.991551	-0.134383	-55.127951
52444		-11.819746	-0.136287	-55.992241
52445		-11.665119	-0.131259	-56.851530
52446		-11.520980	-0.122508	-57.711861
52447		-11.377655	-0.123881	-58.569058
52448		-11.255815	-0.134296	-59.416692
52449		-11.156240	-0.152814	-60.253668
52450		-11.072532	-0.164852	-61.082449
52451		-10.998535	-0.169515	-61.909359
52452		-10.956610	-0.173616	-62.740215
52453		-10.926600	-0.186242	-63.572130
52454		-10.914001	-0.202670	-64.402568
52455		-10.916564	-0.226184	-65.230101
52456		-10.935737	-0.244676	-66.055356
52457		-10.967323	-0.252783	-66.880739
52458		-11.005248	-0.261442	-67.706794
52459		-11.050678	-0.265565	-68.536407
52460		-11.093070	-0.255073	-69.366444
52461		-11.109133	-0.233676	-70.197797
52462		-11.111648	-0.205890	-71.035696
52463		-11.066942	-0.173560	-71.880014
52464		-10.969455	-0.157016	-72.722008
52465		-10.833225	-0.172032	-73.549913
52466		-10.688232	-0.206928	-74.358591
52467		-10.513390	-0.238348	-75.151491
52468		-10.308213	-0.269605	-75.936634
52469		-10.084114	-0.314076	-76.719061
52470		-9.850003	-0.367719	-77.498678
52471		-9.587416	-0.416962	-78.282252
52472		-9.317058	-0.473985	-79.061327
52473		-9.068132	-0.539840	-79.831638
52474		-8.847785	-0.607537	-80.590101
52475		-8.676681	-0.670410	-81.342114
52476		-8.560348	-0.738872	-82.089196
52477		-8.505945	-0.813316	-82.829312
52478		-8.530726	-0.893221	-83.557968
52479		-8.620125	-0.962268	-84.275293
52480		-8.778650	-1.003634	-84.983439
52481		-8.970891	-1.010865	-85.687131
52482		-9.176891	-1.004843	-86.380969
52483		-9.398515	-0.999451	-87.062785
52484		-9.632009	-0.990822	-87.728583
52485		-9.851230	-0.982504	-88.382329
52486		-10.043232	-0.980299	-89.024300
52487		-10.205655	-0.990351	-89.657883
52488		-10.341052	-1.011142	-90.282336
52489		-10.448829	-1.027499	-90.904784
52490		-10.534859	-1.031456	-91.520140
52491		-10.594869	-1.023434	-92.130246
52492		-10.615040	-1.006269	-92.738470
52493		-10.586927	-1.004615	-93.338400
52494		-10.532698	-1.017799	-93.921359
52495		-10.474032	-1.045913	-94.488715
52496		-10.421886	-1.086634	-95.043562
52497		-10.385137	-1.133695	-95.586126
52498		-10.370961	-1.170979	-96.122237
52499		-10.376774	-1.184696	-96.650186
52500		-10.409219	-1.167951	-97.168913
52501		-10.454839	-1.131531	-97.673286
52502		-10.510497	-1.099608	-98.163871
52503		-10.570656	-1.074971	-98.636366
52504		-10.648021	-1.055696	-99.090827
52505		-10.746941	-1.032462	-99.529633
52506		-10.853433	-0.986636	-99.954601
52507		-10.966247	-0.911453	-100.361916
52508		-11.065869	-0.816892	-100.740245
52509		-11.137425	-0.710357	-101.087230
52510		-11.175440	-0.611371	-101.404508
52511		-11.170733	-0.522017	-101.695612
52512		-11.140117	-0.440849	-101.972386
52513		-11.095724	-0.357042	-102.243884
52514		-11.045477	-0.274183	-102.512328
52515		-10.999723	-0.188758	-102.771319
52516		-10.950282	-0.106790	-103.017832
52517		-10.910735	-0.023402	-103.242685
52518		-10.898103	0.067276	-103.447787
52519		-10.892323	0.166765	-103.635022
52520		-10.899688	0.264408	-103.806907
52521		-10.922363	0.363849	-103.967356
52522		-10.964400	0.461418	-104.119644
52523		-11.020769	0.576376	-104.263099
52524		-11.072257	0.694386	-104.399743
52525		-11.102572	0.802682	-104.522079
52526		-11.109176	0.905915	-104.626028
52527		-11.085893	0.996165	-104.713214
52528		-11.052005	1.068907	-104.786060
52529		-11.014712	1.135040	-104.851730
52530		-10.973241	1.201903	-104.911346
52531		-10.952085	1.277544	-104.962303
52532		-10.948002	1.357044	-105.009601
52533		-10.969289	1.430862	-105.048398
52534		-11.002691	1.500423	-105.076015
52535		-11.038617	1.571103	-105.091255
52536		-11.078030	1.637893	-105.094351
52537		-11.103142	1.697675	-105.085402
52538		-11.126212	1.748420	-105.066094
52539		-11.147182	1.799376	-105.039453
52540		-11.166153	1.848005	-105.005446
52541		-11.184125	1.900637	-104.962309
52542		-11.198163	1.947702	-104.905490
52543		-11.204451	1.991390	-104.839311
52544		-11.201449	2.028186	-104.762560
52545		-11.194813	2.060180	-104.678644
52546		-11.180531	2.083474	-104.589479
52547		-11.164828	2.107971	-104.497262
52548		-11.154025	2.127346	-104.396697
52549		-11.165057	2.149810	-104.289774
52550		-11.198497	2.186317	-104.172074
52551		-11.245580	2.233737	-104.048537
52552		-11.301287	2.282487	-103.917003
52553		-11.366054	2.332304	-103.778528
52554		-11.432336	2.368966	-103.631503
52555		-11.501575	2.395670	-103.477862
52556		-11.566384	2.419371	-103.324690
52557		-11.639139	2.452903	-103.168125
52558		-11.717427	2.488538	-103.005660
52559		-11.801112	2.530195	-102.834298
52560		-11.878423	2.573614	-102.652545
52561		-11.939278	2.617564	-102.455257
52562		-11.979932	2.656389	-102.246161
52563		-12.000773	2.690436	-102.026644
52564		-11.992734	2.719043	-101.805323
52565		-11.970791	2.740723	-101.580717
52566		-11.947226	2.762296	-101.357119
52567		-11.926651	2.784983	-101.129042
52568		-11.902185	2.806334	-100.894270
52569		-11.879817	2.822443	-100.647836
52570		-11.849836	2.830779	-100.387183
52571		-11.817073	2.835109	-100.115788
52572		-11.801817	2.829775	-99.839183
52573		-11.806537	2.831684	-99.557657
52574		-11.836039	2.837287	-99.271568
52575		-11.888951	2.851914	-98.975331
52576		-11.963622	2.872007	-98.667869
52577		-12.045677	2.893308	-98.346227
52578		-12.119480	2.913096	-98.011707
52579		-12.176235	2.925653	-97.665005
52580		-12.205045	2.928957	-97.309681
52581		-12.224144	2.920594	-96.950267
52582		-12.234648	2.918692	-96.590187
52583		-12.239955	2.919391	-96.223362
52584		-12.251195	2.917312	-95.842529
52585		-12.266351	2.917741	-95.445181
52586		-12.277756	2.914937	-95.031323
52587		-12.296402	2.901346	-94.602962
52588		-12.310967	2.875686	-94.165975
52589		-12.324576	2.846962	-93.718013
52590		-12.326020	2.809895	-93.263588
52591		-12.317821	2.777464	-92.798330
52592		-12.311490	2.748531	-92.321627
52593		-12.308121	2.725998	-91.830782
52594		-12.311671	2.706666	-91.327428
52595		-12.320797	2.694145	-90.814054
52596		-12.313308	2.680746	-90.287821
52597		-12.297695	2.657245	-89.740904
52598		-12.265715	2.618594	-89.174341
52599		-12.219945	2.568925	-88.586891
52600		-12.152344	2.510593	-87.988412
52601		-12.072418	2.455204	-87.387694
52602		-11.985406	2.405205	-86.790121
52603		-11.906422	2.354082	-86.195464
52604		-11.835436	2.294381	-85.600285
52605		-11.780441	2.237469	-84.996910
52606		-11.734394	2.173686	-84.379450
52607		-11.698570	2.107183	-83.742692
52608		-11.666630	2.035344	-83.089150
52609		-11.643217	1.961949	-82.424093
52610		-11.633650	1.877682	-81.757282
52611		-11.638732	1.790378	-81.088577
52612		-11.661072	1.700403	-80.417526
52613		-11.688544	1.611145	-79.743699
52614		-11.704400	1.515506	-79.067036
52615		-11.700282	1.414759	-78.387319
52616		-11.680440	1.313157	-77.704269
52617		-11.645040	1.208917	-77.011848
52618		-11.593801	1.095775	-76.308170
52619		-11.540257	0.982158	-75.594068
52620		-11.477667	0.866690	-74.874942
52621		-11.425441	0.743283	-74.153181
52622		-11.374470	0.611793	-73.422012
52623		-11.323606	0.486041	-72.681953
52624		-11.274192	0.365801	-71.928850
52625		-11.232737	0.258936	-71.163175
52626		-11.179925	0.162180	-70.383241
52627		-11.113803	0.070081	-69.595766
52628		-11.019144	-0.027836	-68.805335
52629		-10.924329	-0.134127	-68.009590
52630		-10.822334	-0.251250	-67.206173
52631		-10.721690	-0.366634	-66.394328
52632		-10.623620	-0.469366	-65.576994
52633		-10.538657	-0.551986	-64.754152
52634		-10.452001	-0.616591	-63.919826
52635		-10.366175	-0.651081	-63.072908
52636		-10.268813	-0.649531	-62.221400
52637		-10.135861	-0.624904	-61.364577
52638		-9.955914	-0.591138	-60.505119
52639		-9.731938	-0.567889	-59.637249
52640		-9.478316	-0.573745	-58.760223
52641		-9.207552	-0.612996	-57.873689
52642		-8.934321	-0.663526	-56.981834
52643		-8.691828	-0.700914	-56.086445
52644		-8.472159	-0.717189	-55.193317
52645		-8.279483	-0.719020	-54.302155
52646		-8.112105	-0.720619	-53.414373
52647		-7.980655	-0.716952	-52.526984
52648		-7.868970	-0.710020	-51.633776
52649		-7.793570	-0.698496	-50.735103
52650		-7.747189	-0.687041	-49.833713
52651		-7.723891	-0.686831	-48.930031
52652		-7.727709	-0.704379	-48.028876
52653		-7.763063	-0.729623	-47.136434
52654		-7.819019	-0.758944	-46.254794
52655		-7.893961	-0.773972	-45.384580
52656		-7.977021	-0.777692	-44.524752
52657		-8.051018	-0.778279	-43.676585
52658		-8.111372	-0.782429	-42.842401
52659		-8.175910	-0.801794	-42.024177
52660		-8.230042	-0.833292	-41.223479
52661		-8.306331	-0.886360	-40.435481
52662		-8.400492	-0.960355	-39.660910
52663		-8.519434	-1.038747	-38.892482
52664		-8.661419	-1.120878	-38.134062
52665		-8.823820	-1.207770	-37.387641
52666		-8.995272	-1.305886	-36.656878
52667		-9.169414	-1.412388	-35.940686
52668		-9.348741	-1.511656	-35.241705
52669		-9.510626	-1.593604	-34.559097
52670		-9.659026	-1.684509	-33.883119
52671		-9.800151	-1.794963	-33.208405
52672		-9.922088	-1.916773	-32.533246
52673		-10.045068	-2.033166	-31.853441
52674		-10.174063	-2.136596	-31.174820
52675		-10.303036	-2.227968	-30.504161
52676		-10.417769	-2.314367	-29.849143
52677		-10.531786	-2.414726	-29.210494
52678		-10.651460	-2.520755	-28.578116
52679		-10.780078	-2.618079	-27.950667
52680		-10.928673	-2.703135	-27.325796
52681		-11.092087	-2.772875	-26.708169
52682		-11.243752	-2.835064	-26.098135
52683		-11.376444	-2.890874	-25.499080
52684		-11.496341	-2.942113	-24.910783
52685		-11.601997	-2.985250	-24.336731
52686		-11.668869	-3.021757	-23.782213
52687		-11.696551	-3.055597	-23.239331
52688		-11.685485	-3.089311	-22.707441
52689		-11.631868	-3.129989	-22.184004
52690		-11.534309	-3.166541	-21.666108
52691		-11.398595	-3.196020	-21.157470
52692		-11.217698	-3.233787	-20.659887
52693		-11.003060	-3.289530	-20.174263
52694		-10.780880	-3.352264	-19.703218
52695		-10.545870	-3.409688	-19.246560
52696		-10.304132	-3.463287	-18.801605
52697		-10.046838	-3.515993	-18.365880
52698		-9.783920	-3.574796	-17.940196
52699		-9.540365	-3.637917	-17.527816
52700		-9.322471	-3.699039	-17.128031
52701		-9.147270	-3.762471	-16.740082
52702		-9.024627	-3.823652	-16.363342
52703		-8.943264	-3.876723	-15.992498
52704		-8.891339	-3.915740	-15.631428
52705		-8.880317	-3.943277	-15.281279
52706		-8.895386	-3.955006	-14.946947
52707		-8.926369	-3.950082	-14.629218
52708		-8.956289	-3.943093	-14.326248
52709		-9.003307	-3.950982	-14.038750
52710		-9.059901	-3.976177	-13.765698
52711		-9.114814	-3.998838	-13.509515
52712		-9.180573	-4.008312	-13.273586
52713		-9.242711	-4.008182	-13.057122
52714		-9.304236	-3.996512	-12.866122
52715		-9.365375	-3.965875	-12.696065
52716		-9.407023	-3.920299	-12.553354
52717		-9.438345	-3.868898	-12.431568
52718		-9.466342	-3.829930	-12.331263
52719		-9.511821	-3.798560	-12.246014
52720		-9.580520	-3.774900	-12.169990
52721		-9.657085	-3.746845	-12.097099
52722		-9.718526	-3.709727	-12.030283
52723		-9.752938	-3.676126	-11.967930
52724		-9.758930	-3.646587	-11.915003
52725		-9.739653	-3.626785	-11.874721
52726		-9.694261	-3.612716	-11.849938
52727		-9.620346	-3.605401	-11.843608
52728		-9.532246	-3.595852	-11.855781
52729		-9.431952	-3.585246	-11.878850
52730		-9.315933	-3.583626	-11.905974
52731		-9.204674	-3.588721	-11.927717
52732		-9.120469	-3.596755	-11.944042
52733		-9.051421	-3.597829	-11.960169
52734		-8.998446	-3.595640	-11.977083
52735		-8.967434	-3.594164	-12.000360
52736		-8.959916	-3.591330	-12.029001
52737		-8.967675	-3.587047	-12.057848
52738		-8.996510	-3.586263	-12.083676
52739		-9.039548	-3.587296	-12.104339
52740		-9.088658	-3.584889	-12.118694
52741		-9.143842	-3.576240	-12.127254
52742		-9.200943	-3.572805	-12.127849
52743		-9.251311	-3.578817	-12.125440
52744		-9.306292	-3.592444	-12.126129
52745		-9.369631	-3.609784	-12.136381
52746		-9.447517	-3.622491	-12.154878
52747		-9.530006	-3.627637	-12.179708
52748		-9.610870	-3.627503	-12.206364
52749		-9.680405	-3.623348	-12.230147
52750		-9.721697	-3.625853	-12.246921
52751		-9.731634	-3.634652	-12.263434
52752		-9.715121	-3.649975	-12.276851
52753		-9.684566	-3.671173	-12.289536
52754		-9.651593	-3.695419	-12.305664
52755		-9.612907	-3.719728	-12.327861
52756		-9.578577	-3.748249	-12.353150
52757		-9.552136	-3.774757	-12.381850
52758		-9.528510	-3.798339	-12.411467
52759		-9.518476	-3.825276	-12.440575
52760		-9.518811	-3.846761	-12.468522
52761		-9.524495	-3.867373	-12.498098
52762		-9.543486	-3.888574	-12.526269
52763		-9.588921	-3.904581	-12.552645
52764		-9.642177	-3.906790	-12.584269
52765		-9.689306	-3.905841	-12.618722
52766		-9.744806	-3.907509	-12.654807
52767		-9.784327	-3.913685	-12.697865
52768		-9.820075	-3.922725	-12.746901
52769		-9.842310	-3.930879	-12.807418
52770		-9.854752	-3.931931	-12.874802
52771		-9.866805	-3.925690	-12.949287
52772		-9.886015	-3.912441	-13.028258
52773		-9.911035	-3.890396	-13.110018
52774		-9.943031	-3.866727	-13.195461
52775		-9.975142	-3.840242	-13.286374
52776		-10.016221	-3.808192	-13.385500
52777		-10.054873	-3.775802	-13.496039
52778		-10.096590	-3.749194	-13.616641
52779		-10.127775	-3.727701	-13.748377
52780		-10.156306	-3.707872	-13.885945
52781		-10.191083	-3.692145	-14.029202
52782		-10.234064	-3.671298	-14.185670
52783		-10.265168	-3.644297	-14.358417
52784		-10.304890	-3.614067	-14.546590
52785		-10.355596	-3.577270	-14.751702
52786		-10.416477	-3.527115	-14.974882
52787		-10.481429	-3.468565	-15.211612
52788		-10.545238	-3.407184	-15.463956
52789		-10.600539	-3.344375	-15.734411
52790		-10.652318	-3.284726	-16.019712
52791		-10.695734	-3.231119	-16.315650
52792		-10.736616	-3.180889	-16.623976
52793		-10.761972	-3.133150	-16.946442
52794		-10.784893	-3.085307	-17.281233
52795		-10.797758	-3.030527	-17.626398
52796		-10.807398	-2.965770	-17.985505
52797		-10.798948	-2.892759	-18.363786
52798		-10.779013	-2.822327	-18.756255
52799		-10.751275	-2.757211	-19.159688
52800		-10.725486	-2.698830	-19.571742
52801		-10.707261	-2.645559	-19.993382
52802		-10.695111	-2.593790	-20.426424
52803		-10.685177	-2.539501	-20.878099
52804		-10.678498	-2.486828	-21.351060
52805		-10.661187	-2.439582	-21.848077
52806		-10.641418	-2.399275	-22.360855
52807		-10.612275	-2.361643	-22.884352
52808		-10.576452	-2.323214	-23.414815
52809		-10.534407	-2.283647	-23.950192
52810		-10.495258	-2.244585	-24.495287
52811		-10.459640	-2.209631	-25.052483
52812		-10.442363	-2.170322	-25.626713
52813		-10.435790	-2.123897	-26.218226
52814		-10.438118	-2.070530	-26.823129
52815		-10.442688	-2.016322	-27.439357
52816		-10.447426	-1.959393	-28.067489
52817		-10.438355	-1.901448	-28.707752
52818		-10.417294	-1.841121	-29.356410
52819		-10.401233	-1.776006	-30.015057
52820		-10.379715	-1.705947	-30.685737
52821		-10.348083	-1.635751	-31.365647
52822		-10.316922	-1.567801	-32.047602
52823		-10.278157	-1.492541	-32.733585
52824		-10.239782	-1.411595	-33.425783
52825		-10.207601	-1.333571	-34.126678
52826		-10.176398	-1.255729	-34.842443
52827		-10.138554	-1.172675	-35.578491
52828		-10.098559	-1.090922	-36.328341
52829		-10.047398	-1.004905	-37.094594
52830		-9.984596	-0.926198	-37.873902
52831		-9.902207	-0.851550	-38.662197
52832		-9.799353	-0.775520	-39.458408
52833		-9.672677	-0.694780	-40.259778
52834		-9.521935	-0.611216	-41.065166
52835		-9.343860	-0.525709	-41.871754
52836		-9.165525	-0.455554	-42.676751
52837		-8.979516	-0.404860	-43.483433
52838		-8.792592	-0.366830	-44.287313
52839		-8.607213	-0.339866	-45.091287
52840		-8.434152	-0.320812	-45.897552
52841		-8.264334	-0.308326	-46.704705
52842		-8.095057	-0.311903	-47.506912
52843		-7.942923	-0.322463	-48.303241
52844		-7.806903	-0.324091	-49.092157
52845		-7.682764	-0.323718	-49.876815
52846		-7.580071	-0.324866	-50.653753
52847		-7.485543	-0.331484	-51.427815
52848		-7.402841	-0.339147	-52.203868
52849		-7.326685	-0.340715	-52.988807
52850		-7.268076	-0.336752	-53.788704
52851		-7.227641	-0.334038	-54.599751
52852		-7.210828	-0.331010	-55.416392
52853		-7.200275	-0.331371	-56.227191
52854		-7.185795	-0.334608	-57.026811
52855		-7.164262	-0.344923	-57.816558
52856		-7.152781	-0.356083	-58.599690
52857		-7.158395	-0.369529	-59.384585
52858		-7.184935	-0.383954	-60.177532
52859		-7.217806	-0.390133	-60.977887
52860		-7.271784	-0.397816	-61.776361
52861		-7.332057	-0.409269	-62.566416
52862		-7.394856	-0.426903	-63.338577
52863		-7.456303	-0.442862	-64.096130
52864		-7.519127	-0.452945	-64.845744
52865		-7.578864	-0.463683	-65.597350
52866		-7.653508	-0.466909	-66.356686
52867		-7.728498	-0.458363	-67.120013
52868		-7.805534	-0.445167	-67.878087
52869		-7.863675	-0.420992	-68.630224
52870		-7.893912	-0.398113	-69.370419
52871		-7.893568	-0.385871	-70.097009
52872		-7.876493	-0.384642	-70.810939
52873		-7.837044	-0.389929	-71.513448
52874		-7.794273	-0.397710	-72.203488
52875		-7.768721	-0.393246	-72.881625
52876		-7.775283	-0.371483	-73.554154
52877		-7.790616	-0.328402	-74.224784
52878		-7.811345	-0.277138	-74.893802
52879		-7.838591	-0.231980	-75.563757
52880		-7.857568	-0.186631	-76.233049
52881		-7.859665	-0.136408	-76.898644
52882		-7.845373	-0.083953	-77.550097
52883		-7.817811	-0.030682	-78.188645
52884		-7.785334	0.017795	-78.814445
52885		-7.749441	0.065985	-79.431677
52886		-7.723555	0.107379	-80.039652
52887		-7.716043	0.156119	-80.640848
52888		-7.723087	0.217172	-81.236233
52889		-7.736623	0.289750	-81.825244
52890		-7.743052	0.364498	-82.411029
52891		-7.730193	0.439648	-82.989427
52892		-7.705415	0.515915	-83.560317
52893		-7.668725	0.596284	-84.119847
52894		-7.617933	0.679455	-84.670391
52895		-7.538874	0.756059	-85.208856
52896		-7.442373	0.823942	-85.739470
52897		-7.334440	0.891869	-86.265895
52898		-7.215733	0.960479	-86.792331
52899		-7.102356	1.040863	-87.313686
52900		-7.006908	1.125694	-87.830216
52901		-6.915072	1.208065	-88.339183
52902		-6.834922	1.293283	-88.837585
52903		-6.751889	1.380433	-89.331123
52904		-6.663769	1.451306	-89.821295
52905		-6.585337	1.497818	-90.309083
52906		-6.529288	1.524630	-90.795155
52907		-6.501728	1.554726	-91.279346
52908		-6.508621	1.596247	-91.759850
52909		-6.538915	1.645444	-92.234492
52910		-6.600320	1.692848	-92.709057
52911		-6.678770	1.732581	-93.184417
52912		-6.763112	1.760235	-93.655107
52913		-6.867202	1.782269	-94.120129
52914		-6.986456	1.796901	-94.575336
52915		-7.117930	1.811771	-95.020845
52916		-7.252057	1.822303	-95.458245
52917		-7.387239	1.836803	-95.890285
52918		-7.514423	1.846319	-96.319665
52919		-7.639608	1.855164	-96.746344
52920		-7.757357	1.873941	-97.169655
52921		-7.851995	1.900266	-97.583866
52922		-7.925826	1.921739	-97.987952
52923		-7.982531	1.940375	-98.378443
52924		-8.019028	1.953983	-98.757133
52925		-8.028772	1.954513	-99.122901
52926		-8.024103	1.943702	-99.478116
52927		-8.015656	1.928276	-99.822323
52928		-8.011527	1.923447	-100.154312
52929		-8.008841	1.927310	-100.475665
52930		-8.003993	1.937766	-100.784800
52931		-7.999878	1.957943	-101.084794
52932		-7.993334	1.990039	-101.377194
52933		-7.976943	2.025961	-101.659353
52934		-7.951782	2.056834	-101.934152
52935		-7.932416	2.093789	-102.198431
52936		-7.925392	2.146968	-102.448682
52937		-7.912125	2.204941	-102.680801
52938		-7.881232	2.241437	-102.896082
52939		-7.848898	2.270307	-103.094445
52940		-7.828839	2.314015	-103.273984
52941		-7.812282	2.366495	-103.438996
52942		-7.797502	2.414219	-103.586581
52943		-7.783498	2.458860	-103.719083
52944		-7.780263	2.508545	-103.841499
52945		-7.784246	2.564959	-103.955842
52946		-7.783357	2.618303	-104.063279
52947		-7.778560	2.666320	-104.159867
52948		-7.768819	2.715046	-104.242180
52949		-7.755511	2.766763	-104.305940
52950		-7.753669	2.819335	-104.351348
52951		-7.776969	2.886017	-104.382758
52952		-7.807762	2.958170	-104.404916
52953		-7.837988	3.026148	-104.420848
52954		-7.861969	3.100429	-104.431545
52955		-7.875372	3.170098	-104.437605
52956		-7.881137	3.233912	-104.435474
52957		-7.881791	3.285139	-104.423046
52958		-7.872318	3.327441	-104.403905
52959		-7.864456	3.374758	-104.376670
52960		-7.862730	3.433336	-104.341844
52961		-7.866837	3.494109	-104.296545
52962		-7.881116	3.551355	-104.241076
52963		-7.916067	3.605479	-104.181656
52964		-7.952413	3.664120	-104.112670
52965		-7.984699	3.742280	-104.030914
52966		-8.012788	3.848797	-103.939344
52967		-8.025890	3.983521	-103.838338
52968		-8.027663	4.157392	-103.737105
52969		-8.041186	4.362663	-103.634043
52970		-8.071902	4.561755	-103.522272
52971		-8.112511	4.729519	-103.393410
52972		-8.128817	4.850470	-103.237405
52973		-8.119742	4.940180	-103.061857
52974		-8.080517	5.010917	-102.871645
52975		-8.041030	5.068127	-102.668007
52976		-8.000898	5.110494	-102.449037
52977		-7.984351	5.149930	-102.212252
52978		-7.991093	5.189243	-101.954338
52979		-8.022019	5.231204	-101.678123
52980		-8.056415	5.256590	-101.376801
52981		-8.085811	5.256244	-101.052753
52982		-8.116690	5.243470	-100.710350
52983		-8.152529	5.217997	-100.353106
52984		-8.196247	5.192463	-99.989144
52985		-8.253834	5.182033	-99.615434
52986		-8.317874	5.182768	-99.228817
52987		-8.385443	5.194405	-98.826565
52988		-8.446336	5.212842	-98.402457
52989		-8.491633	5.229796	-97.959562
52990		-8.507877	5.235571	-97.485767
52991		-8.502915	5.228805	-96.978917
52992		-8.473035	5.209297	-96.441487
52993		-8.422891	5.178588	-95.878956
52994		-8.356345	5.139307	-95.294728
52995		-8.290784	5.090447	-94.694754
52996		-8.213618	5.044017	-94.079689
52997		-8.135334	4.997595	-93.452183
52998		-8.050535	4.944868	-92.811515
52999		-7.970813	4.888317	-92.152169
53000		-7.898652	4.830266	-91.471009
53001		-7.843705	4.776460	-90.766431
53002		-7.786400	4.717878	-90.037460
53003		-7.728228	4.651323	-89.286771
53004		-7.664752	4.578900	-88.519305
53005		-7.602755	4.512984	-87.742356
53006		-7.529740	4.444774	-86.954822
53007		-7.461627	4.370249	-86.156855
53008		-7.408034	4.293097	-85.345772
53009		-7.368966	4.222572	-84.522763
53010		-7.347566	4.158284	-83.694144
53011		-7.346328	4.103200	-82.857102
53012		-7.363456	4.043544	-82.021961
53013		-7.403442	3.971603	-81.188187
53014		-7.457737	3.889893	-80.359332
53015		-7.541379	3.805521	-79.541291
53016		-7.648224	3.708250	-78.734728
53017		-7.781610	3.599136	-77.940281
53018		-7.937254	3.483080	-77.162375
53019		-8.127698	3.375151	-76.401504
53020		-8.357085	3.270044	-75.655434
53021		-8.625022	3.165648	-74.920669
53022		-8.914966	3.055006	-74.183480
53023		-9.218469	2.938083	-73.436259
53024		-9.512670	2.813293	-72.671334
53025		-9.787329	2.690778	-71.885289
53026		-10.019008	2.562706	-71.077760
53027		-10.196838	2.428043	-70.251434
53028		-10.326294	2.275677	-69.417274
53029		-10.417039	2.116906	-68.578531
53030		-10.474931	1.951478	-67.740250
53031		-10.495178	1.776859	-66.895317
53032		-10.471422	1.599275	-66.041961
53033		-10.417743	1.429675	-65.177124
53034		-10.331500	1.269950	-64.299922
53035		-10.220946	1.119079	-63.404882
53036		-10.098251	0.975757	-62.487908
53037		-9.986808	0.849512	-61.547866
53038		-9.851887	0.719650	-60.598017
53039		-9.685408	0.575121	-59.644498
53040		-9.511198	0.422998	-58.694096
53041		-9.365593	0.273098	-57.746310
53042		-9.236528	0.119247	-56.800169
53043		-9.132412	-0.032936	-55.852450
53044		-9.045324	-0.161591	-54.896496
53045		-8.990881	-0.260747	-53.936628
53046		-8.944417	-0.332307	-52.971614
53047		-8.895174	-0.395241	-52.003041
53048		-8.838121	-0.472471	-51.039585
53049		-8.780534	-0.574694	-50.089221
53050		-8.754896	-0.702287	-49.154450
53051		-8.786651	-0.838061	-48.226025
53052		-8.872683	-0.955307	-47.306291
53053		-9.007337	-1.032114	-46.389555
53054		-9.163277	-1.076437	-45.467441
53055		-9.321762	-1.105540	-44.531610
53056		-9.456938	-1.131202	-43.581143
53057		-9.557394	-1.165507	-42.614892
53058		-9.634448	-1.226873	-41.634378
53059		-9.684292	-1.314694	-40.647227
53060		-9.715543	-1.415740	-39.665727
53061		-9.746904	-1.522337	-38.690633
53062		-9.774129	-1.627276	-37.729684
53063		-9.800348	-1.723900	-36.785752
53064		-9.815706	-1.813613	-35.856682
53065		-9.816904	-1.905073	-34.934282
53066		-9.808976	-2.011678	-34.013784
53067		-9.802434	-2.133717	-33.087065
53068		-9.798670	-2.252895	-32.158403
53069		-9.794786	-2.371073	-31.229401
53070		-9.785768	-2.490144	-30.310418
53071		-9.789936	-2.605515	-29.405444
53072		-9.792056	-2.718458	-28.515879
53073		-9.797568	-2.838996	-27.640403
53074		-9.809868	-2.967802	-26.779075
53075		-9.840870	-3.096114	-25.926262
53076		-9.884073	-3.206593	-25.078216
53077		-9.921565	-3.288200	-24.231769
53078		-9.938303	-3.370815	-23.385085
53079		-9.926501	-3.470305	-22.543114
53080		-9.899482	-3.591170	-21.713465
53081		-9.881377	-3.730132	-20.903236
53082		-9.887636	-3.870138	-20.120515
53083		-9.916347	-3.994091	-19.363686
53084		-9.949997	-4.087752	-18.625238
53085		-9.978496	-4.168128	-17.896132
53086		-9.989850	-4.260632	-17.167859
53087		-9.991813	-4.365567	-16.447019
53088		-10.010569	-4.476541	-15.735074
53089		-10.047063	-4.587632	-15.035014
53090		-10.091594	-4.689026	-14.348157
53091		-10.153744	-4.776052	-13.686211
53092		-10.221400	-4.844948	-13.057647
53093		-10.290060	-4.908466	-12.461589
53094		-10.363247	-4.973013	-11.894380
53095		-10.438384	-5.037598	-11.346297
53096		-10.509794	-5.111488	-10.809856
53097		-10.571500	-5.199308	-10.281079
53098		-10.619523	-5.283909	-9.772478
53099		-10.658049	-5.354677	-9.290997
53100		-10.690462	-5.401151	-8.843438
53101		-10.722520	-5.432590	-8.430448
53102		-10.741111	-5.465628	-8.042057
53103		-10.745102	-5.524680	-7.676631
53104		-10.747591	-5.600186	-7.337526
53105		-10.759540	-5.676396	-7.024719
53106		-10.794397	-5.734186	-6.736301
53107		-10.843067	-5.777299	-6.468147
53108		-10.903319	-5.805341	-6.210112
53109		-10.955800	-5.826410	-5.971046
53110		-10.992967	-5.848802	-5.748381
53111		-11.012812	-5.872935	-5.543414
53112		-11.016779	-5.890426	-5.359822
53113		-11.016485	-5.894515	-5.198730
53114		-11.035579	-5.898529	-5.046531
53115		-11.071987	-5.914668	-4.897800
53116		-11.100953	-5.948404	-4.750181
53117		-11.120097	-5.987596	-4.612390
53118		-11.117997	-6.019088	-4.491324
53119		-11.093430	-6.038954	-4.391800
53120		-11.060143	-6.049871	-4.306414
53121		-11.019808	-6.062545	-4.226278
53122		-10.975662	-6.084884	-4.149779
53123		-10.915644	-6.123850	-4.076663
53124		-10.841023	-6.169814	-4.011094
53125		-10.781238	-6.200763	-3.959802
53126		-10.734221	-6.222872	-3.917154
53127		-10.701614	-6.244428	-3.875984
53128		-10.682857	-6.268765	-3.835124
53129		-10.667367	-6.297912	-3.789194
53130		-10.645342	-6.322873	-3.741761
53131		-10.626373	-6.338386	-3.703549
53132		-10.608512	-6.344051	-3.671274
53133		-10.602129	-6.345194	-3.648989
53134		-10.605794	-6.346392	-3.634388
53135		-10.620820	-6.350347	-3.627984
53136		-10.648475	-6.363203	-3.625396
53137		-10.676821	-6.381096	-3.626731
53138		-10.701655	-6.388809	-3.629500
53139		-10.724500	-6.381326	-3.633375
53140		-10.736859	-6.373300	-3.634928
53141		-10.733544	-6.369148	-3.633284
53142		-10.718587	-6.368886	-3.635049
53143		-10.710887	-6.369503	-3.643818
53144		-10.704930	-6.371541	-3.660402
53145		-10.704881	-6.375604	-3.681759
53146		-10.713188	-6.378733	-3.703774
53147		-10.709660	-6.383312	-3.726578
53148		-10.693334	-6.373988	-3.748902
53149		-10.650289	-6.357220	-3.769429
53150		-10.592320	-6.335566	-3.792899
53151		-10.520688	-6.316564	-3.819714
53152		-10.442159	-6.309430	-3.850508
53153		-10.369277	-6.309294	-3.882740
53154		-10.315239	-6.304197	-3.912975
53155		-10.266937	-6.287640	-3.945584
53156		-10.235854	-6.261354	-3.975674
53157		-10.216407	-6.233171	-4.006028
53158		-10.196091	-6.202905	-4.042572
53159		-10.176809	-6.168637	-4.087007
53160		-10.152007	-6.132219	-4.139035
53161		-10.121372	-6.095607	-4.198028
53162		-10.094257	-6.059247	-4.262283
53163		-10.078887	-6.029360	-4.323439
53164		-10.062601	-6.004836	-4.371837
53165		-10.049435	-5.982013	-4.413080
53166		-10.045071	-5.958490	-4.456110
53167		-10.062788	-5.926510	-4.506510
53168		-10.096042	-5.883998	-4.564629
53169		-10.146348	-5.835930	-4.632565
53170		-10.223812	-5.782210	-4.704470
53171		-10.310773	-5.727405	-4.775607
53172		-10.397716	-5.670883	-4.849362
53173		-10.476280	-5.615274	-4.922496
53174		-10.541579	-5.562494	-4.995284
53175		-10.588583	-5.512135	-5.072760
53176		-10.626454	-5.452433	-5.157350
53177		-10.649738	-5.385178	-5.254581
53178		-10.669795	-5.315497	-5.369818
53179		-10.694229	-5.250267	-5.511355
53180		-10.734981	-5.189519	-5.673999
53181		-10.778317	-5.132827	-5.850548
53182		-10.814682	-5.082661	-6.030687
53183		-10.835395	-5.026444	-6.211028
53184		-10.851001	-4.961998	-6.390034
53185		-10.853932	-4.898241	-6.574063
53186		-10.855362	-4.837797	-6.765809
53187		-10.884650	-4.770809	-6.968515
53188		-10.948491	-4.689109	-7.194763
53189		-11.028831	-4.602172	-7.437409
53190		-11.110345	-4.522874	-7.690751
53191		-11.173706	-4.453376	-7.943247
53192		-11.223474	-4.389588	-8.192980
53193		-11.262854	-4.332175	-8.448378
53194		-11.298207	-4.274323	-8.718642
53195		-11.342137	-4.212222	-9.007119
53196		-11.403346	-4.147404	-9.315386
53197		-11.459070	-4.080474	-9.642071
53198		-11.497091	-4.014678	-9.981130
53199		-11.507806	-3.953759	-10.330288
53200		-11.508242	-3.897512	-10.684017
53201		-11.502093	-3.855174	-11.041431
53202		-11.485610	-3.818001	-11.407233
53203		-11.450914	-3.770732	-11.785984
53204		-11.412979	-3.711566	-12.184114
53205		-11.376254	-3.651535	-12.601444
53206		-11.333187	-3.597437	-13.035307
53207		-11.283745	-3.553928	-13.480545
53208		-11.232538	-3.517541	-13.934879
53209		-11.175027	-3.485941	-14.402287
53210		-11.129151	-3.449348	-14.878454
53211		-11.097229	-3.410010	-15.371130
53212		-11.082997	-3.366615	-15.877441
53213		-11.078151	-3.324567	-16.395408
53214		-11.081919	-3.290646	-16.916966
53215		-11.082405	-3.264396	-17.438613
53216		-11.077368	-3.241877	-17.958357
53217		-11.076680	-3.215802	-18.484783
53218		-11.064565	-3.185961	-19.029755
53219		-11.032063	-3.151775	-19.593353
53220		-10.976997	-3.116373	-20.179268
53221		-10.897412	-3.088462	-20.782085
53222		-10.799751	-3.061430	-21.399522
53223		-10.691000	-3.032895	-22.024548
53224		-10.568318	-3.006683	-22.646309
53225		-10.429951	-2.989889	-23.264847
53226		-10.294345	-2.974325	-23.888603
53227		-10.160892	-2.954257	-24.527396
53228		-10.046144	-2.918883	-25.191859
53229		-9.946058	-2.882301	-25.869420
53230		-9.872061	-2.857771	-26.546017
53231		-9.809723	-2.836273	-27.220701
53232		-9.730136	-2.808428	-27.889438
53233		-9.623502	-2.777660	-28.558671
53234		-9.526793	-2.743147	-29.234534
53235		-9.414560	-2.711134	-29.919532
53236		-9.296153	-2.678449	-30.611218
53237		-9.167268	-2.647295	-31.306207
53238		-9.035993	-2.609528	-32.001821
53239		-8.895941	-2.562223	-32.705435
53240		-8.754471	-2.508821	-33.422723
53241		-8.611393	-2.457885	-34.153445
53242		-8.472120	-2.410849	-34.891792
53243		-8.335934	-2.371426	-35.628494
53244		-8.202416	-2.327728	-36.357591
53245		-8.091507	-2.275919	-37.071260
53246		-7.989030	-2.217975	-37.775809
53247		-7.892450	-2.161281	-38.480976
53248		-7.819969	-2.106150	-39.187385
53249		-7.752285	-2.043895	-39.898463
53250		-7.674958	-1.975927	-40.616450
53251		-7.576031	-1.906098	-41.341570
53252		-7.467592	-1.835616	-42.073628
53253		-7.344623	-1.767321	-42.807886
53254		-7.230764	-1.714335	-43.537869
53255		-7.120687	-1.676944	-44.250701
53256		-7.029990	-1.639461	-44.947352
53257		-6.955667	-1.586744	-45.637522
53258		-6.887097	-1.522005	-46.328373
53259		-6.821135	-1.455784	-47.036081
53260		-6.771849	-1.384238	-47.761454
53261		-6.731055	-1.311737	-48.497795
53262		-6.708449	-1.231836	-49.235671
53263		-6.695025	-1.148335	-49.963049
53264		-6.677895	-1.064726	-50.674309
53265		-6.643961	-0.984318	-51.370368
53266		-6.609288	-0.902693	-52.059198
53267		-6.553908	-0.826064	-52.750154
53268		-6.486944	-0.759803	-53.441624
53269		-6.423191	-0.691508	-54.132267
53270		-6.372684	-0.615759	-54.829184
53271		-6.313471	-0.531223	-55.531210
53272		-6.250428	-0.450845	-56.237426
53273		-6.195372	-0.380125	-56.942355
53274		-6.149583	-0.313977	-57.635876
53275		-6.107738	-0.245403	-58.311580
53276		-6.069129	-0.179515	-58.972480
53277		-6.026330	-0.126418	-59.629031
53278		-5.999907	-0.091835	-60.294849
53279		-5.991516	-0.073406	-60.975240
53280		-6.037790	-0.065215	-61.666366
53281		-6.154399	-0.049089	-62.363874
53282		-6.351182	-0.011671	-63.062676
53283		-6.622839	0.058818	-63.759676
53284		-6.929767	0.153027	-64.447736
53285		-7.248808	0.242512	-65.125845
53286		-7.570763	0.313254	-65.783633
53287		-7.868207	0.368313	-66.424281
53288		-8.153542	0.417129	-67.054566
53289		-8.414229	0.469640	-67.682841
53290		-8.639705	0.533251	-68.318316
53291		-8.818828	0.611253	-68.964400
53292		-8.949347	0.690494	-69.616459
53293		-9.010810	0.766940	-70.268898
53294		-9.003312	0.826049	-70.916155
53295		-8.938295	0.876631	-71.557961
53296		-8.822490	0.927600	-72.191003
53297		-8.680488	0.967900	-72.814841
53298		-8.534004	1.000659	-73.431779
53299		-8.373441	1.026056	-74.052042
53300		-8.199615	1.044271	-74.673915
53301		-8.031148	1.064684	-75.297856
53302		-7.872487	1.092523	-75.920968
53303		-7.709904	1.128505	-76.544809
53304		-7.553594	1.163522	-77.164644
53305		-7.419671	1.196859	-77.777663
53306		-7.316374	1.226249	-78.376952
53307		-7.234302	1.260291	-78.961373
53308		-7.191915	1.290247	-79.533746
53309		-7.169694	1.322603	-80.097071
53310		-7.172531	1.345609	-80.654782
53311		-7.196913	1.359336	-81.207159
53312		-7.260495	1.373131	-81.752953
53313		-7.351764	1.398398	-82.295408
53314		-7.456267	1.428070	-82.833471
53315		-7.572844	1.457439	-83.364839
53316		-7.695613	1.493405	-83.889734
53317		-7.827310	1.538139	-84.408721
53318		-7.952286	1.591229	-84.921061
53319		-8.075090	1.636562	-85.427612
53320		-8.190935	1.674930	-85.927821
53321		-8.305436	1.719060	-86.422204
53322		-8.410876	1.776042	-86.912178
53323		-8.503161	1.845820	-87.397206
53324		-8.562630	1.918839	-87.870847
53325		-8.562532	1.984760	-88.330568
53326		-8.522078	2.035963	-88.777796
53327		-8.443727	2.071949	-89.209977
53328		-8.335478	2.097686	-89.631415
53329		-8.208509	2.134689	-90.046815
53330		-8.073526	2.189264	-90.458240
53331		-7.928332	2.256512	-90.865750
53332		-7.774645	2.322000	-91.259008
53333		-7.631145	2.389040	-91.632425
53334		-7.496760	2.462308	-91.988096
53335		-7.376039	2.532401	-92.324167
53336		-7.281430	2.602433	-92.640853
53337		-7.224419	2.684732	-92.940461
53338		-7.197066	2.781274	-93.227071
53339		-7.195671	2.884353	-93.506817
53340		-7.207781	2.996822	-93.778180
53341		-7.220698	3.108396	-94.035541
53342		-7.234740	3.224813	-94.280346
53343		-7.247394	3.344816	-94.511100
53344		-7.243225	3.465863	-94.729908
53345		-7.225225	3.579637	-94.937478
53346		-7.201387	3.682337	-95.134118
53347		-7.166877	3.773663	-95.320925
53348		-7.126980	3.859542	-95.496752
53349		-7.107856	3.949735	-95.653155
53350		-7.089490	4.048509	-95.800195
53351		-7.068144	4.154156	-95.938988
53352		-7.053430	4.250314	-96.070268
53353		-7.041229	4.327370	-96.198137
53354		-7.034414	4.391870	-96.321490
53355		-7.036215	4.460699	-96.440118
53356		-7.043320	4.536272	-96.550171
53357		-7.070055	4.617186	-96.652264
53358		-7.118022	4.695934	-96.747148
53359		-7.170747	4.773797	-96.840720
53360		-7.221523	4.843178	-96.929732
53361		-7.269498	4.905317	-97.012647
53362		-7.323360	4.966091	-97.091556
53363		-7.377850	5.032153	-97.161494
53364		-7.438856	5.101080	-97.220636
53365		-7.483981	5.166180	-97.269592
53366		-7.524696	5.228516	-97.307422
53367		-7.576425	5.285854	-97.335958
53368		-7.622868	5.343316	-97.364065
53369		-7.662822	5.391779	-97.395389
53370		-7.713853	5.436986	-97.424307
53371		-7.770332	5.490025	-97.457375
53372		-7.824098	5.543103	-97.483196
53373		-7.874736	5.591888	-97.499758
53374		-7.929688	5.637057	-97.507642
53375		-7.975598	5.688188	-97.504754
53376		-8.011886	5.743773	-97.491808
53377		-8.048154	5.799190	-97.468588
53378		-8.079726	5.846352	-97.438234
53379		-8.119849	5.884485	-97.403010
53380		-8.159591	5.922575	-97.363617
53381		-8.196298	5.957933	-97.315699
53382		-8.205026	5.990015	-97.258096
53383		-8.195840	6.015798	-97.188723
53384		-8.185067	6.039268	-97.110485
53385		-8.175905	6.064065	-97.021647
53386		-8.180010	6.080623	-96.922779
53387		-8.200852	6.099856	-96.813467
53388		-8.243466	6.114906	-96.686902
53389		-8.310615	6.124620	-96.549642
53390		-8.398343	6.137019	-96.403712
53391		-8.500368	6.150269	-96.254948
53392		-8.612394	6.158480	-96.101214
53393		-8.728830	6.164898	-95.943893
53394		-8.827336	6.158307	-95.778909
53395		-8.909294	6.132819	-95.599589
53396		-8.973399	6.098068	-95.413806
53397		-9.034067	6.055674	-95.217121
53398		-9.077297	6.012246	-95.012350
53399		-9.109847	5.961651	-94.799129
53400		-9.130548	5.909449	-94.580322
53401		-9.143995	5.859087	-94.357650
53402		-9.154072	5.803843	-94.130758
53403		-9.170029	5.738334	-93.897475
53404		-9.209101	5.669723	-93.654867
53405		-9.264039	5.607103	-93.402476
53406		-9.322610	5.545211	-93.134590
53407		-9.374688	5.479156	-92.852580
53408		-9.411545	5.406745	-92.558138
53409		-9.440178	5.326948	-92.248388
53410		-9.462300	5.238896	-91.928413
53411		-9.481630	5.151694	-91.597731
53412		-9.504350	5.070303	-91.257573
53413		-9.533407	4.997032	-90.909066
53414		-9.558739	4.926617	-90.550836
53415		-9.591827	4.853654	-90.181051
53416		-9.618632	4.776383	-89.800951
53417		-9.648051	4.695576	-89.407343
53418		-9.680854	4.611041	-88.997066
53419		-9.723784	4.527930	-88.566935
53420		-9.767023	4.441115	-88.123512
53421		-9.811466	4.354258	-87.665632
53422		-9.858548	4.264709	-87.199792
53423		-9.909785	4.182574	-86.727977
53424		-9.956201	4.103399	-86.247485
53425		-10.006675	4.028038	-85.754288
53426		-10.053466	3.954044	-85.246529
53427		-10.106250	3.876920	-84.727480
53428		-10.142532	3.795506	-84.197246
53429		-10.175045	3.715075	-83.661609
53430		-10.197264	3.628230	-83.118611
53431		-10.208640	3.537008	-82.565226
53432		-10.197464	3.440142	-82.000352
53433		-10.189780	3.343161	-81.426284
53434		-10.176075	3.254659	-80.843741
53435		-10.175009	3.171435	-80.253217
53436		-10.174138	3.089180	-79.656578
53437		-10.168589	3.003306	-79.050183
53438		-10.160111	2.905352	-78.433376
53439		-10.165214	2.803053	-77.809942
53440		-10.174455	2.698984	-77.179283
53441		-10.196879	2.599446	-76.538887
53442		-10.239353	2.507838	-75.892583
53443		-10.285240	2.420775	-75.237905
53444		-10.329185	2.333537	-74.583538
53445		-10.372270	2.246633	-73.923874
53446		-10.395302	2.162066	-73.260408
53447		-10.396236	2.068481	-72.584656
53448		-10.367843	1.964518	-71.894763
53449		-10.323685	1.857403	-71.189710
53450		-10.249478	1.754946	-70.465843
53451		-10.147231	1.655168	-69.724327
53452		-10.028955	1.557729	-68.963173
53453		-9.899574	1.462539	-68.174982
53454		-9.755549	1.370566	-67.362527
53455		-9.605066	1.284314	-66.528575
53456		-9.430662	1.196439	-65.676256
53457		-9.231758	1.103128	-64.805270
53458		-9.008234	1.002764	-63.926530
53459		-8.769129	0.890764	-63.043011
53460		-8.528137	0.759915	-62.157863
53461		-8.314892	0.628229	-61.269196
53462		-8.137901	0.497838	-60.381787
53463		-8.000099	0.375326	-59.495757
53464		-7.899664	0.255214	-58.611223
53465		-7.837059	0.133359	-57.730655
53466		-7.800286	0.000655	-56.851925
53467		-7.800098	-0.137537	-55.974721
53468		-7.834806	-0.277502	-55.100252
53469		-7.914659	-0.413809	-54.231707
53470		-8.025611	-0.547865	-53.371690
53471		-8.161682	-0.686550	-52.519478
53472		-8.303498	-0.838469	-51.671124
53473		-8.451953	-0.995819	-50.832932
53474		-8.595972	-1.154044	-50.002586
53475		-8.743830	-1.314533	-49.177675
53476		-8.883910	-1.481798	-48.355619
53477		-9.035233	-1.650982	-47.539358
53478		-9.187182	-1.821380	-46.733815
53479		-9.324299	-1.997772	-45.939090
53480		-9.437619	-2.194131	-45.150064
53481		-9.544886	-2.406023	-44.365041
53482		-9.645845	-2.616900	-43.584119
53483		-9.760005	-2.812859	-42.805918
53484		-9.865682	-2.988078	-42.040022
53485		-9.974987	-3.158477	-41.286512
53486		-10.085406	-3.322521	-40.547305
53487		-10.187988	-3.489587	-39.809763
53488		-10.298291	-3.667087	-39.067169
53489		-10.409188	-3.842198	-38.319308
53490		-10.525439	-3.997665	-37.565809
53491		-10.654849	-4.127153	-36.811469
53492		-10.771777	-4.238040	-36.054660
53493		-10.865422	-4.342296	-35.299467
53494		-10.948384	-4.457509	-34.542218
53495		-11.044942	-4.577353	-33.787798
53496		-11.149580	-4.686345	-33.041551
53497		-11.270455	-4.776759	-32.298867
53498		-11.386701	-4.848165	-31.562134
53499		-11.480239	-4.914109	-30.831871
53500		-11.567256	-4.995141	-30.108225
53501		-11.667181	-5.087133	-29.392267
53502		-11.778556	-5.168412	-28.687263
53503		-11.887086	-5.238418	-27.994676
53504		-11.975544	-5.309078	-27.309384
53505		-12.056337	-5.390626	-26.625471
53506		-12.120305	-5.471898	-25.944638
53507		-12.167618	-5.544205	-25.271058
53508		-12.208684	-5.607139	-24.608762
53509		-12.230307	-5.658718	-23.962703
53510		-12.248435	-5.718650	-23.330497
53511		-12.274152	-5.786126	-22.705927
53512		-12.304827	-5.868263	-22.085008
53513		-12.355171	-5.958965	-21.466603
53514		-12.440476	-6.046972	-20.855740
53515		-12.553416	-6.122750	-20.258038
53516		-12.689562	-6.177642	-19.685736
53517		-12.840653	-6.202452	-19.139535
53518		-12.993099	-6.216354	-18.609808
53519		-13.135266	-6.248797	-18.091039
53520		-13.271953	-6.306581	-17.578433
53521		-13.416582	-6.369450	-17.072500
53522		-13.561120	-6.430875	-16.572116
53523		-13.715344	-6.487968	-16.076503
53524		-13.865964	-6.535448	-15.593736
53525		-14.010150	-6.568518	-15.128712
53526		-14.138035	-6.592722	-14.681693
53527		-14.252957	-6.628557	-14.251778
53528		-14.364388	-6.669054	-13.838732
53529		-14.471971	-6.699645	-13.446003
53530		-14.573537	-6.720939	-13.067196
53531		-14.661509	-6.753075	-12.686800
53532		-14.748150	-6.798912	-12.303113
53533		-14.833567	-6.854910	-11.921426
53534		-14.926098	-6.898582	-11.542855
53535		-15.031389	-6.912173	-11.179545
53536		-15.135237	-6.895360	-10.837723
53537		-15.236865	-6.856355	-10.513723
53538		-15.322594	-6.804818	-10.205346
53539		-15.384703	-6.744680	-9.910879
53540		-15.430071	-6.692752	-9.624998
53541		-15.468830	-6.654294	-9.342648
53542		-15.488983	-6.631673	-9.065334
53543		-15.497342	-6.615326	-8.795477
53544		-15.486529	-6.591780	-8.540908
53545		-15.452819	-6.559896	-8.307225
53546		-15.394533	-6.517662	-8.091902
53547		-15.303973	-6.480953	-7.890334
53548		-15.210856	-6.448775	-7.691013
53549		-15.109151	-6.430774	-7.495996
53550		-15.015333	-6.420212	-7.304795
53551		-14.916638	-6.419518	-7.120649
53552		-14.815088	-6.411620	-6.951521
53553		-14.741463	-6.387469	-6.797581
53554		-14.685319	-6.360493	-6.656830
53555		-14.634577	-6.340070	-6.523365
53556		-14.590257	-6.330287	-6.397656
53557		-14.548030	-6.326608	-6.280131
53558		-14.516198	-6.317898	-6.172683
53559		-14.496286	-6.308796	-6.073892
53560		-14.484623	-6.304570	-5.980007
53561		-14.475768	-6.306782	-5.889953
53562		-14.488045	-6.311463	-5.805735
53563		-14.513067	-6.312886	-5.730401
53564		-14.565784	-6.314824	-5.659791
53565		-14.626405	-6.305054	-5.599961
53566		-14.683419	-6.281872	-5.548746
53567		-14.735408	-6.273447	-5.500312
53568		-14.781702	-6.277749	-5.453137
53569		-14.814647	-6.285695	-5.406760
53570		-14.831602	-6.293897	-5.369423
53571		-14.831531	-6.313239	-5.340852
53572		-14.818105	-6.338963	-5.330845
53573		-14.785579	-6.360236	-5.333846
53574		-14.756242	-6.369318	-5.346280
53575		-14.728800	-6.378906	-5.360204
53576		-14.704271	-6.389986	-5.366825
53577		-14.685545	-6.399958	-5.364956
53578		-14.677190	-6.409960	-5.360145
53579		-14.675991	-6.415404	-5.362932
53580		-14.680543	-6.418865	-5.375135
53581		-14.688668	-6.422203	-5.392242
53582		-14.695216	-6.433140	-5.410599
53583		-14.703679	-6.443891	-5.429955
53584		-14.707194	-6.455465	-5.450800
53585		-14.703790	-6.466650	-5.473209
53586		-14.697819	-6.475970	-5.497977
53587		-14.690970	-6.490791	-5.523751
53588		-14.679610	-6.509854	-5.554082
53589		-14.665455	-6.532514	-5.585983
53590		-14.641970	-6.547811	-5.622381
53591		-14.618868	-6.557264	-5.658991
53592		-14.601244	-6.563090	-5.694211
53593		-14.574762	-6.562577	-5.729104
53594		-14.542556	-6.559256	-5.761322
53595		-14.491932	-6.564255	-5.792222
53596		-14.420650	-6.563483	-5.823556
53597		-14.330530	-6.559458	-5.860848
53598		-14.238800	-6.550881	-5.907281
53599		-14.157498	-6.542909	-5.960096
53600		-14.090299	-6.526614	-6.013412
53601		-14.049003	-6.505301	-6.065631
53602		-14.040373	-6.480865	-6.106616
53603		-14.047349	-6.459271	-6.139410
53604		-14.067217	-6.439333	-6.167156
53605		-14.093650	-6.421789	-6.192731
53606		-14.103827	-6.404351	-6.224126
53607		-14.094976	-6.385760	-6.261794
53608		-14.081263	-6.364891	-6.308840
53609		-14.066696	-6.330705	-6.369477
53610		-14.054433	-6.286294	-6.438778
53611		-14.039432	-6.247762	-6.511120
53612		-14.030510	-6.208536	-6.579226
53613		-14.016550	-6.171486	-6.648824
53614		-13.997309	-6.137665	-6.711586
53615		-13.982675	-6.109958	-6.779493
53616		-13.977902	-6.079677	-6.857188
53617		-13.985152	-6.042866	-6.946213
53618		-14.016656	-6.003070	-7.050960
53619		-14.066941	-5.953610	-7.174863
53620		-14.135899	-5.906222	-7.313934
53621		-14.215168	-5.864796	-7.465824
53622		-14.276147	-5.827309	-7.624274
53623		-14.310774	-5.789384	-7.785208
53624		-14.325937	-5.757628	-7.948009
53625		-14.314928	-5.732740	-8.122120
53626		-14.299847	-5.706991	-8.311654
53627		-14.285958	-5.684466	-8.519652
53628		-14.266004	-5.660815	-8.744645
53629		-14.244546	-5.634138	-8.990584
53630		-14.221964	-5.604498	-9.248536
53631		-14.198391	-5.581120	-9.516535
53632		-14.180786	-5.566438	-9.790349
53633		-14.166782	-5.544949	-10.079833
53634		-14.154375	-5.516010	-10.385232
53635		-14.143964	-5.486005	-10.703723
53636		-14.134008	-5.455033	-11.027224
53637		-14.122627	-5.422955	-11.348665
53638		-14.120816	-5.392337	-11.670138
53639		-14.123388	-5.363991	-12.000382
53640		-14.133261	-5.332329	-12.344718
53641		-14.150139	-5.297911	-12.704560
53642		-14.187000	-5.262514	-13.082853
53643		-14.223318	-5.229725	-13.472588
53644		-14.259580	-5.198864	-13.865715
53645		-14.286455	-5.162589	-14.261147
53646		-14.304732	-5.125638	-14.648752
53647		-14.312892	-5.086318	-15.032200
53648		-14.319440	-5.045745	-15.419072
53649		-14.305430	-5.006980	-15.820906
53650		-14.284606	-4.963147	-16.241771
53651		-14.242820	-4.917983	-16.685780
53652		-14.185334	-4.867046	-17.146501
53653		-14.115028	-4.814657	-17.623078
53654		-14.037152	-4.761015	-18.108674
53655		-13.954709	-4.708268	-18.593568
53656		-13.877568	-4.649568	-19.073628
53657		-13.803074	-4.584092	-19.548035
53658		-13.739897	-4.516070	-20.023815
53659		-13.669279	-4.448981	-20.507373
53660		-13.580912	-4.381736	-21.005641
53661		-13.484485	-4.308725	-21.524233
53662		-13.384496	-4.223953	-22.063691
53663		-13.269829	-4.136195	-22.621274
53664		-13.139576	-4.049009	-23.185125
53665		-12.988946	-3.967877	-23.742727
53666		-12.796525	-3.889683	-24.290846
53667		-12.574912	-3.811826	-24.838531
53668		-12.327752	-3.737888	-25.391490
53669		-12.074586	-3.672682	-25.961235
53670		-11.828671	-3.611603	-26.548123
53671		-11.603807	-3.554581	-27.153160
53672		-11.403247	-3.494322	-27.772570
53673		-11.223317	-3.435866	-28.400331
53674		-11.069196	-3.381453	-29.030961
53675		-10.942794	-3.326053	-29.665031
53676		-10.854113	-3.260212	-30.298919
53677		-10.784568	-3.177721	-30.941162
53678		-10.741985	-3.093788	-31.587285
53679		-10.719661	-3.022080	-32.238299
53680		-10.697145	-2.956264	-32.895762
53681		-10.673691	-2.898402	-33.558058
53682		-10.657844	-2.840521	-34.222261
53683		-10.636693	-2.777375	-34.891013
53684		-10.605780	-2.702387	-35.566866
53685		-10.545859	-2.610472	-36.256702
53686		-10.452174	-2.527714	-36.954060
53687		-10.338704	-2.462253	-37.655314
53688		-10.219306	-2.405791	-38.360594
53689		-10.095090	-2.345230	-39.066285
53690		-9.970294	-2.280300	-39.771679
53691		-9.839793	-2.227393	-40.471991
53692		-9.717529	-2.182331	-41.166269
53693		-9.603634	-2.141513	-41.858493
53694		-9.505506	-2.095285	-42.552971
53695		-9.419101	-2.044911	-43.255095
53696		-9.339059	-1.980208	-43.969549
53697		-9.259084	-1.910998	-44.693787
53698		-9.201892	-1.848327	-45.413673
53699		-9.145984	-1.799181	-46.112907
53700		-9.095634	-1.750589	-46.785907
53701		-9.024400	-1.675710	-47.443711
53702		-8.924458	-1.524107	-48.105629
53703		-8.796902	-1.319478	-48.790444
53704		-8.699210	-1.106847	-49.500814
53705		-8.642984	-0.913725	-50.232575
53706		-8.605166	-0.749106	-50.964149
53707		-8.564716	-0.611495	-51.673664
53708		-8.518247	-0.502740	-52.347555
53709		-8.430188	-0.411116	-52.988636
53710		-8.327416	-0.336274	-53.608155
53711		-8.216800	-0.278291	-54.221872
53712		-8.104370	-0.239747	-54.841095
53713		-7.999024	-0.216596	-55.469772
53714		-7.906384	-0.190683	-56.105512
53715		-7.810768	-0.159691	-56.745398
53716		-7.712982	-0.132099	-57.382641
53717		-7.602106	-0.116840	-58.009010
53718		-7.484378	-0.117388	-58.621935
53719		-7.389062	-0.134352	-59.217964
53720		-7.318127	-0.158329	-59.800844
53721		-7.259376	-0.185837	-60.369682
53722		-7.233760	-0.202244	-60.929654
53723		-7.229160	-0.201823	-61.488748
53724		-7.238576	-0.188042	-62.053509
53725		-7.245614	-0.170424	-62.625779
53726		-7.253743	-0.146852	-63.205831
53727		-7.251189	-0.131500	-63.786543
53728		-7.249808	-0.136393	-64.359298
53729		-7.282637	-0.145867	-64.919894
53730		-7.343451	-0.148746	-65.469321
53731		-7.412248	-0.143662	-66.011799
53732		-7.496468	-0.136327	-66.544437
53733		-7.585238	-0.118186	-67.075197
53734		-7.658914	-0.094756	-67.603355
53735		-7.712577	-0.066590	-68.132562
53736		-7.744606	-0.038742	-68.664702
53737		-7.739064	-0.018335	-69.198564
53738		-7.720970	-0.001951	-69.732039
53739		-7.681448	0.013949	-70.263748
53740		-7.639134	0.031678	-70.794560
53741		-7.584949	0.050313	-71.325290
53742		-7.517173	0.059172	-71.855742
53743		-7.439373	0.056398	-72.382992
53744		-7.379194	0.051390	-72.902339
53745		-7.343041	0.057546	-73.420007
53746		-7.311355	0.083718	-73.936554
53747		-7.267640	0.114997	-74.451553
53748		-7.224574	0.143792	-74.959938
53749		-7.173721	0.165685	-75.463952
53750		-7.103282	0.185927	-75.966664
53751		-7.008346	0.196126	-76.467798
53752		-6.908129	0.200275	-76.967560
53753		-6.809521	0.208242	-77.463831
53754		-6.727839	0.222007	-77.953204
53755		-6.669622	0.242807	-78.431807
53756		-6.626743	0.266084	-78.895518
53757		-6.579195	0.283346	-79.344566
53758		-6.517588	0.297448	-79.788263
53759		-6.439756	0.310422	-80.228287
53760		-6.340884	0.320183	-80.665257
53761		-6.223812	0.323737	-81.097587
53762		-6.099614	0.319570	-81.519850
53763		-5.973275	0.313679	-81.932064
53764		-5.834399	0.299044	-82.335789
53765		-5.684818	0.272840	-82.734604
53766		-5.537423	0.237721	-83.124432
53767		-5.411083	0.200687	-83.507199
53768		-5.301172	0.168957	-83.882554
53769		-5.226052	0.153929	-84.254418
53770		-5.188449	0.160022	-84.630133
53771		-5.161139	0.179304	-85.008681
53772		-5.132827	0.197687	-85.385691
53773		-5.101729	0.205935	-85.759752
53774		-5.066019	0.204654	-86.127770
53775		-5.026968	0.200651	-86.487806
53776		-4.987152	0.198232	-86.838055
53777		-4.949438	0.200826	-87.178098
53778		-4.918555	0.215712	-87.512692
53779		-4.888010	0.237687	-87.843324
53780		-4.856451	0.256031	-88.170965
53781		-4.822497	0.262008	-88.492648
53782		-4.798765	0.262921	-88.806322
53783		-4.765639	0.270422	-89.111319
53784		-4.735984	0.273209	-89.405766
53785		-4.709250	0.269319	-89.692799
53786		-4.690922	0.265893	-89.975362
53787		-4.686228	0.275905	-90.252650
53788		-4.675660	0.312133	-90.520782
53789		-4.663072	0.366956	-90.781116
53790		-4.641809	0.431297	-91.037338
53791		-4.623802	0.494697	-91.288501
53792		-4.597954	0.544122	-91.529842
53793		-4.562905	0.582675	-91.760961
53794		-4.525071	0.618393	-91.982534
53795		-4.490363	0.661845	-92.196828
53796		-4.461163	0.720155	-92.404250
53797		-4.435748	0.785242	-92.605520
53798		-4.399714	0.842022	-92.792942
53799		-4.351986	0.888108	-92.960975
53800		-4.304261	0.921271	-93.107907
53801		-4.254090	0.952981	-93.232312
53802		-4.224506	0.995647	-93.340179
53803		-4.206650	1.050279	-93.438841
53804		-4.208231	1.102210	-93.539985
53805		-4.225295	1.148316	-93.641941
53806		-4.259329	1.187976	-93.743544
53807		-4.296752	1.221063	-93.837056
53808		-4.341838	1.251666	-93.915047
53809		-4.385822	1.292004	-93.976143
53810		-4.415042	1.343579	-94.020797
53811		-4.438768	1.397743	-94.055631
53812		-4.449241	1.450753	-94.083442
53813		-4.440651	1.493676	-94.108722
53814		-4.422636	1.527714	-94.129400
53815		-4.403073	1.556135	-94.147607
53816		-4.378828	1.579902	-94.162178
53817		-4.348642	1.610286	-94.170543
53818		-4.319950	1.639822	-94.170547
53819		-4.299351	1.666868	-94.158797
53820		-4.283470	1.692773	-94.129187
53821		-4.278287	1.717368	-94.084363
53822		-4.279170	1.738319	-94.032388
53823		-4.290974	1.756947	-93.975108
53824		-4.316984	1.777348	-93.912380
53825		-4.359278	1.802731	-93.841468
53826		-4.405276	1.830795	-93.759125
53827		-4.437985	1.859741	-93.659071
53828		-4.462409	1.880204	-93.542297
53829		-4.479802	1.892427	-93.409168
53830		-4.484289	1.907180	-93.262090
53831		-4.481551	1.942332	-93.100171
53832		-4.471003	2.003943	-92.925931
53833		-4.462676	2.080461	-92.745303
53834		-4.460561	2.156962	-92.562885
53835		-4.457807	2.220438	-92.377119
53836		-4.472664	2.269878	-92.189188
53837		-4.499356	2.314137	-91.994691
53838		-4.546573	2.338745	-91.798226
53839		-4.616855	2.340329	-91.599065
53840		-4.725089	2.320226	-91.394985
53841		-4.883938	2.286763	-91.189458
53842		-5.088470	2.242335	-90.984024
53843		-5.326158	2.198173	-90.772673
53844		-5.573605	2.153722	-90.555185
53845		-5.823282	2.111184	-90.327985
53846		-6.048772	2.060814	-90.091339
53847		-6.245325	1.995021	-89.839858
53848		-6.403537	1.911657	-89.572190
53849		-6.518958	1.818438	-89.287682
53850		-6.586129	1.707797	-88.984431
53851		-6.621882	1.587607	-88.666032
53852		-6.623319	1.461843	-88.330516
53853		-6.619987	1.330732	-87.982654
53854		-6.619870	1.188484	-87.626100
53855		-6.630502	1.050871	-87.265259
53856		-6.645165	0.912712	-86.897075
53857		-6.664374	0.778506	-86.519792
53858		-6.690451	0.651250	-86.124675
53859		-6.741215	0.532811	-85.709880
53860		-6.812772	0.421947	-85.279387
53861		-6.898363	0.316122	-84.835629
53862		-6.992532	0.210190	-84.380469
53863		-7.083466	0.104083	-83.909705
53864		-7.173019	-0.002097	-83.425121
53865		-7.258702	-0.103342	-82.923498
53866		-7.324136	-0.212459	-82.411042
53867		-7.368883	-0.321525	-81.891094
53868		-7.395843	-0.425693	-81.367223
53869		-7.411079	-0.527632	-80.835859
53870		-7.432874	-0.632630	-80.291482
53871		-7.460017	-0.730883	-79.728102
53872		-7.483358	-0.820304	-79.146902
53873		-7.494102	-0.902744	-78.551272
53874		-7.484900	-0.992625	-77.943477
53875		-7.465039	-1.095835	-77.324083
53876		-7.431587	-1.223850	-76.686150
53877		-7.420095	-1.363323	-76.028098
53878		-7.425857	-1.499577	-75.359655
53879		-7.458332	-1.632184	-74.682049
53880		-7.523541	-1.754641	-73.993810
53881		-7.629768	-1.861210	-73.296897
53882		-7.746665	-1.956014	-72.592427
53883		-7.870766	-2.051626	-71.875407
53884		-7.979668	-2.151699	-71.144036
53885		-8.090872	-2.251587	-70.400619
53886		-8.199009	-2.349993	-69.650525
53887		-8.297799	-2.443873	-68.893276
53888		-8.397429	-2.526834	-68.137797
53889		-8.484650	-2.601115	-67.388937
53890		-8.552849	-2.682062	-66.641611
53891		-8.604137	-2.772301	-65.892923
53892		-8.644816	-2.870945	-65.129823
53893		-8.692164	-2.966514	-64.358019
53894		-8.744651	-3.056038	-63.575611
53895		-8.799214	-3.129488	-62.789564
53896		-8.852458	-3.202072	-62.002889
53897		-8.916444	-3.275640	-61.218865
53898		-8.976726	-3.352810	-60.445070
53899		-9.039952	-3.428105	-59.674673
53900		-9.103034	-3.499497	-58.910021
53901		-9.171889	-3.564029	-58.143613
53902		-9.238573	-3.626836	-57.373291
53903		-9.294900	-3.685122	-56.598217
53904		-9.324425	-3.755240	-55.819791
53905		-9.349554	-3.836652	-55.037599
53906		-9.390526	-3.922214	-54.252148
53907		-9.441824	-4.004132	-53.465883
53908		-9.500455	-4.084899	-52.676242
53909		-9.569711	-4.168321	-51.885626
53910		-9.651997	-4.267177	-51.090750
53911		-9.751666	-4.375360	-50.291828
53912		-9.860249	-4.498659	-49.485715
53913		-9.996277	-4.632897	-48.671580
53914		-10.143731	-4.772195	-47.847472
53915		-10.321563	-4.903706	-47.018364
53916		-10.525133	-5.014814	-46.188807
53917		-10.729436	-5.107297	-45.369834
53918		-10.926368	-5.195985	-44.560442
53919		-11.124320	-5.285512	-43.763734
53920		-11.335477	-5.381115	-42.970494
53921		-11.529513	-5.477209	-42.177600
53922		-11.702313	-5.565034	-41.379693
53923		-11.852998	-5.642785	-40.581762
53924		-11.979909	-5.713153	-39.785172
53925		-12.101102	-5.784683	-38.991267
53926		-12.212906	-5.867865	-38.200391
53927		-12.321023	-5.970691	-37.410210
53928		-12.440220	-6.084644	-36.622709
53929		-12.569525	-6.174395	-35.844257
53930		-12.712498	-6.233522	-35.082010
53931		-12.872729	-6.264222	-34.337786
53932		-13.026400	-6.275221	-33.606885
53933		-13.144905	-6.279435	-32.881877
53934		-13.248049	-6.302298	-32.158483
53935		-13.346463	-6.359944	-31.430213
53936		-13.450340	-6.436712	-30.697837
53937		-13.582312	-6.512871	-29.974480
53938		-13.736887	-6.565042	-29.265885
53939		-13.892247	-6.579714	-28.578503
53940		-14.056503	-6.566876	-27.915118
53941		-14.188873	-6.527192	-27.271503
53942		-14.282333	-6.483401	-26.637414
53943		-14.358682	-6.467338	-26.003679
53944		-14.430246	-6.474005	-25.367786
53945		-14.505884	-6.473334	-24.737967
53946		-14.571096	-6.458143	-24.125803
53947		-14.627521	-6.422880	-23.529430
53948		-14.692909	-6.375070	-22.955225
53949		-14.772355	-6.321255	-22.397279
53950		-14.834598	-6.262961	-21.849333
53951		-14.877439	-6.204809	-21.304964
53952		-14.891049	-6.156440	-20.760815
53953		-14.872221	-6.125577	-20.215511
53954		-14.821949	-6.106959	-19.672212
53955		-14.761345	-6.094127	-19.129133
53956		-14.686590	-6.083379	-18.593426
53957		-14.590319	-6.062312	-18.066663
53958		-14.493065	-6.027680	-17.548083
53959		-14.398396	-5.978680	-17.038408
53960		-14.295231	-5.923931	-16.532399
53961		-14.176635	-5.869453	-16.024686
53962		-14.055007	-5.829139	-15.518136
53963		-13.939473	-5.807694	-15.025339
53964		-13.849466	-5.795873	-14.538112
53965		-13.801198	-5.779561	-14.057992
53966		-13.792314	-5.765850	-13.565441
53967		-13.824860	-5.747392	-13.061357
53968		-13.887518	-5.728305	-12.556405
53969		-13.962128	-5.705906	-12.057973
53970		-14.057302	-5.674615	-11.578957
53971		-14.137742	-5.628292	-11.124003
53972		-14.215234	-5.576407	-10.687941
53973		-14.284621	-5.520753	-10.270564
53974		-14.336753	-5.456309	-9.862116
53975		-14.367891	-5.390632	-9.451105
53976		-14.378891	-5.332749	-9.033706
53977		-14.369125	-5.284266	-8.618530
53978		-14.355996	-5.243982	-8.211989
53979		-14.334117	-5.211284	-7.825205
53980		-14.311404	-5.175457	-7.466621
53981		-14.285441	-5.135808	-7.135483
53982		-14.258603	-5.100295	-6.826282
53983		-14.218611	-5.060315	-6.535430
53984		-14.149654	-5.013397	-6.263343
53985		-14.045831	-4.956852	-6.007671
53986		-13.921214	-4.894284	-5.765182
53987		-13.783182	-4.832241	-5.537224
53988		-13.641389	-4.784869	-5.318904
53989		-13.514978	-4.755579	-5.112795
53990		-13.426147	-4.723757	-4.921757
53991		-13.368960	-4.675605	-4.747615
53992		-13.342041	-4.610054	-4.584041
53993		-13.338138	-4.541367	-4.425427
53994		-13.355708	-4.474718	-4.271572
53995		-13.382649	-4.407339	-4.131812
53996		-13.407304	-4.342658	-4.014460
53997		-13.432556	-4.278627	-3.912554
53998		-13.461913	-4.220051	-3.821900
53999		-13.498640	-4.167479	-3.738142
54000		-13.531681	-4.120798	-3.662768
54001		-13.546758	-4.082160	-3.594243
54002		-13.534312	-4.053848	-3.529595
54003		-13.496046	-4.021612	-3.474184
54004		-13.436661	-3.977172	-3.430758
54005		-13.349265	-3.927858	-3.394260
54006		-13.253383	-3.895066	-3.363194
54007		-13.156861	-3.872908	-3.335308
54008		-13.063781	-3.850124	-3.312929
54009		-12.982454	-3.818724	-3.296677
54010		-12.920949	-3.778117	-3.285684
54011		-12.868952	-3.733095	-3.280863
54012		-12.819300	-3.686723	-3.281475
54013		-12.770530	-3.641559	-3.286620
54014		-12.725817	-3.602921	-3.296249
54015		-12.697287	-3.562602	-3.310807
54016		-12.687556	-3.515014	-3.323391
54017		-12.708589	-3.461134	-3.335987
54018		-12.752268	-3.399751	-3.346492
54019		-12.802790	-3.334316	-3.357626
54020		-12.867885	-3.267195	-3.369446
54021		-12.940113	-3.194474	-3.387496
54022		-13.003354	-3.129039	-3.416563
54023		-13.055489	-3.075429	-3.454930
54024		-13.088475	-3.033819	-3.501350
54025		-13.088197	-2.996251	-3.556139
54026		-13.060558	-2.953136	-3.617836
54027		-13.004939	-2.917710	-3.684269
54028		-12.930533	-2.886772	-3.752728
54029		-12.826558	-2.863386	-3.828509
54030		-12.710671	-2.835460	-3.914096
54031		-12.604751	-2.811157	-4.008722
54032		-12.511541	-2.791367	-4.114206
54033		-12.423944	-2.769751	-4.230915
54034		-12.359520	-2.748210	-4.355955
54035		-12.307897	-2.728132	-4.486708
54036		-12.278700	-2.710161	-4.625067
54037		-12.275143	-2.688250	-4.768539
54038		-12.287444	-2.672049	-4.921537
54039		-12.315697	-2.656159	-5.083972
54040		-12.363679	-2.631120	-5.259518
54041		-12.413949	-2.595237	-5.452237
54042		-12.471802	-2.561777	-5.657878
54043		-12.553201	-2.535739	-5.873928
54044		-12.657570	-2.511664	-6.099029
54045		-12.754215	-2.480612	-6.336494
54046		-12.835963	-2.447806	-6.590613
54047		-12.899062	-2.423021	-6.862129
54048		-12.950732	-2.406169	-7.152137
54049		-12.981786	-2.397171	-7.458875
54050		-13.003077	-2.392357	-7.780191
54051		-12.994861	-2.380189	-8.116883
54052		-12.960793	-2.360318	-8.463566
54053		-12.910788	-2.341511	-8.817101
54054		-12.842483	-2.320560	-9.174384
54055		-12.748154	-2.290386	-9.538588
54056		-12.635200	-2.246721	-9.915091
54057		-12.506469	-2.195925	-10.300047
54058		-12.390726	-2.132329	-10.689095
54059		-12.299534	-2.058890	-11.088652
54060		-12.249966	-1.978059	-11.507244
54061		-12.248286	-1.899333	-11.945920
54062		-12.297091	-1.817536	-12.405176
54063		-12.377198	-1.716616	-12.879346
54064		-12.470035	-1.590140	-13.363138
54065		-12.572086	-1.460086	-13.850178
54066		-12.685548	-1.334177	-14.339401
54067		-12.802601	-1.211396	-14.834457
54068		-12.917567	-1.092598	-15.343417
54069		-13.025310	-0.984960	-15.867549
54070		-13.124748	-0.878262	-16.413252
54071		-13.218366	-0.768405	-16.986512
54072		-13.304628	-0.653154	-17.584726
54073		-13.363557	-0.533407	-18.197620
54074		-13.384717	-0.411312	-18.817709
54075		-13.354488	-0.294959	-19.440240
54076		-13.276872	-0.203081	-20.054179
54077		-13.157951	-0.133236	-20.665416
54078		-13.009294	-0.064837	-21.282339
54079		-12.855437	0.014376	-21.913464
54080		-12.713321	0.103960	-22.558090
54081		-12.577167	0.189464	-23.212109
54082		-12.432608	0.263771	-23.871365
54083		-12.266860	0.335245	-24.535112
54084		-12.099817	0.406382	-25.207299
54085		-11.929457	0.480172	-25.891644
54086		-11.766582	0.558914	-26.583697
54087		-11.607692	0.641593	-27.281284
54088		-11.469585	0.723009	-27.978738
54089		-11.353098	0.806354	-28.678453
54090		-11.270650	0.886835	-29.371636
54091		-11.219139	0.959838	-30.050353
54092		-11.209402	1.036424	-30.717504
54093		-11.225474	1.128521	-31.380079
54094		-11.271426	1.229476	-32.040949
54095		-11.343413	1.334227	-32.708817
54096		-11.438949	1.445183	-33.387091
54097		-11.542778	1.571642	-34.076996
54098		-11.656023	1.699568	-34.764191
54099		-11.760788	1.817919	-35.445057
54100		-11.845468	1.934135	-36.108116
54101		-11.902515	2.049184	-36.751092
54102		-11.940262	2.157279	-37.380028
54103		-11.947089	2.259027	-37.999564
54104		-11.934130	2.354515	-38.610465
54105		-11.901191	2.444107	-39.220290
54106		-11.844269	2.533742	-39.834831
54107		-11.759533	2.630090	-40.459146
54108		-11.666491	2.727110	-41.089420
54109		-11.560733	2.818848	-41.723248
54110		-11.453522	2.899674	-42.346003
54111		-11.343122	2.978327	-42.959372
54112		-11.232748	3.054599	-43.559875
54113		-11.131938	3.124435	-44.148721
54114		-11.049923	3.198573	-44.738590
54115		-10.983223	3.283906	-45.334256
54116		-10.935970	3.379990	-45.934819
54117		-10.901156	3.476129	-46.538434
54118		-10.880226	3.563068	-47.134720
54119		-10.858674	3.646860	-47.725200
54120		-10.841972	3.731054	-48.306220
54121		-10.826243	3.818105	-48.878744
54122		-10.812619	3.908807	-49.447920
54123		-10.784098	4.008064	-50.020370
54124		-10.741331	4.107772	-50.601737
54125		-10.687151	4.214409	-51.197851
54126		-10.619120	4.315449	-51.802738
54127		-10.533651	4.412582	-52.411224
54128		-10.435405	4.509743	-53.019992
54129		-10.314943	4.603026	-53.626062
54130		-10.186731	4.694629	-54.231121
54131		-10.044858	4.783054	-54.840231
54132		-9.900557	4.869803	-55.451459
54133		-9.738546	4.963308	-56.072708
54134		-9.554800	5.066367	-56.701060
54135		-9.348932	5.159826	-57.326877
54136		-9.137629	5.227289	-57.938775
54137		-8.922268	5.269317	-58.539373
54138		-8.711422	5.297123	-59.131808
54139		-8.519159	5.312019	-59.719917
54140		-8.351942	5.325174	-60.306662
54141		-8.211710	5.343057	-60.897072
54142		-8.103911	5.376686	-61.493630
54143		-8.015233	5.425062	-62.102808
54144		-7.935451	5.487722	-62.721771
54145		-7.853688	5.551278	-63.348528
54146		-7.777619	5.605126	-63.971422
54147		-7.695693	5.645677	-64.588404
54148		-7.617794	5.674032	-65.193244
54149		-7.549024	5.709729	-65.792466
54150		-7.496083	5.744829	-66.380075
54151		-7.454580	5.779186	-66.962228
54152		-7.422084	5.822520	-67.539615
54153		-7.378684	5.880034	-68.115448
54154		-7.323205	5.931075	-68.689189
54155		-7.248830	5.975274	-69.259639
54156		-7.162688	6.007919	-69.830211
54157		-7.056109	6.039890	-70.402470
54158		-6.932447	6.069439	-70.974945
54159		-6.801552	6.093350	-71.546580
54160		-6.675527	6.121009	-72.117345
54161		-6.550951	6.157169	-72.687613
54162		-6.431323	6.201428	-73.257342
54163		-6.315144	6.252485	-73.826323
54164		-6.197996	6.310219	-74.393040
54165		-6.075533	6.375693	-74.955636
54166		-5.950628	6.433955	-75.510229
54167		-5.818619	6.492052	-76.055958
54168		-5.682813	6.544134	-76.590317
54169		-5.547945	6.583434	-77.114193
54170		-5.424283	6.615823	-77.629682
54171		-5.310524	6.652098	-78.141836
54172		-5.213541	6.697822	-78.652574
54173		-5.133220	6.757115	-79.162340
54174		-5.062983	6.835654	-79.671649
54175		-4.996435	6.925133	-80.174954
54176		-4.934229	7.015713	-80.674893
54177		-4.868094	7.106476	-81.168601
54178		-4.791791	7.187052	-81.654673
