// General information: 
//  MT Manager version: 2022.2.0 
//  XDA version: 2022.2.0 build 7381 rev 124627 built on 2023-07-19
// Device information: 
//  DeviceId: 00B44805
//  ProductCode: MTW2-3A7G6
//  Firmware Version: 4.3.5
//  Hardware Version: 2.0.0
// Device settings: 
//  Filter Profile: human(46.1)
//  Option Flags: Orientation Smoother Disabled, Position/Velocity Smoother Disabled, Continuous Zero Rotation Update Disabled, AHS Disabled, ICC Disabled
// Coordinate system: ENU
PacketCounter	SampleTimeFine	Roll	Pitch	Yaw
51054		-11.739907	-1.099913	10.115592
51055		-11.668846	-1.169340	10.151927
51056		-11.564041	-1.238152	10.191496
51057		-11.443472	-1.299663	10.231840
51058		-11.335438	-1.349917	10.267594
51059		-11.255522	-1.388246	10.296229
51060		-11.206871	-1.418781	10.320318
51061		-11.174674	-1.441229	10.339606
51062		-11.153239	-1.451366	10.355315
51063		-11.142997	-1.456536	10.367101
51064		-11.136260	-1.456246	10.375319
51065		-11.136678	-1.450091	10.379440
51066		-11.136024	-1.441389	10.379567
51067		-11.139552	-1.425046	10.376939
51068		-11.147851	-1.404178	10.372586
51069		-11.162733	-1.385697	10.369077
51070		-11.169366	-1.367803	10.364673
51071		-11.168803	-1.354359	10.360861
51072		-11.166840	-1.341601	10.358608
51073		-11.172044	-1.328392	10.359624
51074		-11.176754	-1.316857	10.362630
51075		-11.173398	-1.307154	10.371669
51076		-11.164095	-1.301968	10.379855
51077		-11.154150	-1.294409	10.392560
51078		-11.142943	-1.285610	10.405828
51079		-11.132433	-1.279952	10.418274
51080		-11.127404	-1.273706	10.425775
51081		-11.131432	-1.267495	10.428763
51082		-11.137347	-1.263658	10.429022
51083		-11.138636	-1.263051	10.426460
51084		-11.136155	-1.260096	10.423389
51085		-11.129064	-1.262797	10.421639
51086		-11.120590	-1.266876	10.419993
51087		-11.122323	-1.272391	10.419970
51088		-11.127945	-1.280313	10.419405
51089		-11.136718	-1.287907	10.421820
51090		-11.139424	-1.297962	10.423548
51091		-11.134285	-1.317381	10.426495
51092		-11.123868	-1.337791	10.434595
51093		-11.122434	-1.360263	10.439075
51094		-11.128489	-1.381338	10.444784
51095		-11.141227	-1.402634	10.446532
51096		-11.154751	-1.423340	10.447305
51097		-11.167665	-1.443526	10.446270
51098		-11.172411	-1.465170	10.444490
51099		-11.167112	-1.487434	10.441866
51100		-11.155495	-1.510157	10.438523
51101		-11.142084	-1.530032	10.429445
51102		-11.131230	-1.547303	10.417078
51103		-11.124335	-1.565710	10.400629
51104		-11.115188	-1.585508	10.381213
51105		-11.099666	-1.605785	10.359908
51106		-11.067981	-1.628724	10.339539
51107		-11.028747	-1.652123	10.320142
51108		-10.981931	-1.676960	10.295833
51109		-10.932447	-1.700290	10.269575
51110		-10.883695	-1.723753	10.238505
51111		-10.839238	-1.746233	10.200319
51112		-10.802794	-1.768651	10.154197
51113		-10.781141	-1.787829	10.097605
51114		-10.765681	-1.801940	10.031594
51115		-10.756060	-1.818553	9.952474
51116		-10.750231	-1.837416	9.867820
51117		-10.751740	-1.862713	9.769707
51118		-10.749716	-1.890801	9.656426
51119		-10.746129	-1.921622	9.530708
51120		-10.731115	-1.955298	9.391143
51121		-10.710104	-1.993672	9.238479
51122		-10.674961	-2.033935	9.072815
51123		-10.644352	-2.072339	8.888962
51124		-10.617620	-2.103728	8.685494
51125		-10.597577	-2.135641	8.466027
51126		-10.580148	-2.165518	8.228717
51127		-10.571492	-2.194970	7.975799
51128		-10.570163	-2.222757	7.705288
51129		-10.574118	-2.254320	7.420998
51130		-10.578363	-2.285547	7.123280
51131		-10.583755	-2.316728	6.813610
51132		-10.577168	-2.350479	6.490980
51133		-10.563594	-2.384983	6.157047
51134		-10.528866	-2.418005	5.813309
51135		-10.480191	-2.453146	5.456905
51136		-10.434700	-2.489396	5.086260
51137		-10.413113	-2.523322	4.699410
51138		-10.396736	-2.556546	4.300427
51139		-10.382447	-2.593014	3.893574
51140		-10.358324	-2.636505	3.476767
51141		-10.326250	-2.680940	3.055570
51142		-10.283434	-2.736496	2.634611
51143		-10.235094	-2.800899	2.213407
51144		-10.177330	-2.874618	1.796865
51145		-10.128779	-2.955781	1.383208
51146		-10.086397	-3.037533	0.969797
51147		-10.052161	-3.120724	0.552171
51148		-10.006360	-3.206263	0.132267
51149		-9.962905	-3.289041	-0.292275
51150		-9.924438	-3.365240	-0.722453
51151		-9.900213	-3.434636	-1.167084
51152		-9.874057	-3.499035	-1.625259
51153		-9.850146	-3.558913	-2.093609
51154		-9.818841	-3.618380	-2.572737
51155		-9.787976	-3.673310	-3.057657
51156		-9.748249	-3.724628	-3.550836
51157		-9.716870	-3.770380	-4.051599
51158		-9.683606	-3.812248	-4.563693
51159		-9.653757	-3.846835	-5.078665
51160		-9.624695	-3.877278	-5.600366
51161		-9.600971	-3.900931	-6.130147
51162		-9.561480	-3.923292	-6.668437
51163		-9.505646	-3.944800	-7.217878
51164		-9.448587	-3.949994	-7.785523
51165		-9.407369	-3.942432	-8.377735
51166		-9.362572	-3.934297	-8.986456
51167		-9.307623	-3.923589	-9.611254
51168		-9.227770	-3.904902	-10.251551
51169		-9.132760	-3.880194	-10.907519
51170		-9.023753	-3.848201	-11.579561
51171		-8.916093	-3.805689	-12.262631
51172		-8.812280	-3.750020	-12.962390
51173		-8.723487	-3.681358	-13.670116
51174		-8.641459	-3.603487	-14.388340
51175		-8.569983	-3.528137	-15.108830
51176		-8.494436	-3.461524	-15.828686
51177		-8.399005	-3.395462	-16.543412
51178		-8.273564	-3.322675	-17.251135
51179		-8.130475	-3.231029	-17.958241
51180		-7.974940	-3.128799	-18.662869
51181		-7.843853	-3.011228	-19.367181
51182		-7.738589	-2.880182	-20.067794
51183		-7.671335	-2.739026	-20.771059
51184		-7.618788	-2.594149	-21.475462
51185		-7.585132	-2.453884	-22.186310
51186		-7.570161	-2.313301	-22.910398
51187		-7.600801	-2.167533	-23.646748
51188		-7.669623	-2.025606	-24.399330
51189		-7.756114	-1.882155	-25.159276
51190		-7.827311	-1.736751	-25.919287
51191		-7.887473	-1.590886	-26.679706
51192		-7.908194	-1.446905	-27.437339
51193		-7.895363	-1.308055	-28.189260
51194		-7.850067	-1.181680	-28.932265
51195		-7.794767	-1.060320	-29.664758
51196		-7.746655	-0.950669	-30.398884
51197		-7.722681	-0.848398	-31.131883
51198		-7.716526	-0.753775	-31.865421
51199		-7.734726	-0.666545	-32.598798
51200		-7.768073	-0.584429	-33.330371
51201		-7.796851	-0.511943	-34.060181
51202		-7.779483	-0.451267	-34.785214
51203		-7.715230	-0.395396	-35.508000
51204		-7.627768	-0.334770	-36.227030
51205		-7.549599	-0.273542	-36.948225
51206		-7.490482	-0.209571	-37.672646
51207		-7.458929	-0.153463	-38.401301
51208		-7.443853	-0.107269	-39.134119
51209		-7.438163	-0.074053	-39.865252
51210		-7.418494	-0.060042	-40.590722
51211		-7.391311	-0.044434	-41.302827
51212		-7.343330	-0.032219	-42.006387
51213		-7.299923	-0.018152	-42.697503
51214		-7.262088	-0.000725	-43.378792
51215		-7.250882	0.027842	-44.045958
51216		-7.270927	0.063487	-44.703338
51217		-7.315675	0.106307	-45.352592
51218		-7.354901	0.156014	-45.994469
51219		-7.366533	0.198468	-46.622945
51220		-7.309905	0.231693	-47.241407
51221		-7.167557	0.262657	-47.841457
51222		-6.921777	0.289169	-48.427415
51223		-6.572961	0.316041	-48.995481
51224		-6.128100	0.343203	-49.544056
51225		-5.617062	0.369542	-50.073656
51226		-5.062811	0.397509	-50.584606
51227		-4.497076	0.420898	-51.084259
51228		-3.944764	0.416694	-51.576056
51229		-3.452442	0.388745	-52.069768
51230		-3.038777	0.338924	-52.564193
51231		-2.691673	0.275397	-53.059275
51232		-2.390725	0.203365	-53.554880
51233		-2.152239	0.137203	-54.048519
51234		-1.961788	0.090536	-54.545150
51235		-1.820628	0.052130	-55.049690
51236		-1.729393	0.012709	-55.566124
51237		-1.694083	-0.021567	-56.091923
51238		-1.697831	-0.049623	-56.623728
51239		-1.699984	-0.088982	-57.165133
51240		-1.667795	-0.140659	-57.712128
51241		-1.637273	-0.190994	-58.264668
51242		-1.612990	-0.223662	-58.827340
51243		-1.609163	-0.241850	-59.398059
51244		-1.626683	-0.252282	-59.980307
51245		-1.654350	-0.252255	-60.568058
51246		-1.685240	-0.249935	-61.163110
51247		-1.729770	-0.244575	-61.759223
51248		-1.782334	-0.235130	-62.360522
51249		-1.837895	-0.219479	-62.962904
51250		-1.876573	-0.200712	-63.564810
51251		-1.878526	-0.179321	-64.162694
51252		-1.852385	-0.161236	-64.752993
51253		-1.799727	-0.146157	-65.328031
51254		-1.745859	-0.126657	-65.888535
51255		-1.699631	-0.111420	-66.440872
51256		-1.666936	-0.093218	-66.986484
51257		-1.668101	-0.068356	-67.524612
51258		-1.694086	-0.047909	-68.056185
51259		-1.746641	-0.033033	-68.583907
51260		-1.809260	-0.022313	-69.101616
51261		-1.878979	-0.018235	-69.616696
51262		-1.942831	-0.020597	-70.124193
51263		-1.994174	-0.015226	-70.622057
51264		-2.017182	-0.013553	-71.108651
51265		-2.001911	-0.016328	-71.583223
51266		-1.966852	-0.011143	-72.046902
51267		-1.944420	0.005556	-72.501679
51268		-1.946185	0.017860	-72.951146
51269		-1.955900	0.028694	-73.391871
51270		-1.959681	0.032573	-73.827864
51271		-1.960623	0.025662	-74.255908
51272		-1.967648	0.000060	-74.677203
51273		-1.977694	-0.029770	-75.090058
51274		-1.988490	-0.049045	-75.490366
51275		-1.984429	-0.056671	-75.879728
51276		-1.968075	-0.052077	-76.259624
51277		-1.965692	-0.034597	-76.625879
51278		-1.990874	-0.013763	-76.985831
51279		-2.009340	0.001334	-77.335768
51280		-2.016353	0.008121	-77.675386
51281		-2.016988	0.005982	-78.002064
51282		-2.009122	-0.000834	-78.316300
51283		-1.994503	-0.010372	-78.623534
51284		-1.978337	-0.014373	-78.917477
51285		-1.950822	-0.016549	-79.199314
51286		-1.905484	-0.020017	-79.469883
51287		-1.840306	-0.023590	-79.721962
51288		-1.758865	-0.031293	-79.956719
51289		-1.668669	-0.044810	-80.176012
51290		-1.587308	-0.061510	-80.382996
51291		-1.524001	-0.076153	-80.576838
51292		-1.463124	-0.096103	-80.754797
51293		-1.383583	-0.126010	-80.916152
51294		-1.301974	-0.157818	-81.064184
51295		-1.225062	-0.185181	-81.199728
51296		-1.169415	-0.207315	-81.320918
51297		-1.118096	-0.231681	-81.430044
51298		-1.075042	-0.255467	-81.523056
51299		-1.033683	-0.279910	-81.606071
51300		-0.984150	-0.309407	-81.671663
51301		-0.932203	-0.337286	-81.723819
51302		-0.901247	-0.363102	-81.764662
51303		-0.873829	-0.386621	-81.800662
51304		-0.856764	-0.408339	-81.827758
51305		-0.848321	-0.425090	-81.847787
51306		-0.861499	-0.436553	-81.865297
51307		-0.880132	-0.449930	-81.876572
51308		-0.903177	-0.465077	-81.878692
51309		-0.905195	-0.485398	-81.873559
51310		-0.885453	-0.513018	-81.864043
51311		-0.853364	-0.541434	-81.846198
51312		-0.817755	-0.572877	-81.821045
51313		-0.766404	-0.602624	-81.789226
51314		-0.697095	-0.633306	-81.751757
51315		-0.600731	-0.665227	-81.711005
51316		-0.488815	-0.693983	-81.658017
51317		-0.368949	-0.728937	-81.603124
51318		-0.262890	-0.769427	-81.544363
51319		-0.184984	-0.813249	-81.483668
51320		-0.159413	-0.857052	-81.420999
51321		-0.156468	-0.903351	-81.357219
51322		-0.161116	-0.948033	-81.290352
51323		-0.152185	-0.998188	-81.222506
51324		-0.133334	-1.043887	-81.151464
51325		-0.096520	-1.084003	-81.081920
51326		-0.055139	-1.121484	-81.011921
51327		-0.007335	-1.158828	-80.939785
51328		0.040148	-1.196175	-80.865969
51329		0.088163	-1.231592	-80.788271
51330		0.134501	-1.266139	-80.703094
51331		0.192740	-1.304148	-80.616719
51332		0.264426	-1.338536	-80.520084
51333		0.364936	-1.373183	-80.418141
51334		0.482586	-1.400054	-80.311072
51335		0.622027	-1.415172	-80.194351
51336		0.758267	-1.417304	-80.069423
51337		0.896066	-1.416635	-79.937724
51338		1.025786	-1.417572	-79.796789
51339		1.125714	-1.409579	-79.645640
51340		1.168558	-1.397386	-79.484971
51341		1.200383	-1.383071	-79.309220
51342		1.228505	-1.365297	-79.118131
51343		1.286920	-1.349335	-78.913313
51344		1.383172	-1.327006	-78.694309
51345		1.528329	-1.304539	-78.462466
51346		1.696707	-1.286674	-78.221301
51347		1.863405	-1.266851	-77.973921
51348		1.989917	-1.248845	-77.722221
51349		2.081003	-1.232272	-77.462552
51350		2.134299	-1.214009	-77.191947
51351		2.162839	-1.192567	-76.907120
51352		2.171966	-1.165439	-76.603599
51353		2.179528	-1.136092	-76.279747
51354		2.185327	-1.106252	-75.930539
51355		2.199283	-1.086403	-75.562706
51356		2.220562	-1.070892	-75.171791
51357		2.268204	-1.057497	-74.757159
51358		2.321861	-1.041004	-74.314890
51359		2.377673	-1.024357	-73.858705
51360		2.400026	-1.009155	-73.383398
51361		2.400779	-1.003453	-72.888381
51362		2.381492	-1.003888	-72.358221
51363		2.353054	-1.012828	-71.793243
51364		2.306305	-1.024238	-71.189764
51365		2.262458	-1.049329	-70.547379
51366		2.230304	-1.083837	-69.864811
51367		2.211653	-1.121281	-69.147342
51368		2.176553	-1.159522	-68.398673
51369		2.123447	-1.202405	-67.621658
51370		2.032054	-1.239131	-66.817934
51371		1.922131	-1.279257	-65.995785
51372		1.774884	-1.322350	-65.151945
51373		1.623513	-1.369167	-64.293878
51374		1.477349	-1.425669	-63.425863
51375		1.376463	-1.491843	-62.549139
51376		1.311130	-1.555261	-61.659078
51377		1.279767	-1.621223	-60.761360
51378		1.262567	-1.690920	-59.854290
51379		1.279307	-1.761912	-58.936828
51380		1.310013	-1.840729	-58.013227
51381		1.363384	-1.929397	-57.082132
51382		1.427630	-2.020684	-56.145433
51383		1.529427	-2.113491	-55.201533
51384		1.654213	-2.203961	-54.248254
51385		1.807973	-2.297218	-53.288781
51386		1.941479	-2.379522	-52.316747
51387		2.052479	-2.454733	-51.342385
51388		2.140570	-2.522150	-50.364952
51389		2.243082	-2.586554	-49.392770
51390		2.339394	-2.639084	-48.416444
51391		2.441967	-2.691892	-47.445295
51392		2.553892	-2.746300	-46.476518
51393		2.718325	-2.813356	-45.513231
51394		2.933636	-2.883407	-44.550158
51395		3.201129	-2.961282	-43.592369
51396		3.480867	-3.036850	-42.628910
51397		3.774449	-3.113323	-41.659606
51398		4.038235	-3.185389	-40.677962
51399		4.268310	-3.260721	-39.690613
51400		4.428528	-3.333541	-38.694064
51401		4.530605	-3.411729	-37.692534
51402		4.569520	-3.487032	-36.683075
51403		4.592392	-3.572544	-35.668992
51404		4.618262	-3.654451	-34.647181
51405		4.686651	-3.742383	-33.627165
51406		4.803574	-3.824523	-32.601303
51407		5.022620	-3.923841	-31.575538
51408		5.281615	-4.018933	-30.547470
51409		5.519945	-4.105817	-29.528453
51410		5.656944	-4.179862	-28.516469
51411		5.676308	-4.256570	-27.520271
51412		5.615269	-4.336081	-26.533737
51413		5.537816	-4.438453	-25.553503
51414		5.456186	-4.531913	-24.567098
51415		5.386884	-4.602091	-23.577350
51416		5.332381	-4.635833	-22.586352
51417		5.324001	-4.660598	-21.606422
51418		5.359198	-4.688660	-20.639224
51419		5.437239	-4.732054	-19.681526
51420		5.491948	-4.774913	-18.733745
51421		5.520764	-4.827556	-17.808366
51422		5.513855	-4.881636	-16.898613
51423		5.489395	-4.947365	-16.009165
51424		5.452778	-5.016917	-15.131995
51425		5.434216	-5.095219	-14.262595
51426		5.440429	-5.175183	-13.399508
51427		5.478503	-5.254294	-12.538345
51428		5.529267	-5.323770	-11.679316
51429		5.599234	-5.401706	-10.823742
51430		5.654772	-5.472361	-9.968766
51431		5.668988	-5.548369	-9.117127
51432		5.602225	-5.619584	-8.268912
51433		5.450832	-5.694316	-7.431739
51434		5.217261	-5.759006	-6.604413
51435		4.937812	-5.814929	-5.791719
51436		4.632547	-5.859166	-4.984026
51437		4.331705	-5.897866	-4.184333
51438		4.017486	-5.919215	-3.386990
51439		3.671674	-5.920972	-2.595379
51440		3.258662	-5.897286	-1.812203
51441		2.795569	-5.863617	-1.047253
51442		2.281989	-5.817453	-0.301731
51443		1.724437	-5.776921	0.423900
51444		1.121794	-5.740328	1.131784
51445		0.503662	-5.714005	1.817159
51446		-0.082109	-5.689567	2.480781
51447		-0.582841	-5.666776	3.133219
51448		-1.006245	-5.637816	3.777573
51449		-1.372319	-5.611165	4.412470
51450		-1.704798	-5.586510	5.038319
51451		-1.992567	-5.575612	5.650855
51452		-2.228554	-5.574016	6.252766
51453		-2.430818	-5.578152	6.844375
51454		-2.626106	-5.578941	7.421096
51455		-2.833864	-5.580871	7.983871
51456		-3.054186	-5.583721	8.531223
51457		-3.267759	-5.596779	9.061997
51458		-3.474935	-5.615569	9.577362
51459		-3.679296	-5.636723	10.071391
51460		-3.866377	-5.655528	10.551921
51461		-4.016474	-5.676304	11.016983
51462		-4.115831	-5.704743	11.471874
51463		-4.172644	-5.743962	11.916922
51464		-4.221894	-5.783612	12.348725
51465		-4.273239	-5.831996	12.759954
51466		-4.339711	-5.879410	13.151962
51467		-4.416096	-5.937831	13.525273
51468		-4.500299	-5.994959	13.874632
51469		-4.573836	-6.037516	14.207857
51470		-4.614546	-6.067100	14.532540
51471		-4.628572	-6.089115	14.844234
51472		-4.645333	-6.100863	15.143031
51473		-4.667918	-6.106924	15.427604
51474		-4.686603	-6.109027	15.697007
51475		-4.700967	-6.109028	15.957849
51476		-4.706853	-6.103131	16.214843
51477		-4.710204	-6.100642	16.468299
51478		-4.733526	-6.098483	16.717835
51479		-4.782225	-6.102768	16.957953
51480		-4.832285	-6.123926	17.190886
51481		-4.852660	-6.154471	17.422295
51482		-4.849983	-6.190689	17.653321
51483		-4.844963	-6.232745	17.878395
51484		-4.837232	-6.270627	18.085379
51485		-4.820124	-6.300802	18.271880
51486		-4.792041	-6.325549	18.439065
51487		-4.775441	-6.346176	18.586655
51488		-4.788590	-6.359926	18.719420
51489		-4.812634	-6.375042	18.836309
51490		-4.828196	-6.386439	18.941837
51491		-4.837270	-6.393987	19.036395
51492		-4.854689	-6.401444	19.117486
51493		-4.883944	-6.402979	19.189827
51494		-4.916770	-6.404950	19.254798
51495		-4.957518	-6.408927	19.306906
51496		-5.000590	-6.407017	19.342244
51497		-5.063883	-6.404350	19.363866
51498		-5.160494	-6.403445	19.371598
51499		-5.279054	-6.394234	19.370396
51500		-5.401265	-6.385951	19.363786
51501		-5.486409	-6.378297	19.357217
51502		-5.524468	-6.368110	19.353498
51503		-5.521895	-6.357317	19.352874
51504		-5.501922	-6.342171	19.354708
51505		-5.481972	-6.325066	19.358211
51506		-5.461428	-6.306974	19.360135
51507		-5.436495	-6.296884	19.359163
51508		-5.401130	-6.292433	19.358259
51509		-5.371224	-6.284343	19.360177
51510		-5.352634	-6.274694	19.365908
51511		-5.356733	-6.265222	19.374394
51512		-5.392020	-6.267195	19.382019
51513		-5.441923	-6.282211	19.390333
51514		-5.490630	-6.308254	19.400985
51515		-5.522597	-6.342458	19.413734
51516		-5.503972	-6.378928	19.436568
51517		-5.425232	-6.416360	19.463459
51518		-5.292434	-6.446265	19.492165
51519		-5.137559	-6.476556	19.518110
51520		-4.993573	-6.504653	19.536265
51521		-4.884372	-6.534763	19.544946
51522		-4.797989	-6.560833	19.538946
51523		-4.749478	-6.578263	19.523678
51524		-4.715474	-6.588873	19.502230
51525		-4.678082	-6.592496	19.479311
51526		-4.617752	-6.584243	19.451306
51527		-4.546346	-6.568168	19.422698
51528		-4.470951	-6.546021	19.390576
51529		-4.403326	-6.515065	19.354501
51530		-4.346669	-6.479616	19.312027
51531		-4.307566	-6.438124	19.265567
51532		-4.290224	-6.390433	19.210911
51533		-4.297911	-6.340597	19.150828
51534		-4.320283	-6.290746	19.089459
51535		-4.337648	-6.249556	19.027463
51536		-4.326682	-6.214677	18.968601
51537		-4.298843	-6.184131	18.911168
51538		-4.259284	-6.157005	18.845847
51539		-4.212729	-6.128959	18.776306
51540		-4.170961	-6.103110	18.698121
51541		-4.147529	-6.077664	18.612456
51542		-4.145379	-6.058193	18.509940
51543		-4.160195	-6.042383	18.399719
51544		-4.172318	-6.034691	18.285783
51545		-4.166154	-6.034068	18.171132
51546		-4.134727	-6.041963	18.057273
51547		-4.063526	-6.053118	17.941490
51548		-3.952894	-6.052536	17.816047
51549		-3.827156	-6.034004	17.669818
51550		-3.700242	-5.997518	17.504170
51551		-3.591379	-5.948126	17.317136
51552		-3.512246	-5.891580	17.111991
51553		-3.482262	-5.839789	16.883906
51554		-3.485359	-5.799574	16.634002
51555		-3.508863	-5.777360	16.370288
51556		-3.493193	-5.753378	16.109350
51557		-3.414560	-5.730346	15.858535
51558		-3.272628	-5.713756	15.612189
51559		-3.117904	-5.698717	15.364640
51560		-2.990525	-5.675963	15.110380
51561		-2.914013	-5.650170	14.845613
51562		-2.874478	-5.631086	14.572481
51563		-2.863062	-5.618184	14.292059
51564		-2.867046	-5.613898	14.012937
51565		-2.863949	-5.620923	13.731466
51566		-2.853961	-5.634734	13.452418
51567		-2.846090	-5.651891	13.171110
51568		-2.830615	-5.662180	12.887856
51569		-2.817122	-5.677628	12.601043
51570		-2.801579	-5.689846	12.305174
51571		-2.796466	-5.706940	12.000615
51572		-2.789506	-5.729875	11.686056
51573		-2.784131	-5.754155	11.361488
51574		-2.773739	-5.779352	11.032600
51575		-2.759603	-5.806351	10.694638
51576		-2.730757	-5.826137	10.347269
51577		-2.691526	-5.840714	9.988996
51578		-2.631408	-5.852599	9.615600
51579		-2.567108	-5.861352	9.227529
51580		-2.503490	-5.861532	8.818241
51581		-2.449579	-5.852267	8.387928
51582		-2.387150	-5.843345	7.938168
51583		-2.313707	-5.831263	7.469983
51584		-2.231179	-5.819932	6.985844
51585		-2.155875	-5.804386	6.488180
51586		-2.071921	-5.785526	5.981961
51587		-1.987721	-5.764615	5.470408
51588		-1.914472	-5.746600	4.954309
51589		-1.852632	-5.727694	4.434142
51590		-1.783356	-5.707318	3.911591
51591		-1.714073	-5.684974	3.383701
51592		-1.648633	-5.658509	2.846305
51593		-1.611293	-5.630677	2.295472
51594		-1.593201	-5.601261	1.732536
51595		-1.603191	-5.572780	1.160731
51596		-1.618183	-5.548512	0.579199
51597		-1.630724	-5.532000	-0.010869
51598		-1.634971	-5.522886	-0.606487
51599		-1.622514	-5.512992	-1.207953
51600		-1.592911	-5.503962	-1.813425
51601		-1.558518	-5.493404	-2.424182
51602		-1.515205	-5.481790	-3.039189
51603		-1.475232	-5.473541	-3.664153
51604		-1.438820	-5.465213	-4.294483
51605		-1.406407	-5.454623	-4.933165
51606		-1.371744	-5.436006	-5.587489
51607		-1.361350	-5.409848	-6.253418
51608		-1.350222	-5.378438	-6.933603
51609		-1.342409	-5.344051	-7.625737
51610		-1.327784	-5.310413	-8.329048
51611		-1.318874	-5.278551	-9.039550
51612		-1.308169	-5.248051	-9.763433
51613		-1.302470	-5.215328	-10.498534
51614		-1.295952	-5.179455	-11.243611
51615		-1.306078	-5.146118	-12.001686
51616		-1.326347	-5.110847	-12.771750
51617		-1.376933	-5.077304	-13.549347
51618		-1.424126	-5.043677	-14.332039
51619		-1.450472	-5.013109	-15.115452
51620		-1.451216	-4.993619	-15.904550
51621		-1.435780	-4.979016	-16.697480
51622		-1.409484	-4.970566	-17.495883
51623		-1.379623	-4.965018	-18.292271
51624		-1.327826	-4.966049	-19.089340
51625		-1.251967	-4.972982	-19.879980
51626		-1.153575	-4.982703	-20.669604
51627		-1.064543	-4.988761	-21.456918
51628		-0.986215	-4.995662	-22.251518
51629		-0.927521	-5.007991	-23.045999
51630		-0.880674	-5.030538	-23.850249
51631		-0.857805	-5.059622	-24.659919
51632		-0.855842	-5.090857	-25.477285
51633		-0.886295	-5.125879	-26.301260
51634		-0.922039	-5.164180	-27.130922
51635		-0.955005	-5.207430	-27.962032
51636		-0.970898	-5.249321	-28.791523
51637		-0.975110	-5.292542	-29.613561
51638		-0.939983	-5.345334	-30.430202
51639		-0.876458	-5.407556	-31.237408
51640		-0.768172	-5.478261	-32.040206
51641		-0.643941	-5.558622	-32.843561
51642		-0.509426	-5.638944	-33.654581
51643		-0.381519	-5.711949	-34.479353
51644		-0.258438	-5.776801	-35.314920
51645		-0.133773	-5.828460	-36.164423
51646		-0.002884	-5.867479	-37.030645
51647		0.107135	-5.896062	-37.905347
51648		0.205117	-5.919591	-38.786318
51649		0.285167	-5.935979	-39.669388
51650		0.356619	-5.949853	-40.548543
51651		0.419164	-5.964868	-41.416090
51652		0.496060	-5.984921	-42.277095
51653		0.581402	-6.014725	-43.126472
51654		0.683931	-6.048386	-43.965698
51655		0.782758	-6.080090	-44.801391
51656		0.894552	-6.111660	-45.636232
51657		0.995546	-6.139109	-46.468790
51658		1.077744	-6.165034	-47.301999
51659		1.139527	-6.185467	-48.141178
51660		1.213962	-6.215086	-48.979866
51661		1.314273	-6.265555	-49.816704
51662		1.463179	-6.333271	-50.653290
51663		1.622249	-6.426338	-51.491821
51664		1.825585	-6.528785	-52.329284
51665		2.065791	-6.632029	-53.160306
51666		2.358135	-6.731427	-53.994407
51667		2.672850	-6.833537	-54.834910
51668		3.010250	-6.940644	-55.680586
51669		3.384431	-7.053702	-56.529490
51670		3.767382	-7.154814	-57.378216
51671		4.109917	-7.240686	-58.232952
51672		4.383839	-7.309869	-59.094794
51673		4.608961	-7.363930	-59.958452
51674		4.836839	-7.409971	-60.823496
51675		5.054535	-7.446780	-61.681961
51676		5.262516	-7.472028	-62.533375
51677		5.425525	-7.477465	-63.374132
51678		5.528437	-7.460689	-64.209836
51679		5.603679	-7.437980	-65.038855
51680		5.669880	-7.418078	-65.856526
51681		5.718280	-7.390891	-66.667182
51682		5.749145	-7.365661	-67.468014
51683		5.778920	-7.341269	-68.250713
51684		5.799152	-7.311689	-69.022753
51685		5.797157	-7.275685	-69.781136
51686		5.802892	-7.243435	-70.530573
51687		5.798442	-7.201769	-71.265122
51688		5.771331	-7.148696	-71.990967
51689		5.726046	-7.095852	-72.704568
51690		5.652161	-7.049802	-73.406289
51691		5.560016	-7.010781	-74.094332
51692		5.472476	-6.989965	-74.770836
51693		5.422375	-6.970346	-75.427232
51694		5.411946	-6.952842	-76.062264
51695		5.431145	-6.935523	-76.679734
51696		5.477484	-6.926478	-77.283887
51697		5.563359	-6.930188	-77.873712
51698		5.697817	-6.949889	-78.448677
51699		5.865859	-6.998697	-79.009922
51700		6.074971	-7.084646	-79.566301
51701		6.312522	-7.186624	-80.109205
51702		6.597910	-7.285407	-80.626706
51703		6.935969	-7.376702	-81.115774
51704		7.302285	-7.439399	-81.584110
51705		7.633286	-7.467046	-82.037469
51706		7.877817	-7.484397	-82.477950
51707		8.038991	-7.493785	-82.903154
51708		8.156347	-7.493908	-83.315255
51709		8.234943	-7.481882	-83.705406
51710		8.276835	-7.463523	-84.074062
51711		8.295703	-7.440057	-84.426069
51712		8.320200	-7.417597	-84.761573
51713		8.367916	-7.397550	-85.080363
51714		8.435005	-7.383793	-85.381416
51715		8.531225	-7.369148	-85.665165
51716		8.627339	-7.351577	-85.928910
51717		8.699181	-7.329340	-86.176567
51718		8.736982	-7.309571	-86.406140
51719		8.780738	-7.297460	-86.613640
51720		8.827626	-7.291114	-86.800549
51721		8.873796	-7.288785	-86.967821
51722		8.900737	-7.290106	-87.114958
51723		8.904872	-7.287371	-87.241193
51724		8.879530	-7.284052	-87.351058
51725		8.845162	-7.279319	-87.448467
51726		8.825937	-7.280615	-87.529927
51727		8.820057	-7.284778	-87.597436
51728		8.818529	-7.288272	-87.648801
51729		8.810396	-7.290041	-87.688676
51730		8.798173	-7.293585	-87.719646
51731		8.785199	-7.294870	-87.741375
51732		8.751632	-7.292793	-87.753965
51733		8.718693	-7.296777	-87.756176
51734		8.680791	-7.306152	-87.750210
51735		8.651870	-7.323992	-87.731991
51736		8.618208	-7.354409	-87.706689
51737		8.586027	-7.393150	-87.674895
51738		8.530252	-7.434495	-87.635350
51739		8.471885	-7.473867	-87.588687
51740		8.415767	-7.512241	-87.537075
51741		8.342388	-7.557133	-87.491413
51742		8.298941	-7.604055	-87.443292
51743		8.235791	-7.638419	-87.385900
51744		8.182208	-7.669795	-87.334131
51745		8.130640	-7.693871	-87.283647
51746		8.076968	-7.707409	-87.229894
51747		8.043965	-7.722649	-87.178773
51748		8.018486	-7.734934	-87.128557
51749		8.002141	-7.745484	-87.075161
51750		7.987677	-7.757123	-87.022397
51751		7.989148	-7.769754	-86.965048
51752		7.996404	-7.786678	-86.904870
51753		8.006256	-7.800417	-86.842276
51754		8.018615	-7.809131	-86.773948
51755		8.036485	-7.816011	-86.691714
51756		8.038959	-7.818448	-86.596290
51757		8.023742	-7.817011	-86.487476
51758		7.985420	-7.813046	-86.358689
51759		7.953179	-7.806818	-86.214817
51760		7.935830	-7.797986	-86.045864
51761		7.942255	-7.785066	-85.849352
51762		7.952898	-7.767337	-85.620262
51763		7.961874	-7.744552	-85.360021
51764		7.941184	-7.715604	-85.073349
51765		7.842886	-7.691809	-84.765382
51766		7.651627	-7.675539	-84.423467
51767		7.403882	-7.670054	-84.041210
51768		7.085590	-7.660870	-83.614744
51769		6.702538	-7.646146	-83.147117
51770		6.262011	-7.623657	-82.635000
51771		5.833145	-7.597891	-82.088381
51772		5.419392	-7.566063	-81.508856
51773		5.066683	-7.539753	-80.907305
51774		4.747130	-7.520371	-80.285972
51775		4.441926	-7.504761	-79.652102
51776		4.137557	-7.488641	-79.005198
51777		3.861076	-7.481479	-78.347486
51778		3.644231	-7.487970	-77.674116
51779		3.536813	-7.506001	-76.987603
51780		3.503995	-7.531989	-76.292338
51781		3.514109	-7.560505	-75.574382
51782		3.527138	-7.584387	-74.842489
51783		3.547403	-7.610904	-74.092122
51784		3.545714	-7.639906	-73.321661
51785		3.534311	-7.673248	-72.538620
51786		3.474408	-7.704922	-71.743204
51787		3.385654	-7.738279	-70.942290
51788		3.274305	-7.770070	-70.133652
51789		3.192909	-7.810963	-69.322927
51790		3.134522	-7.843709	-68.509168
51791		3.088834	-7.873407	-67.689302
51792		3.035914	-7.903372	-66.858712
51793		3.002858	-7.942048	-66.018044
51794		2.977368	-7.980376	-65.160501
51795		2.976390	-8.027603	-64.297446
51796		2.975746	-8.073376	-63.419305
51797		3.003677	-8.118994	-62.535412
51798		3.060264	-8.153961	-61.646806
51799		3.155437	-8.191002	-60.760998
51800		3.263835	-8.229234	-59.877245
51801		3.381131	-8.269607	-58.998727
51802		3.485530	-8.313818	-58.124394
51803		3.569827	-8.361699	-57.253247
51804		3.611083	-8.409674	-56.384877
51805		3.665884	-8.463701	-55.518243
51806		3.725284	-8.513175	-54.635792
51807		3.776529	-8.561725	-53.742373
51808		3.760864	-8.599070	-52.835390
51809		3.659532	-8.626317	-51.925120
51810		3.447590	-8.638080	-51.002716
51811		3.181307	-8.643794	-50.069124
51812		2.888069	-8.648014	-49.118865
51813		2.622795	-8.651523	-48.149730
51814		2.378134	-8.648218	-47.161189
51815		2.175784	-8.632845	-46.158286
51816		2.009803	-8.602470	-45.148176
51817		1.910121	-8.578433	-44.140169
51818		1.850343	-8.552774	-43.124184
51819		1.812786	-8.527201	-42.106916
51820		1.757052	-8.496857	-41.082907
51821		1.677937	-8.464907	-40.058918
51822		1.563855	-8.427909	-39.032232
51823		1.440862	-8.399186	-38.012533
51824		1.345103	-8.373642	-36.993128
51825		1.339953	-8.363812	-35.976756
51826		1.389572	-8.353141	-34.958018
51827		1.487340	-8.347096	-33.947952
51828		1.581071	-8.333964	-32.935019
51829		1.638677	-8.325317	-31.934980
51830		1.636020	-8.315281	-30.945356
51831		1.596952	-8.318322	-29.967056
51832		1.493018	-8.312721	-28.994205
51833		1.345859	-8.302117	-28.029489
51834		1.186588	-8.286770	-27.070987
51835		1.067885	-8.284401	-26.117955
51836		1.037463	-8.297163	-25.172267
51837		1.133061	-8.336755	-24.232817
51838		1.307767	-8.393617	-23.296879
51839		1.468553	-8.446424	-22.362694
51840		1.517333	-8.457043	-21.436142
51841		1.472423	-8.453470	-20.521628
51842		1.377497	-8.436929	-19.610638
51843		1.300472	-8.428705	-18.701544
51844		1.264362	-8.423115	-17.786530
51845		1.259708	-8.416387	-16.865331
51846		1.278946	-8.399695	-15.940326
51847		1.286641	-8.368072	-15.018471
51848		1.244348	-8.307755	-14.107166
51849		1.153192	-8.240988	-13.211586
51850		1.009192	-8.162831	-12.330455
51851		0.818171	-8.084453	-11.466517
51852		0.615272	-8.006227	-10.612974
51853		0.434536	-7.943088	-9.772341
51854		0.283392	-7.884971	-8.941476
51855		0.168236	-7.833933	-8.124879
51856		0.092088	-7.782913	-7.322616
51857		0.043968	-7.737922	-6.529999
51858		-0.030706	-7.695445	-5.745906
51859		-0.152417	-7.656766	-4.973804
51860		-0.324881	-7.625710	-4.210708
51861		-0.521719	-7.606039	-3.461453
51862		-0.732796	-7.594526	-2.723281
51863		-0.930215	-7.593031	-1.994101
51864		-1.112841	-7.595375	-1.276215
51865		-1.253187	-7.617910	-0.570485
51866		-1.342645	-7.658488	0.125105
51867		-1.378631	-7.711593	0.813387
51868		-1.386441	-7.762614	1.491445
51869		-1.373491	-7.821935	2.153690
51870		-1.392443	-7.884386	2.798209
51871		-1.441151	-7.949628	3.428266
51872		-1.520967	-8.012286	4.046491
51873		-1.606862	-8.082756	4.649216
51874		-1.684037	-8.162977	5.241042
51875		-1.712754	-8.256186	5.826908
51876		-1.698840	-8.345661	6.410383
51877		-1.650402	-8.436804	6.987953
51878		-1.612725	-8.522020	7.561249
51879		-1.595802	-8.604563	8.127902
51880		-1.653044	-8.676767	8.686585
51881		-1.765811	-8.746313	9.233933
51882		-1.905097	-8.817517	9.771748
51883		-2.015457	-8.899702	10.299993
51884		-2.080631	-8.982661	10.820572
51885		-2.112317	-9.066031	11.328298
51886		-2.130326	-9.139842	11.823119
51887		-2.142719	-9.211646	12.301559
51888		-2.165096	-9.282977	12.765775
51889		-2.192344	-9.358722	13.217537
51890		-2.235837	-9.430886	13.660836
51891		-2.276754	-9.494761	14.093852
51892		-2.319416	-9.549547	14.520796
51893		-2.376604	-9.603739	14.941030
51894		-2.452533	-9.643060	15.351103
51895		-2.546723	-9.680417	15.745237
51896		-2.644928	-9.714553	16.122675
51897		-2.727824	-9.751135	16.482279
51898		-2.799560	-9.776819	16.822768
51899		-2.872714	-9.789973	17.142118
51900		-2.968078	-9.788955	17.436424
51901		-3.086173	-9.786575	17.702549
51902		-3.207060	-9.778770	17.945281
51903		-3.317937	-9.770474	18.164541
51904		-3.423183	-9.753505	18.358243
51905		-3.518046	-9.732608	18.525752
51906		-3.587079	-9.710617	18.671049
51907		-3.630112	-9.691431	18.798749
51908		-3.647972	-9.671050	18.909479
51909		-3.659227	-9.654162	19.004418
51910		-3.677752	-9.631850	19.084476
51911		-3.714427	-9.611966	19.151763
51912		-3.781522	-9.591060	19.207624
51913		-3.878070	-9.579067	19.256876
51914		-3.987886	-9.575397	19.305138
51915		-4.082341	-9.583411	19.356348
51916		-4.153838	-9.597119	19.414900
51917		-4.220275	-9.606539	19.469710
51918		-4.292060	-9.608732	19.514700
51919		-4.384421	-9.602632	19.547505
51920		-4.491751	-9.589075	19.564354
51921		-4.589496	-9.575536	19.567758
51922		-4.655526	-9.570640	19.562135
51923		-4.680648	-9.572552	19.551826
51924		-4.665106	-9.575588	19.535263
51925		-4.633119	-9.573427	19.512545
51926		-4.604354	-9.566420	19.485321
51927		-4.605136	-9.557739	19.450768
51928		-4.635328	-9.547503	19.410295
51929		-4.674072	-9.540851	19.370421
51930		-4.700252	-9.536521	19.337490
51931		-4.706942	-9.538568	19.311461
51932		-4.678651	-9.543464	19.288739
51933		-4.617089	-9.556877	19.274661
51934		-4.529746	-9.572115	19.258564
51935		-4.450821	-9.583193	19.240095
51936		-4.389717	-9.590634	19.217315
51937		-4.347545	-9.594019	19.189327
51938		-4.305316	-9.591883	19.161813
51939		-4.272296	-9.585973	19.135189
51940		-4.240187	-9.576632	19.110250
51941		-4.199416	-9.564125	19.086904
51942		-4.127026	-9.544376	19.064271
51943		-4.015930	-9.522082	19.045923
51944		-3.861919	-9.501129	19.026879
51945		-3.703261	-9.480258	19.006502
51946		-3.563283	-9.452710	18.983681
51947		-3.442482	-9.425552	18.957161
51948		-3.364345	-9.399806	18.923886
51949		-3.338818	-9.371967	18.882423
51950		-3.357651	-9.345895	18.837826
51951		-3.385363	-9.322139	18.792225
51952		-3.390729	-9.304391	18.748771
51953		-3.360979	-9.293628	18.707554
51954		-3.294186	-9.287783	18.668349
51955		-3.222173	-9.281384	18.623733
51956		-3.150359	-9.277968	18.570122
51957		-3.090221	-9.271981	18.507130
51958		-3.041003	-9.269365	18.434232
51959		-2.998720	-9.271339	18.354121
51960		-2.951219	-9.278915	18.263709
51961		-2.903752	-9.288667	18.164538
51962		-2.862106	-9.295036	18.059397
51963		-2.827900	-9.303145	17.942837
51964		-2.785775	-9.313073	17.815146
51965		-2.739295	-9.316844	17.674444
51966		-2.700318	-9.312974	17.508523
51967		-2.682711	-9.303687	17.323350
51968		-2.673687	-9.289419	17.116129
51969		-2.671749	-9.271144	16.885501
51970		-2.666485	-9.249551	16.631983
51971		-2.665699	-9.225939	16.358051
51972		-2.663506	-9.196160	16.062728
51973		-2.663898	-9.164867	15.747709
51974		-2.661028	-9.126428	15.415249
51975		-2.677478	-9.073709	15.064113
51976		-2.691407	-9.011353	14.690586
51977		-2.705340	-8.948424	14.298486
51978		-2.714442	-8.885773	13.885390
51979		-2.718325	-8.822641	13.449878
51980		-2.694512	-8.764047	12.985391
51981		-2.648686	-8.710874	12.501965
51982		-2.576499	-8.651783	11.998206
51983		-2.510214	-8.587418	11.475573
51984		-2.447793	-8.519925	10.932474
51985		-2.419098	-8.455411	10.375012
51986		-2.412899	-8.398597	9.805947
51987		-2.434449	-8.345209	9.231572
51988		-2.458104	-8.291513	8.655407
51989		-2.477796	-8.234842	8.080197
51990		-2.478937	-8.178579	7.510918
51991		-2.480474	-8.124151	6.945328
51992		-2.478924	-8.072795	6.380506
51993		-2.493193	-8.026085	5.812238
51994		-2.529747	-7.983992	5.242225
51995		-2.589232	-7.950828	4.666570
51996		-2.636502	-7.924334	4.088475
51997		-2.667179	-7.908500	3.508891
51998		-2.686086	-7.897247	2.917916
51999		-2.715233	-7.883780	2.319196
52000		-2.745705	-7.871212	1.708894
52001		-2.777527	-7.860075	1.083798
52002		-2.803041	-7.851951	0.445695
52003		-2.830026	-7.841067	-0.211686
52004		-2.851577	-7.832357	-0.884361
52005		-2.870405	-7.821802	-1.577824
52006		-2.861806	-7.809349	-2.289768
52007		-2.846088	-7.790960	-3.016288
52008		-2.810908	-7.757860	-3.757337
52009		-2.802785	-7.703051	-4.509030
52010		-2.840808	-7.626314	-5.267112
52011		-2.941214	-7.534694	-6.031729
52012		-3.115020	-7.435729	-6.797821
52013		-3.387001	-7.321702	-7.569682
52014		-3.738915	-7.205362	-8.343465
52015		-4.129047	-7.089695	-9.114055
52016		-4.478968	-6.985542	-9.884588
52017		-4.753392	-6.894439	-10.653449
52018		-4.947782	-6.810437	-11.424794
52019		-5.101137	-6.726916	-12.200972
52020		-5.221369	-6.642084	-12.984736
52021		-5.322548	-6.554067	-13.781760
52022		-5.413281	-6.467869	-14.592349
52023		-5.506961	-6.383890	-15.410107
52024		-5.582547	-6.305376	-16.237051
52025		-5.637919	-6.233275	-17.069179
52026		-5.653788	-6.156441	-17.912423
52027		-5.658919	-6.081971	-18.762546
52028		-5.634071	-6.009789	-19.620540
52029		-5.593230	-5.940814	-20.481471
52030		-5.498199	-5.868203	-21.349777
52031		-5.386653	-5.776284	-22.230031
52032		-5.264286	-5.672658	-23.128997
52033		-5.160235	-5.557257	-24.049744
52034		-5.091760	-5.432046	-24.990366
52035		-5.085579	-5.291260	-25.948018
52036		-5.105129	-5.141773	-26.918919
52037		-5.142396	-4.975737	-27.892230
52038		-5.162987	-4.797940	-28.862946
52039		-5.161450	-4.612483	-29.824454
52040		-5.132968	-4.426583	-30.777035
52041		-5.112802	-4.240703	-31.719374
52042		-5.105387	-4.068528	-32.653374
52043		-5.137524	-3.901749	-33.579099
52044		-5.206144	-3.744149	-34.499583
52045		-5.333171	-3.593398	-35.419248
52046		-5.486651	-3.449423	-36.336750
52047		-5.676257	-3.311201	-37.246433
52048		-5.859785	-3.179457	-38.145815
52049		-6.044971	-3.058505	-39.034294
52050		-6.232855	-2.958061	-39.919219
52051		-6.429550	-2.869899	-40.803316
52052		-6.575142	-2.804171	-41.683318
52053		-6.651863	-2.760891	-42.562419
52054		-6.667708	-2.732525	-43.435041
52055		-6.650878	-2.711975	-44.308853
52056		-6.618956	-2.686113	-45.182137
52057		-6.586876	-2.657303	-46.053718
52058		-6.531448	-2.641370	-46.924068
52059		-6.460236	-2.640232	-47.791394
52060		-6.376825	-2.647654	-48.654152
52061		-6.306428	-2.654340	-49.517215
52062		-6.240355	-2.667084	-50.390172
52063		-6.192376	-2.683627	-51.268782
52064		-6.141161	-2.703910	-52.157698
52065		-6.095992	-2.725820	-53.054987
52066		-6.027980	-2.745445	-53.960264
52067		-5.950241	-2.757199	-54.873482
52068		-5.840217	-2.766449	-55.792290
52069		-5.734683	-2.774965	-56.715675
52070		-5.636839	-2.782246	-57.640882
52071		-5.546242	-2.787433	-58.566256
52072		-5.445939	-2.790516	-59.487491
52073		-5.339402	-2.785339	-60.397102
52074		-5.205807	-2.770526	-61.294261
52075		-5.048536	-2.738286	-62.176229
52076		-4.875198	-2.698188	-63.048315
52077		-4.723449	-2.649727	-63.910381
52078		-4.627646	-2.586798	-64.764283
52079		-4.616743	-2.516355	-65.612107
52080		-4.640675	-2.448162	-66.450747
52081		-4.663911	-2.382019	-67.274147
52082		-4.672965	-2.324825	-68.085051
52083		-4.654759	-2.268622	-68.880543
52084		-4.619205	-2.201724	-69.655596
52085		-4.597268	-2.119690	-70.412166
52086		-4.585152	-2.043709	-71.156172
52087		-4.563177	-1.972190	-71.876346
52088		-4.508179	-1.906798	-72.580102
52089		-4.426859	-1.850348	-73.266753
52090		-4.302990	-1.807592	-73.934085
52091		-4.133607	-1.776713	-74.579260
52092		-3.918952	-1.743736	-75.206987
52093		-3.703198	-1.703666	-75.821868
52094		-3.497059	-1.662264	-76.425804
52095		-3.298181	-1.629894	-77.023187
52096		-3.083276	-1.608413	-77.608576
52097		-2.850109	-1.588696	-78.178290
52098		-2.608202	-1.569399	-78.733771
52099		-2.363305	-1.550167	-79.271426
52100		-2.129044	-1.523505	-79.791291
52101		-1.927529	-1.479736	-80.301485
52102		-1.819274	-1.407869	-80.802689
52103		-1.813053	-1.323743	-81.293308
52104		-1.857583	-1.233745	-81.765320
52105		-1.948423	-1.136800	-82.214266
52106		-2.065259	-1.038699	-82.632511
52107		-2.189100	-0.941069	-83.019596
52108		-2.307948	-0.837933	-83.372401
52109		-2.427233	-0.733568	-83.692271
52110		-2.522615	-0.643408	-83.983342
52111		-2.565899	-0.568726	-84.241182
52112		-2.537383	-0.517602	-84.465863
52113		-2.465667	-0.476695	-84.661104
52114		-2.383502	-0.444374	-84.835287
52115		-2.303669	-0.410092	-84.994897
52116		-2.231772	-0.372638	-85.138313
52117		-2.175030	-0.327595	-85.268574
52118		-2.136642	-0.286671	-85.379297
52119		-2.098052	-0.247370	-85.475094
52120		-2.070419	-0.208313	-85.557173
52121		-2.054683	-0.169549	-85.624566
52122		-2.040310	-0.131159	-85.682407
52123		-2.020117	-0.093507	-85.728626
52124		-2.006187	-0.056150	-85.770782
52125		-2.004329	-0.012710	-85.804610
52126		-2.023046	0.031175	-85.831991
52127		-2.054107	0.072454	-85.854278
52128		-2.082441	0.109480	-85.867995
52129		-2.089622	0.138970	-85.871825
52130		-2.079912	0.163001	-85.867851
52131		-2.037709	0.181854	-85.851749
52132		-1.976401	0.190599	-85.831432
52133		-1.914496	0.201532	-85.804257
52134		-1.854425	0.219234	-85.771739
52135		-1.790313	0.234135	-85.732348
52136		-1.738163	0.248536	-85.684412
52137		-1.698584	0.263175	-85.632207
52138		-1.673533	0.276271	-85.575076
52139		-1.664439	0.288763	-85.514080
52140		-1.675407	0.308150	-85.455189
52141		-1.689164	0.332874	-85.399576
52142		-1.712354	0.360052	-85.335400
52143		-1.720235	0.381515	-85.270944
52144		-1.722954	0.390625	-85.199150
52145		-1.740354	0.391352	-85.125183
52146		-1.773676	0.388663	-85.049032
52147		-1.808951	0.383618	-84.969409
52148		-1.841307	0.374290	-84.877641
52149		-1.850530	0.357189	-84.778289
52150		-1.849721	0.334415	-84.663622
52151		-1.832127	0.307155	-84.537773
52152		-1.811710	0.282972	-84.401493
52153		-1.790873	0.263797	-84.262022
52154		-1.776583	0.249670	-84.122473
52155		-1.748521	0.243343	-83.984379
52156		-1.723193	0.248109	-83.850651
52157		-1.699850	0.261378	-83.719054
52158		-1.693651	0.278788	-83.595675
52159		-1.697267	0.299323	-83.475921
52160		-1.711066	0.319244	-83.355733
52161		-1.717229	0.340843	-83.225678
52162		-1.726726	0.368035	-83.085340
52163		-1.725720	0.399440	-82.931037
52164		-1.728723	0.432546	-82.764697
52165		-1.737430	0.461407	-82.576036
52166		-1.745663	0.479478	-82.366742
52167		-1.737912	0.491605	-82.128252
52168		-1.732489	0.497507	-81.864314
52169		-1.745785	0.497467	-81.577023
52170		-1.798770	0.491597	-81.264895
52171		-1.882647	0.487668	-80.924180
52172		-2.019391	0.487396	-80.552388
52173		-2.209470	0.484636	-80.148533
52174		-2.428115	0.472854	-79.710223
52175		-2.655383	0.443709	-79.240390
52176		-2.925062	0.404333	-78.744376
52177		-3.216013	0.356835	-78.226559
52178		-3.528973	0.308493	-77.687427
52179		-3.802427	0.255750	-77.126794
52180		-4.035401	0.195585	-76.541397
52181		-4.194590	0.121494	-75.936483
52182		-4.301726	0.037568	-75.317089
52183		-4.352960	-0.058533	-74.684125
52184		-4.384316	-0.155072	-74.038539
52185		-4.429115	-0.246627	-73.395844
52186		-4.532962	-0.331600	-72.761193
52187		-4.663155	-0.417660	-72.133524
52188		-4.805391	-0.508701	-71.507838
52189		-4.926904	-0.611334	-70.880271
52190		-5.022049	-0.719779	-70.247110
52191		-5.070100	-0.838040	-69.606612
52192		-5.089681	-0.957561	-68.960055
52193		-5.076114	-1.085104	-68.309724
52194		-5.049157	-1.216720	-67.654640
52195		-4.994856	-1.357097	-66.993120
52196		-4.939677	-1.503370	-66.324909
52197		-4.895160	-1.655805	-65.648711
52198		-4.854004	-1.818888	-64.963758
52199		-4.806242	-1.985208	-64.265961
52200		-4.757358	-2.149480	-63.554986
52201		-4.686642	-2.316094	-62.829726
52202		-4.602768	-2.483079	-62.088573
52203		-4.493363	-2.643738	-61.336879
52204		-4.387499	-2.788984	-60.583747
52205		-4.289363	-2.928858	-59.831234
52206		-4.210508	-3.062977	-59.075256
52207		-4.141532	-3.196865	-58.321830
52208		-4.099086	-3.320096	-57.571478
52209		-4.062019	-3.436272	-56.828031
52210		-4.031645	-3.541895	-56.087899
52211		-3.988989	-3.640963	-55.348315
52212		-3.951525	-3.731390	-54.603361
52213		-3.926918	-3.810775	-53.853423
52214		-3.937746	-3.877645	-53.095035
52215		-3.975618	-3.938002	-52.339011
52216		-4.062439	-3.985760	-51.580723
52217		-4.180010	-4.034644	-50.819849
52218		-4.325284	-4.074740	-50.055488
52219		-4.462110	-4.114569	-49.289636
52220		-4.567551	-4.162420	-48.526193
52221		-4.639332	-4.217973	-47.763242
52222		-4.710545	-4.272089	-46.999259
52223		-4.769905	-4.328675	-46.234360
52224		-4.824622	-4.382655	-45.465545
52225		-4.862004	-4.446135	-44.692694
52226		-4.885204	-4.517139	-43.909327
52227		-4.899644	-4.592149	-43.114109
52228		-4.920965	-4.669412	-42.306387
52229		-4.937344	-4.756059	-41.487454
52230		-4.938035	-4.851847	-40.658403
52231		-4.898783	-4.954997	-39.822387
52232		-4.820415	-5.063734	-38.980702
52233		-4.698218	-5.178269	-38.134047
52234		-4.555656	-5.291447	-37.285131
52235		-4.399273	-5.398585	-36.432842
52236		-4.260236	-5.502355	-35.582279
52237		-4.145235	-5.602979	-34.738540
52238		-4.059389	-5.695104	-33.905057
52239		-3.972500	-5.788663	-33.069986
52240		-3.874795	-5.878700	-32.232077
52241		-3.738682	-5.976536	-31.390633
52242		-3.559871	-6.077286	-30.544649
52243		-3.335047	-6.177139	-29.696419
52244		-3.094186	-6.262775	-28.847149
52245		-2.832323	-6.340785	-28.002099
52246		-2.581434	-6.402754	-27.164487
52247		-2.370873	-6.452061	-26.335429
52248		-2.255743	-6.485451	-25.516530
52249		-2.202543	-6.511028	-24.710796
52250		-2.195031	-6.527380	-23.908187
52251		-2.190880	-6.536635	-23.106338
52252		-2.209500	-6.533658	-22.298417
52253		-2.204607	-6.530479	-21.494940
52254		-2.188653	-6.519975	-20.690950
52255		-2.167262	-6.511809	-19.891135
52256		-2.184675	-6.490868	-19.092538
52257		-2.240530	-6.464159	-18.299272
52258		-2.332190	-6.433898	-17.512483
52259		-2.424509	-6.415697	-16.736012
52260		-2.513130	-6.396955	-15.961299
52261		-2.581148	-6.382144	-15.189092
52262		-2.653334	-6.365518	-14.421966
52263		-2.728791	-6.350856	-13.663660
52264		-2.821157	-6.335124	-12.912091
52265		-2.923096	-6.327781	-12.168903
52266		-3.040655	-6.322668	-11.428329
52267		-3.155716	-6.323641	-10.694949
52268		-3.297680	-6.333993	-9.965883
52269		-3.440493	-6.355364	-9.242390
52270		-3.565434	-6.387421	-8.522309
52271		-3.670427	-6.423111	-7.808310
52272		-3.777931	-6.454133	-7.099709
52273		-3.876574	-6.486988	-6.400760
52274		-3.971422	-6.514636	-5.709429
52275		-4.061297	-6.537437	-5.026386
52276		-4.164189	-6.556460	-4.353289
52277		-4.280661	-6.580660	-3.692245
52278		-4.407919	-6.608491	-3.041536
52279		-4.524722	-6.644382	-2.400590
52280		-4.603397	-6.686228	-1.764642
52281		-4.633368	-6.721605	-1.135446
52282		-4.640655	-6.744868	-0.514468
52283		-4.618062	-6.765295	0.093536
52284		-4.590992	-6.781998	0.692368
52285		-4.573213	-6.803349	1.276843
52286		-4.580051	-6.827470	1.850251
52287		-4.604231	-6.855585	2.409771
52288		-4.640791	-6.876628	2.959931
52289		-4.685587	-6.885127	3.501843
52290		-4.759169	-6.880719	4.041674
52291		-4.865242	-6.871532	4.578091
52292		-4.999813	-6.854730	5.112941
52293		-5.128375	-6.851067	5.651290
52294		-5.221749	-6.864785	6.193604
52295		-5.267399	-6.898584	6.737696
52296		-5.274186	-6.935765	7.280952
52297		-5.255172	-6.973092	7.819827
52298		-5.229973	-7.007621	8.355729
52299		-5.211713	-7.044103	8.882566
52300		-5.218467	-7.075434	9.406099
52301		-5.237897	-7.111614	9.917647
52302		-5.271864	-7.145277	10.422134
52303		-5.296123	-7.179601	10.916384
52304		-5.300935	-7.208249	11.403077
52305		-5.282735	-7.225200	11.876379
52306		-5.265055	-7.229021	12.337356
52307		-5.265317	-7.218024	12.783129
52308		-5.300803	-7.195034	13.208342
52309		-5.379687	-7.163015	13.615035
52310		-5.491799	-7.123321	14.001591
52311		-5.613446	-7.091834	14.371006
52312		-5.729958	-7.065331	14.725572
52313		-5.840509	-7.040577	15.066743
52314		-5.936784	-7.018927	15.394230
52315		-5.993518	-7.005615	15.710957
52316		-6.033427	-6.999796	16.011430
52317		-6.066301	-6.998448	16.293694
52318		-6.094899	-6.996182	16.557632
52319		-6.132629	-6.995981	16.798605
52320		-6.178701	-6.992166	17.018664
52321		-6.221608	-6.988707	17.217943
52322		-6.262542	-6.991995	17.397604
52323		-6.298466	-6.996448	17.554388
52324		-6.325202	-7.002042	17.696014
52325		-6.344195	-7.006397	17.818229
52326		-6.358846	-7.008536	17.926323
52327		-6.366997	-7.008730	18.019446
52328		-6.373933	-7.006601	18.100166
52329		-6.387774	-7.002467	18.170946
52330		-6.414268	-6.994694	18.231980
52331		-6.447472	-6.987844	18.282632
52332		-6.476930	-6.977881	18.328299
52333		-6.506750	-6.957580	18.364186
52334		-6.541727	-6.934321	18.388329
52335		-6.597132	-6.904914	18.398417
52336		-6.665541	-6.871653	18.397124
52337		-6.734079	-6.839702	18.389481
52338		-6.785412	-6.808720	18.380930
52339		-6.822302	-6.779453	18.371726
52340		-6.850095	-6.753743	18.358013
52341		-6.883727	-6.728860	18.339040
52342		-6.907034	-6.705581	18.315127
52343		-6.919297	-6.686724	18.291123
52344		-6.910741	-6.669548	18.270072
52345		-6.891599	-6.657162	18.252945
52346		-6.870980	-6.650455	18.240832
52347		-6.868232	-6.642964	18.230800
52348		-6.885305	-6.632271	18.222432
52349		-6.921259	-6.620929	18.218569
52350		-6.958975	-6.614605	18.216680
52351		-6.987719	-6.609198	18.222800
52352		-6.999212	-6.603936	18.230060
52353		-6.993918	-6.595581	18.237838
52354		-6.978872	-6.582957	18.241551
52355		-6.964379	-6.567720	18.241399
52356		-6.959056	-6.551858	18.235226
52357		-6.964127	-6.535910	18.222425
52358		-6.966146	-6.519514	18.201059
52359		-6.964428	-6.504195	18.178003
52360		-6.951792	-6.490171	18.153586
52361		-6.932942	-6.471575	18.128613
52362		-6.910885	-6.452907	18.097856
52363		-6.892288	-6.429163	18.063001
52364		-6.872690	-6.404175	18.014112
52365		-6.842606	-6.379092	17.955321
52366		-6.789129	-6.357775	17.886682
52367		-6.709432	-6.344863	17.805837
52368		-6.598353	-6.339404	17.713592
52369		-6.469554	-6.337254	17.609168
52370		-6.330182	-6.332512	17.487967
52371		-6.189317	-6.320446	17.348678
52372		-6.061632	-6.302570	17.188124
52373		-5.948728	-6.267612	17.001634
52374		-5.836893	-6.225396	16.795465
52375		-5.725403	-6.171096	16.566781
52376		-5.627284	-6.105108	16.316689
52377		-5.558712	-6.028390	16.046478
52378		-5.510540	-5.939954	15.757529
52379		-5.494506	-5.848241	15.450767
52380		-5.505313	-5.753297	15.129631
52381		-5.544169	-5.662638	14.796242
52382		-5.596436	-5.573604	14.447824
52383		-5.656626	-5.483908	14.085737
52384		-5.705814	-5.397115	13.706576
52385		-5.750850	-5.313428	13.310946
52386		-5.771117	-5.233076	12.901800
52387		-5.763485	-5.163622	12.480489
52388		-5.727385	-5.100117	12.042817
52389		-5.683975	-5.041713	11.593447
52390		-5.633098	-4.996920	11.129411
52391		-5.567561	-4.958716	10.657384
52392		-5.471588	-4.928608	10.174837
52393		-5.362631	-4.893449	9.683089
52394		-5.250465	-4.847674	9.176230
52395		-5.161593	-4.796113	8.645194
52396		-5.087024	-4.746311	8.093734
52397		-5.021060	-4.689783	7.518129
52398		-4.935203	-4.636650	6.924635
52399		-4.858838	-4.572326	6.312329
52400		-4.790729	-4.504127	5.680804
52401		-4.741459	-4.441691	5.026262
52402		-4.702216	-4.382913	4.349114
52403		-4.695397	-4.321429	3.658181
52404		-4.687140	-4.256661	2.944933
52405		-4.674005	-4.185921	2.208402
52406		-4.615343	-4.111369	1.454759
52407		-4.518265	-4.034243	0.678528
52408		-4.371979	-3.954507	-0.121560
52409		-4.214911	-3.873935	-0.946729
52410		-4.039471	-3.794410	-1.795560
52411		-3.869389	-3.718724	-2.667424
52412		-3.692525	-3.648124	-3.556326
52413		-3.528546	-3.582299	-4.467512
52414		-3.352518	-3.523521	-5.391853
52415		-3.178067	-3.460109	-6.330601
52416		-2.984426	-3.400076	-7.284242
52417		-2.793244	-3.341569	-8.246536
52418		-2.587619	-3.290668	-9.220497
52419		-2.396167	-3.237468	-10.206709
52420		-2.204710	-3.184131	-11.198230
52421		-2.022395	-3.134067	-12.205194
52422		-1.833926	-3.082492	-13.221489
52423		-1.662762	-3.027191	-14.247884
52424		-1.505496	-2.972680	-15.288463
52425		-1.381818	-2.912039	-16.334922
52426		-1.280422	-2.850207	-17.386681
52427		-1.208272	-2.798344	-18.444216
52428		-1.143135	-2.754312	-19.492359
52429		-1.071727	-2.715429	-20.527005
52430		-0.965561	-2.689357	-21.547536
52431		-0.836696	-2.668608	-22.553298
52432		-0.677003	-2.650703	-23.544517
52433		-0.529220	-2.637018	-24.528466
52434		-0.394076	-2.634032	-25.514672
52435		-0.318265	-2.633435	-26.504684
52436		-0.285493	-2.646539	-27.500774
52437		-0.260263	-2.671872	-28.496514
52438		-0.205557	-2.716694	-29.490347
52439		-0.099790	-2.762400	-30.471721
52440		0.083219	-2.806431	-31.441237
52441		0.317707	-2.848060	-32.401744
52442		0.577381	-2.889674	-33.354035
52443		0.815161	-2.936212	-34.303267
52444		1.029562	-2.985600	-35.247640
52445		1.199359	-3.032622	-36.181044
52446		1.350820	-3.084728	-37.103996
52447		1.472861	-3.128447	-38.018180
52448		1.608758	-3.174704	-38.926266
52449		1.742542	-3.223920	-39.828375
52450		1.876974	-3.274283	-40.726575
52451		1.986769	-3.319695	-41.619308
52452		2.082738	-3.364431	-42.502492
52453		2.144703	-3.404945	-43.372854
52454		2.170988	-3.434400	-44.233959
52455		2.168604	-3.465151	-45.083660
52456		2.172703	-3.506149	-45.924851
52457		2.169321	-3.553122	-46.760505
52458		2.178794	-3.613538	-47.593906
52459		2.229079	-3.693730	-48.425973
52460		2.322980	-3.798632	-49.258933
52461		2.446588	-3.920898	-50.099197
52462		2.643040	-4.064840	-50.943289
52463		2.905761	-4.218461	-51.787561
52464		3.191509	-4.360613	-52.637066
52465		3.453054	-4.485833	-53.496349
52466		3.711698	-4.605255	-54.361787
52467		3.947046	-4.721736	-55.231754
52468		4.157598	-4.826982	-56.102488
52469		4.327485	-4.921942	-56.971744
52470		4.489660	-5.014672	-57.838836
52471		4.635795	-5.099177	-58.700021
52472		4.747836	-5.166257	-59.559812
52473		4.841816	-5.218076	-60.415687
52474		4.926512	-5.262204	-61.262944
52475		5.007027	-5.285923	-62.093082
52476		5.083410	-5.295411	-62.911989
52477		5.115562	-5.286213	-63.719859
52478		5.089009	-5.263539	-64.514444
52479		4.973018	-5.235658	-65.302158
52480		4.818886	-5.210989	-66.079322
52481		4.645870	-5.187770	-66.840189
52482		4.469786	-5.166614	-67.587904
52483		4.315366	-5.149121	-68.325693
52484		4.187719	-5.138405	-69.060155
52485		4.070814	-5.126988	-69.784071
52486		3.956482	-5.107835	-70.498303
52487		3.826954	-5.078088	-71.205636
52488		3.685993	-5.047947	-71.906568
52489		3.541444	-5.020696	-72.603821
52490		3.392681	-5.008278	-73.297099
52491		3.225776	-4.995155	-73.977240
52492		3.046604	-4.986697	-74.651888
52493		2.895851	-4.973889	-75.311929
52494		2.802413	-4.952011	-75.956706
52495		2.749214	-4.914130	-76.583688
52496		2.691994	-4.862753	-77.201586
52497		2.593187	-4.794445	-77.811275
52498		2.459207	-4.722501	-78.415852
52499		2.320302	-4.657728	-79.012599
52500		2.197103	-4.597848	-79.601771
52501		2.091214	-4.548810	-80.186238
52502		2.011247	-4.497319	-80.759403
52503		1.954318	-4.434786	-81.320218
52504		1.926166	-4.361715	-81.873262
52505		1.912555	-4.284593	-82.417836
52506		1.909350	-4.196252	-82.949843
52507		1.907169	-4.095492	-83.468588
52508		1.908602	-3.978966	-83.973222
52509		1.936957	-3.857474	-84.460750
52510		1.981820	-3.730762	-84.929244
52511		2.031605	-3.600620	-85.376540
52512		2.078561	-3.476577	-85.804856
52513		2.115078	-3.357795	-86.205789
52514		2.136316	-3.237946	-86.580924
52515		2.133201	-3.122465	-86.932129
52516		2.100720	-3.011770	-87.254722
52517		2.054786	-2.907385	-87.552665
52518		2.024415	-2.807424	-87.823402
52519		2.003805	-2.703980	-88.068244
52520		1.993646	-2.600056	-88.293502
52521		1.982630	-2.499585	-88.500222
52522		2.006494	-2.415732	-88.688559
52523		2.072684	-2.344728	-88.855486
52524		2.176667	-2.281769	-88.998068
52525		2.286993	-2.217765	-89.124957
52526		2.384247	-2.150576	-89.230694
52527		2.443609	-2.071986	-89.324080
52528		2.488078	-1.994784	-89.400059
52529		2.519239	-1.918904	-89.459479
52530		2.532367	-1.842282	-89.502647
52531		2.541379	-1.767081	-89.531238
52532		2.551815	-1.698320	-89.545325
52533		2.566425	-1.631598	-89.549438
52534		2.577573	-1.569190	-89.546150
52535		2.590756	-1.504962	-89.534646
52536		2.595119	-1.443613	-89.519944
52537		2.591886	-1.387468	-89.499886
52538		2.598125	-1.334789	-89.472898
52539		2.615878	-1.283626	-89.437652
52540		2.638187	-1.233052	-89.393529
52541		2.663839	-1.187124	-89.341483
52542		2.682222	-1.138532	-89.277577
52543		2.692425	-1.089866	-89.202317
52544		2.694714	-1.042832	-89.114331
52545		2.695992	-1.000357	-89.016375
52546		2.691468	-0.963886	-88.905013
52547		2.675773	-0.928995	-88.781358
52548		2.655006	-0.898326	-88.642087
52549		2.645706	-0.871324	-88.489645
52550		2.644209	-0.843545	-88.324336
52551		2.654412	-0.818189	-88.153255
52552		2.668577	-0.788814	-87.972520
52553		2.672650	-0.757383	-87.789218
52554		2.654378	-0.719445	-87.601364
52555		2.629237	-0.682426	-87.416169
52556		2.600219	-0.645039	-87.222304
52557		2.576771	-0.605491	-87.025752
52558		2.549503	-0.561041	-86.819697
52559		2.550850	-0.514705	-86.612404
52560		2.585699	-0.466880	-86.399105
52561		2.652710	-0.423732	-86.184448
52562		2.738149	-0.385709	-85.967509
52563		2.829941	-0.348015	-85.750326
52564		2.918156	-0.312124	-85.527144
52565		3.000063	-0.277451	-85.298573
52566		3.058643	-0.242244	-85.058510
52567		3.113617	-0.212083	-84.807999
52568		3.148342	-0.182325	-84.542301
52569		3.188849	-0.156825	-84.265407
52570		3.205579	-0.128309	-83.973896
52571		3.221083	-0.103997	-83.667139
52572		3.226721	-0.074778	-83.346895
52573		3.237418	-0.047995	-83.014499
52574		3.249948	-0.019224	-82.669532
52575		3.253033	0.010297	-82.314196
52576		3.234020	0.040811	-81.952978
52577		3.206784	0.062318	-81.586826
52578		3.173515	0.076158	-81.209930
52579		3.143902	0.087271	-80.820274
52580		3.112139	0.092649	-80.416580
52581		3.097300	0.087748	-79.998047
52582		3.101446	0.074247	-79.561957
52583		3.114697	0.059617	-79.112260
52584		3.121114	0.047138	-78.655351
52585		3.132390	0.034841	-78.193077
52586		3.132584	0.025020	-77.723887
52587		3.134443	0.013100	-77.251958
52588		3.115995	0.001533	-76.777258
52589		3.090140	-0.014144	-76.298988
52590		3.049819	-0.029778	-75.815011
52591		3.025941	-0.048367	-75.324071
52592		3.016547	-0.063258	-74.824150
52593		3.029567	-0.081702	-74.315900
52594		3.050938	-0.106629	-73.803810
52595		3.094975	-0.137348	-73.285666
52596		3.136017	-0.161477	-72.764557
52597		3.178510	-0.184987	-72.244095
52598		3.199849	-0.199722	-71.721675
52599		3.221740	-0.216051	-71.196238
52600		3.238492	-0.236765	-70.662719
52601		3.253185	-0.262573	-70.113179
52602		3.257992	-0.287066	-69.547287
52603		3.257407	-0.321411	-68.965026
52604		3.241652	-0.355019	-68.363693
52605		3.217868	-0.397137	-67.747471
52606		3.175047	-0.440024	-67.119456
52607		3.145006	-0.493116	-66.484832
52608		3.124284	-0.550299	-65.843293
52609		3.109623	-0.613043	-65.194534
52610		3.089893	-0.678607	-64.543350
52611		3.087663	-0.755484	-63.885905
52612		3.094270	-0.840647	-63.221479
52613		3.106623	-0.931446	-62.547123
52614		3.110527	-1.023944	-61.858579
52615		3.125917	-1.123083	-61.158967
52616		3.141210	-1.221596	-60.446037
52617		3.153302	-1.327532	-59.726475
52618		3.137302	-1.431773	-58.997405
52619		3.119441	-1.541548	-58.263877
52620		3.094435	-1.649597	-57.520339
52621		3.082454	-1.763905	-56.772937
52622		3.073440	-1.877653	-56.021140
52623		3.080953	-1.989615	-55.266576
52624		3.089807	-2.096311	-54.511815
52625		3.124061	-2.205267	-53.756565
52626		3.183207	-2.315101	-52.993963
52627		3.268054	-2.426302	-52.226083
52628		3.354224	-2.534545	-51.448292
52629		3.431568	-2.636858	-50.666331
52630		3.481537	-2.729411	-49.874125
52631		3.527119	-2.824667	-49.078995
52632		3.565355	-2.917384	-48.270090
52633		3.633061	-3.012635	-47.449639
52634		3.736490	-3.110847	-46.617078
52635		3.914861	-3.217300	-45.773234
52636		4.161787	-3.327654	-44.919737
52637		4.505059	-3.451432	-44.059610
52638		4.897171	-3.575799	-43.190951
52639		5.310937	-3.693866	-42.324064
52640		5.653430	-3.784171	-41.459181
52641		5.879066	-3.847214	-40.597126
52642		6.005816	-3.888918	-39.731455
52643		6.106873	-3.922326	-38.858907
52644		6.185896	-3.951571	-37.971435
52645		6.246376	-3.983873	-37.075488
52646		6.267630	-4.002846	-36.176373
52647		6.279614	-4.017844	-35.273794
52648		6.271759	-4.025125	-34.373358
52649		6.288741	-4.035533	-33.479036
52650		6.322750	-4.046058	-32.585918
52651		6.342934	-4.055855	-31.699516
52652		6.323794	-4.059816	-30.816999
52653		6.258311	-4.065188	-29.942062
52654		6.146841	-4.075875	-29.072271
52655		6.011551	-4.096439	-28.203618
52656		5.849433	-4.123221	-27.330770
52657		5.721004	-4.155447	-26.446907
52658		5.670156	-4.195842	-25.555476
52659		5.688932	-4.250156	-24.666135
52660		5.679135	-4.290467	-23.775943
52661		5.612348	-4.322404	-22.904931
52662		5.456657	-4.338595	-22.052804
52663		5.236486	-4.354588	-21.222696
52664		4.965662	-4.370909	-20.411925
52665		4.689268	-4.396537	-19.619063
52666		4.413097	-4.422987	-18.836553
52667		4.180327	-4.460543	-18.067995
52668		4.016143	-4.510123	-17.305688
52669		3.902470	-4.562372	-16.551052
52670		3.814362	-4.597989	-15.800493
52671		3.735632	-4.619065	-15.058978
52672		3.642712	-4.631127	-14.331412
52673		3.510412	-4.638271	-13.618312
52674		3.322317	-4.645589	-12.917775
52675		3.102833	-4.658515	-12.226888
52676		2.851358	-4.672987	-11.540952
52677		2.593598	-4.689665	-10.856540
52678		2.349313	-4.710764	-10.178953
52679		2.141847	-4.735774	-9.504456
52680		1.958721	-4.768226	-8.832909
52681		1.820016	-4.813653	-8.166125
52682		1.715844	-4.873970	-7.500356
52683		1.656083	-4.953270	-6.840870
52684		1.626682	-5.050028	-6.184314
52685		1.639510	-5.164699	-5.538910
52686		1.687628	-5.289869	-4.896789
52687		1.780909	-5.420076	-4.264857
52688		1.909037	-5.550599	-3.644836
52689		2.071088	-5.683781	-3.034878
52690		2.283469	-5.814723	-2.429443
52691		2.557988	-5.946290	-1.830780
52692		2.853229	-6.068326	-1.245140
52693		3.126133	-6.175919	-0.677573
52694		3.367008	-6.275471	-0.126401
52695		3.584426	-6.368541	0.402992
52696		3.756260	-6.458632	0.913390
52697		3.876629	-6.543583	1.406282
52698		3.936838	-6.615006	1.885523
52699		3.971734	-6.683235	2.349594
52700		3.991053	-6.739814	2.800356
52701		4.010434	-6.790586	3.239117
52702		4.000761	-6.825799	3.664731
52703		3.983818	-6.855303	4.077442
52704		3.965465	-6.880054	4.477452
52705		3.954525	-6.908491	4.864158
52706		3.943581	-6.941047	5.236383
52707		3.941560	-6.975119	5.594685
52708		3.936150	-7.004806	5.936730
52709		3.919462	-7.023763	6.266528
52710		3.884496	-7.040502	6.581999
52711		3.838683	-7.055412	6.879925
52712		3.781800	-7.071733	7.165992
52713		3.724419	-7.090618	7.440771
52714		3.676922	-7.112305	7.703086
52715		3.662213	-7.140607	7.957925
52716		3.681221	-7.174840	8.206541
52717		3.721394	-7.212826	8.439733
52718		3.776265	-7.244021	8.657596
52719		3.841416	-7.261612	8.851880
52720		3.902371	-7.261883	9.019544
52721		3.953918	-7.244786	9.152526
52722		3.973800	-7.212261	9.250255
52723		3.954728	-7.162025	9.317239
52724		3.894309	-7.100214	9.354395
52725		3.813009	-7.031820	9.369591
52726		3.722843	-6.963233	9.368744
52727		3.643111	-6.894790	9.357157
52728		3.578605	-6.832407	9.341914
52729		3.526904	-6.773738	9.324670
52730		3.482944	-6.718288	9.309113
52731		3.441548	-6.668696	9.298483
52732		3.397607	-6.629140	9.287288
52733		3.345253	-6.598534	9.281516
52734		3.291023	-6.576612	9.278863
52735		3.246404	-6.565829	9.279636
52736		3.213083	-6.561892	9.283670
52737		3.180653	-6.559808	9.288355
52738		3.144555	-6.555715	9.292892
52739		3.107523	-6.549935	9.295699
52740		3.072998	-6.546125	9.294609
52741		3.042774	-6.540804	9.290010
52742		3.011011	-6.533347	9.283218
52743		2.967962	-6.523860	9.271514
52744		2.909756	-6.510188	9.258258
52745		2.833942	-6.497310	9.242019
52746		2.750600	-6.490059	9.224668
52747		2.674772	-6.486154	9.207224
52748		2.625057	-6.485495	9.194484
52749		2.613424	-6.490218	9.185588
52750		2.621589	-6.497141	9.178136
52751		2.630943	-6.507723	9.169991
52752		2.636712	-6.520426	9.155381
52753		2.630913	-6.534064	9.135609
52754		2.612964	-6.546559	9.112335
52755		2.590804	-6.560730	9.084776
52756		2.572044	-6.573248	9.061934
52757		2.564364	-6.589852	9.042774
52758		2.555105	-6.606771	9.023974
52759		2.538288	-6.622922	9.006762
52760		2.518064	-6.641373	8.990597
52761		2.494789	-6.658219	8.974753
52762		2.470277	-6.674866	8.955352
52763		2.446395	-6.692480	8.931172
52764		2.429127	-6.707070	8.907353
52765		2.420658	-6.722645	8.874502
52766		2.416142	-6.735769	8.840466
52767		2.405173	-6.749276	8.801562
52768		2.382279	-6.761508	8.757202
52769		2.347017	-6.772023	8.710359
52770		2.322035	-6.785491	8.661242
52771		2.321357	-6.799987	8.609252
52772		2.340529	-6.816251	8.555900
52773		2.371873	-6.829479	8.492155
52774		2.410201	-6.838340	8.419331
52775		2.449877	-6.843792	8.332210
52776		2.488857	-6.845370	8.229532
52777		2.509679	-6.836896	8.111119
52778		2.523860	-6.822117	7.976803
52779		2.536570	-6.801645	7.826966
52780		2.552123	-6.776441	7.659951
52781		2.563821	-6.743365	7.476934
52782		2.570867	-6.710385	7.278182
52783		2.564843	-6.666363	7.065656
52784		2.550955	-6.618586	6.838643
52785		2.546824	-6.564463	6.598609
52786		2.575394	-6.510197	6.345477
52787		2.614166	-6.452719	6.081458
52788		2.647322	-6.390712	5.802971
52789		2.676863	-6.322979	5.507634
52790		2.695798	-6.252444	5.195486
52791		2.701197	-6.174730	4.865007
52792		2.697094	-6.092998	4.520151
52793		2.681911	-6.007773	4.158912
52794		2.664382	-5.926979	3.781490
52795		2.645570	-5.845285	3.387926
52796		2.640289	-5.769204	2.982292
52797		2.651403	-5.700857	2.562729
52798		2.670210	-5.637607	2.128587
52799		2.686825	-5.574498	1.679446
52800		2.716898	-5.515568	1.214838
52801		2.760786	-5.455745	0.733668
52802		2.815414	-5.397256	0.239724
52803		2.875434	-5.343010	-0.267083
52804		2.942232	-5.291552	-0.782761
52805		3.001443	-5.241121	-1.304310
52806		3.052810	-5.192649	-1.836617
52807		3.095176	-5.143583	-2.373063
52808		3.144416	-5.098426	-2.921317
52809		3.194173	-5.055127	-3.477014
52810		3.240330	-5.014316	-4.043720
52811		3.273205	-4.967745	-4.620656
52812		3.305128	-4.924716	-5.211964
52813		3.326406	-4.875936	-5.815971
52814		3.354098	-4.825213	-6.428157
52815		3.375153	-4.768747	-7.052417
52816		3.408103	-4.714830	-7.689073
52817		3.454595	-4.662150	-8.331711
52818		3.526699	-4.612003	-8.983320
52819		3.604213	-4.565132	-9.641713
52820		3.690941	-4.517859	-10.309938
52821		3.775798	-4.465868	-10.992235
52822		3.866651	-4.412897	-11.684664
52823		3.952747	-4.360527	-12.392111
52824		4.034720	-4.305296	-13.114001
52825		4.101891	-4.247308	-13.849521
52826		4.166398	-4.188728	-14.601458
52827		4.256829	-4.135591	-15.361923
52828		4.386000	-4.093465	-16.132166
52829		4.528171	-4.051857	-16.905040
52830		4.676701	-4.015141	-17.691608
52831		4.819445	-3.977277	-18.486393
52832		4.975425	-3.942472	-19.292778
52833		5.136343	-3.911599	-20.108600
52834		5.306910	-3.888368	-20.938261
52835		5.470568	-3.855064	-21.778555
52836		5.638307	-3.820339	-22.634375
52837		5.787116	-3.781158	-23.503627
52838		5.924431	-3.740249	-24.388286
52839		6.040555	-3.692371	-25.284445
52840		6.151041	-3.641229	-26.193434
52841		6.234597	-3.583305	-27.115093
52842		6.293025	-3.529740	-28.053524
52843		6.303193	-3.480211	-29.012631
52844		6.215969	-3.423530	-29.980561
52845		6.065575	-3.364332	-30.957566
52846		5.923677	-3.310059	-31.941511
52847		5.768037	-3.258421	-32.918552
52848		5.656043	-3.216072	-33.884408
52849		5.589993	-3.182493	-34.831008
52850		5.588438	-3.155794	-35.758087
52851		5.621312	-3.124780	-36.662410
52852		5.691660	-3.104913	-37.554320
52853		5.753490	-3.085716	-38.435220
52854		5.790383	-3.067147	-39.302389
52855		5.778441	-3.050707	-40.159779
52856		5.729981	-3.038699	-41.009346
52857		5.644432	-3.029187	-41.846267
52858		5.564627	-3.031023	-42.670437
52859		5.509831	-3.037363	-43.475412
52860		5.479801	-3.045526	-44.269008
52861		5.454436	-3.049881	-45.052053
52862		5.426328	-3.056239	-45.827192
52863		5.378003	-3.062235	-46.597501
52864		5.314548	-3.069563	-47.361545
52865		5.237867	-3.077277	-48.120351
52866		5.188070	-3.088497	-48.876118
52867		5.173888	-3.110719	-49.624223
52868		5.206853	-3.140371	-50.365176
52869		5.270549	-3.171689	-51.096206
52870		5.350080	-3.199787	-51.819368
52871		5.417502	-3.216491	-52.531037
52872		5.484907	-3.225386	-53.236074
52873		5.519702	-3.221553	-53.932167
52874		5.486292	-3.199320	-54.626562
52875		5.405218	-3.169849	-55.323830
52876		5.333830	-3.140257	-56.011132
52877		5.314525	-3.122553	-56.690304
52878		5.323255	-3.103504	-57.358800
52879		5.355788	-3.082767	-58.015215
52880		5.418425	-3.062711	-58.667125
52881		5.501863	-3.042975	-59.314612
52882		5.586566	-3.017946	-59.957321
52883		5.642947	-2.990958	-60.603235
52884		5.675831	-2.951551	-61.243631
52885		5.677902	-2.905511	-61.879982
52886		5.675782	-2.853138	-62.511275
52887		5.658987	-2.798437	-63.137166
52888		5.655793	-2.746680	-63.755620
52889		5.670166	-2.698318	-64.364636
52890		5.721321	-2.655918	-64.965171
52891		5.800270	-2.612908	-65.555534
52892		5.911542	-2.578350	-66.146661
52893		6.037951	-2.550319	-66.731363
52894		6.177286	-2.522900	-67.311388
52895		6.309504	-2.494097	-67.884742
52896		6.442693	-2.461946	-68.454082
52897		6.560820	-2.423605	-69.012847
52898		6.671023	-2.384797	-69.564224
52899		6.786227	-2.345304	-70.105096
52900		6.902223	-2.299838	-70.636480
52901		7.020608	-2.253692	-71.160308
52902		7.143762	-2.208839	-71.677907
52903		7.254921	-2.164999	-72.187207
52904		7.335041	-2.116167	-72.688082
52905		7.363785	-2.059160	-73.182879
52906		7.366361	-2.003613	-73.678296
52907		7.350602	-1.952342	-74.169339
52908		7.324727	-1.909999	-74.658347
52909		7.281657	-1.874702	-75.145409
52910		7.219778	-1.838487	-75.622576
52911		7.145871	-1.803321	-76.097311
52912		7.058663	-1.765059	-76.569715
52913		6.945462	-1.722125	-77.036433
52914		6.797922	-1.673773	-77.503914
52915		6.630979	-1.624685	-77.969070
52916		6.446251	-1.580405	-78.426793
52917		6.259001	-1.534270	-78.880195
52918		6.071938	-1.489958	-79.331462
52919		5.931198	-1.460040	-79.776702
52920		5.857218	-1.447702	-80.216962
52921		5.828008	-1.443000	-80.649737
52922		5.824914	-1.441170	-81.080576
52923		5.846947	-1.446069	-81.503390
52924		5.873809	-1.449269	-81.918971
52925		5.861024	-1.440650	-82.324634
52926		5.813740	-1.428632	-82.724449
52927		5.770281	-1.420264	-83.112912
52928		5.738761	-1.416470	-83.485035
52929		5.724272	-1.415016	-83.842033
52930		5.733330	-1.421747	-84.183076
52931		5.776649	-1.435012	-84.505904
52932		5.869771	-1.448610	-84.811082
52933		6.023239	-1.451416	-85.095133
52934		6.224228	-1.455627	-85.361062
52935		6.480811	-1.462936	-85.611862
52936		6.755039	-1.464887	-85.846954
52937		6.996514	-1.451449	-86.067073
52938		7.204352	-1.430515	-86.276058
52939		7.342589	-1.403695	-86.483579
52940		7.396377	-1.364288	-86.684381
52941		7.389580	-1.306634	-86.869122
52942		7.369791	-1.248634	-87.037588
52943		7.358205	-1.194932	-87.187066
52944		7.359007	-1.140582	-87.310750
52945		7.385195	-1.089731	-87.416623
52946		7.427318	-1.040804	-87.503278
52947		7.474949	-0.998831	-87.574494
52948		7.504474	-0.957146	-87.631310
52949		7.521998	-0.914678	-87.680137
52950		7.514468	-0.874887	-87.718949
52951		7.507340	-0.833208	-87.748353
52952		7.483348	-0.791061	-87.769864
52953		7.485457	-0.757294	-87.783805
52954		7.516979	-0.731611	-87.788973
52955		7.565962	-0.706792	-87.779535
52956		7.625582	-0.681362	-87.763226
52957		7.678050	-0.652529	-87.738493
52958		7.718554	-0.620147	-87.703281
52959		7.749051	-0.582304	-87.661145
52960		7.760176	-0.536366	-87.610774
52961		7.748314	-0.478232	-87.556909
52962		7.710949	-0.411002	-87.499452
52963		7.664862	-0.343320	-87.440951
52964		7.612207	-0.265810	-87.373516
52965		7.545485	-0.180244	-87.302864
52966		7.460108	-0.086530	-87.231500
52967		7.381523	0.002412	-87.148322
52968		7.312368	0.084401	-87.051475
52969		7.260867	0.150480	-86.941714
52970		7.216003	0.213084	-86.816359
52971		7.162905	0.274274	-86.669592
52972		7.093385	0.326458	-86.508980
52973		6.995387	0.375575	-86.327497
52974		6.866581	0.434427	-86.120517
52975		6.724463	0.494580	-85.896673
52976		6.569646	0.559241	-85.650292
52977		6.420341	0.616483	-85.379696
52978		6.273771	0.669186	-85.085254
52979		6.127800	0.716223	-84.770899
52980		5.973211	0.760843	-84.432281
52981		5.802699	0.801995	-84.068793
52982		5.612034	0.837421	-83.681577
52983		5.415610	0.858989	-83.268487
52984		5.203792	0.869925	-82.829544
52985		4.986917	0.873881	-82.365019
52986		4.756680	0.874543	-81.870949
52987		4.548846	0.868830	-81.349605
52988		4.356689	0.864409	-80.798149
52989		4.192533	0.855454	-80.235197
52990		4.040478	0.848783	-79.653764
52991		3.931105	0.836827	-79.062876
52992		3.855937	0.822161	-78.457452
52993		3.812014	0.805438	-77.842561
52994		3.743738	0.790643	-77.218448
52995		3.663135	0.777130	-76.585281
52996		3.557083	0.767026	-75.936593
52997		3.455674	0.755438	-75.273998
52998		3.357215	0.750712	-74.592029
52999		3.287344	0.750292	-73.894170
53000		3.250342	0.753616	-73.178515
53001		3.236824	0.760795	-72.451795
53002		3.216481	0.773888	-71.717957
53003		3.196051	0.782249	-70.974902
53004		3.149838	0.788921	-70.225808
53005		3.086372	0.795004	-69.470041
53006		2.981026	0.810280	-68.704325
53007		2.846736	0.828616	-67.930969
53008		2.674280	0.853467	-67.149132
53009		2.486745	0.877125	-66.355236
53010		2.300053	0.898986	-65.546781
53011		2.157687	0.907026	-64.720923
53012		2.027515	0.913339	-63.872962
53013		1.899481	0.904844	-63.007652
53014		1.762104	0.893421	-62.125063
53015		1.606847	0.872133	-61.224826
53016		1.400771	0.849102	-60.311454
53017		1.157050	0.817722	-59.383292
53018		0.871853	0.780652	-58.441610
53019		0.567545	0.729986	-57.495237
53020		0.223261	0.673441	-56.548540
53021		-0.106851	0.615041	-55.603491
53022		-0.370572	0.550179	-54.659595
53023		-0.526714	0.475791	-53.723581
53024		-0.600162	0.409613	-52.796674
53025		-0.595946	0.357967	-51.879039
53026		-0.534521	0.311890	-50.977745
53027		-0.432330	0.258247	-50.097984
53028		-0.353328	0.200399	-49.236945
53029		-0.321121	0.129266	-48.396444
53030		-0.335974	0.056220	-47.569520
53031		-0.380973	-0.027541	-46.756345
53032		-0.448100	-0.113671	-45.946541
53033		-0.499286	-0.203318	-45.131267
53034		-0.486138	-0.288086	-44.299117
53035		-0.348259	-0.386257	-43.455580
53036		-0.108917	-0.482709	-42.598389
53037		0.215179	-0.586906	-41.727578
53038		0.571169	-0.692973	-40.843973
53039		0.960270	-0.807811	-39.950403
53040		1.312731	-0.929741	-39.048175
53041		1.569930	-1.054517	-38.138099
53042		1.708811	-1.178804	-37.215832
53043		1.770602	-1.307487	-36.278256
53044		1.819816	-1.445498	-35.315664
53045		1.923143	-1.594915	-34.324096
53046		2.100680	-1.741714	-33.294483
53047		2.363099	-1.892683	-32.228504
53048		2.675492	-2.032056	-31.125830
53049		2.991636	-2.160776	-29.997258
53050		3.229238	-2.270732	-28.853068
53051		3.348833	-2.378508	-27.710936
53052		3.344790	-2.492732	-26.576621
53053		3.269188	-2.630887	-25.445453
53054		3.146487	-2.776339	-24.313003
53055		3.064158	-2.935202	-23.181702
53056		3.051837	-3.098195	-22.052081
53057		3.106336	-3.249162	-20.929642
53058		3.166411	-3.378975	-19.813993
53059		3.208525	-3.498571	-18.714594
53060		3.180474	-3.590620	-17.633936
53061		3.098194	-3.681129	-16.578134
53062		2.946564	-3.761131	-15.538154
53063		2.791319	-3.856314	-14.515496
53064		2.663816	-3.972414	-13.505719
53065		2.564691	-4.094004	-12.507315
53066		2.467754	-4.210573	-11.524686
53067		2.405901	-4.321253	-10.561049
53068		2.356727	-4.430104	-9.620284
53069		2.315691	-4.538970	-8.700076
53070		2.272000	-4.643701	-7.797198
53071		2.235504	-4.752502	-6.908743
53072		2.198772	-4.862411	-6.029347
53073		2.154341	-4.973028	-5.163110
53074		2.094535	-5.084371	-4.317899
53075		2.034216	-5.201520	-3.494599
53076		1.975755	-5.338050	-2.693858
53077		1.946719	-5.471920	-1.906075
53078		1.938330	-5.599501	-1.127464
53079		1.950820	-5.718361	-0.360671
53080		1.942484	-5.821726	0.396677
53081		1.901716	-5.920694	1.140101
53082		1.815979	-6.020562	1.862628
53083		1.693554	-6.123553	2.566180
53084		1.540916	-6.235580	3.252981
53085		1.385941	-6.349631	3.924997
53086		1.243806	-6.459316	4.586959
53087		1.139399	-6.563023	5.238800
53088		1.057254	-6.658923	5.875265
53089		1.008198	-6.751207	6.499927
53090		0.975625	-6.844411	7.111487
53091		0.947867	-6.939545	7.709116
53092		0.901716	-7.034040	8.297801
53093		0.852335	-7.124661	8.874452
53094		0.811324	-7.209939	9.446970
53095		0.782110	-7.280665	10.010301
53096		0.722083	-7.337371	10.566383
53097		0.627537	-7.383209	11.108490
53098		0.505332	-7.425339	11.635002
53099		0.365288	-7.476495	12.148834
53100		0.226870	-7.531775	12.641483
53101		0.111955	-7.599786	13.125998
53102		0.021037	-7.664769	13.604275
53103		-0.068873	-7.721201	14.068551
53104		-0.167222	-7.774081	14.519919
53105		-0.267303	-7.830912	14.957114
53106		-0.374474	-7.891955	15.378930
53107		-0.479116	-7.951086	15.785896
53108		-0.582365	-8.007055	16.175037
53109		-0.679911	-8.056202	16.548170
53110		-0.772828	-8.102551	16.902817
53111		-0.857713	-8.146304	17.233915
53112		-0.929918	-8.191835	17.541884
53113		-1.003227	-8.235093	17.824239
53114		-1.077354	-8.270509	18.080375
53115		-1.151425	-8.296622	18.311055
53116		-1.215606	-8.315908	18.518468
53117		-1.288537	-8.326465	18.706729
53118		-1.364842	-8.330970	18.871012
53119		-1.434905	-8.332420	19.018000
53120		-1.491789	-8.332148	19.145234
53121		-1.530282	-8.325281	19.258720
53122		-1.553366	-8.315119	19.359172
53123		-1.575278	-8.309534	19.443871
53124		-1.598392	-8.310009	19.521160
53125		-1.633054	-8.318503	19.585971
53126		-1.665299	-8.332827	19.644416
53127		-1.698260	-8.352053	19.698419
53128		-1.734738	-8.371099	19.746124
53129		-1.780937	-8.386699	19.791286
53130		-1.829622	-8.397663	19.833042
53131		-1.890013	-8.408141	19.873858
53132		-1.944485	-8.428555	19.910824
53133		-1.988365	-8.456794	19.950377
53134		-2.018692	-8.487977	19.991544
53135		-2.044929	-8.515554	20.034343
53136		-2.065692	-8.540275	20.076083
53137		-2.085575	-8.562531	20.117165
53138		-2.103417	-8.586214	20.155616
53139		-2.122303	-8.610678	20.190203
53140		-2.140971	-8.633270	20.215922
53141		-2.153999	-8.654366	20.235511
53142		-2.166872	-8.676166	20.249762
53143		-2.171875	-8.693675	20.257044
53144		-2.166431	-8.709790	20.260535
53145		-2.149816	-8.722339	20.258070
53146		-2.123513	-8.729699	20.247938
53147		-2.091091	-8.732634	20.231728
53148		-2.050829	-8.734919	20.213029
53149		-2.018233	-8.732276	20.186950
53150		-1.980674	-8.729847	20.154094
53151		-1.939120	-8.724807	20.116032
53152		-1.887936	-8.719952	20.072573
53153		-1.830466	-8.710830	20.023858
53154		-1.771808	-8.701974	19.966557
53155		-1.716551	-8.688434	19.905301
53156		-1.659327	-8.671649	19.838347
53157		-1.606551	-8.651987	19.773452
53158		-1.552448	-8.635032	19.709114
53159		-1.500214	-8.620304	19.650547
53160		-1.454949	-8.607588	19.596947
53161		-1.414432	-8.595125	19.546105
53162		-1.371882	-8.580300	19.495143
53163		-1.337622	-8.556577	19.444223
53164		-1.315851	-8.529803	19.384681
53165		-1.311991	-8.490791	19.320140
53166		-1.314902	-8.448520	19.245911
53167		-1.314668	-8.406239	19.163675
53168		-1.306817	-8.365030	19.071351
53169		-1.282292	-8.325893	18.970364
53170		-1.236351	-8.288189	18.860689
53171		-1.169075	-8.248152	18.742363
53172		-1.091236	-8.204031	18.611284
53173		-1.016693	-8.154037	18.467631
53174		-0.956391	-8.095614	18.308502
53175		-0.910282	-8.033991	18.131583
53176		-0.877166	-7.971149	17.937649
53177		-0.857893	-7.902756	17.728812
53178		-0.825781	-7.828763	17.507290
53179		-0.781678	-7.747375	17.279538
53180		-0.733973	-7.653612	17.043827
53181		-0.703094	-7.538112	16.801314
53182		-0.689540	-7.415626	16.551424
53183		-0.687658	-7.290269	16.292481
53184		-0.702674	-7.162700	16.021492
53185		-0.716742	-7.034473	15.736502
53186		-0.706072	-6.918894	15.440173
53187		-0.675240	-6.814278	15.131942
53188		-0.628152	-6.720719	14.810430
53189		-0.572220	-6.626242	14.475630
53190		-0.494247	-6.533455	14.128677
53191		-0.422713	-6.439511	13.773357
53192		-0.357200	-6.346299	13.407971
53193		-0.300420	-6.252829	13.034224
53194		-0.247981	-6.167290	12.648787
53195		-0.197966	-6.088013	12.252869
53196		-0.156004	-6.012683	11.846731
53197		-0.121488	-5.945299	11.430535
53198		-0.081477	-5.886292	11.003496
53199		-0.023846	-5.831698	10.568327
53200		0.069154	-5.779166	10.125097
53201		0.170588	-5.725413	9.670370
53202		0.287473	-5.676266	9.203210
53203		0.407862	-5.627695	8.727746
53204		0.538958	-5.584777	8.235544
53205		0.655162	-5.532962	7.732914
53206		0.766772	-5.482126	7.214203
53207		0.863951	-5.432722	6.685587
53208		0.957982	-5.387394	6.146537
53209		1.047269	-5.343941	5.604003
53210		1.145907	-5.310630	5.054616
53211		1.247605	-5.286398	4.501795
53212		1.367146	-5.267513	3.942180
53213		1.481506	-5.247415	3.370950
53214		1.597417	-5.227451	2.784581
53215		1.693177	-5.198989	2.184345
53216		1.787702	-5.170104	1.569476
53217		1.878942	-5.142578	0.943525
53218		1.965601	-5.119142	0.306180
53219		2.054568	-5.102441	-0.338888
53220		2.161216	-5.094673	-0.986175
53221		2.291183	-5.093382	-1.636707
53222		2.445411	-5.096521	-2.288594
53223		2.616986	-5.100795	-2.941278
53224		2.809154	-5.101912	-3.596699
53225		3.009728	-5.101761	-4.254931
53226		3.219231	-5.109173	-4.919408
53227		3.422906	-5.118395	-5.590300
53228		3.625112	-5.127736	-6.268090
53229		3.816497	-5.130928	-6.957671
53230		3.987546	-5.125261	-7.661037
53231		4.118063	-5.115879	-8.378281
53232		4.243153	-5.112184	-9.100935
53233		4.372652	-5.108825	-9.826640
53234		4.527899	-5.109070	-10.552770
53235		4.692528	-5.110816	-11.282754
53236		4.871378	-5.109327	-12.017358
53237		5.042400	-5.108542	-12.758520
53238		5.216219	-5.111049	-13.498710
53239		5.380625	-5.116983	-14.236994
53240		5.542610	-5.125027	-14.974548
53241		5.695933	-5.128601	-15.712166
53242		5.846439	-5.129327	-16.450397
53243		5.987860	-5.119657	-17.195803
53244		6.140998	-5.107719	-17.949754
53245		6.299909	-5.087155	-18.707422
53246		6.460347	-5.057804	-19.474827
53247		6.610670	-5.016959	-20.254963
53248		6.751548	-4.972340	-21.048220
53249		6.864113	-4.924266	-21.846033
53250		6.970765	-4.876944	-22.646675
53251		7.081929	-4.836144	-23.440883
53252		7.213164	-4.801433	-24.226533
53253		7.364260	-4.763585	-25.000787
53254		7.534075	-4.718065	-25.761382
53255		7.661922	-4.659428	-26.517041
53256		7.738437	-4.600700	-27.269879
53257		7.771863	-4.545227	-28.013873
53258		7.790920	-4.500870	-28.750717
53259		7.799326	-4.465182	-29.477426
53260		7.828290	-4.439366	-30.192063
53261		7.910285	-4.419740	-30.899157
53262		8.049447	-4.406251	-31.596911
53263		8.205168	-4.387425	-32.291878
53264		8.363646	-4.366754	-32.991519
53265		8.495255	-4.329015	-33.694432
53266		8.598022	-4.280163	-34.402909
53267		8.662460	-4.226881	-35.118766
53268		8.700488	-4.170230	-35.839827
53269		8.733966	-4.112215	-36.555893
53270		8.793033	-4.060862	-37.270675
53271		8.863148	-4.012046	-37.975832
53272		8.959517	-3.962547	-38.677005
53273		9.057240	-3.902528	-39.371330
53274		9.142367	-3.834706	-40.067726
53275		9.191823	-3.754756	-40.761344
53276		9.210060	-3.666635	-41.451153
53277		9.166092	-3.565146	-42.129974
53278		9.080365	-3.455993	-42.795544
53279		8.946046	-3.337975	-43.439532
53280		8.755287	-3.215852	-44.068716
53281		8.515127	-3.089368	-44.686463
53282		8.270379	-2.975273	-45.296153
53283		8.053144	-2.875982	-45.900680
53284		7.843565	-2.779534	-46.498742
53285		7.636398	-2.684152	-47.106277
53286		7.436344	-2.585462	-47.723091
53287		7.234663	-2.486901	-48.354743
53288		7.059732	-2.399165	-48.997220
53289		6.917403	-2.329180	-49.650821
53290		6.833288	-2.282063	-50.305640
53291		6.800916	-2.250750	-50.957166
53292		6.828191	-2.231485	-51.602393
53293		6.885257	-2.214474	-52.240422
53294		6.961780	-2.197735	-52.879658
53295		7.065058	-2.181520	-53.519699
53296		7.189493	-2.167973	-54.165956
53297		7.313496	-2.155681	-54.820515
53298		7.425418	-2.143863	-55.480465
53299		7.515164	-2.136460	-56.143964
53300		7.603178	-2.131770	-56.807668
53301		7.700804	-2.132591	-57.471873
53302		7.823423	-2.139043	-58.132358
53303		7.950829	-2.141252	-58.779600
53304		8.082207	-2.134828	-59.419500
53305		8.210502	-2.112028	-60.050779
53306		8.337039	-2.079616	-60.679410
53307		8.423552	-2.043755	-61.313486
53308		8.450809	-2.005549	-61.951620
53309		8.417781	-1.960441	-62.588939
53310		8.347546	-1.907664	-63.217371
53311		8.257817	-1.854259	-63.840800
53312		8.169400	-1.799723	-64.451872
53313		8.081713	-1.741492	-65.050615
53314		7.996046	-1.682974	-65.633749
53315		7.891290	-1.616538	-66.197083
53316		7.783062	-1.553438	-66.753564
53317		7.662065	-1.492731	-67.297714
53318		7.528132	-1.431869	-67.833649
53319		7.384201	-1.372151	-68.364688
53320		7.247991	-1.316159	-68.892868
53321		7.140434	-1.265372	-69.418598
53322		7.075077	-1.224258	-69.943330
53323		7.050834	-1.185109	-70.466911
53324		7.080941	-1.148742	-70.985558
53325		7.156603	-1.112634	-71.498400
53326		7.242300	-1.070045	-72.002613
53327		7.317433	-1.019836	-72.499880
53328		7.385427	-0.964481	-72.984325
53329		7.462349	-0.911807	-73.451570
53330		7.557067	-0.866457	-73.898347
53331		7.667470	-0.821226	-74.323446
53332		7.807293	-0.781157	-74.726490
53333		7.963566	-0.735416	-75.112722
53334		8.100827	-0.681729	-75.482956
53335		8.195947	-0.618057	-75.844263
53336		8.267944	-0.544984	-76.196095
53337		8.336372	-0.471284	-76.538571
53338		8.408354	-0.392992	-76.869003
53339		8.490796	-0.305469	-77.182882
53340		8.583261	-0.218824	-77.483452
53341		8.694134	-0.132678	-77.771970
53342		8.818668	-0.046410	-78.045713
53343		8.925228	0.048165	-78.307689
53344		9.009650	0.144028	-78.558895
53345		9.074941	0.246301	-78.795839
53346		9.137486	0.350642	-79.019983
53347		9.186627	0.460509	-79.230384
53348		9.222694	0.569612	-79.432466
53349		9.242968	0.676154	-79.624787
53350		9.253827	0.777186	-79.809800
53351		9.262999	0.876941	-79.983494
53352		9.258193	0.973470	-80.146531
53353		9.251023	1.067888	-80.298744
53354		9.267152	1.155859	-80.437318
53355		9.297400	1.240949	-80.565455
53356		9.321001	1.323167	-80.685927
53357		9.332293	1.403500	-80.797044
53358		9.331744	1.481651	-80.901468
53359		9.322475	1.556754	-80.996988
53360		9.310324	1.627937	-81.086822
53361		9.292454	1.698104	-81.168702
53362		9.258740	1.771944	-81.243226
53363		9.233576	1.839986	-81.314227
53364		9.212889	1.907996	-81.378542
53365		9.204063	1.978639	-81.440909
53366		9.197436	2.047679	-81.496088
53367		9.192753	2.117813	-81.543023
53368		9.171329	2.192519	-81.582443
53369		9.134792	2.273700	-81.616692
53370		9.091270	2.355054	-81.647992
53371		9.036481	2.440138	-81.671773
53372		8.967267	2.523188	-81.687767
53373		8.899951	2.608370	-81.694410
53374		8.835620	2.684647	-81.692416
53375		8.792928	2.754271	-81.684646
53376		8.771575	2.819245	-81.670944
53377		8.772646	2.879165	-81.652200
53378		8.779657	2.935148	-81.630396
53379		8.788988	2.990094	-81.602074
53380		8.801927	3.043798	-81.567593
53381		8.812647	3.094667	-81.523406
53382		8.817650	3.145545	-81.462996
53383		8.815543	3.195372	-81.394399
53384		8.794313	3.247227	-81.314159
53385		8.760541	3.297463	-81.224996
53386		8.714469	3.344522	-81.127997
53387		8.672309	3.392445	-81.024431
53388		8.602677	3.446267	-80.913581
53389		8.518822	3.496147	-80.802400
53390		8.403859	3.545284	-80.685264
53391		8.228048	3.583432	-80.577884
53392		7.953475	3.626304	-80.478429
53393		7.634199	3.673054	-80.373333
53394		7.327981	3.715303	-80.254922
53395		7.088892	3.748438	-80.120179
53396		6.919497	3.769405	-79.959778
53397		6.808523	3.780608	-79.777418
53398		6.727488	3.782727	-79.580116
53399		6.672149	3.771592	-79.369804
53400		6.627842	3.745613	-79.147888
53401		6.596388	3.707858	-78.910295
53402		6.549500	3.669981	-78.657550
53403		6.494764	3.626933	-78.391270
53404		6.441600	3.579808	-78.110629
53405		6.413194	3.526623	-77.811506
53406		6.388673	3.471174	-77.492615
53407		6.386692	3.413533	-77.155481
53408		6.387434	3.353381	-76.800814
53409		6.401765	3.290202	-76.431865
53410		6.406430	3.221605	-76.049424
53411		6.410194	3.150225	-75.656288
53412		6.398185	3.077478	-75.250153
53413		6.377691	3.007145	-74.833123
53414		6.333385	2.939782	-74.407397
53415		6.276079	2.874277	-73.969359
53416		6.197276	2.815570	-73.520057
53417		6.123807	2.758518	-73.064715
53418		6.041524	2.704156	-72.599209
53419		5.966271	2.650534	-72.130863
53420		5.885742	2.593754	-71.658974
53421		5.800246	2.532535	-71.180095
53422		5.699469	2.474947	-70.695272
53423		5.601509	2.420538	-70.203541
53424		5.517960	2.368594	-69.701339
53425		5.466507	2.316939	-69.185942
53426		5.415025	2.271940	-68.658402
53427		5.370404	2.221881	-68.116221
53428		5.321829	2.167841	-67.561228
53429		5.270145	2.111845	-66.995362
53430		5.206785	2.058667	-66.415570
53431		5.153210	2.001720	-65.827988
53432		5.092749	1.943327	-65.229584
53433		5.038945	1.881441	-64.622221
53434		4.997034	1.817910	-64.005906
53435		4.977727	1.743304	-63.381035
53436		4.955786	1.667944	-62.746879
53437		4.943007	1.589397	-62.106704
53438		4.919792	1.508017	-61.463361
53439		4.892034	1.425218	-60.816205
53440		4.847245	1.341783	-60.165113
53441		4.817248	1.250001	-59.509986
53442		4.803065	1.157175	-58.843869
53443		4.811573	1.059548	-58.170175
53444		4.843148	0.961038	-57.488369
53445		4.909627	0.858986	-56.796991
53446		4.984847	0.756596	-56.103987
53447		5.061305	0.652861	-55.411823
53448		5.102621	0.556178	-54.722281
53449		5.136395	0.457620	-54.032341
53450		5.170494	0.361466	-53.337229
53451		5.243169	0.259522	-52.635097
53452		5.355897	0.158934	-51.927349
53453		5.518368	0.059271	-51.214396
53454		5.699930	-0.036956	-50.497431
53455		5.903267	-0.141548	-49.776968
53456		6.106239	-0.247475	-49.047459
53457		6.315687	-0.357378	-48.303029
53458		6.514096	-0.467556	-47.540960
53459		6.705125	-0.583814	-46.752449
53460		6.861805	-0.698000	-45.940792
53461		6.983683	-0.819772	-45.103948
53462		7.059258	-0.948368	-44.242342
53463		7.099806	-1.089682	-43.355238
53464		7.098532	-1.242138	-42.444770
53465		7.092817	-1.413047	-41.516808
53466		7.071324	-1.589559	-40.573808
53467		7.059712	-1.770508	-39.622991
53468		7.036417	-1.951977	-38.665792
53469		7.027103	-2.142483	-37.713135
53470		7.006931	-2.330444	-36.760600
53471		6.981325	-2.513004	-35.814751
53472		6.913224	-2.685933	-34.874044
53473		6.803775	-2.852874	-33.946499
53474		6.641954	-3.010258	-33.031980
53475		6.450571	-3.167418	-32.131081
53476		6.251098	-3.324692	-31.242924
53477		6.068458	-3.486689	-30.364758
53478		5.916668	-3.656161	-29.492873
53479		5.792682	-3.823085	-28.625023
53480		5.668731	-3.973627	-27.760837
53481		5.534634	-4.116935	-26.907045
53482		5.380589	-4.250405	-26.061628
53483		5.216788	-4.384938	-25.224613
53484		5.026324	-4.522589	-24.392202
53485		4.833353	-4.665057	-23.565091
53486		4.656339	-4.804650	-22.734560
53487		4.507965	-4.939113	-21.906140
53488		4.372334	-5.061103	-21.085867
53489		4.241076	-5.176989	-20.274178
53490		4.129006	-5.287801	-19.471985
53491		4.060460	-5.399534	-18.673005
53492		4.028466	-5.508925	-17.870502
53493		4.023611	-5.610303	-17.067230
53494		4.026945	-5.705748	-16.266449
53495		4.001971	-5.792148	-15.472016
53496		3.934549	-5.864634	-14.683477
53497		3.852376	-5.936853	-13.904616
53498		3.777827	-6.007498	-13.125715
53499		3.695346	-6.069824	-12.351938
53500		3.583366	-6.112954	-11.587146
53501		3.449928	-6.151921	-10.835634
53502		3.291068	-6.188122	-10.096813
53503		3.131659	-6.218610	-9.366780
53504		2.976968	-6.240996	-8.639052
53505		2.839717	-6.268581	-7.915800
53506		2.699446	-6.299795	-7.197083
53507		2.580521	-6.342438	-6.478638
53508		2.480611	-6.391722	-5.766840
53509		2.393243	-6.445294	-5.056997
53510		2.296039	-6.494558	-4.349394
53511		2.194934	-6.538416	-3.647812
53512		2.066540	-6.572925	-2.952156
53513		1.907365	-6.602631	-2.267493
53514		1.712130	-6.628889	-1.592071
53515		1.499157	-6.667020	-0.926158
53516		1.300086	-6.716256	-0.260414
53517		1.169347	-6.781538	0.402889
53518		1.079349	-6.847198	1.064337
53519		1.001368	-6.902901	1.721256
53520		0.907514	-6.945243	2.366241
53521		0.790781	-6.987655	2.994725
53522		0.665080	-7.033952	3.608367
53523		0.525287	-7.080744	4.205607
53524		0.404693	-7.134203	4.788426
53525		0.319612	-7.195647	5.362496
53526		0.246108	-7.249267	5.923624
53527		0.182749	-7.295663	6.471464
53528		0.135864	-7.339681	7.005422
53529		0.112558	-7.377253	7.524728
53530		0.107848	-7.400717	8.027460
53531		0.095934	-7.408700	8.514357
53532		0.064747	-7.399601	8.983000
53533		-0.001613	-7.377705	9.431089
53534		-0.108186	-7.357505	9.853899
53535		-0.242647	-7.333106	10.256140
53536		-0.388742	-7.302625	10.637061
53537		-0.501734	-7.271039	10.997796
53538		-0.566643	-7.241911	11.344586
53539		-0.592097	-7.213300	11.675333
53540		-0.587366	-7.178468	11.987245
53541		-0.574245	-7.139345	12.282462
53542		-0.584089	-7.090408	12.557200
53543		-0.618875	-7.033554	12.816447
53544		-0.679300	-6.973710	13.059640
53545		-0.743212	-6.917197	13.289278
53546		-0.817073	-6.865687	13.506336
53547		-0.879100	-6.811951	13.716729
53548		-0.928091	-6.761750	13.913496
53549		-0.955305	-6.713879	14.098017
53550		-0.957682	-6.664347	14.271177
53551		-0.951390	-6.619575	14.430851
53552		-0.935491	-6.583833	14.574455
53553		-0.914896	-6.551352	14.704758
53554		-0.894365	-6.522184	14.822638
53555		-0.883089	-6.490928	14.930974
53556		-0.891752	-6.464867	15.030096
53557		-0.908530	-6.443784	15.120148
53558		-0.930156	-6.426649	15.207759
53559		-0.951923	-6.416458	15.294365
53560		-0.969169	-6.407746	15.380760
53561		-0.996473	-6.399760	15.467044
53562		-1.042753	-6.391703	15.549003
53563		-1.125591	-6.386580	15.621117
53564		-1.231943	-6.387654	15.680058
53565		-1.339055	-6.388676	15.732338
53566		-1.435394	-6.388380	15.778774
53567		-1.522817	-6.387163	15.817530
53568		-1.593014	-6.387439	15.849770
53569		-1.647663	-6.389262	15.879247
53570		-1.693381	-6.390974	15.905647
53571		-1.745419	-6.392674	15.931895
53572		-1.784075	-6.407283	15.958137
53573		-1.801115	-6.431779	15.994745
53574		-1.794992	-6.458891	16.034162
53575		-1.767180	-6.482751	16.074770
53576		-1.742532	-6.500760	16.109577
53577		-1.733995	-6.512608	16.138331
53578		-1.746431	-6.518686	16.156995
53579		-1.786378	-6.520833	16.159916
53580		-1.843081	-6.519981	16.154140
53581		-1.903151	-6.517115	16.138277
53582		-1.944673	-6.512349	16.116693
53583		-1.964722	-6.509220	16.088222
53584		-1.976430	-6.505126	16.056264
53585		-1.990645	-6.503934	16.020829
53586		-2.010131	-6.502151	15.983061
53587		-2.045554	-6.505105	15.946510
53588		-2.085433	-6.513840	15.909428
53589		-2.114460	-6.530819	15.873942
53590		-2.130042	-6.553395	15.842209
53591		-2.125397	-6.580306	15.811509
53592		-2.096153	-6.609795	15.781121
53593		-2.051039	-6.635170	15.752881
53594		-1.997031	-6.649600	15.720967
53595		-1.957291	-6.656674	15.687782
53596		-1.925046	-6.658245	15.647291
53597		-1.906998	-6.659539	15.605740
53598		-1.888366	-6.656410	15.557425
53599		-1.862232	-6.652950	15.509426
53600		-1.814566	-6.651515	15.461443
53601		-1.748715	-6.645823	15.411604
53602		-1.687283	-6.634568	15.359570
53603		-1.647766	-6.615314	15.299781
53604		-1.636592	-6.588899	15.232948
53605		-1.651203	-6.558298	15.159922
53606		-1.672505	-6.528841	15.084155
53607		-1.677886	-6.509105	15.008176
53608		-1.642204	-6.499469	14.938635
53609		-1.563875	-6.499460	14.875334
53610		-1.452931	-6.501280	14.816958
53611		-1.338210	-6.502353	14.759831
53612		-1.231729	-6.496103	14.697902
53613		-1.169057	-6.483380	14.629547
53614		-1.149584	-6.465333	14.550091
53615		-1.155400	-6.444561	14.459226
53616		-1.153566	-6.425605	14.356474
53617		-1.135558	-6.408914	14.242665
53618		-1.084705	-6.396404	14.120235
53619		-1.000591	-6.385372	13.989554
53620		-0.886155	-6.372537	13.854117
53621		-0.780471	-6.355489	13.704589
53622		-0.693234	-6.339671	13.539517
53623		-0.649618	-6.316748	13.360151
53624		-0.632524	-6.290513	13.166000
53625		-0.622805	-6.262486	12.957653
53626		-0.608972	-6.241355	12.731404
53627		-0.600032	-6.210766	12.490466
53628		-0.596303	-6.184584	12.234723
53629		-0.584520	-6.155598	11.966518
53630		-0.546541	-6.128517	11.686061
53631		-0.492119	-6.099208	11.392577
53632		-0.434069	-6.064391	11.085729
53633		-0.390942	-6.027352	10.765424
53634		-0.353563	-5.989881	10.429395
53635		-0.328017	-5.947490	10.077622
53636		-0.312050	-5.905450	9.708206
53637		-0.308806	-5.858624	9.321500
53638		-0.317753	-5.812695	8.920359
53639		-0.357431	-5.772523	8.506183
53640		-0.424440	-5.735089	8.079371
53641		-0.503366	-5.696719	7.652454
53642		-0.568222	-5.662439	7.216694
53643		-0.621942	-5.623491	6.780930
53644		-0.645425	-5.580884	6.343015
53645		-0.640708	-5.535130	5.897183
53646		-0.615924	-5.483097	5.441315
53647		-0.591386	-5.426922	4.971887
53648		-0.567787	-5.372623	4.492890
53649		-0.553535	-5.320443	4.005322
53650		-0.536617	-5.275471	3.509817
53651		-0.511486	-5.233060	3.018791
53652		-0.451783	-5.196409	2.536100
53653		-0.348444	-5.171193	2.062235
53654		-0.213254	-5.152681	1.594320
53655		-0.068036	-5.129392	1.130352
53656		0.078109	-5.110510	0.659626
53657		0.212940	-5.090703	0.177718
53658		0.356429	-5.076739	-0.320652
53659		0.501658	-5.063493	-0.834096
53660		0.659696	-5.057029	-1.364219
53661		0.850532	-5.058624	-1.906648
53662		1.090566	-5.064365	-2.455410
53663		1.359593	-5.073677	-3.011527
53664		1.651429	-5.079129	-3.575491
53665		1.930659	-5.071263	-4.144873
53666		2.186504	-5.050539	-4.719967
53667		2.400199	-5.022787	-5.306844
53668		2.581810	-4.983875	-5.907520
53669		2.724991	-4.935623	-6.521741
53670		2.860381	-4.886873	-7.149551
53671		2.999648	-4.843147	-7.784751
53672		3.151493	-4.805029	-8.427118
53673		3.296728	-4.763740	-9.074108
53674		3.437613	-4.719291	-9.731493
53675		3.581955	-4.679714	-10.399947
53676		3.731062	-4.647285	-11.076551
53677		3.884473	-4.613557	-11.760710
53678		4.032585	-4.578455	-12.449264
53679		4.162863	-4.544528	-13.144755
53680		4.286043	-4.510719	-13.846790
53681		4.382447	-4.466753	-14.553675
53682		4.484689	-4.425881	-15.268151
53683		4.604908	-4.387554	-15.983136
53684		4.773000	-4.368416	-16.699118
53685		4.964132	-4.358194	-17.410643
53686		5.170657	-4.347718	-18.128945
53687		5.384821	-4.336558	-18.849140
53688		5.592532	-4.323482	-19.575390
53689		5.776681	-4.301735	-20.306626
53690		5.933566	-4.266113	-21.043426
53691		6.055409	-4.218602	-21.790776
53692		6.158264	-4.168851	-22.544861
53693		6.230290	-4.114628	-23.302530
53694		6.277768	-4.058377	-24.061185
53695		6.331576	-4.012675	-24.816810
53696		6.401622	-3.971649	-25.567591
53697		6.491701	-3.929247	-26.310398
53698		6.608777	-3.882684	-27.050910
53699		6.715576	-3.832892	-27.789163
53700		6.784820	-3.785567	-28.529812
53701		6.840807	-3.740415	-29.264732
53702		6.914258	-3.708329	-29.993607
53703		7.011239	-3.692236	-30.707351
53704		7.158185	-3.692971	-31.404233
53705		7.348002	-3.707307	-32.084981
53706		7.559692	-3.723286	-32.753784
53707		7.747008	-3.727849	-33.418486
53708		7.900280	-3.723264	-34.080405
53709		8.008527	-3.716303	-34.744089
53710		8.091406	-3.703915	-35.407719
53711		8.144844	-3.690822	-36.071439
53712		8.172564	-3.686776	-36.737892
53713		8.154781	-3.689326	-37.406744
53714		8.116274	-3.697314	-38.075073
53715		8.077808	-3.708290	-38.737017
53716		8.099484	-3.729317	-39.382250
53717		8.149402	-3.742214	-40.010099
53718		8.224323	-3.753972	-40.628769
53719		8.288543	-3.754180	-41.240484
53720		8.292256	-3.738813	-41.850122
53721		8.259088	-3.712991	-42.456021
53722		8.219190	-3.688578	-43.057126
53723		8.181625	-3.667941	-43.652784
53724		8.157487	-3.662858	-44.239613
53725		8.162407	-3.664173	-44.815646
53726		8.215544	-3.670529	-45.379425
53727		8.297168	-3.672117	-45.937578
53728		8.373378	-3.660640	-46.492196
53729		8.410751	-3.637041	-47.047180
53730		8.404828	-3.607153	-47.601555
53731		8.356310	-3.575549	-48.157998
53732		8.301944	-3.546334	-48.714367
53733		8.276551	-3.522675	-49.273109
53734		8.280999	-3.506772	-49.830066
53735		8.306164	-3.493914	-50.389040
53736		8.356023	-3.485368	-50.949819
53737		8.418284	-3.474251	-51.510504
53738		8.488044	-3.464683	-52.068975
53739		8.537068	-3.453620	-52.625835
53740		8.572560	-3.442044	-53.179618
53741		8.606389	-3.432122	-53.730427
53742		8.639338	-3.421244	-54.278890
53743		8.663082	-3.400285	-54.823329
53744		8.682386	-3.375343	-55.371287
53745		8.703543	-3.350839	-55.919407
53746		8.749763	-3.332450	-56.469458
53747		8.809008	-3.313174	-57.021681
53748		8.890444	-3.300671	-57.581675
53749		8.981334	-3.289991	-58.136140
53750		9.087204	-3.282347	-58.694728
53751		9.190898	-3.272530	-59.248117
53752		9.289376	-3.259336	-59.794982
53753		9.365974	-3.239704	-60.332487
53754		9.439555	-3.216061	-60.866988
53755		9.506355	-3.182186	-61.398908
53756		9.573473	-3.149032	-61.934757
53757		9.644862	-3.115871	-62.472026
53758		9.751116	-3.091515	-63.012060
53759		9.892254	-3.079708	-63.553818
53760		10.050748	-3.071781	-64.100006
53761		10.213871	-3.067040	-64.643975
53762		10.368988	-3.060849	-65.187487
53763		10.524186	-3.055762	-65.719629
53764		10.629181	-3.043251	-66.240108
53765		10.696374	-3.030625	-66.744148
53766		10.733077	-3.013264	-67.231807
53767		10.743259	-2.998799	-67.703294
53768		10.731222	-2.992515	-68.160225
53769		10.718416	-2.998662	-68.606342
53770		10.727256	-3.024000	-69.041126
53771		10.788425	-3.053461	-69.462608
53772		10.901343	-3.092954	-69.870856
53773		11.022902	-3.129157	-70.272090
53774		11.139912	-3.158766	-70.665132
53775		11.240967	-3.185466	-71.053783
53776		11.310915	-3.202508	-71.436355
53777		11.365740	-3.219312	-71.816830
53778		11.417610	-3.237449	-72.192330
53779		11.468097	-3.257973	-72.565259
53780		11.504928	-3.273417	-72.930216
53781		11.534180	-3.291571	-73.295771
53782		11.561248	-3.305001	-73.653153
53783		11.567583	-3.304634	-74.002448
53784		11.578082	-3.294412	-74.347109
53785		11.545983	-3.279643	-74.686721
53786		11.469905	-3.260735	-75.027428
53787		11.351504	-3.237758	-75.362226
53788		11.222860	-3.210189	-75.689226
53789		11.111299	-3.186910	-76.006492
53790		11.042296	-3.165624	-76.303409
53791		11.024784	-3.136064	-76.576088
53792		11.051816	-3.103849	-76.829996
53793		11.104239	-3.069512	-77.073534
53794		11.155461	-3.035170	-77.301305
53795		11.192829	-3.004181	-77.515513
53796		11.231686	-2.979136	-77.716759
53797		11.268502	-2.954639	-77.898662
53798		11.297749	-2.929122	-78.067079
53799		11.340962	-2.903879	-78.224425
53800		11.406542	-2.877584	-78.371797
53801		11.480528	-2.846502	-78.510444
53802		11.532266	-2.811039	-78.643126
53803		11.559515	-2.776409	-78.766620
53804		11.563030	-2.740060	-78.880386
53805		11.559731	-2.705596	-78.983218
53806		11.546488	-2.667810	-79.068046
53807		11.531952	-2.628777	-79.140946
53808		11.517403	-2.588884	-79.202551
53809		11.506572	-2.546013	-79.255506
53810		11.506863	-2.500779	-79.301748
53811		11.519735	-2.458889	-79.342077
53812		11.534114	-2.415787	-79.375754
53813		11.546502	-2.369716	-79.402069
53814		11.557238	-2.324813	-79.421807
53815		11.572170	-2.284625	-79.433823
53816		11.586300	-2.249797	-79.434062
53817		11.606012	-2.216655	-79.423105
53818		11.622184	-2.181515	-79.402720
53819		11.626396	-2.143001	-79.370135
53820		11.612715	-2.102246	-79.333024
53821		11.583761	-2.054911	-79.284797
53822		11.550889	-2.011662	-79.231894
53823		11.517096	-1.969133	-79.166392
53824		11.494819	-1.929856	-79.086205
53825		11.487073	-1.891801	-78.992752
53826		11.492415	-1.855463	-78.883508
53827		11.499619	-1.818083	-78.761178
53828		11.472879	-1.772322	-78.621542
53829		11.425714	-1.725802	-78.470045
53830		11.373273	-1.680455	-78.310422
53831		11.334945	-1.641377	-78.138575
53832		11.313941	-1.607109	-77.953204
53833		11.321814	-1.584601	-77.757183
53834		11.344500	-1.575424	-77.549438
53835		11.356342	-1.566887	-77.332856
53836		11.342535	-1.566741	-77.111966
53837		11.299895	-1.567209	-76.882435
53838		11.220798	-1.564264	-76.649477
53839		11.099809	-1.548547	-76.408833
53840		10.907176	-1.523643	-76.166995
53841		10.654287	-1.493600	-75.924568
53842		10.380755	-1.466289	-75.681329
53843		10.140166	-1.455886	-75.439673
53844		9.914662	-1.456791	-75.195881
53845		9.724147	-1.475222	-74.946109
53846		9.551854	-1.501943	-74.685820
53847		9.419013	-1.549263	-74.414306
53848		9.313585	-1.609100	-74.121421
53849		9.248907	-1.681983	-73.802048
53850		9.226703	-1.772405	-73.455327
53851		9.237501	-1.877956	-73.085079
53852		9.249551	-1.992796	-72.689849
53853		9.246470	-2.117404	-72.281488
53854		9.204359	-2.249015	-71.852785
53855		9.151044	-2.390463	-71.408645
53856		9.086733	-2.531249	-70.945592
53857		9.033285	-2.671287	-70.465664
53858		9.005941	-2.809320	-69.966783
53859		9.019997	-2.939585	-69.455263
53860		9.059298	-3.062052	-68.929307
53861		9.118975	-3.178111	-68.398341
53862		9.159353	-3.285261	-67.863111
53863		9.156778	-3.384419	-67.332005
53864		9.113803	-3.473285	-66.802372
53865		9.018784	-3.550554	-66.269300
53866		8.896244	-3.622535	-65.732696
53867		8.776684	-3.697212	-65.189267
53868		8.678282	-3.767867	-64.637515
53869		8.629382	-3.841291	-64.067756
53870		8.603771	-3.912900	-63.484361
53871		8.590761	-3.981998	-62.889770
53872		8.578063	-4.046688	-62.283485
53873		8.578475	-4.114649	-61.671306
53874		8.583279	-4.174731	-61.045910
53875		8.588391	-4.239221	-60.416063
53876		8.564851	-4.294166	-59.779679
53877		8.481623	-4.340474	-59.140971
53878		8.330823	-4.376282	-58.498457
53879		8.168089	-4.413193	-57.846768
53880		8.006877	-4.449256	-57.180638
53881		7.887796	-4.492811	-56.498643
53882		7.792928	-4.538060	-55.796877
53883		7.712388	-4.588872	-55.081448
53884		7.614066	-4.633281	-54.352639
53885		7.511262	-4.677730	-53.620346
53886		7.391455	-4.729579	-52.876173
53887		7.286846	-4.795571	-52.117334
53888		7.189769	-4.873235	-51.343344
53889		7.127005	-4.959817	-50.553672
53890		7.073530	-5.044514	-49.744121
53891		7.032746	-5.127723	-48.921697
53892		6.971875	-5.201755	-48.095032
53893		6.904091	-5.276079	-47.270398
53894		6.821606	-5.347040	-46.441764
53895		6.748827	-5.421613	-45.613631
53896		6.680962	-5.493374	-44.782007
53897		6.628789	-5.569849	-43.950097
53898		6.561461	-5.639088	-43.116067
53899		6.495420	-5.701606	-42.280475
53900		6.434949	-5.761951	-41.445548
53901		6.401693	-5.820242	-40.610815
53902		6.368854	-5.873292	-39.772978
53903		6.343977	-5.920988	-38.931960
53904		6.313643	-5.962891	-38.091506
53905		6.300767	-6.004500	-37.257721
53906		6.239103	-6.045253	-36.429452
53907		6.143873	-6.083632	-35.609788
53908		6.010741	-6.118975	-34.794325
53909		5.864960	-6.156323	-33.982632
53910		5.701388	-6.191852	-33.173944
53911		5.520957	-6.232767	-32.364648
53912		5.311230	-6.263924	-31.555114
53913		5.069574	-6.288186	-30.744812
53914		4.799619	-6.308685	-29.935577
53915		4.530348	-6.337356	-29.124209
53916		4.290386	-6.381936	-28.308346
53917		4.104999	-6.443871	-27.479176
53918		3.943002	-6.508068	-26.637797
53919		3.813453	-6.579157	-25.787208
53920		3.678975	-6.647990	-24.926924
53921		3.547680	-6.719816	-24.065189
53922		3.414990	-6.788823	-23.194630
53923		3.321926	-6.861667	-22.315963
53924		3.283097	-6.936158	-21.421505
53925		3.311481	-7.014798	-20.524209
53926		3.325828	-7.082821	-19.623842
53927		3.300428	-7.133977	-18.725860
53928		3.200430	-7.173873	-17.838148
53929		3.075335	-7.222472	-16.957789
53930		2.942162	-7.270045	-16.078948
53931		2.844563	-7.327267	-15.204220
53932		2.805172	-7.379739	-14.324874
53933		2.847492	-7.422376	-13.443979
53934		2.893264	-7.438279	-12.564700
53935		2.896887	-7.437755	-11.702482
53936		2.816038	-7.420361	-10.858958
53937		2.646615	-7.404323	-10.037987
53938		2.419511	-7.387682	-9.230544
53939		2.188196	-7.382418	-8.430762
53940		1.998821	-7.394021	-7.632096
53941		1.904672	-7.414470	-6.837121
53942		1.869269	-7.419615	-6.038971
53943		1.831930	-7.410512	-5.259616
53944		1.786774	-7.383026	-4.499384
53945		1.744684	-7.345490	-3.759593
53946		1.693209	-7.308666	-3.046459
53947		1.615685	-7.277614	-2.355636
53948		1.525014	-7.243952	-1.683650
53949		1.453846	-7.206892	-1.028711
53950		1.416199	-7.168049	-0.391126
53951		1.424395	-7.129148	0.226105
53952		1.439062	-7.080028	0.822830
53953		1.435644	-7.025695	1.401362
53954		1.399443	-6.963035	1.959689
53955		1.349861	-6.901300	2.501577
53956		1.294537	-6.841920	3.033099
53957		1.259312	-6.790404	3.553102
53958		1.240370	-6.742406	4.065622
53959		1.249278	-6.701141	4.569363
53960		1.274834	-6.660253	5.068631
53961		1.315066	-6.623106	5.561337
53962		1.335841	-6.579542	6.047780
53963		1.336087	-6.533321	6.526168
53964		1.314565	-6.481580	6.994654
53965		1.276594	-6.433322	7.451415
53966		1.201767	-6.368943	7.898294
53967		1.099315	-6.294758	8.335464
53968		0.943097	-6.218423	8.764117
53969		0.754667	-6.142530	9.187961
53970		0.552719	-6.073681	9.608557
53971		0.358433	-6.017566	10.027718
53972		0.179093	-5.968304	10.445566
53973		0.030592	-5.926913	10.860355
53974		-0.063371	-5.889923	11.275325
53975		-0.088720	-5.855024	11.684216
53976		-0.067206	-5.816781	12.082021
53977		-0.036391	-5.775201	12.464039
53978		-0.014319	-5.728681	12.826871
53979		-0.033727	-5.682244	13.170180
53980		-0.088313	-5.641008	13.492983
53981		-0.155201	-5.606128	13.801817
53982		-0.216604	-5.564966	14.105388
53983		-0.257843	-5.527379	14.405758
53984		-0.269786	-5.494034	14.703344
53985		-0.248568	-5.464047	14.996068
53986		-0.189720	-5.434885	15.285301
53987		-0.107052	-5.399598	15.563878
53988		-0.037514	-5.361047	15.827430
53989		-0.004555	-5.312847	16.073173
53990		0.001406	-5.261542	16.301131
53991		-0.010468	-5.209445	16.509447
53992		-0.035049	-5.156536	16.696463
53993		-0.082591	-5.098294	16.860001
53994		-0.161748	-5.029404	17.003047
53995		-0.245087	-4.952689	17.128823
53996		-0.316543	-4.879298	17.237983
53997		-0.376123	-4.804624	17.330741
53998		-0.438702	-4.733049	17.406600
53999		-0.505632	-4.662089	17.468880
54000		-0.584453	-4.595603	17.519413
54001		-0.681747	-4.535078	17.560616
54002		-0.797487	-4.476099	17.589762
54003		-0.922655	-4.423862	17.612702
54004		-1.031938	-4.374304	17.629819
54005		-1.113091	-4.329517	17.651483
54006		-1.142464	-4.285393	17.671335
54007		-1.134874	-4.241133	17.693953
54008		-1.105281	-4.200896	17.713603
54009		-1.073954	-4.164326	17.729642
54010		-1.051215	-4.130883	17.740385
54011		-1.058579	-4.104750	17.744220
54012		-1.109879	-4.078694	17.744803
54013		-1.202882	-4.051246	17.738293
54014		-1.330410	-4.021916	17.724170
54015		-1.477701	-3.989334	17.700201
54016		-1.619606	-3.954046	17.668631
54017		-1.756525	-3.912790	17.630855
54018		-1.897359	-3.865536	17.585523
54019		-2.042291	-3.814264	17.527539
54020		-2.163474	-3.763749	17.459477
54021		-2.234591	-3.716169	17.380709
54022		-2.240139	-3.672012	17.290765
54023		-2.211290	-3.627042	17.187500
54024		-2.159247	-3.579898	17.069210
54025		-2.082862	-3.533475	16.938430
54026		-1.990364	-3.487323	16.797791
54027		-1.897633	-3.440914	16.648628
54028		-1.814113	-3.390214	16.488836
54029		-1.734780	-3.347264	16.317928
54030		-1.645204	-3.304480	16.143922
54031		-1.555124	-3.263919	15.965712
54032		-1.458510	-3.229920	15.784612
54033		-1.357770	-3.207433	15.599454
54034		-1.257779	-3.190633	15.412133
54035		-1.168962	-3.178576	15.221994
54036		-1.092404	-3.170822	15.029609
54037		-1.029443	-3.161865	14.836138
54038		-0.975703	-3.151089	14.633887
54039		-0.927148	-3.143960	14.428878
54040		-0.875006	-3.146071	14.220360
54041		-0.824575	-3.150845	14.005573
54042		-0.762871	-3.162137	13.781074
54043		-0.701331	-3.176886	13.547523
54044		-0.633677	-3.197440	13.303036
54045		-0.565337	-3.220474	13.049147
54046		-0.504120	-3.244686	12.781615
54047		-0.459911	-3.259927	12.506595
54048		-0.430808	-3.265582	12.223850
54049		-0.431723	-3.265712	11.929902
54050		-0.438637	-3.258671	11.629412
54051		-0.459439	-3.243362	11.320733
54052		-0.473790	-3.222292	11.005149
54053		-0.499891	-3.189680	10.674830
54054		-0.557571	-3.152949	10.325062
54055		-0.659766	-3.108213	9.958629
54056		-0.791819	-3.052401	9.568661
54057		-0.917552	-2.999534	9.164342
54058		-1.007141	-2.941857	8.758805
54059		-1.084998	-2.878362	8.350327
54060		-1.150528	-2.805788	7.937056
54061		-1.226611	-2.717580	7.513909
54062		-1.289263	-2.624674	7.078349
54063		-1.337646	-2.528407	6.634319
54064		-1.371828	-2.427266	6.177552
54065		-1.406072	-2.315594	5.704201
54066		-1.426432	-2.201486	5.211404
54067		-1.430440	-2.085052	4.699271
54068		-1.422928	-1.967783	4.164949
54069		-1.426155	-1.845748	3.614580
54070		-1.434920	-1.722003	3.045325
54071		-1.438274	-1.600952	2.460392
54072		-1.421279	-1.481826	1.862395
54073		-1.373085	-1.365487	1.254744
54074		-1.294871	-1.257305	0.636032
54075		-1.220883	-1.140582	0.004703
54076		-1.158115	-1.017395	-0.647366
54077		-1.120136	-0.892943	-1.320277
54078		-1.098804	-0.774738	-2.011118
54079		-1.079762	-0.668176	-2.718595
54080		-1.036266	-0.567140	-3.437237
54081		-0.969052	-0.470939	-4.162259
54082		-0.873949	-0.385506	-4.885641
54083		-0.753275	-0.304055	-5.607531
54084		-0.603180	-0.225767	-6.320374
54085		-0.426836	-0.156239	-7.027231
54086		-0.223883	-0.096869	-7.726694
54087		-0.017662	-0.042380	-8.416006
54088		0.190457	0.012917	-9.095815
54089		0.391763	0.077167	-9.766275
54090		0.580535	0.147745	-10.435947
54091		0.720876	0.224105	-11.110950
54092		0.795828	0.316937	-11.791603
54093		0.798985	0.417915	-12.474683
54094		0.751686	0.532731	-13.157471
54095		0.672883	0.652594	-13.835643
54096		0.607911	0.767938	-14.510840
54097		0.553130	0.881066	-15.177539
54098		0.531990	0.996861	-15.840502
54099		0.520904	1.114045	-16.500577
54100		0.536079	1.226958	-17.158334
54101		0.557656	1.346154	-17.815379
54102		0.580182	1.464317	-18.471211
54103		0.586232	1.580303	-19.126573
54104		0.586528	1.694747	-19.782535
54105		0.568768	1.808152	-20.435253
54106		0.549693	1.911106	-21.082708
54107		0.536829	2.012889	-21.719375
54108		0.557185	2.113255	-22.342860
54109		0.621496	2.210067	-22.951647
54110		0.697727	2.304057	-23.558088
54111		0.743431	2.401766	-24.163632
54112		0.754279	2.502709	-24.769557
54113		0.736195	2.605543	-25.378278
54114		0.714572	2.693333	-25.991278
54115		0.691343	2.768144	-26.606857
54116		0.692127	2.844772	-27.214981
54117		0.714802	2.921741	-27.817905
54118		0.782999	2.996546	-28.419844
54119		0.869485	3.067485	-29.018574
54120		0.952987	3.141519	-29.616536
54121		1.023920	3.216548	-30.215580
54122		1.101327	3.282247	-30.811396
54123		1.188284	3.340409	-31.402692
54124		1.301762	3.387388	-31.986245
54125		1.443031	3.427264	-32.569330
54126		1.599919	3.457065	-33.150903
54127		1.773563	3.483229	-33.731188
54128		1.957690	3.506787	-34.312297
54129		2.139089	3.531901	-34.892632
54130		2.309596	3.555686	-35.479660
54131		2.466873	3.578312	-36.072393
54132		2.637281	3.591367	-36.677984
54133		2.825074	3.592694	-37.290236
54134		3.050519	3.585591	-37.905140
54135		3.276518	3.590155	-38.522985
54136		3.488254	3.607230	-39.147386
54137		3.655306	3.631136	-39.778378
54138		3.758119	3.666935	-40.413377
54139		3.781414	3.712437	-41.049531
54140		3.774727	3.758732	-41.690539
54141		3.735989	3.800173	-42.327612
54142		3.683819	3.812689	-42.972132
54143		3.613063	3.816413	-43.612084
54144		3.553018	3.809570	-44.239976
54145		3.550772	3.796314	-44.860048
54146		3.628241	3.780669	-45.465173
54147		3.749837	3.758188	-46.063164
54148		3.909950	3.734735	-46.658693
54149		4.061651	3.711950	-47.255106
54150		4.166773	3.695899	-47.855652
54151		4.230610	3.687980	-48.464941
54152		4.309131	3.669644	-49.075438
54153		4.406949	3.649714	-49.685814
54154		4.530678	3.627808	-50.297453
54155		4.664514	3.613099	-50.911223
54156		4.799616	3.602704	-51.525135
54157		4.928763	3.591342	-52.141004
54158		5.042671	3.587736	-52.751814
54159		5.122464	3.590023	-53.361810
54160		5.187441	3.594328	-53.968379
54161		5.248381	3.597584	-54.570170
54162		5.336550	3.593460	-55.167784
54163		5.450914	3.588063	-55.764202
54164		5.600165	3.572565	-56.362980
54165		5.770909	3.564428	-56.964085
54166		5.959619	3.558474	-57.569115
54167		6.159369	3.554208	-58.182728
54168		6.342092	3.561248	-58.800290
54169		6.482932	3.591644	-59.419710
54170		6.585803	3.636991	-60.042593
54171		6.659502	3.688875	-60.666536
54172		6.733117	3.747211	-61.286886
54173		6.821686	3.806097	-61.903297
54174		6.924506	3.865275	-62.517624
54175		7.048592	3.924991	-63.125309
54176		7.194118	3.980164	-63.727788
54177		7.367965	4.035042	-64.323322
54178		7.546526	4.095389	-64.911683
54179		7.729278	4.160970	-65.491060
54180		7.916224	4.219928	-66.061678
54181		8.108444	4.276791	-66.617486
54182		8.280829	4.344241	-67.155696
54183		8.421407	4.417231	-67.679007
54184		8.547979	4.490520	-68.185469
54185		8.669810	4.560377	-68.672246
54186		8.779587	4.627679	-69.138833
54187		8.873471	4.697217	-69.590305
54188		8.953979	4.770565	-70.025725
54189		9.041707	4.845485	-70.448024
54190		9.129714	4.927307	-70.847587
54191		9.181704	5.022534	-71.235686
54192		9.171241	5.131944	-71.616002
54193		9.126619	5.245742	-71.993619
54194		9.093967	5.352372	-72.368360
54195		9.095998	5.452264	-72.733222
54196		9.159629	5.535313	-73.091345
54197		9.254280	5.613948	-73.435208
54198		9.362274	5.698059	-73.767184
54199		9.447933	5.793097	-74.090196
54200		9.522797	5.899701	-74.400179
54201		9.598194	6.005654	-74.695263
54202		9.661935	6.109999	-74.977162
54203		9.701466	6.214975	-75.244994
54204		9.709338	6.327625	-75.494242
54205		9.703324	6.440151	-75.732002
54206		9.694563	6.549470	-75.954649
54207		9.699405	6.654437	-76.157481
54208		9.723812	6.756641	-76.339217
54209		9.770487	6.862507	-76.496112
54210		9.827180	6.973038	-76.626302
54211		9.885120	7.079586	-76.737064
54212		9.935666	7.179765	-76.829026
54213		9.975069	7.278930	-76.907031
54214		9.968837	7.383872	-76.965100
54215		9.933021	7.491428	-77.013248
54216		9.868096	7.602233	-77.049578
54217		9.808996	7.713102	-77.077074
54218		9.750429	7.829125	-77.094794
54219		9.691616	7.941783	-77.104473
54220		9.644889	8.051561	-77.104183
54221		9.620753	8.156326	-77.095398
54222		9.616168	8.253030	-77.069970
54223		9.627923	8.342195	-77.030609
54224		9.638125	8.423507	-76.976582
54225		9.640254	8.500292	-76.905871
54226		9.645137	8.568029	-76.818623
54227		9.646710	8.625860	-76.716708
54228		9.632455	8.684635	-76.594488
54229		9.600143	8.740280	-76.452154
54230		9.561318	8.783772	-76.296860
54231		9.536767	8.820116	-76.125154
54232		9.507434	8.853555	-75.941693
54233		9.461436	8.886713	-75.753550
54234		9.391636	8.921831	-75.559548
54235		9.327867	8.947104	-75.358086
54236		9.281720	8.964296	-75.144744
54237		9.254517	8.975182	-74.926391
54238		9.231089	8.980307	-74.702601
54239		9.199679	8.980335	-74.474613
54240		9.143718	8.977069	-74.245452
54241		9.080538	8.969153	-74.012606
54242		9.019347	8.956304	-73.778827
54243		8.974477	8.931826	-73.538620
54244		8.935617	8.899244	-73.298655
54245		8.900700	8.862618	-73.053292
54246		8.872724	8.817698	-72.806246
54247		8.856799	8.762535	-72.553778
54248		8.864343	8.696649	-72.296113
54249		8.896806	8.621135	-72.029868
54250		8.930240	8.544556	-71.755251
54251		8.960536	8.469920	-71.477502
54252		8.981040	8.401261	-71.197736
54253		8.993809	8.333118	-70.912171
54254		8.979711	8.268229	-70.625145
54255		8.956945	8.200773	-70.334522
54256		8.928518	8.128627	-70.035200
54257		8.910917	8.051206	-69.725605
54258		8.896853	7.972949	-69.404450
54259		8.901063	7.891087	-69.067597
54260		8.906360	7.806537	-68.721504
54261		8.905772	7.721923	-68.363330
54262		8.878596	7.641031	-67.991149
54263		8.830820	7.553651	-67.606491
54264		8.769329	7.458075	-67.208040
54265		8.708289	7.352047	-66.788833
54266		8.642946	7.236547	-66.349996
54267		8.593674	7.108287	-65.892137
54268		8.549650	6.971487	-65.416534
54269		8.527894	6.825872	-64.924241
54270		8.508432	6.679570	-64.415951
54271		8.499445	6.532170	-63.895202
54272		8.491068	6.385259	-63.366565
54273		8.501994	6.240498	-62.828337
54274		8.505649	6.094586	-62.284071
54275		8.510090	5.940447	-61.737663
54276		8.497486	5.787583	-61.178772
54277		8.461593	5.631597	-60.614883
54278		8.393391	5.479711	-60.041658
54279		8.315921	5.328532	-59.460626
54280		8.231153	5.180450	-58.873273
54281		8.162566	5.033907	-58.281842
54282		8.087605	4.896427	-57.691054
54283		8.005158	4.762511	-57.103926
54284		7.911240	4.635347	-56.517582
54285		7.821230	4.504745	-55.933633
54286		7.726356	4.373988	-55.347089
54287		7.642246	4.237878	-54.752839
54288		7.570918	4.101009	-54.147107
54289		7.524793	3.962380	-53.528477
54290		7.495927	3.825467	-52.899018
54291		7.505826	3.695889	-52.260446
54292		7.548189	3.577118	-51.609226
54293		7.639416	3.456315	-50.957292
54294		7.758574	3.337418	-50.308220
54295		7.888305	3.222950	-49.655253
