// General information: 
//  MT Manager version: 2022.2.0 
//  XDA version: 2022.2.0 build 7381 rev 124627 built on 2023-07-19
// Device information: 
//  DeviceId: 00B447FA
//  ProductCode: MTW2-3A7G6
//  Firmware Version: 4.3.5
//  Hardware Version: 2.0.0
// Device settings: 
//  Filter Profile: human(46.1)
//  Option Flags: Orientation Smoother Disabled, Position/Velocity Smoother Disabled, Continuous Zero Rotation Update Disabled, AHS Disabled, ICC Disabled
// Coordinate system: ENU
PacketCounter	SampleTimeFine	Roll	Pitch	Yaw
04661		22.317495	-0.049789	1.936818
04662		22.353628	-0.061475	1.991073
04663		22.384707	-0.073662	2.041389
04664		22.410917	-0.074784	2.095317
04665		22.423212	-0.068017	2.149217
04666		22.418272	-0.055564	2.205401
04667		22.389203	-0.041915	2.263612
04668		22.331614	-0.027041	2.325518
04669		22.264355	-0.012953	2.389773
04670		22.197465	0.004476	2.452600
04671		22.130004	0.017894	2.510545
04672		22.058296	0.033377	2.558243
04673		21.987038	0.049857	2.596536
04674		21.918436	0.069337	2.626919
04675		21.855818	0.089971	2.649858
04676		21.793310	0.114930	2.667926
04677		21.729342	0.141044	2.684953
04678		21.671268	0.168532	2.698628
04679		21.620467	0.189699	2.712112
04680		21.586486	0.212605	2.722210
04681		21.580045	0.227127	2.734304
04682		21.589431	0.237359	2.743089
04683		21.602320	0.243907	2.746122
04684		21.597992	0.250100	2.747646
04685		21.561131	0.251851	2.749750
04686		21.499839	0.261541	2.748166
04687		21.428282	0.271679	2.745072
04688		21.351411	0.283757	2.739857
04689		21.285195	0.292094	2.737868
04690		21.225455	0.308834	2.735443
04691		21.186492	0.319216	2.731227
04692		21.166476	0.320681	2.717637
04693		21.170017	0.308216	2.699687
04694		21.193067	0.291898	2.674986
04695		21.225687	0.271993	2.650728
04696		21.252300	0.262334	2.625088
04697		21.256505	0.258063	2.597327
04698		21.243415	0.256424	2.575302
04699		21.240661	0.248001	2.561804
04700		21.237047	0.245871	2.556794
04701		21.229247	0.237121	2.554625
04702		21.209091	0.235440	2.547761
04703		21.182681	0.231568	2.538660
04704		21.138497	0.230422	2.520556
04705		21.085614	0.231602	2.498831
04706		21.039664	0.235856	2.474864
04707		21.006342	0.234121	2.445308
04708		20.991541	0.229629	2.414299
04709		20.986005	0.221681	2.383828
04710		20.981696	0.214547	2.352510
04711		20.968312	0.206772	2.316355
04712		20.935403	0.209086	2.272664
04713		20.883050	0.206110	2.222605
04714		20.819840	0.202700	2.163577
04715		20.780552	0.195769	2.094674
04716		20.759255	0.186241	2.017678
04717		20.761333	0.165082	1.939512
04718		20.784976	0.146990	1.861246
04719		20.816601	0.125778	1.781146
04720		20.824459	0.109087	1.698832
04721		20.798810	0.095180	1.618552
04722		20.743775	0.083374	1.537083
04723		20.678637	0.062777	1.454858
04724		20.623177	0.045876	1.370298
04725		20.586133	0.021292	1.284266
04726		20.573767	-0.006702	1.189517
04727		20.558376	-0.033172	1.090711
04728		20.525806	-0.055182	0.985379
04729		20.482818	-0.087980	0.879410
04730		20.445614	-0.118434	0.771877
04731		20.433844	-0.160587	0.668949
04732		20.444211	-0.210758	0.561485
04733		20.466476	-0.267493	0.454920
04734		20.472419	-0.317859	0.347995
04735		20.464263	-0.364144	0.232693
04736		20.422299	-0.401782	0.105977
04737		20.371047	-0.439139	-0.025442
04738		20.311704	-0.476382	-0.161763
04739		20.266064	-0.519416	-0.304259
04740		20.246614	-0.559429	-0.457771
04741		20.240917	-0.605099	-0.616793
04742		20.230189	-0.644837	-0.786122
04743		20.226037	-0.687067	-0.964757
04744		20.202910	-0.724584	-1.156859
04745		20.172511	-0.766114	-1.355039
04746		20.157060	-0.798865	-1.565696
04747		20.152855	-0.828328	-1.793450
04748		20.145527	-0.853827	-2.037557
04749		20.113108	-0.869896	-2.294905
04750		20.032435	-0.877255	-2.564484
04751		19.914194	-0.891433	-2.850374
04752		19.770051	-0.907842	-3.149229
04753		19.628230	-0.924290	-3.463069
04754		19.481226	-0.945204	-3.787782
04755		19.354390	-0.967937	-4.125533
04756		19.237946	-0.991248	-4.479377
04757		19.128811	-1.030149	-4.846891
04758		19.023426	-1.067017	-5.223392
04759		18.927856	-1.117407	-5.613866
04760		18.834465	-1.177238	-6.020319
04761		18.761755	-1.245481	-6.433806
04762		18.674724	-1.314770	-6.854752
04763		18.582830	-1.395281	-7.288010
04764		18.475726	-1.470958	-7.728524
04765		18.361507	-1.550607	-8.181923
04766		18.218046	-1.628619	-8.648530
04767		18.047114	-1.708533	-9.127454
04768		17.851534	-1.784016	-9.622799
04769		17.679207	-1.867712	-10.136351
04770		17.512171	-1.949164	-10.658577
04771		17.347898	-2.032451	-11.190032
04772		17.161522	-2.111393	-11.731215
04773		16.947635	-2.179910	-12.281129
04774		16.680748	-2.214504	-12.845206
04775		16.333398	-2.226875	-13.436589
04776		15.886056	-2.212877	-14.056433
04777		15.393939	-2.182161	-14.706124
04778		14.856070	-2.129121	-15.386042
04779		14.294948	-2.078736	-16.091922
04780		13.732244	-2.021201	-16.822068
04781		13.198000	-1.971163	-17.573457
04782		12.739267	-1.930597	-18.335288
04783		12.443012	-1.893541	-19.096504
04784		12.300606	-1.866974	-19.847098
04785		12.270648	-1.861009	-20.590739
04786		12.312409	-1.870113	-21.321657
04787		12.358727	-1.891967	-22.050166
04788		12.386512	-1.914170	-22.775953
04789		12.375626	-1.932861	-23.506698
04790		12.332377	-1.946580	-24.239093
04791		12.266964	-1.961205	-24.986705
04792		12.209700	-1.970858	-25.748986
04793		12.185907	-1.978582	-26.530480
04794		12.179468	-1.984041	-27.324723
04795		12.188258	-1.989764	-28.132508
04796		12.208143	-2.008717	-28.947934
04797		12.268781	-2.039403	-29.764784
04798		12.346817	-2.081010	-30.579371
04799		12.446984	-2.131693	-31.383126
04800		12.543371	-2.191474	-32.183390
04801		12.669168	-2.272012	-32.981882
04802		12.811063	-2.370867	-33.778729
04803		12.992314	-2.487901	-34.584449
04804		13.222022	-2.612645	-35.395072
04805		13.499969	-2.754772	-36.218010
04806		13.886953	-2.923372	-37.060962
04807		14.477115	-3.077423	-37.913722
04808		15.109513	-3.167935	-38.785896
04809		15.706163	-3.235931	-39.683016
04810		16.096333	-3.279808	-40.615149
04811		16.273173	-3.333883	-41.572967
04812		16.348413	-3.400990	-42.541695
04813		16.479375	-3.487373	-43.515270
04814		16.845881	-3.571660	-44.494553
04815		17.393939	-3.650428	-45.483491
04816		17.939956	-3.727595	-46.479871
04817		18.402096	-3.809422	-47.468104
04818		18.732897	-3.882647	-48.433074
04819		18.974104	-3.953146	-49.373590
04820		19.191962	-4.035418	-50.295527
04821		19.425569	-4.124898	-51.193607
04822		19.691650	-4.213599	-52.073653
04823		19.951432	-4.281773	-52.934624
04824		20.091943	-4.311891	-53.790060
04825		20.092715	-4.326368	-54.647784
04826		19.992338	-4.325682	-55.501576
04827		19.867026	-4.333116	-56.353852
04828		19.752272	-4.338083	-57.194378
04829		19.690683	-4.316747	-58.010925
04830		19.602259	-4.282362	-58.818340
04831		19.472833	-4.241002	-59.614860
04832		19.239465	-4.179620	-60.389440
04833		18.919415	-4.128993	-61.148797
04834		18.566504	-4.094826	-61.897889
04835		18.262451	-4.081069	-62.634348
04836		18.087635	-4.082933	-63.359518
04837		18.094819	-4.096396	-64.069648
04838		18.184940	-4.101155	-64.767555
04839		18.283569	-4.092715	-65.463754
04840		18.279673	-4.075793	-66.157542
04841		18.201734	-4.049921	-66.837629
04842		18.101325	-4.022021	-67.509113
04843		18.039706	-4.009553	-68.164477
04844		18.013699	-3.993699	-68.809098
04845		18.027950	-3.986409	-69.453063
04846		18.073566	-3.982170	-70.093733
04847		18.128550	-3.974676	-70.728307
04848		18.177651	-3.967153	-71.353574
04849		18.209835	-3.954055	-71.963091
04850		18.211624	-3.932728	-72.570135
04851		18.196183	-3.907268	-73.172236
04852		18.097381	-3.862017	-73.762394
04853		17.958296	-3.818543	-74.340148
04854		17.785867	-3.773461	-74.896382
04855		17.589997	-3.712599	-75.430693
04856		17.378833	-3.661428	-75.950491
04857		17.215828	-3.635188	-76.463604
04858		17.114380	-3.632297	-76.957652
04859		17.118838	-3.652660	-77.441944
04860		17.248965	-3.693723	-77.910580
04861		17.461684	-3.734815	-78.368302
04862		17.701069	-3.771223	-78.822203
04863		17.944552	-3.801864	-79.270231
04864		18.134277	-3.816854	-79.707290
04865		18.254205	-3.824190	-80.133468
04866		18.332762	-3.831780	-80.547231
04867		18.427533	-3.841709	-80.948689
04868		18.573508	-3.850528	-81.337126
04869		18.770293	-3.873068	-81.723448
04870		19.006927	-3.909380	-82.110595
04871		19.270992	-3.945578	-82.499412
04872		19.541800	-3.980307	-82.889267
04873		19.803169	-4.001815	-83.279486
04874		20.021934	-4.013770	-83.667590
04875		20.199477	-4.019835	-84.047377
04876		20.342657	-4.022767	-84.414449
04877		20.467897	-4.025839	-84.775188
04878		20.581485	-4.030343	-85.126398
04879		20.696902	-4.030215	-85.471223
04880		20.803464	-4.033861	-85.813872
04881		20.926035	-4.036592	-86.160350
04882		21.071601	-4.048950	-86.510061
04883		21.275008	-4.069133	-86.862225
04884		21.514677	-4.098943	-87.217064
04885		21.757057	-4.127682	-87.570470
04886		21.973618	-4.157321	-87.924095
04887		22.156981	-4.186979	-88.279983
04888		22.317266	-4.217190	-88.634060
04889		22.467313	-4.242394	-88.982284
04890		22.595642	-4.254067	-89.335190
04891		22.741577	-4.273263	-89.701025
04892		22.931646	-4.302785	-90.077878
04893		23.176444	-4.337635	-90.454694
04894		23.449341	-4.371852	-90.831416
04895		23.697447	-4.398830	-91.209872
04896		23.849118	-4.411845	-91.587988
04897		23.922621	-4.416190	-91.962614
04898		23.964822	-4.418804	-92.331066
04899		24.023453	-4.418057	-92.693027
04900		24.102514	-4.414801	-93.052233
04901		24.194443	-4.418468	-93.414833
04902		24.315286	-4.435929	-93.784413
04903		24.467746	-4.458991	-94.152410
04904		24.628413	-4.487648	-94.522750
04905		24.797572	-4.526773	-94.893621
04906		24.986806	-4.581713	-95.261651
04907		25.207027	-4.642209	-95.628223
04908		25.461695	-4.716103	-95.997235
04909		25.757133	-4.800994	-96.372377
04910		26.080256	-4.897030	-96.755861
04911		26.436909	-4.996544	-97.145113
04912		26.829826	-5.092233	-97.539596
04913		27.233614	-5.158145	-97.938380
04914		27.666989	-5.193919	-98.340874
04915		28.168055	-5.208229	-98.740840
04916		28.621961	-5.197277	-99.161448
04917		28.883799	-5.147431	-99.603480
04918		28.960808	-5.064877	-100.057696
04919		28.867617	-4.954150	-100.514598
04920		28.701633	-4.837454	-100.975753
04921		28.610765	-4.742876	-101.439547
04922		28.646029	-4.678784	-101.898011
04923		28.804873	-4.627038	-102.349977
04924		29.075881	-4.598438	-102.800718
04925		29.421946	-4.586775	-103.255831
04926		29.792216	-4.578726	-103.703109
04927		30.162500	-4.566679	-104.141015
04928		30.507406	-4.557221	-104.561122
04929		30.807414	-4.542501	-104.958139
04930		31.038296	-4.516664	-105.322269
04931		31.212960	-4.481690	-105.666537
04932		31.370898	-4.455509	-105.991248
04933		31.537445	-4.431756	-106.290096
04934		31.702964	-4.405753	-106.563965
04935		31.867888	-4.386159	-106.820306
04936		32.019346	-4.383888	-107.056089
04937		32.161377	-4.387566	-107.262182
04938		32.302366	-4.399992	-107.437789
04939		32.433298	-4.416168	-107.589459
04940		32.547697	-4.441331	-107.718188
04941		32.644392	-4.463302	-107.818881
04942		32.718644	-4.489593	-107.894157
04943		32.777712	-4.515525	-107.945813
04944		32.834214	-4.543907	-107.975659
04945		32.918615	-4.573841	-107.983413
04946		33.027983	-4.607869	-107.976996
04947		33.146788	-4.630537	-107.953381
04948		33.256968	-4.644273	-107.917865
04949		33.324602	-4.639821	-107.870007
04950		33.358044	-4.630029	-107.809996
04951		33.369920	-4.613781	-107.735664
04952		33.375225	-4.610063	-107.652354
04953		33.388796	-4.603215	-107.558131
04954		33.411672	-4.608444	-107.460114
04955		33.446718	-4.607608	-107.356857
04956		33.475255	-4.610519	-107.249678
04957		33.495505	-4.609393	-107.138720
04958		33.504376	-4.604107	-107.024961
04959		33.505871	-4.596353	-106.911900
04960		33.491132	-4.596516	-106.796084
04961		33.462184	-4.591394	-106.674421
04962		33.432227	-4.585890	-106.548057
04963		33.403722	-4.573704	-106.418478
04964		33.370564	-4.562940	-106.287324
04965		33.341599	-4.549252	-106.152142
04966		33.308768	-4.536753	-106.016540
04967		33.263310	-4.517061	-105.882833
04968		33.204195	-4.501481	-105.755271
04969		33.123197	-4.478096	-105.619795
04970		33.036204	-4.458311	-105.483910
04971		32.938322	-4.439604	-105.350554
04972		32.831850	-4.421854	-105.213893
04973		32.738514	-4.406446	-105.073067
04974		32.679051	-4.396978	-104.930972
04975		32.649401	-4.390377	-104.779922
04976		32.635832	-4.386784	-104.625400
04977		32.623996	-4.384416	-104.466763
04978		32.614571	-4.385262	-104.302276
04979		32.609665	-4.383540	-104.132421
04980		32.596940	-4.389731	-103.955448
04981		32.586262	-4.396611	-103.772223
04982		32.587505	-4.409019	-103.584627
04983		32.596179	-4.419177	-103.390786
04984		32.597580	-4.439723	-103.191881
04985		32.577596	-4.458181	-102.987511
04986		32.561078	-4.482837	-102.778123
04987		32.553051	-4.508470	-102.560213
04988		32.563572	-4.547061	-102.336990
04989		32.580114	-4.580094	-102.105313
04990		32.607590	-4.619831	-101.867604
04991		32.640896	-4.657758	-101.624746
04992		32.684673	-4.708037	-101.373088
04993		32.751114	-4.767552	-101.115700
04994		32.847301	-4.837153	-100.853749
04995		32.965517	-4.919826	-100.581824
04996		33.078307	-5.009442	-100.303085
04997		33.169366	-5.095088	-100.010047
04998		33.225559	-5.187454	-99.705110
04999		33.264242	-5.276390	-99.386329
05000		33.303544	-5.371966	-99.047723
05001		33.345464	-5.463031	-98.687978
05002		33.397103	-5.564052	-98.309348
05003		33.455805	-5.666826	-97.914726
05004		33.516781	-5.765791	-97.496145
05005		33.573555	-5.854428	-97.054863
05006		33.636167	-5.951220	-96.603004
05007		33.681226	-6.034978	-96.131934
05008		33.667394	-6.114157	-95.648568
05009		33.539934	-6.159726	-95.145463
05010		33.265058	-6.177426	-94.627720
05011		32.862576	-6.176226	-94.088554
05012		32.419240	-6.186243	-93.539904
05013		32.008447	-6.207375	-92.973104
05014		31.650910	-6.245675	-92.392213
05015		31.349946	-6.294469	-91.798146
05016		31.064158	-6.344234	-91.194180
05017		30.774234	-6.386903	-90.579452
05018		30.507065	-6.443521	-89.968004
05019		30.262458	-6.506575	-89.350393
05020		30.020227	-6.564753	-88.719852
05021		29.765976	-6.612122	-88.082113
05022		29.509234	-6.658709	-87.442259
05023		29.256274	-6.692663	-86.797212
05024		29.018326	-6.719557	-86.134328
05025		28.790308	-6.733634	-85.458201
05026		28.566723	-6.751706	-84.777971
05027		28.319424	-6.751267	-84.085621
05028		28.052448	-6.750730	-83.384940
05029		27.795778	-6.746018	-82.682275
05030		27.568153	-6.751758	-81.987384
05031		27.387645	-6.758593	-81.292550
05032		27.206742	-6.759544	-80.600887
05033		27.016362	-6.751802	-79.908134
05034		26.811946	-6.744409	-79.220434
05035		26.582943	-6.725347	-78.529005
05036		26.340178	-6.706476	-77.844256
05037		26.100572	-6.688148	-77.176354
05038		25.949701	-6.681914	-76.531236
05039		25.917709	-6.675447	-75.906430
05040		25.977108	-6.668254	-75.302568
05041		26.077109	-6.645140	-74.717608
05042		26.166188	-6.614011	-74.145132
05043		26.188922	-6.563766	-73.567940
05044		26.137180	-6.515341	-72.980062
05045		26.031168	-6.470996	-72.377351
05046		25.913591	-6.445951	-71.760662
05047		25.811012	-6.436259	-71.132304
05048		25.741312	-6.444879	-70.506606
05049		25.721585	-6.475639	-69.874230
05050		25.731402	-6.521771	-69.243736
05051		25.778171	-6.584622	-68.617995
05052		25.825057	-6.653619	-67.995096
05053		25.866535	-6.724673	-67.377181
05054		25.892566	-6.801172	-66.766828
05055		25.883466	-6.870012	-66.148770
05056		25.863958	-6.931436	-65.518268
05057		25.877989	-6.988195	-64.877981
05058		25.940810	-7.046029	-64.233450
05059		26.031522	-7.104451	-63.581607
05060		26.107001	-7.161126	-62.918769
05061		26.168556	-7.207392	-62.241948
05062		26.211475	-7.247761	-61.549740
05063		26.257254	-7.280396	-60.847391
05064		26.308002	-7.322215	-60.139963
05065		26.353069	-7.356934	-59.418727
05066		26.404134	-7.380611	-58.682573
05067		26.428478	-7.375765	-57.928892
05068		26.417040	-7.343031	-57.155324
05069		26.336837	-7.275329	-56.357408
05070		26.225740	-7.189961	-55.546657
05071		26.084110	-7.089856	-54.733275
05072		25.913108	-6.991547	-53.925082
05073		25.780890	-6.909928	-53.132343
05074		25.729038	-6.862404	-52.363770
05075		25.775194	-6.823825	-51.596248
05076		25.949699	-6.775563	-50.838279
05077		26.183461	-6.733721	-50.099773
05078		26.421943	-6.689113	-49.351571
05079		26.612093	-6.618583	-48.579892
05080		26.722189	-6.551776	-47.818520
05081		26.752432	-6.489616	-47.056402
05082		26.717367	-6.421714	-46.288248
05083		26.648825	-6.369815	-45.537836
05084		26.635168	-6.332826	-44.812832
05085		26.715280	-6.299256	-44.108348
05086		26.844776	-6.279652	-43.428152
05087		26.988105	-6.260974	-42.766080
05088		27.141438	-6.245479	-42.112832
05089		27.317768	-6.231077	-41.460750
05090		27.518046	-6.238240	-40.812107
05091		27.736774	-6.272608	-40.166692
05092		27.970151	-6.329448	-39.519534
05093		28.238051	-6.412780	-38.884309
05094		28.600718	-6.529353	-38.254670
05095		29.110295	-6.663360	-37.609226
05096		29.693602	-6.812362	-36.961143
05097		30.303945	-6.972569	-36.328420
05098		30.806775	-7.119267	-35.704670
05099		31.034921	-7.238306	-35.080437
05100		30.980325	-7.307585	-34.456313
05101		30.744563	-7.349174	-33.834862
05102		30.427816	-7.386490	-33.221126
05103		30.161568	-7.427924	-32.615415
05104		30.016025	-7.490554	-32.014906
05105		30.038505	-7.571355	-31.419955
05106		30.197498	-7.649283	-30.834092
05107		30.392630	-7.725163	-30.261822
05108		30.593313	-7.801941	-29.709461
05109		30.750247	-7.878204	-29.165650
05110		30.857379	-7.952104	-28.627103
05111		30.895613	-8.025127	-28.091596
05112		30.865364	-8.080769	-27.565171
05113		30.776646	-8.135510	-27.045300
05114		30.699951	-8.193551	-26.527513
05115		30.655161	-8.242581	-26.012023
05116		30.648971	-8.298281	-25.503920
05117		30.664294	-8.345933	-24.996122
05118		30.674177	-8.393971	-24.493128
05119		30.670521	-8.437960	-23.992298
05120		30.643287	-8.477682	-23.495997
05121		30.599070	-8.523312	-23.008115
05122		30.506455	-8.545145	-22.526993
05123		30.374048	-8.561551	-22.053130
05124		30.222338	-8.569287	-21.592869
05125		30.084821	-8.574272	-21.142688
05126		29.970938	-8.577411	-20.695906
05127		29.868711	-8.580262	-20.255594
05128		29.790238	-8.572654	-19.820051
05129		29.708282	-8.558355	-19.388027
05130		29.615733	-8.538598	-18.964726
05131		29.520002	-8.528411	-18.547887
05132		29.443196	-8.528208	-18.130217
05133		29.405067	-8.528306	-17.705883
05134		29.416512	-8.527117	-17.290234
05135		29.433347	-8.537016	-16.878602
05136		29.425265	-8.538795	-16.470715
05137		29.376562	-8.529188	-16.068090
05138		29.269653	-8.516830	-15.670777
05139		29.151531	-8.499539	-15.276288
05140		29.056112	-8.481542	-14.887599
05141		28.998599	-8.465656	-14.502490
05142		28.977597	-8.449996	-14.122229
05143		28.971274	-8.438784	-13.750585
05144		28.961768	-8.421132	-13.378114
05145		28.918217	-8.402533	-13.006260
05146		28.856259	-8.383754	-12.633063
05147		28.796036	-8.366529	-12.256803
05148		28.725373	-8.340349	-11.873815
05149		28.617430	-8.304874	-11.490177
05150		28.448712	-8.264562	-11.106208
05151		28.254279	-8.221656	-10.720826
05152		28.051538	-8.163422	-10.329540
05153		27.843912	-8.099474	-9.940461
05154		27.628668	-8.031779	-9.554157
05155		27.372364	-7.957727	-9.158769
05156		27.090832	-7.884738	-8.761498
05157		26.814112	-7.818285	-8.364792
05158		26.555272	-7.760470	-7.965819
05159		26.328863	-7.713721	-7.566329
05160		26.154796	-7.681338	-7.178802
05161		26.065055	-7.665284	-6.798601
05162		26.037904	-7.662627	-6.426265
05163		26.048952	-7.662774	-6.067971
05164		26.054138	-7.663751	-5.719630
05165		26.054354	-7.668104	-5.382291
05166		26.045196	-7.665732	-5.047797
05167		26.013438	-7.654939	-4.716207
05168		25.960157	-7.636594	-4.389877
05169		25.898033	-7.608702	-4.072853
05170		25.815117	-7.578783	-3.763240
05171		25.741641	-7.546610	-3.468349
05172		25.675954	-7.516370	-3.184550
05173		25.627644	-7.494659	-2.910620
05174		25.582431	-7.470009	-2.646807
05175		25.517777	-7.445457	-2.391382
05176		25.454905	-7.416119	-2.141406
05177		25.421727	-7.396485	-1.900922
05178		25.401961	-7.376085	-1.660653
05179		25.410925	-7.354027	-1.427791
05180		25.414935	-7.323986	-1.203844
05181		25.378145	-7.283993	-0.990266
05182		25.289469	-7.236757	-0.782922
05183		25.217371	-7.197933	-0.583763
05184		25.170339	-7.161007	-0.388003
05185		25.136019	-7.126899	-0.192765
05186		25.122735	-7.094695	0.002242
05187		25.099575	-7.062870	0.198135
05188		25.066693	-7.020985	0.399388
05189		25.016576	-6.972763	0.597550
05190		24.935530	-6.908469	0.794639
05191		24.828528	-6.820112	0.989248
05192		24.674300	-6.716659	1.173378
05193		24.472198	-6.616231	1.346305
05194		24.267020	-6.518991	1.511624
05195		24.115151	-6.449692	1.668943
05196		24.016126	-6.379112	1.812070
05197		23.943721	-6.313978	1.951830
05198		23.892543	-6.251047	2.083214
05199		23.843971	-6.200392	2.211632
05200		23.811053	-6.155553	2.337136
05201		23.814027	-6.125537	2.469889
05202		23.834012	-6.106584	2.601685
05203		23.873371	-6.089940	2.726251
05204		23.889177	-6.070380	2.847280
05205		23.855705	-6.046075	2.956382
05206		23.787866	-6.016480	3.053721
05207		23.722991	-5.986470	3.141940
05208		23.661175	-5.956046	3.218276
05209		23.607941	-5.929852	3.284428
05210		23.571515	-5.909789	3.346527
05211		23.567352	-5.900577	3.396999
05212		23.589577	-5.904547	3.439442
05213		23.610290	-5.916836	3.477646
05214		23.619311	-5.936194	3.507548
05215		23.644337	-5.961816	3.532433
05216		23.662027	-5.987045	3.558829
05217		23.656265	-6.013293	3.580170
05218		23.630880	-6.041738	3.598293
05219		23.588487	-6.069931	3.616038
05220		23.532224	-6.091975	3.627421
05221		23.492879	-6.115453	3.627847
05222		23.472251	-6.133372	3.615889
05223		23.456726	-6.155420	3.589476
05224		23.414678	-6.167005	3.560190
05225		23.364186	-6.181271	3.525739
05226		23.299493	-6.197335	3.488088
05227		23.251407	-6.207915	3.451795
05228		23.189323	-6.213386	3.410256
05229		23.130797	-6.225831	3.357568
05230		23.059499	-6.226377	3.301335
05231		22.981876	-6.226893	3.234644
05232		22.902532	-6.228645	3.152815
05233		22.820701	-6.225837	3.060461
05234		22.725436	-6.214125	2.960080
05235		22.598417	-6.196755	2.846469
05236		22.431175	-6.167751	2.727795
05237		22.232987	-6.126250	2.607786
05238		22.012089	-6.062159	2.482759
05239		21.741887	-5.984651	2.348003
05240		21.387229	-5.893994	2.202079
05241		20.975654	-5.799029	2.044153
05242		20.560125	-5.707412	1.876092
05243		20.210402	-5.643693	1.695140
05244		19.973042	-5.592196	1.494126
05245		19.860939	-5.563033	1.280024
05246		19.827153	-5.533833	1.056223
05247		19.836302	-5.512686	0.815883
05248		19.845003	-5.498850	0.557752
05249		19.834671	-5.486426	0.294293
05250		19.804708	-5.470165	0.036681
05251		19.812024	-5.456930	-0.230344
05252		19.855866	-5.449997	-0.501687
05253		19.916099	-5.441652	-0.775447
05254		19.968512	-5.421461	-1.054558
05255		19.986261	-5.391556	-1.348067
05256		19.935760	-5.347117	-1.656641
05257		19.844780	-5.301062	-1.978610
05258		19.743173	-5.263403	-2.317607
05259		19.674010	-5.244775	-2.674914
05260		19.621605	-5.227389	-3.042241
05261		19.592575	-5.208001	-3.415435
05262		19.568148	-5.190594	-3.800119
05263		19.532702	-5.174718	-4.194394
05264		19.467263	-5.153820	-4.592343
05265		19.384799	-5.134396	-4.998116
05266		19.274451	-5.109382	-5.423008
05267		19.160179	-5.089658	-5.866234
05268		19.032535	-5.059224	-6.329691
05269		18.898233	-5.016178	-6.811890
05270		18.712292	-4.957073	-7.311633
05271		18.508009	-4.898252	-7.827386
05272		18.307692	-4.843818	-8.349304
05273		18.170322	-4.809181	-8.873021
05274		18.093615	-4.789676	-9.397147
05275		18.085916	-4.777856	-9.918639
05276		18.099280	-4.776059	-10.438883
05277		18.112196	-4.789715	-10.960619
05278		18.110832	-4.800982	-11.476931
05279		18.096430	-4.819966	-11.993466
05280		18.076601	-4.848611	-12.510377
05281		18.076351	-4.883138	-13.025972
05282		18.077318	-4.917221	-13.543083
05283		18.084060	-4.958747	-14.066957
05284		18.081721	-4.997510	-14.603397
05285		18.077918	-5.036816	-15.146204
05286		18.089232	-5.079722	-15.698934
05287		18.136145	-5.123666	-16.258106
05288		18.189791	-5.166206	-16.818872
05289		18.264483	-5.212908	-17.380296
05290		18.327843	-5.257317	-17.947397
05291		18.392742	-5.307715	-18.516672
05292		18.459276	-5.352566	-19.086916
05293		18.520279	-5.391730	-19.660790
05294		18.555439	-5.425241	-20.237578
05295		18.586960	-5.452783	-20.822730
05296		18.600367	-5.484954	-21.416758
05297		18.635072	-5.527237	-22.017156
05298		18.699357	-5.573949	-22.624132
05299		18.811593	-5.627363	-23.238636
05300		18.941710	-5.670559	-23.857965
05301		19.066265	-5.716545	-24.485715
05302		19.152612	-5.757570	-25.112741
05303		19.213409	-5.793274	-25.739517
05304		19.275990	-5.834472	-26.371792
05305		19.350169	-5.868456	-27.000030
05306		19.400144	-5.894023	-27.637310
05307		19.435800	-5.928335	-28.284357
05308		19.464894	-5.956291	-28.938636
05309		19.504846	-5.981910	-29.607240
05310		19.530902	-6.012199	-30.290129
05311		19.580363	-6.049454	-30.982771
05312		19.673665	-6.079006	-31.683687
05313		19.780364	-6.110802	-32.396622
05314		19.879100	-6.151710	-33.113238
05315		19.988283	-6.189471	-33.830844
05316		20.063832	-6.215526	-34.544641
05317		20.116556	-6.249689	-35.269695
05318		20.154227	-6.290889	-35.993199
05319		20.222656	-6.329348	-36.716660
05320		20.301156	-6.374490	-37.445344
05321		20.417768	-6.427005	-38.175801
05322		20.519889	-6.471751	-38.899891
05323		20.639895	-6.527355	-39.618991
05324		20.785546	-6.586040	-40.324644
05325		20.959856	-6.646826	-41.005483
05326		21.162646	-6.706286	-41.657315
05327		21.334038	-6.758558	-42.270802
05328		21.449441	-6.804577	-42.855480
05329		21.577349	-6.856199	-43.419821
05330		21.728046	-6.928558	-43.957995
05331		21.909861	-7.021622	-44.486495
05332		22.130728	-7.134195	-45.010572
05333		22.392229	-7.250947	-45.527501
05334		22.655151	-7.370306	-46.043127
05335		22.883258	-7.481335	-46.557249
05336		23.025731	-7.585965	-47.078687
05337		23.080813	-7.673403	-47.603660
05338		23.020637	-7.729563	-48.119202
05339		22.886096	-7.775148	-48.640882
05340		22.721796	-7.814943	-49.163201
05341		22.576632	-7.849012	-49.687347
05342		22.484001	-7.889517	-50.227874
05343		22.468073	-7.940360	-50.782706
05344		22.517336	-7.985646	-51.352181
05345		22.597628	-8.022140	-51.943611
05346		22.671905	-8.044799	-52.548439
05347		22.709912	-8.048366	-53.173042
05348		22.726451	-8.049429	-53.814661
05349		22.762093	-8.039563	-54.466720
05350		22.834606	-8.020487	-55.130635
05351		22.967016	-8.001226	-55.815465
05352		23.144366	-7.970559	-56.512370
05353		23.350729	-7.936908	-57.222977
05354		23.595083	-7.900344	-57.937824
05355		23.870042	-7.844890	-58.649525
05356		24.165193	-7.783427	-59.352707
05357		24.424304	-7.692792	-60.040555
05358		24.578719	-7.587226	-60.714275
05359		24.634273	-7.469405	-61.370099
05360		24.625512	-7.355574	-62.009275
05361		24.620183	-7.255603	-62.640893
05362		24.649441	-7.163462	-63.262060
05363		24.715395	-7.064506	-63.884511
05364		24.760889	-6.967468	-64.516954
05365		24.747554	-6.859869	-65.147124
05366		24.648194	-6.735755	-65.768681
05367		24.528064	-6.625671	-66.398897
05368		24.472624	-6.539269	-67.023557
05369		24.528862	-6.461269	-67.638876
05370		24.655775	-6.398620	-68.253621
05371		24.832464	-6.348508	-68.873710
05372		24.993701	-6.302064	-69.488559
05373		25.135117	-6.260511	-70.100144
05374		25.274971	-6.236257	-70.706946
05375		25.444002	-6.216777	-71.304793
05376		25.664983	-6.214781	-71.894448
05377		25.925239	-6.226880	-72.472844
05378		26.175305	-6.221257	-73.034669
05379		26.355886	-6.183434	-73.583430
05380		26.478619	-6.135658	-74.119894
05381		26.541201	-6.075229	-74.649315
05382		26.566742	-6.007765	-75.166523
05383		26.580785	-5.929813	-75.668481
05384		26.574157	-5.835487	-76.157207
05385		26.592377	-5.747320	-76.643530
05386		26.638574	-5.660906	-77.115465
05387		26.681103	-5.558492	-77.566947
05388		26.689002	-5.448032	-78.006178
05389		26.668695	-5.339566	-78.433947
05390		26.622901	-5.231829	-78.840322
05391		26.594715	-5.135701	-79.232202
05392		26.626280	-5.072254	-79.630007
05393		26.796313	-5.057118	-80.032213
05394		27.138327	-5.079360	-80.435969
05395		27.611043	-5.101618	-80.835040
05396		28.089878	-5.090987	-81.229008
05397		28.494867	-5.065114	-81.626489
05398		28.729955	-5.026727	-82.017919
05399		28.821652	-4.966881	-82.386115
05400		28.823284	-4.895150	-82.738032
05401		28.808164	-4.822965	-83.085465
05402		28.820462	-4.762204	-83.429351
05403		28.882663	-4.715767	-83.776754
05404		29.012101	-4.690797	-84.134492
05405		29.214399	-4.675534	-84.487817
05406		29.418181	-4.644605	-84.826724
05407		29.574354	-4.612978	-85.170065
05408		29.653190	-4.580447	-85.508717
05409		29.661537	-4.536151	-85.828949
05410		29.641640	-4.499718	-86.144252
05411		29.633270	-4.476409	-86.461486
05412		29.680205	-4.475238	-86.783231
05413		29.830168	-4.512109	-87.117408
05414		30.155090	-4.592432	-87.466191
05415		30.744667	-4.714903	-87.826196
05416		31.547124	-4.842058	-88.183909
05417		32.466946	-4.946937	-88.547497
05418		33.301115	-5.012357	-88.946631
05419		33.933585	-5.036426	-89.366014
05420		34.275157	-4.970549	-89.778627
05421		34.266360	-4.836696	-90.189641
05422		33.984945	-4.652506	-90.612975
05423		33.535314	-4.442684	-91.038459
05424		33.094667	-4.244062	-91.454412
05425		32.781979	-4.077266	-91.858481
05426		32.656408	-3.959451	-92.248034
05427		32.675369	-3.881801	-92.615510
05428		32.799009	-3.842485	-92.963300
05429		32.994693	-3.831851	-93.294049
05430		33.226183	-3.836220	-93.606768
05431		33.456709	-3.844558	-93.897963
05432		33.617199	-3.851706	-94.167742
05433		33.697449	-3.848011	-94.425248
05434		33.709014	-3.839652	-94.662574
05435		33.689894	-3.824167	-94.878215
05436		33.680392	-3.815952	-95.082450
05437		33.715935	-3.818649	-95.275537
05438		33.825376	-3.834998	-95.457023
05439		34.016421	-3.868221	-95.629520
05440		34.246449	-3.907324	-95.789294
05441		34.462151	-3.938434	-95.926647
05442		34.611077	-3.946962	-96.038009
05443		34.679029	-3.947231	-96.125107
05444		34.678376	-3.938324	-96.186180
05445		34.640450	-3.924620	-96.214430
05446		34.608369	-3.911032	-96.224276
05447		34.604543	-3.902580	-96.217987
05448		34.605860	-3.896632	-96.208028
05449		34.601727	-3.884679	-96.181999
05450		34.595656	-3.866331	-96.154554
05451		34.621512	-3.864283	-96.129059
05452		34.675778	-3.872495	-96.103402
05453		34.725323	-3.879848	-96.065452
05454		34.745899	-3.876026	-96.014547
05455		34.717406	-3.860798	-95.953760
05456		34.635465	-3.843354	-95.884887
05457		34.531949	-3.826079	-95.797033
05458		34.452884	-3.819467	-95.702244
05459		34.408490	-3.820444	-95.603910
05460		34.389967	-3.825121	-95.504488
05461		34.387645	-3.834225	-95.399636
05462		34.424415	-3.852768	-95.293648
05463		34.495175	-3.877502	-95.183026
05464		34.572219	-3.899356	-95.065821
05465		34.625874	-3.916681	-94.940448
05466		34.640959	-3.929552	-94.798928
05467		34.626010	-3.935285	-94.641146
05468		34.609507	-3.946725	-94.467719
05469		34.595752	-3.957401	-94.277275
05470		34.595229	-3.964840	-94.077194
05471		34.620326	-3.973036	-93.864428
05472		34.729614	-3.994921	-93.645200
05473		34.976105	-4.043806	-93.420159
05474		35.417537	-4.149959	-93.206089
05475		35.959205	-4.279644	-92.989567
05476		36.443491	-4.389898	-92.770985
05477		36.752911	-4.470666	-92.549578
05478		36.812543	-4.514260	-92.324388
05479		36.618702	-4.504138	-92.088335
05480		36.272723	-4.468867	-91.853296
05481		35.876364	-4.426077	-91.621400
05482		35.512489	-4.388162	-91.394060
05483		35.224989	-4.367249	-91.173779
05484		35.033408	-4.364810	-90.962548
05485		34.887758	-4.369118	-90.755109
05486		34.769280	-4.384144	-90.553199
05487		34.649096	-4.398513	-90.343059
05488		34.517637	-4.413306	-90.123488
05489		34.324899	-4.413844	-89.887353
05490		34.096267	-4.413642	-89.632896
05491		33.842937	-4.407940	-89.361069
05492		33.602317	-4.400674	-89.072994
05493		33.393560	-4.396718	-88.772022
05494		33.240466	-4.399154	-88.464304
05495		33.138918	-4.409094	-88.142246
05496		33.063659	-4.422165	-87.811678
05497		32.992819	-4.439714	-87.466819
05498		32.901078	-4.455042	-87.112550
05499		32.776868	-4.460525	-86.739434
05500		32.622843	-4.461710	-86.352220
05501		32.461199	-4.459578	-85.945039
05502		32.304598	-4.458943	-85.517167
05503		32.167372	-4.462478	-85.071301
05504		32.061232	-4.475185	-84.611151
05505		32.004167	-4.498831	-84.136380
05506		32.012430	-4.545213	-83.663654
05507		32.098447	-4.617020	-83.192649
05508		32.274309	-4.716180	-82.734288
05509		32.532274	-4.838450	-82.268091
05510		32.864076	-4.989228	-81.799887
05511		33.245919	-5.162092	-81.327266
05512		33.651746	-5.352643	-80.848904
05513		34.049315	-5.544793	-80.359687
05514		34.413080	-5.738284	-79.858821
05515		34.731752	-5.921590	-79.341815
05516		34.989099	-6.092103	-78.815437
05517		35.169772	-6.240040	-78.280710
05518		35.310609	-6.384677	-77.750105
05519		35.435391	-6.518049	-77.215587
05520		35.548424	-6.633118	-76.682346
05521		35.641690	-6.742303	-76.154739
05522		35.727240	-6.851591	-75.623924
05523		35.789670	-6.949324	-75.079036
05524		35.843712	-7.048140	-74.526787
05525		35.834893	-7.130066	-73.950949
05526		35.749358	-7.201707	-73.361574
05527		35.561716	-7.251876	-72.755609
05528		35.300105	-7.299072	-72.149414
05529		34.997725	-7.343763	-71.543871
05530		34.734029	-7.406230	-70.947074
05531		34.569153	-7.477058	-70.343198
05532		34.533391	-7.565148	-69.742604
05533		34.574707	-7.665661	-69.129060
05534		34.643602	-7.769855	-68.499661
05535		34.664338	-7.869396	-67.854808
05536		34.612746	-7.960714	-67.190920
05537		34.506404	-8.047202	-66.524777
05538		34.417428	-8.157602	-65.869861
05539		34.375555	-8.264766	-65.207052
05540		34.391558	-8.383423	-64.556052
05541		34.490468	-8.525040	-63.913436
05542		34.681033	-8.662663	-63.253409
05543		34.960020	-8.808978	-62.581172
05544		35.290661	-8.968575	-61.895104
05545		35.628075	-9.114784	-61.194477
05546		35.955057	-9.257423	-60.472356
05547		36.268318	-9.385377	-59.726166
05548		36.606820	-9.518131	-58.964761
05549		36.930228	-9.644859	-58.182114
05550		37.149652	-9.751876	-57.394699
05551		37.228168	-9.832799	-56.606272
05552		37.178998	-9.881962	-55.806058
05553		37.032700	-9.909358	-54.999427
05554		36.855061	-9.934625	-54.186681
05555		36.699302	-9.958214	-53.360717
05556		36.613785	-9.986803	-52.523402
05557		36.607885	-10.033682	-51.691081
05558		36.657309	-10.091686	-50.852422
05559		36.723515	-10.143830	-50.003071
05560		36.793296	-10.196786	-49.162418
05561		36.826819	-10.241304	-48.327310
05562		36.834274	-10.281022	-47.497369
05563		36.802379	-10.306498	-46.661702
05564		36.727308	-10.313045	-45.815175
05565		36.615854	-10.300969	-44.961964
05566		36.482558	-10.294717	-44.117851
05567		36.324554	-10.286596	-43.274822
05568		36.175502	-10.281999	-42.448042
05569		36.072069	-10.290642	-41.642160
05570		36.054052	-10.314554	-40.857363
05571		36.105257	-10.340306	-40.071133
05572		36.214774	-10.359717	-39.290248
05573		36.330205	-10.363151	-38.495376
05574		36.450961	-10.342997	-37.685497
05575		36.523748	-10.309246	-36.876245
05576		36.541164	-10.235252	-36.052094
05577		36.451589	-10.107558	-35.224118
05578		36.256568	-9.963858	-34.420152
05579		36.024325	-9.800758	-33.627037
05580		35.833740	-9.636005	-32.853717
05581		35.692116	-9.485535	-32.109804
05582		35.615723	-9.337208	-31.374048
05583		35.503724	-9.177538	-30.641473
05584		35.301950	-9.028031	-29.929999
05585		35.028255	-8.888151	-29.222208
05586		34.745568	-8.771024	-28.514294
05587		34.522558	-8.677473	-27.818046
05588		34.416332	-8.616611	-27.139396
05589		34.395615	-8.575165	-26.476414
05590		34.386248	-8.535238	-25.819018
05591		34.333070	-8.483367	-25.170856
05592		34.192680	-8.424042	-24.546484
05593		33.956168	-8.361086	-23.936831
05594		33.672381	-8.293279	-23.337854
05595		33.393874	-8.221340	-22.757044
05596		33.158313	-8.144784	-22.191175
05597		32.959066	-8.065077	-21.644188
05598		32.792970	-7.994055	-21.122758
05599		32.640295	-7.926768	-20.609551
05600		32.497185	-7.852383	-20.099327
05601		32.349617	-7.776548	-19.605840
05602		32.188257	-7.708492	-19.118893
05603		32.004533	-7.638694	-18.628095
05604		31.823684	-7.579611	-18.146032
05605		31.690304	-7.539554	-17.666686
05606		31.655893	-7.514041	-17.180309
05607		31.701408	-7.492225	-16.698145
05608		31.773869	-7.473285	-16.224060
05609		31.827545	-7.446554	-15.747935
05610		31.858712	-7.410949	-15.275976
05611		31.878520	-7.375816	-14.805882
05612		31.895648	-7.331360	-14.332395
05613		31.917105	-7.278245	-13.857257
05614		31.981136	-7.227567	-13.400661
05615		32.045566	-7.182984	-12.957451
05616		32.068063	-7.125906	-12.510571
05617		31.994002	-7.062872	-12.070199
05618		31.822699	-7.004545	-11.649031
05619		31.601338	-6.957657	-11.232949
05620		31.379615	-6.924900	-10.824348
05621		31.237234	-6.915612	-10.424972
05622		31.181630	-6.920120	-10.027664
05623		31.189943	-6.930897	-9.632693
05624		31.231918	-6.943891	-9.252542
05625		31.242167	-6.962472	-8.875544
05626		31.203356	-6.979856	-8.503484
05627		31.128061	-6.993613	-8.134094
05628		31.053189	-7.011485	-7.774674
05629		30.994913	-7.042374	-7.424274
05630		30.947739	-7.086000	-7.083926
05631		30.924036	-7.125454	-6.747953
05632		30.885103	-7.154370	-6.419334
05633		30.786500	-7.170012	-6.095907
05634		30.618292	-7.172658	-5.773887
05635		30.426785	-7.178781	-5.457754
05636		30.283356	-7.197577	-5.136234
05637		30.206469	-7.225602	-4.816630
05638		30.171880	-7.264271	-4.506123
05639		30.149678	-7.302319	-4.193860
05640		30.095391	-7.319571	-3.878566
05641		29.976470	-7.331249	-3.569070
05642		29.830304	-7.333496	-3.251728
05643		29.698544	-7.330312	-2.938815
05644		29.601305	-7.337382	-2.632877
05645		29.518783	-7.341766	-2.326020
05646		29.441110	-7.341966	-2.024688
05647		29.367996	-7.339353	-1.727090
05648		29.266559	-7.323671	-1.428649
05649		29.120445	-7.294417	-1.134444
05650		28.933916	-7.267745	-0.845084
05651		28.744171	-7.244771	-0.553661
05652		28.587081	-7.226802	-0.265563
05653		28.500101	-7.226253	0.013172
05654		28.461639	-7.232134	0.292374
05655		28.446232	-7.239306	0.566329
05656		28.421931	-7.234501	0.835831
05657		28.348337	-7.207033	1.108011
05658		28.214575	-7.163150	1.373426
05659		28.050492	-7.119984	1.630994
05660		27.884289	-7.076230	1.885146
05661		27.731854	-7.035097	2.130657
05662		27.609715	-6.991002	2.362419
05663		27.503595	-6.939092	2.578454
05664		27.390604	-6.881704	2.781134
05665		27.250049	-6.817255	2.972060
05666		27.083829	-6.745253	3.155949
05667		26.915213	-6.670521	3.333598
05668		26.773013	-6.606290	3.507072
05669		26.660398	-6.541651	3.680772
05670		26.547541	-6.476121	3.841749
05671		26.430851	-6.417015	3.990404
05672		26.307208	-6.360612	4.133253
05673		26.189115	-6.308421	4.260613
05674		26.128600	-6.275705	4.372493
05675		26.124381	-6.250339	4.478793
05676		26.147466	-6.224678	4.578941
05677		26.194886	-6.195266	4.666833
05678		26.230772	-6.164723	4.741395
05679		26.240969	-6.126584	4.805839
05680		26.225111	-6.079229	4.846472
05681		26.219864	-6.040018	4.867073
05682		26.264377	-5.998387	4.874482
05683		26.342619	-5.955771	4.862252
05684		26.428939	-5.913410	4.830206
05685		26.487702	-5.856309	4.784605
05686		26.533660	-5.799800	4.720032
05687		26.585841	-5.742041	4.648636
05688		26.636051	-5.690645	4.572017
05689		26.706146	-5.647864	4.482676
05690		26.783801	-5.604963	4.392506
05691		26.832266	-5.551349	4.302539
05692		26.838314	-5.494225	4.209423
05693		26.806524	-5.430929	4.118852
05694		26.745432	-5.365208	4.030467
05695		26.696355	-5.306706	3.934229
05696		26.674428	-5.258516	3.828426
05697		26.688826	-5.227094	3.724642
05698		26.733434	-5.203061	3.622607
05699		26.829090	-5.194488	3.512071
05700		26.929545	-5.201379	3.400156
05701		27.015462	-5.210676	3.297688
05702		27.071246	-5.214499	3.204224
05703		27.104086	-5.211525	3.120706
05704		27.100467	-5.204981	3.037284
05705		27.046484	-5.196001	2.958489
05706		26.952344	-5.181302	2.881794
05707		26.859064	-5.167201	2.804571
05708		26.795669	-5.161334	2.720336
05709		26.774574	-5.176150	2.629885
05710		26.768097	-5.194226	2.538323
05711		26.791501	-5.221279	2.439754
05712		26.833035	-5.254702	2.337891
05713		26.879257	-5.287655	2.235489
05714		26.914785	-5.321452	2.136342
05715		26.929070	-5.346549	2.032347
05716		26.896260	-5.359889	1.928729
05717		26.819887	-5.365601	1.825340
05718		26.727642	-5.375973	1.711712
05719		26.660515	-5.392958	1.591413
05720		26.642196	-5.415494	1.458109
05721		26.692141	-5.452323	1.314334
05722		26.787508	-5.493267	1.169244
05723		26.881839	-5.523393	1.025608
05724		26.923464	-5.527779	0.885886
05725		26.855893	-5.507382	0.746827
05726		26.669243	-5.468355	0.615522
05727		26.409575	-5.409220	0.488663
05728		26.136131	-5.360006	0.358770
05729		25.922194	-5.323690	0.220868
05730		25.827128	-5.304381	0.067083
05731		25.824790	-5.309615	-0.103050
05732		25.872196	-5.323659	-0.282479
05733		25.935731	-5.337391	-0.468497
05734		25.970999	-5.352222	-0.654944
05735		25.974135	-5.354670	-0.833515
05736		25.907339	-5.344817	-1.004593
05737		25.794936	-5.330029	-1.183099
05738		25.664315	-5.315329	-1.361502
05739		25.532976	-5.304299	-1.540432
05740		25.401807	-5.294707	-1.726511
05741		25.291583	-5.291164	-1.920743
05742		25.219442	-5.297753	-2.125563
05743		25.229602	-5.310422	-2.336973
05744		25.308557	-5.330248	-2.552847
05745		25.410870	-5.354408	-2.774659
05746		25.479581	-5.373664	-3.005009
05747		25.495815	-5.391366	-3.237497
05748		25.457387	-5.405398	-3.474863
05749		25.399038	-5.418748	-3.717630
05750		25.321376	-5.435057	-3.964945
05751		25.253543	-5.458870	-4.219852
05752		25.201372	-5.488812	-4.479165
05753		25.182564	-5.520066	-4.746239
05754		25.190072	-5.553017	-5.019023
05755		25.229838	-5.591001	-5.296088
05756		25.299957	-5.625233	-5.578443
05757		25.370986	-5.657259	-5.867195
05758		25.399460	-5.680238	-6.158565
05759		25.371182	-5.691345	-6.452013
05760		25.307500	-5.698061	-6.747208
05761		25.246245	-5.709308	-7.041719
05762		25.217427	-5.726698	-7.341662
05763		25.221228	-5.750524	-7.644951
05764		25.241662	-5.773450	-7.951950
05765		25.269376	-5.790956	-8.268896
05766		25.265596	-5.802925	-8.588325
05767		25.234720	-5.811006	-8.913177
05768		25.208162	-5.817400	-9.245606
05769		25.205393	-5.823729	-9.587141
05770		25.199784	-5.831472	-9.936031
05771		25.207715	-5.840384	-10.291865
05772		25.249009	-5.849796	-10.651330
05773		25.311558	-5.852184	-11.010541
05774		25.341447	-5.847668	-11.368428
05775		25.328043	-5.836019	-11.723707
05776		25.289143	-5.825613	-12.079417
05777		25.245086	-5.819041	-12.433643
05778		25.197571	-5.812630	-12.787033
05779		25.179379	-5.815916	-13.149576
05780		25.201855	-5.829340	-13.519685
05781		25.245965	-5.841123	-13.888847
05782		25.295456	-5.848629	-14.258457
05783		25.329115	-5.850349	-14.628800
05784		25.349916	-5.846913	-14.992876
05785		25.356710	-5.841085	-15.354760
05786		25.325680	-5.836164	-15.718662
05787		25.283129	-5.832331	-16.086890
05788		25.269855	-5.828746	-16.462014
05789		25.276459	-5.831931	-16.842360
05790		25.261785	-5.834447	-17.226888
05791		25.248994	-5.833728	-17.613983
05792		25.230020	-5.832273	-18.000417
05793		25.180236	-5.820046	-18.382116
05794		25.052801	-5.794317	-18.757853
05795		24.870989	-5.764510	-19.137692
05796		24.645490	-5.730558	-19.516554
05797		24.422356	-5.705067	-19.901530
05798		24.252239	-5.686687	-20.295251
05799		24.145020	-5.670653	-20.694858
05800		24.060758	-5.646450	-21.105465
05801		23.980630	-5.617884	-21.529817
05802		23.869534	-5.578264	-21.955801
05803		23.747027	-5.532732	-22.382303
05804		23.639077	-5.495939	-22.810914
05805		23.585529	-5.469593	-23.241878
05806		23.561829	-5.452934	-23.677313
05807		23.565774	-5.448530	-24.118941
05808		23.572212	-5.446989	-24.568769
05809		23.567161	-5.451470	-25.025944
05810		23.554943	-5.468193	-25.484193
05811		23.571054	-5.493345	-25.951102
05812		23.587794	-5.516422	-26.417888
05813		23.606950	-5.549810	-26.893923
05814		23.615161	-5.581878	-27.377310
05815		23.604593	-5.614213	-27.871514
05816		23.575872	-5.653091	-28.379966
05817		23.567679	-5.701294	-28.897150
05818		23.577414	-5.748809	-29.423537
05819		23.613339	-5.811620	-29.966061
05820		23.659776	-5.874717	-30.514330
05821		23.701870	-5.932481	-31.074205
05822		23.712148	-5.986927	-31.643521
05823		23.717152	-6.032095	-32.225672
05824		23.694981	-6.068334	-32.820288
05825		23.664362	-6.102526	-33.435936
05826		23.621441	-6.134197	-34.063802
05827		23.621341	-6.169413	-34.704895
05828		23.665527	-6.205590	-35.359959
05829		23.731687	-6.249145	-36.028136
05830		23.813043	-6.290804	-36.701819
05831		23.858842	-6.321416	-37.373278
05832		23.841545	-6.340849	-38.048285
05833		23.771316	-6.356009	-38.726474
05834		23.656112	-6.368503	-39.400806
05835		23.514339	-6.372489	-40.077170
05836		23.372964	-6.377058	-40.765487
05837		23.266589	-6.379157	-41.464648
05838		23.167328	-6.374845	-42.166904
05839		23.063296	-6.369787	-42.870973
05840		22.990152	-6.356890	-43.582287
05841		22.953243	-6.351632	-44.300023
05842		22.986123	-6.355566	-45.015214
05843		23.087165	-6.363632	-45.724220
05844		23.220899	-6.370076	-46.426201
05845		23.330836	-6.361906	-47.127476
05846		23.380753	-6.343793	-47.827784
05847		23.388351	-6.320216	-48.522660
05848		23.369495	-6.292548	-49.213523
05849		23.375005	-6.274368	-49.905042
05850		23.448020	-6.270372	-50.592871
05851		23.611165	-6.277358	-51.277354
05852		23.802726	-6.287879	-51.963267
05853		23.986070	-6.296789	-52.646632
05854		24.141480	-6.293999	-53.325022
05855		24.245984	-6.280797	-53.998303
05856		24.309011	-6.252480	-54.665391
05857		24.360101	-6.220534	-55.325400
05858		24.409951	-6.181723	-55.975210
05859		24.471784	-6.148345	-56.622610
05860		24.568953	-6.125045	-57.268893
05861		24.746595	-6.111333	-57.915063
05862		24.945943	-6.096641	-58.553966
05863		25.114041	-6.069991	-59.186496
05864		25.187565	-6.017925	-59.812720
05865		25.166423	-5.955137	-60.424366
05866		25.105017	-5.889040	-61.024605
05867		25.116843	-5.839712	-61.621844
05868		25.245276	-5.816388	-62.211915
05869		25.471828	-5.801578	-62.797461
05870		25.730167	-5.780015	-63.381609
05871		25.962707	-5.761586	-63.970094
05872		26.152343	-5.736007	-64.553814
05873		26.335501	-5.708014	-65.123057
05874		26.547411	-5.684570	-65.680306
05875		26.785389	-5.667678	-66.227292
05876		27.005556	-5.642113	-66.756585
05877		27.140199	-5.605561	-67.286034
05878		27.210603	-5.571710	-67.814364
05879		27.231088	-5.530745	-68.343697
05880		27.239252	-5.497012	-68.877328
05881		27.280666	-5.467030	-69.415842
05882		27.332205	-5.428343	-69.953873
05883		27.393017	-5.400450	-70.488479
05884		27.470750	-5.379648	-71.013981
05885		27.547722	-5.354238	-71.530295
05886		27.607287	-5.331287	-72.041558
05887		27.661792	-5.311168	-72.550831
05888		27.756967	-5.307974	-73.059894
05889		27.911684	-5.312939	-73.566586
05890		28.105230	-5.310366	-74.070095
05891		28.284325	-5.287045	-74.567541
05892		28.409454	-5.252728	-75.066622
05893		28.492172	-5.212401	-75.561081
05894		28.535589	-5.160859	-76.040166
05895		28.549495	-5.107711	-76.514371
05896		28.570250	-5.059284	-76.985316
05897		28.635300	-5.023980	-77.450629
05898		28.753779	-4.996313	-77.915777
05899		28.899850	-4.967116	-78.371467
05900		29.032003	-4.927703	-78.822072
05901		29.134158	-4.883687	-79.267305
05902		29.209262	-4.835409	-79.701424
05903		29.265296	-4.778477	-80.125157
05904		29.326735	-4.724253	-80.546887
05905		29.395819	-4.672701	-80.966491
05906		29.478955	-4.626190	-81.386419
05907		29.596772	-4.585249	-81.809258
05908		29.699989	-4.528993	-82.219340
05909		29.779063	-4.468477	-82.626598
05910		29.841127	-4.413409	-83.029373
05911		29.887174	-4.352666	-83.415166
05912		29.928267	-4.290451	-83.796464
05913		29.995693	-4.238059	-84.185091
05914		30.083749	-4.195041	-84.570824
05915		30.202183	-4.156376	-84.954349
05916		30.368740	-4.122907	-85.337642
05917		30.583340	-4.096376	-85.721455
05918		30.827750	-4.073963	-86.102474
05919		31.075695	-4.038595	-86.466876
05920		31.279675	-3.976225	-86.822891
05921		31.404044	-3.914246	-87.182022
05922		31.471265	-3.849349	-87.529085
05923		31.564643	-3.794571	-87.867208
05924		31.677390	-3.742159	-88.202116
05925		31.818599	-3.705658	-88.539984
05926		32.029612	-3.693989	-88.881674
05927		32.345235	-3.709797	-89.221814
05928		32.727905	-3.726876	-89.557389
05929		33.108078	-3.736637	-89.891360
05930		33.449972	-3.743188	-90.219975
05931		33.709546	-3.726751	-90.535508
05932		33.882065	-3.697908	-90.841152
05933		34.004684	-3.662537	-91.138901
05934		34.102648	-3.616378	-91.425901
05935		34.212669	-3.579100	-91.711192
05936		34.372223	-3.552104	-91.996946
05937		34.594604	-3.541454	-92.285685
05938		34.878896	-3.539847	-92.578222
05939		35.208859	-3.545225	-92.870835
05940		35.566446	-3.552466	-93.157415
05941		35.917210	-3.552588	-93.433826
05942		36.223798	-3.543947	-93.700460
05943		36.481048	-3.533090	-93.962287
05944		36.706486	-3.517289	-94.212994
05945		36.930373	-3.502981	-94.462365
05946		37.197500	-3.495836	-94.717822
05947		37.543157	-3.497601	-94.961579
05948		37.922788	-3.489005	-95.189540
05949		38.261098	-3.463714	-95.416159
05950		38.490531	-3.428909	-95.641441
05951		38.615469	-3.385700	-95.850543
05952		38.689606	-3.338230	-96.050641
05953		38.747935	-3.305205	-96.244922
05954		38.845059	-3.285642	-96.436787
05955		38.993050	-3.269264	-96.620293
05956		39.174044	-3.254540	-96.794160
05957		39.370300	-3.238408	-96.961612
05958		39.575063	-3.224693	-97.118807
05959		39.773363	-3.202962	-97.263905
05960		39.942806	-3.176072	-97.406041
05961		40.091996	-3.150034	-97.541940
05962		40.218108	-3.118318	-97.669473
05963		40.332861	-3.091891	-97.790283
05964		40.448822	-3.064897	-97.902520
05965		40.575771	-3.041202	-98.010804
05966		40.727232	-3.020976	-98.120450
05967		40.906696	-3.002690	-98.223934
05968		41.072661	-2.981391	-98.320112
05969		41.191249	-2.957415	-98.413481
05970		41.266549	-2.935921	-98.504496
05971		41.304204	-2.912615	-98.581576
05972		41.331967	-2.896281	-98.656855
05973		41.371799	-2.885954	-98.721385
05974		41.422389	-2.876931	-98.775965
05975		41.475079	-2.864299	-98.822087
05976		41.527957	-2.849659	-98.856498
05977		41.563853	-2.826092	-98.873936
05978		41.555557	-2.797233	-98.881407
05979		41.507324	-2.769522	-98.876647
05980		41.455322	-2.745359	-98.862224
05981		41.419597	-2.727575	-98.833571
05982		41.409637	-2.722547	-98.795557
05983		41.435620	-2.733308	-98.751751
05984		41.494594	-2.750069	-98.693910
05985		41.548737	-2.770312	-98.628814
05986		41.592700	-2.788205	-98.551431
05987		41.613426	-2.803158	-98.462262
05988		41.609901	-2.817714	-98.365847
05989		41.594353	-2.828855	-98.260701
05990		41.573709	-2.841041	-98.149535
05991		41.543469	-2.850628	-98.034553
05992		41.515894	-2.855323	-97.912968
05993		41.499560	-2.863595	-97.792345
05994		41.515547	-2.881964	-97.672302
05995		41.556525	-2.904225	-97.552109
05996		41.634670	-2.935667	-97.434417
05997		41.716776	-2.960419	-97.311253
05998		41.757171	-2.973837	-97.180633
05999		41.715770	-2.966789	-97.046068
06000		41.646286	-2.952319	-96.908587
06001		41.574574	-2.937553	-96.764721
06002		41.523907	-2.922044	-96.620014
06003		41.487383	-2.914100	-96.466814
06004		41.464523	-2.909220	-96.309495
06005		41.460464	-2.913427	-96.142785
06006		41.471213	-2.926093	-95.967895
06007		41.470839	-2.948476	-95.781457
06008		41.451967	-2.974063	-95.581069
06009		41.397237	-2.994696	-95.369339
06010		41.310090	-3.015733	-95.141544
06011		41.195636	-3.033454	-94.898790
06012		41.068625	-3.047916	-94.644593
06013		40.934170	-3.061002	-94.374890
06014		40.802321	-3.074905	-94.092265
06015		40.683225	-3.097122	-93.791646
06016		40.592256	-3.131856	-93.477859
06017		40.523296	-3.167548	-93.141549
06018		40.481040	-3.213137	-92.792014
06019		40.439867	-3.259893	-92.423776
06020		40.395261	-3.312536	-92.039118
06021		40.336764	-3.375887	-91.646672
06022		40.282092	-3.451830	-91.254672
06023		40.260521	-3.542214	-90.862073
06024		40.282745	-3.646989	-90.476940
06025		40.371627	-3.767322	-90.105217
06026		40.547888	-3.905794	-89.741290
06027		40.781045	-4.050558	-89.371983
06028		41.018629	-4.195209	-89.001096
06029		41.206934	-4.336689	-88.622772
06030		41.322209	-4.475574	-88.229369
06031		41.348634	-4.610419	-87.812476
06032		41.294751	-4.742990	-87.375600
06033		41.167782	-4.865438	-86.917839
06034		41.001845	-4.986181	-86.440871
06035		40.841792	-5.107500	-85.950396
06036		40.704788	-5.233685	-85.447605
06037		40.592227	-5.357104	-84.931618
06038		40.490124	-5.477547	-84.403087
06039		40.373277	-5.590998	-83.860592
06040		40.246049	-5.697979	-83.301489
06041		40.100690	-5.801240	-82.722825
06042		39.936971	-5.902048	-82.124950
06043		39.772551	-6.005775	-81.512347
06044		39.627712	-6.116702	-80.891955
06045		39.501529	-6.230204	-80.255659
06046		39.392244	-6.343261	-79.608550
06047		39.271055	-6.450886	-78.950507
06048		39.145197	-6.549176	-78.270742
06049		38.979862	-6.640982	-77.573472
06050		38.758644	-6.725002	-76.868276
06051		38.476233	-6.798026	-76.150728
06052		38.154895	-6.866469	-75.427891
06053		37.791539	-6.926013	-74.706194
06054		37.420631	-6.985939	-73.997071
06055		37.076883	-7.041122	-73.292897
06056		36.788893	-7.093215	-72.592063
06057		36.512969	-7.137637	-71.904910
06058		36.230492	-7.165935	-71.225143
06059		35.894386	-7.161550	-70.537491
06060		35.489493	-7.123519	-69.851288
06061		35.014953	-7.058113	-69.172145
06062		34.504591	-6.986040	-68.501468
06063		33.979940	-6.908617	-67.833734
06064		33.488214	-6.838697	-67.167160
06065		33.045503	-6.767427	-66.498585
06066		32.700102	-6.717293	-65.842837
06067		32.427697	-6.693252	-65.180746
06068		32.209351	-6.681596	-64.509992
06069		32.038269	-6.696340	-63.837091
06070		31.896044	-6.724312	-63.149154
06071		31.735618	-6.750630	-62.441054
06072		31.560061	-6.781361	-61.727640
06073		31.367123	-6.811892	-60.998551
06074		31.152888	-6.835775	-60.262921
06075		30.910363	-6.857056	-59.529463
06076		30.668053	-6.883056	-58.793132
06077		30.434112	-6.910049	-58.052775
06078		30.255983	-6.950262	-57.320055
06079		30.136273	-7.003168	-56.586496
06080		30.059601	-7.059881	-55.841782
06081		30.004861	-7.125979	-55.094721
06082		29.950610	-7.195146	-54.339930
06083		29.870253	-7.241410	-53.571258
06084		29.738212	-7.289108	-52.813818
06085		29.579142	-7.346931	-52.063312
06086		29.430802	-7.404829	-51.312951
06087		29.347460	-7.485443	-50.585621
06088		29.351814	-7.590581	-49.882755
06089		29.434363	-7.710103	-49.191279
06090		29.586030	-7.832909	-48.513055
06091		29.750017	-7.946424	-47.839870
06092		29.861016	-8.049735	-47.176425
06093		29.875538	-8.148867	-46.517457
06094		29.837366	-8.244842	-45.853087
06095		29.749837	-8.347352	-45.191069
06096		29.643515	-8.455326	-44.532510
06097		29.537767	-8.566795	-43.867683
06098		29.465033	-8.688086	-43.208121
06099		29.428261	-8.808557	-42.553803
06100		29.392583	-8.927459	-41.892907
06101		29.357385	-9.040242	-41.230741
06102		29.331584	-9.148449	-40.577359
06103		29.308594	-9.252794	-39.919853
06104		29.301674	-9.348672	-39.260622
06105		29.293279	-9.438163	-38.608163
06106		29.271992	-9.520856	-37.962277
06107		29.228093	-9.592342	-37.312832
06108		29.193689	-9.659386	-36.663184
06109		29.179249	-9.728519	-36.013342
06110		29.184915	-9.799469	-35.359122
06111		29.185818	-9.857729	-34.686950
06112		29.192428	-9.907958	-34.014681
06113		29.168686	-9.954163	-33.344220
06114		29.083652	-9.983469	-32.674137
06115		28.928285	-9.992511	-32.006114
06116		28.724394	-9.989013	-31.348159
06117		28.519717	-9.984000	-30.703380
06118		28.358784	-9.982984	-30.067190
06119		28.267347	-9.983853	-29.430902
06120		28.255128	-9.986665	-28.800643
06121		28.274798	-9.993384	-28.182937
06122		28.259805	-9.974913	-27.554942
06123		28.119755	-9.915133	-26.939839
06124		27.821503	-9.845382	-26.342916
06125		27.367513	-9.750322	-25.744335
06126		26.796115	-9.633040	-25.145373
06127		26.152626	-9.494266	-24.553386
06128		25.467617	-9.342750	-23.977129
06129		24.724606	-9.177344	-23.416196
06130		23.914783	-9.025103	-22.878505
06131		23.176525	-8.915438	-22.369408
06132		22.623454	-8.845560	-21.871753
06133		22.314836	-8.822574	-21.384814
06134		22.221596	-8.836662	-20.902332
06135		22.222333	-8.857919	-20.424419
06136		22.239062	-8.885903	-19.960149
06137		22.228079	-8.922601	-19.500157
06138		22.179623	-8.944146	-19.032902
06139		22.114769	-8.963026	-18.559466
06140		22.107291	-8.981785	-18.094306
06141		22.133048	-8.995963	-17.634206
06142		22.190710	-9.016847	-17.183986
06143		22.272941	-9.054550	-16.739651
06144		22.408877	-9.106539	-16.294390
06145		22.683484	-9.192173	-15.850912
06146		23.202902	-9.321593	-15.400851
06147		23.947795	-9.446557	-14.947956
06148		24.799117	-9.568216	-14.492499
06149		25.526551	-9.646728	-14.039018
06150		25.901251	-9.687193	-13.594220
06151		25.914421	-9.686931	-13.152822
06152		25.677738	-9.654793	-12.713708
06153		25.377127	-9.619746	-12.283346
06154		25.199968	-9.616298	-11.870798
06155		25.210577	-9.640650	-11.467970
06156		25.331230	-9.658382	-11.064417
06157		25.485590	-9.677850	-10.670785
06158		25.612552	-9.705157	-10.289289
06159		25.687204	-9.720484	-9.897276
06160		25.722789	-9.724784	-9.502185
06161		25.691392	-9.740031	-9.116850
06162		25.609198	-9.733346	-8.725815
06163		25.476435	-9.708186	-8.344029
06164		25.306449	-9.694922	-7.982286
06165		25.125339	-9.677353	-7.622725
06166		24.968584	-9.662919	-7.268118
06167		24.905273	-9.667117	-6.933120
06168		24.952953	-9.692588	-6.603914
06169		25.083498	-9.717642	-6.271361
06170		25.231649	-9.734369	-5.944661
06171		25.330861	-9.726531	-5.611387
06172		25.298665	-9.691800	-5.255792
06173		25.137788	-9.640243	-4.893982
06174		24.924257	-9.582515	-4.534414
06175		24.739589	-9.533923	-4.174893
06176		24.703728	-9.503738	-3.827925
06177		24.800797	-9.485544	-3.490892
06178		24.935082	-9.462065	-3.171682
06179		25.024410	-9.408774	-2.867199
06180		25.019231	-9.326050	-2.573988
06181		24.919018	-9.224758	-2.292583
06182		24.765550	-9.116976	-2.009782
06183		24.628874	-9.014736	-1.725159
06184		24.569319	-8.927445	-1.445777
06185		24.605734	-8.847751	-1.171585
06186		24.664905	-8.762366	-0.911264
06187		24.718997	-8.664087	-0.661265
06188		24.675105	-8.548322	-0.424336
06189		24.563144	-8.435282	-0.201004
06190		24.442041	-8.322491	0.019419
06191		24.368268	-8.231304	0.239076
06192		24.391131	-8.156105	0.461554
06193		24.490652	-8.086135	0.683741
06194		24.615102	-8.020018	0.892986
06195		24.709943	-7.946535	1.097291
06196		24.730328	-7.844834	1.299001
06197		24.682807	-7.735715	1.483343
06198		24.617868	-7.623868	1.664597
06199		24.560042	-7.502847	1.847349
06200		24.504796	-7.386344	2.032191
06201		24.446513	-7.257327	2.222196
06202		24.419544	-7.122117	2.406873
06203		24.365822	-6.968090	2.581689
06204		24.223444	-6.809918	2.738896
06205		24.044454	-6.666005	2.881496
06206		23.888045	-6.526297	3.020512
06207		23.787355	-6.395011	3.141563
06208		23.750765	-6.287718	3.243979
06209		23.762190	-6.186528	3.343472
06210		23.769970	-6.084751	3.449286
06211		23.757440	-5.986313	3.547578
06212		23.701280	-5.876368	3.651751
06213		23.538673	-5.767360	3.750028
06214		23.332025	-5.671700	3.843193
06215		23.159097	-5.598388	3.934526
06216		23.087253	-5.556180	4.018580
06217		23.153178	-5.550116	4.088354
06218		23.327850	-5.558145	4.148344
06219		23.497591	-5.577897	4.192051
06220		23.598442	-5.593211	4.226365
06221		23.626445	-5.598019	4.259753
06222		23.607926	-5.603177	4.291786
06223		23.579520	-5.607110	4.323005
06224		23.553875	-5.615961	4.352176
06225		23.549370	-5.633643	4.372645
06226		23.572743	-5.648712	4.388347
06227		23.604007	-5.659150	4.391042
06228		23.632670	-5.676701	4.381318
06229		23.656088	-5.687373	4.369873
06230		23.680775	-5.695152	4.349860
06231		23.701982	-5.706434	4.322272
06232		23.701374	-5.706116	4.296631
06233		23.665294	-5.690727	4.262825
06234		23.595921	-5.667483	4.224461
06235		23.523635	-5.641473	4.185898
06236		23.468659	-5.607845	4.148971
06237		23.432994	-5.574894	4.106964
06238		23.426324	-5.548464	4.057315
06239		23.447883	-5.525053	4.001557
06240		23.496093	-5.508844	3.937948
06241		23.560586	-5.496089	3.867634
06242		23.599247	-5.484759	3.792386
06243		23.623672	-5.467195	3.715385
06244		23.618690	-5.439586	3.642447
06245		23.596883	-5.408803	3.565299
06246		23.550384	-5.377412	3.489079
06247		23.487445	-5.336733	3.412757
06248		23.409412	-5.299367	3.329402
06249		23.330243	-5.263870	3.234245
06250		23.250254	-5.225340	3.131670
06251		23.183730	-5.193516	3.013391
06252		23.133325	-5.168187	2.888616
06253		23.116848	-5.152284	2.752964
06254		23.141260	-5.148883	2.608885
06255		23.222147	-5.154157	2.459629
06256		23.340385	-5.159995	2.308913
06257		23.457900	-5.173917	2.156198
06258		23.543657	-5.174737	2.003065
06259		23.562680	-5.169967	1.842356
06260		23.513304	-5.160921	1.670668
06261		23.438242	-5.152881	1.490405
06262		23.394765	-5.156489	1.302679
06263		23.416321	-5.166773	1.099632
06264		23.450919	-5.178024	0.880983
06265		23.458696	-5.179253	0.650381
06266		23.413335	-5.166615	0.416616
06267		23.339870	-5.138277	0.172053
06268		23.250766	-5.109512	-0.079403
06269		23.162331	-5.076197	-0.333947
06270		23.086894	-5.039666	-0.597634
06271		23.006440	-4.996949	-0.871989
06272		22.892746	-4.939259	-1.157873
06273		22.757586	-4.875786	-1.459824
06274		22.586583	-4.811022	-1.774320
06275		22.419965	-4.742230	-2.096067
06276		22.273765	-4.664004	-2.419309
06277		22.182331	-4.598877	-2.754233
06278		22.138998	-4.543768	-3.090358
06279		22.118948	-4.490965	-3.427547
06280		22.096195	-4.440130	-3.772066
06281		22.068234	-4.394734	-4.120859
06282		22.023501	-4.346435	-4.475960
06283		21.968402	-4.309942	-4.840538
06284		21.923838	-4.283165	-5.213883
06285		21.901620	-4.266473	-5.592109
06286		21.908154	-4.263882	-5.980906
06287		21.958951	-4.279120	-6.377365
06288		22.053869	-4.294748	-6.772359
06289		22.152005	-4.303769	-7.180872
06290		22.194189	-4.313687	-7.601150
06291		22.172150	-4.322267	-8.021680
06292		22.138147	-4.330592	-8.444703
06293		22.124660	-4.350326	-8.880512
06294		22.127539	-4.382341	-9.325026
06295		22.156930	-4.418729	-9.778101
06296		22.202462	-4.460660	-10.244327
06297		22.248797	-4.513072	-10.725349
06298		22.310605	-4.570735	-11.211627
06299		22.419548	-4.631989	-11.707367
06300		22.513470	-4.684879	-12.214716
06301		22.546412	-4.737847	-12.731502
06302		22.526600	-4.783439	-13.253661
06303		22.503244	-4.829452	-13.780494
06304		22.516228	-4.889984	-14.319796
06305		22.601396	-4.967661	-14.870704
06306		22.753531	-5.047905	-15.433804
06307		22.928741	-5.130179	-16.012355
06308		23.068073	-5.204286	-16.604291
06309		23.160634	-5.269936	-17.207901
06310		23.209484	-5.333752	-17.819126
06311		23.239914	-5.396187	-18.432702
06312		23.257340	-5.447605	-19.046538
06313		23.241482	-5.487752	-19.671654
06314		23.154591	-5.509255	-20.308839
06315		23.002398	-5.516814	-20.954550
06316		22.800203	-5.512076	-21.613059
06317		22.603978	-5.501059	-22.282259
06318		22.411993	-5.475588	-22.959731
06319		22.181034	-5.433008	-23.648744
06320		21.851223	-5.363009	-24.348419
06321		21.387488	-5.259085	-25.061650
06322		20.837849	-5.142440	-25.792127
06323		20.339896	-5.024969	-26.548088
06324		19.953553	-4.919007	-27.320902
06325		19.715708	-4.827288	-28.108630
06326		19.573981	-4.741847	-28.908392
06327		19.493926	-4.661245	-29.722856
06328		19.407718	-4.578839	-30.532037
06329		19.297586	-4.487268	-31.327777
06330		19.195964	-4.400334	-32.110874
06331		19.105915	-4.326753	-32.883500
06332		19.013802	-4.258858	-33.646061
06333		18.922562	-4.199800	-34.400880
06334		18.821967	-4.150247	-35.148359
06335		18.764797	-4.111193	-35.896515
06336		18.761117	-4.079663	-36.640831
06337		18.790767	-4.051187	-37.386363
06338		18.807997	-4.020791	-38.127740
06339		18.826242	-3.997247	-38.867043
06340		18.839884	-3.973944	-39.597937
06341		18.860581	-3.959082	-40.323206
06342		18.943042	-3.966487	-41.044995
06343		19.112306	-3.992826	-41.761028
06344		19.338814	-4.024672	-42.473749
06345		19.564999	-4.057017	-43.182864
06346		19.742432	-4.081745	-43.889362
06347		19.909708	-4.108377	-44.587100
06348		20.081375	-4.121821	-45.271728
06349		20.265076	-4.137053	-45.954713
06350		20.485510	-4.157335	-46.636885
06351		20.768449	-4.189687	-47.319794
06352		21.084479	-4.212761	-48.001470
06353		21.358375	-4.210628	-48.688818
06354		21.574126	-4.179315	-49.374232
06355		21.770624	-4.132441	-50.045093
06356		21.879684	-4.075172	-50.709251
06357		21.963462	-4.013545	-51.362347
06358		21.993016	-3.939260	-52.004256
06359		22.008974	-3.879052	-52.653538
06360		22.056223	-3.812566	-53.297429
06361		22.118984	-3.744640	-53.939216
06362		22.194619	-3.684192	-54.584258
06363		22.275428	-3.624616	-55.226128
06364		22.344194	-3.565016	-55.863515
06365		22.390208	-3.501874	-56.498307
06366		22.408175	-3.436331	-57.127138
06367		22.418872	-3.378091	-57.755137
06368		22.434792	-3.321420	-58.377901
06369		22.474959	-3.265400	-58.998365
06370		22.546347	-3.215372	-59.625379
06371		22.652442	-3.173464	-60.253604
06372		22.789900	-3.129413	-60.876494
06373		22.925410	-3.089418	-61.497149
06374		23.051662	-3.051615	-62.114168
06375		23.207191	-3.026303	-62.724673
06376		23.397400	-3.007607	-63.323121
06377		23.607162	-2.991368	-63.914258
06378		23.797613	-2.968337	-64.500219
06379		23.971663	-2.942321	-65.078058
06380		24.127028	-2.905109	-65.650647
06381		24.253471	-2.866939	-66.223133
06382		24.368002	-2.828786	-66.786514
06383		24.509505	-2.790417	-67.344940
06384		24.684928	-2.761685	-67.903688
06385		24.862771	-2.734610	-68.463885
06386		25.055678	-2.703198	-69.011794
06387		25.259165	-2.655694	-69.557280
06388		25.444021	-2.605439	-70.103076
06389		25.579329	-2.543223	-70.642959
06390		25.680801	-2.469818	-71.174157
06391		25.769923	-2.393833	-71.704126
06392		25.842412	-2.312476	-72.223396
06393		25.910486	-2.227104	-72.738088
06394		25.960066	-2.143986	-73.246561
06395		25.969153	-2.050447	-73.742186
06396		25.921982	-1.954178	-74.225000
06397		25.859008	-1.861252	-74.699939
06398		25.782061	-1.752132	-75.157822
06399		25.652226	-1.630672	-75.606073
06400		25.482951	-1.510164	-76.041606
06401		25.339404	-1.391924	-76.468565
06402		25.229141	-1.282939	-76.872737
06403		25.178190	-1.192888	-77.261644
06404		25.168134	-1.113681	-77.627716
06405		25.187071	-1.045102	-77.973609
06406		25.229153	-0.987447	-78.301402
06407		25.276340	-0.938199	-78.609568
06408		25.333922	-0.890351	-78.905719
06409		25.417351	-0.865561	-79.193798
06410		25.537376	-0.858617	-79.476660
06411		25.675616	-0.864742	-79.757018
06412		25.807926	-0.875177	-80.036410
06413		25.899806	-0.883263	-80.311232
06414		25.939246	-0.880641	-80.584614
06415		25.931594	-0.874458	-80.849519
06416		25.908711	-0.869169	-81.111556
06417		25.891257	-0.872871	-81.366970
06418		25.892681	-0.878861	-81.620625
06419		25.932650	-0.905378	-81.879114
06420		26.007600	-0.933209	-82.133750
06421		26.087031	-0.953642	-82.393224
06422		26.152195	-0.976370	-82.661288
06423		26.178737	-0.990120	-82.931336
06424		26.174350	-0.998149	-83.199184
06425		26.179995	-1.004536	-83.469903
06426		26.208434	-1.006142	-83.737067
06427		26.248041	-1.000146	-84.000321
06428		26.281421	-0.981832	-84.265706
06429		26.301646	-0.958792	-84.534230
06430		26.322795	-0.932546	-84.806889
06431		26.373771	-0.912268	-85.080006
06432		26.466168	-0.883710	-85.348803
06433		26.571200	-0.847395	-85.609859
06434		26.654995	-0.794019	-85.858393
06435		26.718237	-0.741218	-86.084697
06436		26.786691	-0.694281	-86.284892
06437		26.869371	-0.655287	-86.462048
06438		26.963350	-0.616531	-86.615932
06439		27.071439	-0.588057	-86.755254
06440		27.188956	-0.567553	-86.888646
06441		27.326643	-0.554224	-87.014812
06442		27.499637	-0.536581	-87.137596
06443		27.649742	-0.510705	-87.255096
06444		27.756890	-0.472974	-87.365931
06445		27.834654	-0.424085	-87.463155
06446		27.891950	-0.370923	-87.548292
06447		27.927376	-0.319520	-87.619833
06448		27.944002	-0.262773	-87.678979
06449		27.960084	-0.216561	-87.739711
06450		27.985025	-0.186686	-87.802884
06451		28.018825	-0.168149	-87.865143
06452		28.092304	-0.158647	-87.929401
06453		28.195265	-0.146448	-87.988807
06454		28.283887	-0.127997	-88.047049
06455		28.346581	-0.114860	-88.102161
06456		28.363195	-0.084904	-88.147379
06457		28.333412	-0.045790	-88.187378
06458		28.291025	-0.012688	-88.232579
06459		28.239731	0.029261	-88.269766
06460		28.212686	0.073000	-88.304670
06461		28.195572	0.107614	-88.342539
06462		28.196604	0.134914	-88.375800
06463		28.207578	0.155395	-88.406203
06464		28.244695	0.159307	-88.437072
06465		28.313919	0.150054	-88.460976
06466		28.412633	0.139727	-88.481103
06467		28.519259	0.120888	-88.496492
06468		28.626954	0.100947	-88.509925
06469		28.733198	0.078995	-88.516066
06470		28.822877	0.069628	-88.512400
06471		28.875252	0.077170	-88.498648
06472		28.889628	0.091821	-88.482967
06473		28.880894	0.107287	-88.459808
06474		28.880688	0.121277	-88.427212
06475		28.903196	0.126514	-88.395330
06476		28.943366	0.127799	-88.358673
06477		28.998365	0.125748	-88.318388
06478		29.069011	0.127526	-88.272687
06479		29.129498	0.131532	-88.223751
06480		29.178865	0.134354	-88.170161
06481		29.218409	0.134962	-88.105586
06482		29.273927	0.135326	-88.033581
06483		29.338598	0.130833	-87.955093
06484		29.411502	0.127896	-87.868508
06485		29.469122	0.122259	-87.771707
06486		29.538974	0.110941	-87.663021
06487		29.616958	0.094465	-87.536941
06488		29.696431	0.076054	-87.394614
06489		29.755380	0.053646	-87.231500
06490		29.803952	0.031454	-87.053925
06491		29.841286	0.011072	-86.860888
06492		29.864895	-0.008677	-86.652486
06493		29.882278	-0.030264	-86.435174
06494		29.908605	-0.054476	-86.205224
06495		29.952297	-0.084573	-85.965853
06496		30.024959	-0.123338	-85.709591
06497		30.084069	-0.162105	-85.434818
06498		30.135681	-0.209318	-85.141210
06499		30.170346	-0.260085	-84.827738
06500		30.213299	-0.317215	-84.499112
06501		30.269660	-0.381307	-84.157077
06502		30.322701	-0.449890	-83.800370
06503		30.349122	-0.511541	-83.433810
06504		30.339439	-0.559043	-83.054888
06505		30.267631	-0.596792	-82.664057
06506		30.173933	-0.632656	-82.271540
06507		30.102644	-0.677977	-81.870610
06508		30.096441	-0.737073	-81.461487
06509		30.150101	-0.812690	-81.045484
06510		30.271021	-0.910094	-80.622663
06511		30.441186	-1.022385	-80.187126
06512		30.629292	-1.143370	-79.729932
06513		30.790675	-1.269984	-79.249926
06514		30.896102	-1.394078	-78.749857
06515		30.940463	-1.524594	-78.225051
06516		30.961824	-1.664876	-77.686938
06517		30.974354	-1.811201	-77.131138
06518		30.970809	-1.952828	-76.564010
06519		30.961679	-2.093387	-75.993957
06520		30.969681	-2.227048	-75.412020
06521		30.974442	-2.348167	-74.816920
06522		30.962331	-2.468713	-74.206097
06523		30.921686	-2.578729	-73.582417
06524		30.856862	-2.690225	-72.942229
06525		30.740355	-2.785953	-72.276024
06526		30.599983	-2.883197	-71.603539
06527		30.447751	-2.993144	-70.924289
06528		30.305699	-3.111958	-70.231487
06529		30.180558	-3.228619	-69.530626
06530		30.094886	-3.361346	-68.824076
06531		30.007830	-3.490818	-68.105323
06532		29.909606	-3.613893	-67.374457
06533		29.755338	-3.725821	-66.631469
06534		29.559088	-3.837794	-65.885280
06535		29.321116	-3.942340	-65.126873
06536		29.079091	-4.038631	-64.356576
06537		28.833696	-4.134755	-63.597503
06538		28.605268	-4.240083	-62.844219
06539		28.396151	-4.348372	-62.089051
06540		28.228482	-4.456486	-61.343909
06541		28.094906	-4.572581	-60.611775
06542		28.000292	-4.701268	-59.886835
06543		27.927214	-4.829217	-59.155662
06544		27.898884	-4.961894	-58.415971
06545		27.908132	-5.092182	-57.673024
06546		27.930272	-5.221506	-56.919127
06547		27.921727	-5.343628	-56.165222
06548		27.877841	-5.463436	-55.416623
06549		27.831834	-5.582091	-54.671594
06550		27.814365	-5.703948	-53.930889
06551		27.833852	-5.826726	-53.198546
06552		27.878962	-5.959060	-52.472626
06553		27.930454	-6.084909	-51.739410
06554		27.962547	-6.197706	-51.000477
06555		27.958658	-6.311126	-50.260384
06556		27.931519	-6.419784	-49.511584
06557		27.901556	-6.520750	-48.760809
06558		27.857684	-6.620615	-48.016156
06559		27.765521	-6.702965	-47.274557
06560		27.653728	-6.778918	-46.545733
06561		27.567625	-6.855466	-45.833892
06562		27.527539	-6.921669	-45.128781
06563		27.531971	-6.986458	-44.432111
06564		27.601859	-7.059624	-43.742699
06565		27.694088	-7.127715	-43.047831
06566		27.774073	-7.182689	-42.347324
06567		27.780287	-7.221041	-41.643769
06568		27.735966	-7.255138	-40.941384
06569		27.629934	-7.276875	-40.229514
06570		27.518782	-7.306001	-39.523321
06571		27.457657	-7.349645	-38.830778
06572		27.483195	-7.406535	-38.148218
06573		27.581068	-7.466781	-37.476523
06574		27.723037	-7.519023	-36.815727
06575		27.829384	-7.558406	-36.162197
06576		27.858764	-7.580996	-35.510713
06577		27.794100	-7.594200	-34.868817
06578		27.672963	-7.606967	-34.228064
06579		27.542870	-7.625435	-33.598566
06580		27.455374	-7.671706	-32.990587
06581		27.436812	-7.728651	-32.398544
06582		27.488078	-7.792609	-31.820458
06583		27.556156	-7.851802	-31.261684
06584		27.600110	-7.907370	-30.718510
06585		27.597873	-7.938365	-30.175831
06586		27.543700	-7.949284	-29.638375
06587		27.425574	-7.943654	-29.108290
06588		27.252737	-7.928899	-28.580905
06589		27.066472	-7.909031	-28.059850
06590		26.913347	-7.893694	-27.550942
06591		26.804800	-7.888840	-27.059392
06592		26.745521	-7.890451	-26.583611
06593		26.723365	-7.892487	-26.116399
06594		26.747494	-7.898981	-25.662612
06595		26.788387	-7.907645	-25.207188
06596		26.824083	-7.905353	-24.748310
06597		26.797466	-7.892239	-24.291094
06598		26.700745	-7.877207	-23.835477
06599		26.552355	-7.844364	-23.373669
06600		26.399134	-7.816452	-22.915400
06601		26.291834	-7.793336	-22.464511
06602		26.249034	-7.776068	-22.012839
06603		26.230152	-7.757191	-21.580314
06604		26.227910	-7.744452	-21.159264
06605		26.257209	-7.730162	-20.734076
06606		26.327942	-7.712666	-20.307938
06607		26.399223	-7.698772	-19.880957
06608		26.429754	-7.672034	-19.449482
06609		26.389995	-7.631126	-19.015160
06610		26.306560	-7.578593	-18.579706
06611		26.200685	-7.527702	-18.155937
06612		26.114286	-7.493794	-17.753772
06613		26.093072	-7.476299	-17.367693
06614		26.153196	-7.474163	-16.996781
06615		26.278780	-7.489223	-16.635006
06616		26.423927	-7.495999	-16.274228
06617		26.542702	-7.496797	-15.918784
06618		26.573010	-7.483508	-15.564930
06619		26.465473	-7.448155	-15.210805
06620		26.294474	-7.409225	-14.860224
06621		26.134922	-7.369095	-14.514355
06622		26.061380	-7.340082	-14.177875
06623		26.059452	-7.320329	-13.854781
06624		26.093350	-7.310717	-13.540615
06625		26.141499	-7.284116	-13.230433
06626		26.172818	-7.257675	-12.931126
06627		26.174644	-7.234024	-12.631317
06628		26.157531	-7.206144	-12.324949
06629		26.156323	-7.176247	-12.018312
06630		26.159126	-7.141061	-11.711122
06631		26.113777	-7.101416	-11.403319
06632		26.045797	-7.059151	-11.097887
06633		25.984274	-7.013836	-10.792384
06634		25.961297	-6.974272	-10.485005
06635		25.974878	-6.931716	-10.181389
06636		26.000167	-6.896020	-9.882942
06637		25.986816	-6.851481	-9.579390
06638		25.927050	-6.796504	-9.273706
06639		25.831161	-6.739755	-8.965133
06640		25.743544	-6.681005	-8.642109
06641		25.721583	-6.621034	-8.317560
06642		25.743836	-6.572025	-8.001653
06643		25.759822	-6.516713	-7.686610
06644		25.717193	-6.453172	-7.379206
06645		25.624302	-6.386403	-7.075274
06646		25.552517	-6.319561	-6.770845
06647		25.525162	-6.267237	-6.469891
06648		25.544865	-6.227496	-6.164766
06649		25.587484	-6.188414	-5.864763
06650		25.645165	-6.163522	-5.570781
06651		25.673940	-6.123929	-5.279296
06652		25.626325	-6.086238	-5.000848
06653		25.518473	-6.040121	-4.729792
06654		25.410825	-5.998507	-4.461761
06655		25.327807	-5.961388	-4.197867
06656		25.275399	-5.934416	-3.941184
06657		25.257526	-5.913920	-3.689060
06658		25.254565	-5.899846	-3.451134
06659		25.272005	-5.899563	-3.233551
06660		25.316312	-5.905306	-3.025042
06661		25.354547	-5.910200	-2.829268
06662		25.407592	-5.921764	-2.643236
06663		25.452061	-5.929487	-2.458693
06664		25.470917	-5.932341	-2.274889
06665		25.456605	-5.929224	-2.093386
06666		25.419094	-5.920839	-1.911207
06667		25.357543	-5.910010	-1.734457
06668		25.291061	-5.903247	-1.564167
06669		25.255795	-5.900234	-1.400540
06670		25.269221	-5.905701	-1.243349
06671		25.289195	-5.903022	-1.091756
06672		25.284571	-5.892197	-0.949917
06673		25.224236	-5.869827	-0.811357
06674		25.107802	-5.824670	-0.677217
06675		24.970474	-5.779793	-0.549018
06676		24.849959	-5.736117	-0.423996
06677		24.775905	-5.697391	-0.305183
06678		24.778407	-5.677153	-0.194787
06679		24.828494	-5.659206	-0.087802
06680		24.848901	-5.638771	0.016210
06681		24.839590	-5.611239	0.111928
06682		24.791002	-5.569940	0.211300
06683		24.702245	-5.522571	0.302460
06684		24.609758	-5.477108	0.386993
06685		24.541924	-5.433382	0.469244
06686		24.510828	-5.397075	0.545957
06687		24.494806	-5.357080	0.613398
06688		24.463728	-5.317408	0.669681
06689		24.429167	-5.280271	0.718591
06690		24.412468	-5.241666	0.766456
06691		24.403732	-5.206562	0.806370
06692		24.394790	-5.178599	0.836989
06693		24.363694	-5.146150	0.865686
06694		24.313269	-5.109769	0.889117
06695		24.258489	-5.075198	0.900235
06696		24.195923	-5.039497	0.907843
06697		24.132711	-5.004244	0.911651
06698		24.103607	-4.979116	0.900511
06699		24.121234	-4.963368	0.880441
06700		24.162307	-4.944304	0.854480
06701		24.186050	-4.918123	0.817441
06702		24.156853	-4.885725	0.763504
06703		24.092942	-4.850166	0.706196
06704		24.033497	-4.804060	0.650418
06705		24.016704	-4.768467	0.583254
06706		24.030240	-4.741599	0.508723
06707		24.067613	-4.718633	0.436640
06708		24.089824	-4.688402	0.361994
06709		24.075767	-4.662620	0.273642
06710		24.027189	-4.635952	0.184039
06711		23.981901	-4.606734	0.091534
06712		23.960512	-4.576059	-0.010419
06713		23.944243	-4.556202	-0.121029
06714		23.908630	-4.530454	-0.238726
06715		23.884230	-4.509156	-0.361722
06716		23.894387	-4.478907	-0.488902
06717		23.909853	-4.454284	-0.628117
06718		23.913253	-4.437774	-0.773597
06719		23.926207	-4.425135	-0.914868
06720		23.956711	-4.408529	-1.058705
06721		23.968527	-4.398073	-1.212217
06722		23.930198	-4.391150	-1.368918
06723		23.878194	-4.388297	-1.521694
06724		23.850662	-4.382286	-1.678031
06725		23.839948	-4.387810	-1.847877
06726		23.828714	-4.402975	-2.021269
06727		23.821508	-4.412213	-2.192099
06728		23.838589	-4.417344	-2.374010
06729		23.851892	-4.432384	-2.571540
06730		23.848451	-4.450236	-2.764612
06731		23.855122	-4.465021	-2.959917
06732		23.869429	-4.488235	-3.170775
06733		23.881116	-4.517962	-3.384053
06734		23.904212	-4.545529	-3.601289
06735		23.918286	-4.583184	-3.837625
06736		23.927526	-4.630533	-4.087579
06737		23.963563	-4.672823	-4.344834
06738		24.005438	-4.712652	-4.609456
06739		24.020429	-4.753500	-4.889522
06740		24.015131	-4.788384	-5.173623
06741		24.017721	-4.825258	-5.466980
06742		24.039645	-4.864883	-5.766700
06743		24.065306	-4.901447	-6.077351
06744		24.072047	-4.936176	-6.398389
06745		24.070948	-4.968654	-6.736463
06746		24.073293	-5.005605	-7.088501
06747		24.106967	-5.048387	-7.448651
06748		24.166018	-5.085190	-7.813562
06749		24.217761	-5.116505	-8.190005
06750		24.241166	-5.143416	-8.567486
06751		24.228145	-5.154491	-8.944029
06752		24.194814	-5.162207	-9.328279
06753		24.167379	-5.172347	-9.721449
06754		24.162729	-5.187618	-10.120022
06755		24.187984	-5.210965	-10.527899
06756		24.208714	-5.235832	-10.950079
06757		24.221789	-5.263175	-11.384400
06758		24.254667	-5.291160	-11.822379
06759		24.318555	-5.317979	-12.271602
06760		24.403803	-5.345243	-12.732674
06761		24.487093	-5.366108	-13.193326
06762		24.540866	-5.370695	-13.656059
06763		24.555163	-5.370797	-14.133858
06764		24.548399	-5.362523	-14.614762
06765		24.566116	-5.352022	-15.105610
06766		24.590725	-5.345817	-15.610045
06767		24.599477	-5.343972	-16.126989
06768		24.617861	-5.342574	-16.652797
06769		24.656215	-5.338986	-17.191295
06770		24.691235	-5.332520	-17.738725
06771		24.724194	-5.317587	-18.303393
06772		24.752770	-5.297642	-18.879701
06773		24.764045	-5.276267	-19.466747
06774		24.765693	-5.251771	-20.064397
06775		24.783561	-5.224264	-20.666271
06776		24.838743	-5.212628	-21.278029
06777		24.929549	-5.210877	-21.894267
06778		25.034516	-5.211839	-22.514023
06779		25.146419	-5.206294	-23.148108
06780		25.214657	-5.195833	-23.787684
06781		25.219517	-5.178328	-24.436611
06782		25.202999	-5.146821	-25.094333
06783		25.178735	-5.110491	-25.760415
06784		25.154037	-5.083112	-26.433873
06785		25.154702	-5.060937	-27.112184
06786		25.188815	-5.049144	-27.797596
06787		25.241823	-5.047147	-28.489269
06788		25.291685	-5.050414	-29.190576
06789		25.371486	-5.068971	-29.902562
06790		25.498706	-5.078268	-30.619154
06791		25.614214	-5.071158	-31.341591
06792		25.662225	-5.062421	-32.067321
06793		25.680492	-5.047766	-32.790384
06794		25.682294	-5.025107	-33.505806
06795		25.689427	-5.016355	-34.223938
06796		25.706721	-5.019481	-34.939036
06797		25.761522	-5.038171	-35.650630
06798		25.856284	-5.063455	-36.365313
06799		25.937591	-5.092301	-37.081235
06800		25.980624	-5.107405	-37.799767
06801		25.928431	-5.097395	-38.514767
06802		25.805455	-5.078632	-39.226755
06803		25.649978	-5.051184	-39.938923
06804		25.537649	-5.030777	-40.642871
06805		25.497745	-5.020852	-41.339996
06806		25.518015	-5.025277	-42.037277
06807		25.601529	-5.037240	-42.730449
06808		25.694555	-5.048604	-43.424558
06809		25.781713	-5.064778	-44.125610
06810		25.875032	-5.084450	-44.824003
06811		25.973478	-5.094900	-45.516505
06812		26.063963	-5.097808	-46.203064
06813		26.124195	-5.087577	-46.883082
06814		26.158283	-5.067791	-47.559543
06815		26.182213	-5.043933	-48.228025
06816		26.182715	-5.008974	-48.890262
06817		26.226612	-4.984742	-49.559118
06818		26.334564	-4.970950	-50.222185
06819		26.474633	-4.951608	-50.879079
06820		26.600015	-4.925840	-51.534322
06821		26.679592	-4.887463	-52.180669
06822		26.712291	-4.843959	-52.821497
06823		26.737251	-4.803934	-53.449648
06824		26.760869	-4.746514	-54.063315
06825		26.791340	-4.689015	-54.679117
06826		26.811370	-4.637323	-55.297707
06827		26.849244	-4.585320	-55.910206
06828		26.905934	-4.525037	-56.514352
06829		26.947692	-4.456072	-57.110355
06830		26.939311	-4.366856	-57.692776
06831		26.895841	-4.275106	-58.252952
06832		26.864243	-4.187382	-58.792168
06833		26.858817	-4.105360	-59.306254
06834		26.917217	-4.037900	-59.803865
06835		27.061436	-3.984608	-60.291609
06836		27.204564	-3.923915	-60.763929
06837		27.324476	-3.869753	-61.228072
06838		27.441604	-3.820826	-61.680258
06839		27.531143	-3.757614	-62.103077
06840		27.617833	-3.692018	-62.506824
06841		27.723213	-3.639037	-62.884732
06842		27.876179	-3.597708	-63.233607
06843		28.066742	-3.574435	-63.564745
06844		28.278859	-3.552165	-63.882097
06845		28.498669	-3.528877	-64.192954
06846		28.727587	-3.513561	-64.503794
06847		28.954666	-3.494016	-64.810234
06848		29.173434	-3.479029	-65.114796
06849		29.398731	-3.476281	-65.422083
06850		29.625057	-3.477067	-65.723864
06851		29.878012	-3.484805	-66.018623
06852		30.134661	-3.481735	-66.307546
06853		30.382042	-3.478310	-66.607683
06854		30.614722	-3.474783	-66.917275
06855		30.830004	-3.459612	-67.224551
06856		31.011638	-3.419747	-67.530465
06857		31.138327	-3.362920	-67.825256
06858		31.226086	-3.308670	-68.122676
06859		31.297774	-3.254656	-68.398931
06860		31.340617	-3.190241	-68.659381
06861		31.357103	-3.133323	-68.924519
06862		31.362468	-3.084475	-69.190480
06863		31.384293	-3.044528	-69.454827
06864		31.438809	-3.018495	-69.727571
06865		31.541282	-3.003275	-70.000210
06866		31.684573	-2.995950	-70.273578
06867		31.850423	-2.997816	-70.538327
06868		32.008700	-2.995293	-70.793170
06869		32.111378	-2.982708	-71.036439
06870		32.166128	-2.970834	-71.275722
06871		32.232382	-2.969390	-71.512268
06872		32.339119	-2.962593	-71.738992
06873		32.454541	-2.948177	-71.966173
06874		32.565156	-2.947024	-72.193471
06875		32.685791	-2.952898	-72.418779
06876		32.826615	-2.962319	-72.638519
06877		33.013181	-2.983228	-72.860043
06878		33.242663	-3.010285	-73.080374
06879		33.499598	-3.036806	-73.296910
06880		33.745182	-3.055510	-73.512330
06881		33.915036	-3.041683	-73.725179
06882		33.993020	-3.005925	-73.936015
06883		33.985401	-2.952204	-74.139347
06884		33.972473	-2.905557	-74.339405
06885		33.990923	-2.862456	-74.524597
06886		34.039795	-2.821897	-74.702706
06887		34.089379	-2.799908	-74.885522
06888		34.153111	-2.792744	-75.067506
06889		34.218382	-2.783232	-75.245739
06890		34.289600	-2.777046	-75.430106
06891		34.370628	-2.782372	-75.622412
06892		34.473009	-2.780056	-75.807696
06893		34.577176	-2.771362	-75.975312
06894		34.647847	-2.762709	-76.136030
06895		34.690707	-2.747776	-76.290110
06896		34.732272	-2.731934	-76.432211
06897		34.794884	-2.720766	-76.571006
06898		34.876135	-2.718468	-76.713032
06899		34.989145	-2.725002	-76.856490
06900		35.110750	-2.726024	-76.995043
06901		35.210992	-2.717217	-77.127670
06902		35.280655	-2.709250	-77.258893
06903		35.325411	-2.697611	-77.376880
06904		35.373974	-2.681338	-77.484478
06905		35.445400	-2.664882	-77.586119
06906		35.534618	-2.648087	-77.681608
06907		35.623765	-2.630490	-77.767522
06908		35.665871	-2.593955	-77.840610
06909		35.638946	-2.540298	-77.902760
06910		35.586231	-2.486118	-77.954951
06911		35.531182	-2.441744	-77.995267
06912		35.501960	-2.403758	-78.030109
06913		35.522458	-2.375617	-78.065899
06914		35.557139	-2.351175	-78.100256
06915		35.589843	-2.328923	-78.135136
06916		35.626673	-2.313891	-78.166861
06917		35.660567	-2.297846	-78.188887
06918		35.686251	-2.278345	-78.199890
06919		35.687059	-2.257112	-78.204104
06920		35.672176	-2.239923	-78.199418
06921		35.647000	-2.218591	-78.187581
06922		35.625764	-2.202641	-78.171611
06923		35.605586	-2.183486	-78.155162
06924		35.598475	-2.170025	-78.136397
06925		35.622890	-2.166199	-78.113545
06926		35.683270	-2.170494	-78.085861
06927		35.743421	-2.173486	-78.046531
06928		35.795227	-2.176682	-77.995784
06929		35.812268	-2.181899	-77.927748
06930		35.812750	-2.188142	-77.848158
06931		35.791113	-2.192260	-77.749579
06932		35.745310	-2.195246	-77.638620
06933		35.687880	-2.199201	-77.517339
06934		35.635546	-2.208881	-77.387390
06935		35.593762	-2.222826	-77.254259
06936		35.568333	-2.239997	-77.111179
06937		35.556662	-2.256923	-76.957114
06938		35.560841	-2.280562	-76.792651
06939		35.563766	-2.301742	-76.613670
06940		35.545320	-2.320500	-76.417491
06941		35.499203	-2.341727	-76.210533
06942		35.445571	-2.364743	-75.987804
06943		35.388806	-2.390320	-75.750765
06944		35.337991	-2.423675	-75.507727
06945		35.286651	-2.459441	-75.255841
06946		35.258129	-2.499805	-74.991294
06947		35.237544	-2.546396	-74.721962
06948		35.221214	-2.596272	-74.445067
06949		35.194725	-2.643162	-74.156454
06950		35.165085	-2.693818	-73.863862
06951		35.115747	-2.743802	-73.559961
06952		35.053740	-2.793017	-73.247060
06953		34.999461	-2.842263	-72.930320
06954		34.968553	-2.900209	-72.597623
06955		34.962525	-2.960790	-72.253094
06956		34.979744	-3.034488	-71.895214
06957		34.994702	-3.101413	-71.517500
06958		34.989704	-3.159419	-71.127115
06959		34.968084	-3.227818	-70.730239
06960		34.977508	-3.310079	-70.318648
06961		35.037350	-3.395863	-69.890836
06962		35.120667	-3.488222	-69.446090
06963		35.211428	-3.577941	-68.983790
06964		35.302818	-3.665084	-68.493392
06965		35.366584	-3.735300	-67.973716
06966		35.411481	-3.807020	-67.440770
06967		35.446937	-3.880048	-66.891242
06968		35.454475	-3.941418	-66.312932
06969		35.431810	-3.993815	-65.732439
06970		35.398450	-4.047957	-65.148730
06971		35.360676	-4.092449	-64.548193
06972		35.352486	-4.143642	-63.948863
06973		35.381842	-4.208147	-63.347929
06974		35.466747	-4.269885	-62.735813
06975		35.564836	-4.333030	-62.120688
06976		35.644551	-4.389826	-61.506074
06977		35.668041	-4.431626	-60.882574
06978		35.649749	-4.460313	-60.257430
06979		35.621245	-4.488398	-59.637458
06980		35.648226	-4.531097	-59.021142
06981		35.732718	-4.574646	-58.406761
06982		35.821915	-4.608228	-57.791890
06983		35.885352	-4.635517	-57.178671
06984		35.912065	-4.654260	-56.564260
06985		35.895029	-4.665942	-55.939506
06986		35.848457	-4.668174	-55.306479
06987		35.788846	-4.665342	-54.675627
06988		35.724417	-4.659447	-54.041173
06989		35.634584	-4.643913	-53.412171
06990		35.524637	-4.626776	-52.795306
06991		35.406694	-4.606798	-52.183308
06992		35.318750	-4.590336	-51.578000
06993		35.269159	-4.582854	-50.977557
06994		35.256786	-4.577166	-50.373408
06995		35.250195	-4.570853	-49.761065
06996		35.215642	-4.571543	-49.141628
06997		35.158007	-4.567714	-48.508051
06998		35.054695	-4.555463	-47.869311
06999		34.898077	-4.537481	-47.231637
07000		34.736925	-4.523185	-46.594239
07001		34.618607	-4.515663	-45.961454
07002		34.560156	-4.515773	-45.329899
07003		34.531503	-4.520934	-44.697519
07004		34.528537	-4.529104	-44.058869
07005		34.531067	-4.541088	-43.412051
07006		34.529839	-4.553899	-42.753634
07007		34.500040	-4.560424	-42.083466
07008		34.419731	-4.568623	-41.406209
07009		34.308395	-4.573555	-40.726079
07010		34.169832	-4.585779	-40.043255
07011		34.056569	-4.614306	-39.375682
07012		34.008832	-4.659641	-38.712641
07013		34.025906	-4.714195	-38.048062
07014		34.084777	-4.767047	-37.376825
07015		34.115876	-4.808598	-36.700250
07016		34.069987	-4.834876	-36.012153
07017		33.822942	-4.808169	-35.294848
07018		33.371394	-4.755359	-34.589109
07019		32.828459	-4.715092	-33.902946
07020		32.338176	-4.687142	-33.225794
07021		31.994068	-4.691507	-32.576619
07022		31.822070	-4.738101	-31.950314
07023		31.720299	-4.777845	-31.317012
07024		31.581357	-4.812886	-30.696189
07025		31.398642	-4.854124	-30.087183
07026		31.176856	-4.878400	-29.463664
07027		30.936608	-4.899555	-28.843802
07028		30.732809	-4.927476	-28.230600
07029		30.552565	-4.953178	-27.621988
07030		30.401156	-4.988023	-27.027980
07031		30.277236	-5.028543	-26.442728
07032		30.184627	-5.068376	-25.869485
07033		30.086681	-5.113794	-25.306027
07034		29.969413	-5.155783	-24.744013
07035		29.853623	-5.195496	-24.188524
07036		29.762017	-5.253984	-23.646360
07037		29.691382	-5.313090	-23.108892
07038		29.654473	-5.384061	-22.584085
07039		29.649309	-5.465960	-22.067451
07040		29.663168	-5.541394	-21.553201
07041		29.658582	-5.609768	-21.046839
07042		29.630484	-5.677269	-20.538793
07043		29.539794	-5.719060	-20.023810
07044		29.392911	-5.748302	-19.513900
07045		29.241196	-5.780417	-19.012790
07046		29.126548	-5.812640	-18.516152
07047		29.056859	-5.844621	-18.030352
07048		29.050198	-5.873411	-17.549087
07049		29.030765	-5.875845	-17.070828
07050		28.898399	-5.847659	-16.586148
07051		28.576938	-5.764484	-16.080562
07052		28.069514	-5.642395	-15.555121
07053		27.456210	-5.507540	-15.023661
07054		26.929000	-5.411304	-14.497933
07055		26.609515	-5.353839	-13.980776
07056		26.472570	-5.321507	-13.487407
07057		26.478419	-5.310756	-13.016801
07058		26.558156	-5.308443	-12.550417
07059		26.548652	-5.309005	-12.098028
07060		26.465021	-5.317070	-11.643420
07061		26.319392	-5.326699	-11.183747
07062		26.193796	-5.354065	-10.736561
07063		26.249386	-5.407061	-10.308090
07064		26.514731	-5.458436	-9.885960
07065		26.827104	-5.496406	-9.476903
07066		27.085055	-5.531248	-9.086350
07067		27.288189	-5.574947	-8.711418
07068		27.445043	-5.613260	-8.318402
07069		27.545332	-5.649081	-7.917853
07070		27.618173	-5.679209	-7.522161
07071		27.638742	-5.700442	-7.131250
07072		27.610791	-5.716782	-6.746184
07073		27.532635	-5.724132	-6.362562
07074		27.447221	-5.721251	-5.995190
07075		27.379659	-5.712968	-5.636476
07076		27.311009	-5.709206	-5.289314
07077		27.263997	-5.706148	-4.956110
07078		27.247120	-5.711977	-4.630351
07079		27.261020	-5.717159	-4.311885
07080		27.299793	-5.726038	-3.995343
07081		27.352146	-5.729153	-3.679417
07082		27.382721	-5.723073	-3.368047
07083		27.368321	-5.716071	-3.056436
07084		27.357048	-5.710600	-2.749227
07085		27.369400	-5.710682	-2.444019
07086		27.434145	-5.716842	-2.143197
07087		27.531060	-5.733643	-1.853073
07088		27.625646	-5.756842	-1.562959
07089		27.669250	-5.774097	-1.264464
07090		27.666623	-5.787250	-0.963822
07091		27.614450	-5.788542	-0.651842
07092		27.579608	-5.780561	-0.318614
07093		27.527814	-5.756251	0.024002
07094		27.410475	-5.727943	0.362111
07095		27.251683	-5.698329	0.698184
07096		27.071703	-5.667491	1.030940
07097		26.919521	-5.643315	1.347151
07098		26.800403	-5.621181	1.650370
07099		26.696433	-5.592542	1.944948
07100		26.575983	-5.559602	2.218697
07101		26.429123	-5.523119	2.477826
07102		26.229459	-5.477394	2.733394
07103		26.006940	-5.431273	2.979707
07104		25.814701	-5.390781	3.214965
07105		25.711570	-5.359773	3.442345
07106		25.666303	-5.330850	3.658459
07107		25.625211	-5.299045	3.847309
07108		25.576880	-5.256994	4.019821
07109		25.515404	-5.215275	4.170678
07110		25.458627	-5.182049	4.308537
07111		25.431405	-5.155145	4.436212
07112		25.474029	-5.138089	4.553498
07113		25.562787	-5.118484	4.658309
07114		25.593349	-5.096772	4.744441
07115		25.515683	-5.065959	4.816191
07116		25.394191	-5.026129	4.874280
07117		25.332516	-5.000594	4.908984
07118		25.402061	-5.003674	4.923552
07119		25.658796	-5.028807	4.920494
07120		26.030372	-5.056407	4.896017
07121		26.389956	-5.073639	4.854449
07122		26.646782	-5.064517	4.805295
07123		26.734479	-5.040611	4.756270
07124		26.706382	-5.006529	4.716276
07125		26.633415	-4.970014	4.683653
07126		26.607998	-4.947372	4.655629
07127		26.666123	-4.929391	4.631792
07128		26.754372	-4.918106	4.601590
07129		26.831916	-4.904870	4.557922
07130		26.843371	-4.881721	4.506654
07131		26.835735	-4.862016	4.443514
07132		26.835869	-4.840854	4.379044
07133		26.841738	-4.826900	4.316013
07134		26.851298	-4.816196	4.259074
07135		26.858293	-4.805610	4.206575
07136		26.884815	-4.801470	4.152997
07137		26.935087	-4.801957	4.101035
07138		26.989193	-4.803462	4.040232
07139		27.021650	-4.809390	3.967990
07140		27.059970	-4.816819	3.889124
07141		27.116823	-4.821997	3.815794
07142		27.189870	-4.820891	3.742854
07143		27.254452	-4.821587	3.668690
07144		27.277301	-4.816617	3.598935
07145		27.268357	-4.799798	3.529956
07146		27.225802	-4.785037	3.454853
07147		27.174734	-4.770207	3.371788
07148		27.140823	-4.761968	3.284091
07149		27.150795	-4.763880	3.192443
07150		27.214538	-4.774017	3.093147
07151		27.310599	-4.793585	2.990166
07152		27.396056	-4.802776	2.883854
07153		27.441287	-4.806924	2.771208
07154		27.424263	-4.798900	2.654423
07155		27.355981	-4.779180	2.534866
07156		27.286898	-4.764327	2.410253
07157		27.264835	-4.758418	2.281317
07158		27.320618	-4.767250	2.146125
07159		27.452314	-4.787709	1.997689
07160		27.633806	-4.820791	1.830799
07161		27.847945	-4.861567	1.649169
07162		28.073533	-4.911604	1.455004
07163		28.346752	-4.970152	1.243304
07164		28.659562	-5.024179	1.027323
07165		28.961394	-5.069794	0.804151
07166		29.220181	-5.111774	0.577427
07167		29.405627	-5.130403	0.354377
07168		29.477326	-5.141117	0.128387
07169		29.458381	-5.146537	-0.106142
07170		29.328007	-5.137749	-0.343237
07171		29.189004	-5.137886	-0.583247
07172		29.062255	-5.141685	-0.829795
07173		29.003723	-5.154215	-1.079232
07174		28.992424	-5.173416	-1.337358
07175		29.016710	-5.204369	-1.603467
07176		29.070695	-5.235621	-1.871952
07177		29.133056	-5.279529	-2.147197
07178		29.220248	-5.329571	-2.427992
07179		29.322817	-5.391644	-2.716807
07180		29.450605	-5.458543	-3.011056
07181		29.557066	-5.514143	-3.311240
07182		29.591247	-5.568524	-3.622689
07183		29.564529	-5.617960	-3.939825
07184		29.532524	-5.667626	-4.260314
07185		29.556447	-5.727884	-4.592427
07186		29.630274	-5.799183	-4.927723
07187		29.755321	-5.873254	-5.280015
07188		29.848433	-5.949660	-5.646896
07189		29.895164	-6.021192	-6.022651
07190		29.923220	-6.081423	-6.408729
07191		29.970019	-6.146521	-6.804920
07192		30.023975	-6.212595	-7.202464
07193		30.086766	-6.281298	-7.604352
07194		30.170392	-6.352580	-8.014466
07195		30.269927	-6.424902	-8.439025
07196		30.323880	-6.495684	-8.873499
07197		30.358270	-6.560067	-9.317385
07198		30.403518	-6.612171	-9.777302
07199		30.480332	-6.674062	-10.252339
07200		30.583006	-6.742882	-10.730732
07201		30.718842	-6.807929	-11.217731
07202		30.876600	-6.880460	-11.716125
07203		31.034359	-6.955234	-12.221400
07204		31.162513	-7.017065	-12.729582
07205		31.243847	-7.080648	-13.256663
07206		31.297804	-7.148710	-13.804451
07207		31.377027	-7.224179	-14.375184
07208		31.498506	-7.305419	-14.975618
07209		31.676422	-7.391681	-15.604790
07210		31.868119	-7.466204	-16.260306
07211		32.013763	-7.530125	-16.941907
07212		32.139644	-7.576453	-17.646187
07213		32.247194	-7.613486	-18.365882
07214		32.336366	-7.637241	-19.102028
07215		32.438173	-7.647214	-19.855149
07216		32.545680	-7.643012	-20.621701
07217		32.664370	-7.629319	-21.397902
07218		32.775810	-7.599479	-22.181545
07219		32.874733	-7.559878	-22.977586
07220		32.958609	-7.511617	-23.781853
07221		33.056249	-7.461081	-24.593213
07222		33.183014	-7.416425	-25.405809
07223		33.322775	-7.384617	-26.211886
07224		33.425820	-7.339630	-27.013625
07225		33.504118	-7.291546	-27.817498
07226		33.563935	-7.245986	-28.615898
07227		33.623124	-7.193377	-29.407306
07228		33.660694	-7.139897	-30.188190
07229		33.694573	-7.089664	-30.971197
07230		33.738128	-7.043305	-31.751348
07231		33.796480	-7.000881	-32.529223
07232		33.861493	-6.951574	-33.301205
07233		33.919851	-6.905966	-34.070234
07234		33.998732	-6.869984	-34.836674
07235		34.113190	-6.841131	-35.591156
07236		34.208752	-6.809033	-36.329084
07237		34.265119	-6.769679	-37.067666
07238		34.300522	-6.722259	-37.803681
07239		34.314655	-6.672566	-38.529955
07240		34.328481	-6.617190	-39.254225
07241		34.369023	-6.555752	-39.980718
07242		34.378018	-6.486170	-40.694721
07243		34.352479	-6.401596	-41.403125
07244		34.286999	-6.305207	-42.099179
07245		34.179475	-6.202987	-42.776019
07246		34.055589	-6.091064	-43.438678
07247		33.914655	-5.977445	-44.091192
07248		33.769482	-5.850684	-44.735174
07249		33.660436	-5.721014	-45.379919
07250		33.681416	-5.587571	-46.028417
07251		33.749180	-5.422188	-46.658086
07252		33.765799	-5.230409	-47.282239
07253		33.662682	-5.021473	-47.901051
07254		33.412838	-4.785865	-48.503639
07255		33.069402	-4.548470	-49.096768
07256		32.755047	-4.330220	-49.680524
07257		32.541702	-4.134905	-50.258574
07258		32.436084	-3.971385	-50.833338
07259		32.367659	-3.828200	-51.400483
07260		32.306119	-3.698548	-51.962789
07261		32.237928	-3.576077	-52.519096
07262		32.155667	-3.449815	-53.066801
07263		32.038729	-3.321838	-53.604781
07264		31.872436	-3.193019	-54.138489
07265		31.710892	-3.074836	-54.674890
07266		31.590994	-2.969041	-55.207212
07267		31.507745	-2.878983	-55.731864
07268		31.450033	-2.799933	-56.266601
07269		31.409405	-2.734066	-56.811030
07270		31.348589	-2.668843	-57.355550
07271		31.244725	-2.611705	-57.895911
07272		31.109653	-2.557301	-58.439426
07273		30.988612	-2.520217	-58.981266
07274		30.898301	-2.493048	-59.519784
07275		30.857638	-2.481620	-60.055471
07276		30.860919	-2.484780	-60.599385
07277		30.874855	-2.483846	-61.142358
07278		30.848048	-2.465276	-61.686832
07279		30.775681	-2.448020	-62.237743
07280		30.663932	-2.434438	-62.794048
07281		30.540043	-2.421775	-63.350900
07282		30.443495	-2.422683	-63.915706
07283		30.433587	-2.449430	-64.494071
07284		30.531712	-2.497152	-65.085898
07285		30.729071	-2.555046	-65.687529
07286		30.985749	-2.602703	-66.295973
07287		31.240789	-2.656066	-66.919484
07288		31.453624	-2.697719	-67.538725
07289		31.630601	-2.733137	-68.151858
07290		31.798927	-2.766384	-68.759336
07291		31.988031	-2.797600	-69.363692
07292		32.232509	-2.853471	-69.981746
07293		32.602428	-2.939643	-70.609104
07294		33.112731	-3.041101	-71.231960
07295		33.676525	-3.132177	-71.846629
07296		34.178440	-3.198821	-72.450669
07297		34.533965	-3.232244	-73.020944
07298		34.692852	-3.234037	-73.554353
07299		34.727296	-3.234041	-74.068475
07300		34.736478	-3.242895	-74.556773
07301		34.755299	-3.264493	-75.030042
07302		34.847602	-3.316269	-75.515995
07303		35.034063	-3.388507	-76.006248
07304		35.291045	-3.471380	-76.486963
07305		35.511074	-3.534599	-76.954730
07306		35.624562	-3.576122	-77.408280
07307		35.644334	-3.615256	-77.842028
07308		35.611225	-3.645913	-78.251961
07309		35.578911	-3.677561	-78.648672
07310		35.560386	-3.712273	-79.042535
07311		35.581443	-3.754327	-79.446284
07312		35.684856	-3.814042	-79.861822
07313		35.886417	-3.880137	-80.283695
07314		36.140623	-3.940693	-80.709461
07315		36.412945	-3.988435	-81.139147
07316		36.662896	-4.017551	-81.553522
07317		36.834076	-4.020180	-81.956405
07318		36.904560	-4.001074	-82.350945
07319		36.874001	-3.963877	-82.734567
07320		36.789389	-3.914289	-83.110145
07321		36.725085	-3.872370	-83.484062
07322		36.704336	-3.833101	-83.850041
07323		36.713373	-3.789768	-84.210799
07324		36.732283	-3.747577	-84.565397
07325		36.749121	-3.706230	-84.913500
07326		36.765280	-3.653360	-85.247740
07327		36.811215	-3.600380	-85.564979
07328		36.859870	-3.542721	-85.871211
07329		36.872619	-3.468103	-86.149189
07330		36.812237	-3.369697	-86.401258
07331		36.662279	-3.259922	-86.634547
07332		36.457571	-3.138755	-86.847868
07333		36.246662	-3.022130	-87.047844
07334		36.070273	-2.917494	-87.244814
07335		35.990880	-2.834441	-87.443617
07336		36.011886	-2.780333	-87.641294
07337		36.107084	-2.731268	-87.835018
07338		36.243977	-2.683857	-88.024612
07339		36.367221	-2.634335	-88.205457
07340		36.442272	-2.575726	-88.373566
07341		36.465283	-2.502760	-88.526582
07342		36.446015	-2.423342	-88.667933
07343		36.417775	-2.347647	-88.808039
07344		36.420705	-2.281263	-88.945193
07345		36.457984	-2.209521	-89.076807
07346		36.526173	-2.138723	-89.212581
07347		36.609314	-2.073172	-89.349231
07348		36.698436	-2.001401	-89.474100
07349		36.771524	-1.925860	-89.587932
07350		36.816603	-1.850522	-89.700882
07351		36.847401	-1.774941	-89.804283
07352		36.878507	-1.688903	-89.896150
07353		36.911670	-1.605805	-89.980172
07354		36.946471	-1.529154	-90.063697
07355		36.987468	-1.448540	-90.132668
07356		37.031121	-1.360843	-90.193154
07357		37.083296	-1.278824	-90.253273
07358		37.132653	-1.201634	-90.296518
07359		37.187966	-1.132610	-90.329446
07360		37.239353	-1.069261	-90.355364
07361		37.284367	-1.005832	-90.369383
07362		37.321405	-0.954846	-90.376899
07363		37.372156	-0.908079	-90.377137
07364		37.424441	-0.864880	-90.368858
07365		37.471898	-0.824618	-90.355215
07366		37.510926	-0.785804	-90.330808
07367		37.533938	-0.746366	-90.295860
07368		37.540159	-0.710872	-90.252370
07369		37.532137	-0.677941	-90.199879
07370		37.527309	-0.648752	-90.136433
07371		37.541107	-0.623869	-90.074356
07372		37.576530	-0.600798	-90.005864
07373		37.608594	-0.570811	-89.933097
07374		37.618521	-0.535410	-89.853434
07375		37.597343	-0.489390	-89.763700
07376		37.572680	-0.439426	-89.662552
07377		37.522276	-0.382488	-89.548432
07378		37.443850	-0.323494	-89.426421
07379		37.315429	-0.256818	-89.295236
07380		37.142678	-0.188967	-89.157871
07381		36.958725	-0.132000	-89.024721
07382		36.800814	-0.092471	-88.888183
07383		36.709500	-0.074319	-88.744077
07384		36.683727	-0.080119	-88.597183
07385		36.700508	-0.098313	-88.444402
07386		36.756392	-0.126663	-88.285396
07387		36.884236	-0.178682	-88.118499
07388		37.058147	-0.242733	-87.949220
07389		37.241701	-0.314076	-87.778649
07390		37.391868	-0.372214	-87.601770
07391		37.455531	-0.409925	-87.419385
07392		37.433290	-0.436687	-87.233014
07393		37.360548	-0.460962	-87.035641
07394		37.263419	-0.476696	-86.829905
07395		37.170532	-0.497678	-86.621924
07396		37.103154	-0.528068	-86.411620
07397		37.075277	-0.565961	-86.193037
07398		37.084222	-0.610210	-85.966865
07399		37.119038	-0.664713	-85.733637
07400		37.172382	-0.728201	-85.490755
07401		37.229493	-0.791882	-85.235368
07402		37.261593	-0.855082	-84.963739
07403		37.264366	-0.906641	-84.685357
07404		37.250835	-0.957550	-84.396437
07405		37.212340	-1.002151	-84.098767
07406		37.182052	-1.039534	-83.795464
07407		37.190648	-1.078822	-83.488086
07408		37.288258	-1.117142	-83.180965
07409		37.428752	-1.147295	-82.858110
07410		37.573760	-1.164437	-82.518448
07411		37.688424	-1.165726	-82.156098
07412		37.781305	-1.155977	-81.764841
07413		37.873348	-1.136919	-81.344293
07414		37.959384	-1.122785	-80.902436
07415		38.015217	-1.110517	-80.437220
07416		38.038904	-1.099704	-79.952513
07417		38.016114	-1.095316	-79.452993
07418		37.983770	-1.102001	-78.938790
07419		37.958623	-1.124143	-78.405233
07420		37.961651	-1.161526	-77.857799
07421		37.985140	-1.202806	-77.291340
07422		37.983180	-1.234198	-76.709331
07423		37.912473	-1.251880	-76.116219
07424		37.776472	-1.253832	-75.503471
07425		37.579178	-1.239004	-74.881165
07426		37.377400	-1.227302	-74.262945
07427		37.189031	-1.214135	-73.642835
07428		37.011355	-1.198465	-73.026261
07429		36.835085	-1.180814	-72.425196
07430		36.678321	-1.170049	-71.838170
07431		36.544579	-1.159810	-71.257033
07432		36.449238	-1.142959	-70.672977
07433		36.363863	-1.130070	-70.092124
07434		36.284209	-1.113023	-69.508487
07435		36.192499	-1.099551	-68.915715
07436		36.100826	-1.090807	-68.323265
07437		36.013339	-1.084185	-67.733689
07438		35.976442	-1.088072	-67.154521
07439		36.020131	-1.104854	-66.592504
07440		36.167377	-1.144923	-66.043290
07441		36.382445	-1.195946	-65.502546
07442		36.647230	-1.253264	-64.954746
07443		36.900131	-1.310806	-64.381454
07444		37.130051	-1.367081	-63.786420
07445		37.300674	-1.443640	-63.179828
07446		37.399888	-1.522882	-62.546561
07447		37.376883	-1.594922	-61.898227
07448		37.249354	-1.676483	-61.261598
07449		37.109879	-1.771223	-60.633494
07450		37.023871	-1.880093	-60.007385
07451		36.998991	-2.011558	-59.394236
07452		37.019734	-2.148183	-58.779144
07453		37.035954	-2.264061	-58.148593
07454		37.007185	-2.369483	-57.517213
07455		36.854246	-2.458220	-56.879311
07456		36.571487	-2.524672	-56.236415
07457		36.194395	-2.570989	-55.592016
07458		35.790455	-2.603845	-54.956613
07459		35.411951	-2.623167	-54.334013
07460		35.102742	-2.648308	-53.728640
07461		34.893642	-2.665156	-53.144789
07462		34.783790	-2.691093	-52.576484
07463		34.762546	-2.725624	-52.024122
07464		34.787631	-2.757692	-51.473516
07465		34.794721	-2.791597	-50.920361
07466		34.753462	-2.822329	-50.358258
07467		34.644354	-2.855268	-49.774502
07468		34.491987	-2.886850	-49.178749
07469		34.319622	-2.919238	-48.571177
07470		34.169809	-2.960997	-47.965648
07471		34.051239	-3.015214	-47.368836
07472		33.962845	-3.070283	-46.779028
07473		33.914026	-3.134469	-46.201662
07474		33.922788	-3.211981	-45.637482
07475		33.973985	-3.294540	-45.066199
07476		34.028892	-3.372035	-44.481323
07477		34.039112	-3.440521	-43.887273
07478		33.975051	-3.496382	-43.281337
07479		33.832450	-3.539599	-42.669731
07480		33.665711	-3.591661	-42.068890
07481		33.526408	-3.650348	-41.472553
07482		33.459835	-3.719519	-40.894505
07483		33.455033	-3.794677	-40.337093
07484		33.523509	-3.876866	-39.797033
07485		33.606005	-3.946149	-39.250806
07486		33.661426	-4.012615	-38.705750
07487		33.671668	-4.069493	-38.152388
07488		33.612510	-4.105682	-37.586498
07489		33.486363	-4.127248	-37.017438
07490		33.292761	-4.142356	-36.455594
07491		33.088070	-4.159426	-35.898049
07492		32.925984	-4.179244	-35.351761
07493		32.834567	-4.213523	-34.820260
07494		32.791202	-4.239329	-34.297803
07495		32.751440	-4.261310	-33.787930
07496		32.674725	-4.274875	-33.277903
07497		32.535001	-4.260899	-32.761691
07498		32.347243	-4.232213	-32.249544
07499		32.117225	-4.215444	-31.738560
07500		31.888558	-4.214517	-31.227082
07501		31.684328	-4.240058	-30.721039
07502		31.535828	-4.293875	-30.221048
07503		31.451625	-4.362722	-29.711456
07504		31.412666	-4.442065	-29.201493
07505		31.375095	-4.513827	-28.697501
07506		31.263791	-4.578198	-28.193407
07507		31.073764	-4.638363	-27.688297
07508		30.856640	-4.698421	-27.186520
07509		30.653226	-4.769758	-26.684893
07510		30.485032	-4.842073	-26.181789
07511		30.344114	-4.925561	-25.684502
07512		30.247006	-5.020677	-25.198450
07513		30.180541	-5.127211	-24.715764
07514		30.179768	-5.243661	-24.236602
07515		30.221007	-5.372191	-23.762573
07516		30.313300	-5.500924	-23.297854
07517		30.407278	-5.623663	-22.831223
07518		30.471633	-5.745360	-22.364253
07519		30.535813	-5.866620	-21.884845
07520		30.633602	-5.969973	-21.400132
07521		30.779592	-6.076219	-20.930384
07522		30.948396	-6.179762	-20.469820
07523		31.084083	-6.268359	-20.025012
07524		31.217026	-6.369715	-19.601624
07525		31.364044	-6.452290	-19.174046
07526		31.508713	-6.518518	-18.754067
07527		31.616010	-6.589167	-18.354752
07528		31.651861	-6.642249	-17.950960
07529		31.610826	-6.671176	-17.546629
07530		31.534489	-6.701874	-17.157899
07531		31.499391	-6.732645	-16.777338
07532		31.529167	-6.755101	-16.400361
07533		31.574000	-6.782393	-16.039417
07534		31.635663	-6.809271	-15.684712
07535		31.722012	-6.826787	-15.328662
07536		31.828451	-6.847462	-14.980499
07537		31.888567	-6.853917	-14.628923
07538		31.886888	-6.858172	-14.288648
07539		31.840615	-6.851058	-13.947624
07540		31.777835	-6.838935	-13.601992
07541		31.718517	-6.832948	-13.260860
07542		31.681317	-6.836801	-12.921283
07543		31.691349	-6.844230	-12.579881
07544		31.741469	-6.872451	-12.242883
07545		31.814098	-6.910879	-11.907564
07546		31.880168	-6.953775	-11.567523
07547		31.909123	-7.004545	-11.232479
07548		31.887446	-7.062897	-10.897827
07549		31.804118	-7.127474	-10.557486
07550		31.703131	-7.208731	-10.214220
07551		31.642461	-7.308460	-9.873883
07552		31.643078	-7.435431	-9.537837
07553		31.720738	-7.584052	-9.206772
07554		31.845148	-7.730074	-8.871922
07555		31.908741	-7.864541	-8.530584
07556		31.840249	-7.967152	-8.175462
07557		31.624424	-8.043212	-7.812234
07558		31.319163	-8.101673	-7.435634
07559		30.991198	-8.136556	-7.056461
07560		30.751056	-8.183647	-6.691564
07561		30.664860	-8.238262	-6.334043
07562		30.705663	-8.282637	-5.981644
07563		30.778652	-8.289682	-5.647853
07564		30.754546	-8.263288	-5.342194
07565		30.576716	-8.217021	-5.046145
07566		30.310432	-8.152368	-4.746382
07567		30.068350	-8.095640	-4.451816
07568		29.966250	-8.067993	-4.164043
07569		29.985047	-8.077221	-3.877328
07570		30.115530	-8.108925	-3.590757
07571		30.286919	-8.126446	-3.291932
07572		30.391427	-8.112315	-2.999121
07573		30.314740	-8.082501	-2.713422
07574		30.107570	-8.047359	-2.427634
07575		29.859535	-8.010318	-2.135561
07576		29.718716	-7.993580	-1.850701
07577		29.744862	-7.999820	-1.570139
07578		29.882981	-8.022640	-1.291278
07579		30.058286	-8.022818	-1.018208
07580		30.141759	-8.005980	-0.754608
07581		30.063399	-7.962154	-0.496919
07582		29.867724	-7.909138	-0.234771
07583		29.652034	-7.859923	0.027589
07584		29.493917	-7.830788	0.288221
07585		29.433873	-7.809710	0.551056
07586		29.455527	-7.797911	0.805025
07587		29.494429	-7.807293	1.043246
07588		29.548944	-7.808138	1.276954
07589		29.583872	-7.797161	1.501002
07590		29.595740	-7.770245	1.713195
07591		29.536745	-7.731613	1.915096
07592		29.403082	-7.689459	2.113489
07593		29.244403	-7.640819	2.310858
07594		29.122256	-7.607820	2.500893
07595		29.093894	-7.592860	2.686815
07596		29.152134	-7.585086	2.871800
07597		29.237624	-7.568040	3.050238
07598		29.258545	-7.525593	3.221656
07599		29.102106	-7.456715	3.387718
07600		28.803414	-7.373168	3.553964
07601		28.495413	-7.289922	3.722984
07602		28.295074	-7.229747	3.887376
07603		28.218992	-7.195742	4.040959
07604		28.276275	-7.178125	4.186297
07605		28.425181	-7.165999	4.309572
07606		28.570736	-7.147733	4.412759
07607		28.628760	-7.102661	4.507767
07608		28.549290	-7.039587	4.591535
07609		28.405877	-6.969244	4.674795
07610		28.243703	-6.890643	4.767451
07611		28.108764	-6.824558	4.858919
07612		28.033926	-6.773103	4.945632
07613		27.997971	-6.722052	5.031110
07614		27.976552	-6.674888	5.101821
07615		27.969141	-6.637128	5.150182
07616		27.956871	-6.598580	5.189000
07617		27.934067	-6.558102	5.215658
07618		27.912783	-6.523035	5.229674
07619		27.904538	-6.494907	5.243349
07620		27.901835	-6.463891	5.258249
07621		27.906366	-6.425068	5.271357
07622		27.859859	-6.390821	5.274168
07623		27.752864	-6.371115	5.265542
07624		27.633474	-6.366771	5.255023
07625		27.567641	-6.388502	5.233723
07626		27.601143	-6.433827	5.204121
07627		27.705535	-6.489596	5.173077
07628		27.787928	-6.517064	5.147294
07629		27.744019	-6.525190	5.105824
07630		27.593972	-6.519201	5.054729
07631		27.402224	-6.511941	5.005659
07632		27.226600	-6.513862	4.950248
07633		27.124448	-6.526137	4.880756
07634		27.087777	-6.548936	4.793156
07635		27.134881	-6.582362	4.696702
07636		27.209236	-6.603617	4.598213
07637		27.244196	-6.616276	4.487048
07638		27.220432	-6.625186	4.364932
07639		27.190640	-6.628871	4.242414
07640		27.165864	-6.629496	4.115822
07641		27.152853	-6.640181	3.981285
07642		27.156760	-6.653706	3.840735
07643		27.165992	-6.669140	3.690803
07644		27.193095	-6.684057	3.528509
07645		27.223400	-6.693358	3.357270
07646		27.233601	-6.691716	3.172534
07647		27.237660	-6.672880	2.973204
07648		27.216685	-6.649722	2.756808
07649		27.159517	-6.616107	2.532697
07650		27.089744	-6.572691	2.305419
07651		27.023986	-6.527002	2.071923
07652		26.959823	-6.481317	1.838187
07653		26.886504	-6.433882	1.606453
07654		26.812013	-6.395990	1.366922
07655		26.731023	-6.357861	1.124428
07656		26.633815	-6.321032	0.881614
07657		26.559297	-6.291940	0.631676
07658		26.511556	-6.265727	0.377928
07659		26.496675	-6.242195	0.117658
07660		26.505104	-6.232363	-0.154393
07661		26.541051	-6.231248	-0.435033
07662		26.605301	-6.237102	-0.722716
07663		26.678674	-6.244053	-1.015618
07664		26.773287	-6.249362	-1.314759
07665		26.862215	-6.255565	-1.617789
07666		26.907452	-6.252184	-1.923458
07667		26.926652	-6.250106	-2.232626
07668		26.927839	-6.245681	-2.546424
07669		26.953141	-6.244305	-2.867220
07670		27.006271	-6.242316	-3.198836
07671		27.081698	-6.244707	-3.543955
07672		27.162737	-6.246588	-3.905213
07673		27.245665	-6.250741	-4.274359
07674		27.345256	-6.257556	-4.647959
07675		27.473848	-6.259549	-5.029240
07676		27.572601	-6.252642	-5.413754
07677		27.623949	-6.248068	-5.797150
07678		27.677823	-6.239413	-6.175777
07679		27.722045	-6.232410	-6.546418
07680		27.808878	-6.228026	-6.920612
07681		27.948432	-6.239991	-7.292727
07682		28.118790	-6.258123	-7.659419
07683		28.273251	-6.275504	-8.029400
07684		28.408880	-6.294109	-8.406535
07685		28.503425	-6.309026	-8.782200
07686		28.555017	-6.325635	-9.161035
07687		28.587698	-6.355122	-9.547252
07688		28.576261	-6.379983	-9.936181
07689		28.516605	-6.403018	-10.330892
07690		28.463740	-6.424789	-10.729044
07691		28.391046	-6.432894	-11.130110
07692		28.325945	-6.442190	-11.534987
07693		28.284812	-6.455677	-11.936748
07694		28.294292	-6.467377	-12.333731
07695		28.337052	-6.483223	-12.733847
07696		28.391136	-6.508528	-13.140755
07697		28.464719	-6.539089	-13.555107
07698		28.533604	-6.572488	-13.983848
07699		28.586257	-6.613123	-14.436903
07700		28.649595	-6.656219	-14.900163
07701		28.763504	-6.698885	-15.378397
07702		28.900227	-6.739428	-15.869638
07703		29.027303	-6.773837	-16.368851
07704		29.121470	-6.796649	-16.869493
07705		29.183100	-6.814038	-17.380745
07706		29.211421	-6.826619	-17.892819
07707		29.243288	-6.839019	-18.417553
07708		29.280979	-6.856366	-18.953505
07709		29.332179	-6.871024	-19.507369
07710		29.376425	-6.880945	-20.075326
07711		29.407223	-6.885003	-20.654521
07712		29.422727	-6.883316	-21.245334
07713		29.445967	-6.883163	-21.842260
07714		29.469346	-6.877676	-22.438274
07715		29.471938	-6.869836	-23.037017
07716		29.433796	-6.852122	-23.636518
07717		29.379160	-6.832013	-24.245135
07718		29.308699	-6.813903	-24.860377
07719		29.257986	-6.804016	-25.485874
07720		29.224276	-6.793837	-26.120001
07721		29.216787	-6.781615	-26.774679
07722		29.222302	-6.770942	-27.441936
07723		29.220211	-6.759104	-28.113141
07724		29.200527	-6.735327	-28.789149
07725		29.156483	-6.708898	-29.469535
07726		29.117884	-6.682393	-30.152622
07727		29.126833	-6.659567	-30.838842
07728		29.172238	-6.628351	-31.526081
07729		29.215204	-6.593867	-32.216470
07730		29.228770	-6.554336	-32.905588
07731		29.273654	-6.512567	-33.597377
07732		29.315179	-6.465387	-34.291970
07733		29.323190	-6.419394	-34.987795
07734		29.312187	-6.378354	-35.685241
07735		29.384217	-6.345744	-36.388498
07736		29.494709	-6.318527	-37.091880
07737		29.588540	-6.291187	-37.799970
07738		29.717352	-6.263414	-38.516731
07739		29.869507	-6.229654	-39.234333
07740		30.004874	-6.189211	-39.955137
07741		30.133690	-6.143262	-40.683758
07742		30.243577	-6.088991	-41.410201
07743		30.343435	-6.025171	-42.137089
07744		30.437315	-5.965117	-42.864984
07745		30.532528	-5.902896	-43.589777
07746		30.617885	-5.838369	-44.315452
07747		30.675704	-5.766364	-45.048378
07748		30.695997	-5.686194	-45.779268
07749		30.720907	-5.609945	-46.511168
07750		30.746940	-5.531801	-47.237711
07751		30.782910	-5.451582	-47.957383
07752		30.869316	-5.381604	-48.674956
07753		30.996875	-5.316386	-49.384252
07754		31.168954	-5.262927	-50.086837
07755		31.337179	-5.220109	-50.776141
07756		31.450614	-5.175743	-51.457461
07757		31.505840	-5.132017	-52.134503
07758		31.503794	-5.096352	-52.813273
07759		31.484543	-5.064794	-53.486219
07760		31.465083	-5.028950	-54.150530
07761		31.469830	-5.005523	-54.821204
07762		31.478943	-4.987323	-55.498354
07763		31.496432	-4.964794	-56.172315
07764		31.497272	-4.933268	-56.851313
07765		31.493239	-4.906762	-57.537382
07766		31.519091	-4.890030	-58.230519
07767		31.638297	-4.896810	-58.925373
07768		31.815975	-4.904948	-59.617326
07769		32.015555	-4.919761	-60.320460
07770		32.232922	-4.935365	-61.021528
07771		32.419710	-4.919431	-61.714071
07772		32.510188	-4.880646	-62.399916
07773		32.504134	-4.825875	-63.087074
07774		32.452966	-4.764393	-63.766605
07775		32.413609	-4.703472	-64.446352
07776		32.421604	-4.648435	-65.130570
07777		32.493934	-4.606369	-65.822508
07778		32.606813	-4.563112	-66.515717
07779		32.747236	-4.525351	-67.218931
07780		32.913733	-4.491604	-67.920213
07781		33.077399	-4.446868	-68.610631
07782		33.168487	-4.382645	-69.289935
07783		33.191550	-4.306373	-69.954691
07784		33.158312	-4.213794	-70.596733
07785		33.112994	-4.119324	-71.225103
07786		33.046795	-4.021465	-71.842704
07787		33.038732	-3.942137	-72.465169
07788		33.112159	-3.882411	-73.082263
07789		33.272323	-3.836138	-73.697117
07790		33.491486	-3.799533	-74.315950
07791		33.741220	-3.767850	-74.926031
07792		33.957746	-3.720519	-75.516151
07793		34.105063	-3.658980	-76.090936
07794		34.169741	-3.584157	-76.646859
07795		34.180146	-3.511516	-77.180127
07796		34.172699	-3.438274	-77.699382
07797		34.189070	-3.369057	-78.203683
07798		34.264332	-3.321089	-78.708915
07799		34.363059	-3.286816	-79.203090
07800		34.485839	-3.248758	-79.681027
07801		34.627221	-3.205225	-80.157852
07802		34.770742	-3.176040	-80.640393
07803		34.907997	-3.154371	-81.108857
07804		35.046246	-3.127974	-81.561200
07805		35.184468	-3.087832	-82.000589
07806		35.304250	-3.047729	-82.434258
07807		35.369392	-3.006567	-82.858664
07808		35.427967	-2.968510	-83.275257
07809		35.551694	-2.929202	-83.688970
07810		35.705953	-2.889057	-84.105253
07811		35.874115	-2.855327	-84.525815
07812		36.051448	-2.825518	-84.940197
07813		36.214765	-2.769865	-85.332929
07814		36.304637	-2.697047	-85.720320
07815		36.315921	-2.624627	-86.103956
07816		36.287874	-2.552361	-86.473046
07817		36.275953	-2.479085	-86.837766
07818		36.300141	-2.416987	-87.202481
07819		36.367510	-2.365173	-87.568978
07820		36.483981	-2.320975	-87.921369
07821		36.674321	-2.274520	-88.258381
07822		36.881520	-2.223873	-88.585817
07823		37.036053	-2.161315	-88.901496
07824		37.114512	-2.080082	-89.198140
07825		37.182143	-1.994930	-89.482754
07826		37.250514	-1.915246	-89.763597
07827		37.313668	-1.840663	-90.036025
07828		37.371775	-1.771598	-90.301762
07829		37.477505	-1.714813	-90.556941
07830		37.629640	-1.656702	-90.803104
07831		37.806830	-1.607960	-91.045084
07832		37.977279	-1.560929	-91.272755
07833		38.134600	-1.506986	-91.482859
07834		38.279995	-1.435008	-91.670729
07835		38.383418	-1.343469	-91.838400
07836		38.400669	-1.244815	-92.001063
07837		38.341552	-1.139954	-92.150326
07838		38.253218	-1.035316	-92.287283
07839		38.223921	-0.947370	-92.422941
07840		38.302396	-0.889756	-92.561700
