// General information: 
//  MT Manager version: 2022.2.0 
//  XDA version: 2022.2.0 build 7381 rev 124627 built on 2023-07-19
// Device information: 
//  DeviceId: 00B447F1
//  ProductCode: MTW2-3A7G6
//  Firmware Version: 4.3.5
//  Hardware Version: 2.0.0
// Device settings: 
//  Filter Profile: human(46.1)
//  Option Flags: Orientation Smoother Disabled, Position/Velocity Smoother Disabled, Continuous Zero Rotation Update Disabled, AHS Disabled, ICC Disabled
// Coordinate system: ENU
PacketCounter	SampleTimeFine	Roll	Pitch	Yaw
04661		15.732150	2.773549	-12.618539
04662		15.702405	2.778757	-12.538048
04663		15.702796	2.771799	-12.460446
04664		15.733547	2.764611	-12.387143
04665		15.779596	2.751929	-12.319053
04666		15.830128	2.752714	-12.256342
04667		15.869593	2.750420	-12.197403
04668		15.895831	2.760660	-12.143334
04669		15.903905	2.764556	-12.091879
04670		15.897087	2.776341	-12.045264
04671		15.866608	2.783353	-12.000135
04672		15.827845	2.803636	-11.961190
04673		15.783577	2.817880	-11.928662
04674		15.744432	2.836849	-11.898697
04675		15.704519	2.844961	-11.870583
04676		15.672322	2.858169	-11.843649
04677		15.645065	2.859544	-11.815944
04678		15.628068	2.863936	-11.795448
04679		15.610391	2.859059	-11.780750
04680		15.598212	2.862832	-11.772073
04681		15.582940	2.864485	-11.759288
04682		15.572717	2.880427	-11.745127
04683		15.557194	2.886622	-11.731666
04684		15.539838	2.899467	-11.726049
04685		15.516297	2.904849	-11.719474
04686		15.487898	2.911290	-11.715096
04687		15.446081	2.906454	-11.713366
04688		15.403285	2.911793	-11.711396
04689		15.359977	2.910449	-11.713141
04690		15.325033	2.912963	-11.721394
04691		15.286399	2.905633	-11.729207
04692		15.254914	2.908071	-11.742312
04693		15.233681	2.903840	-11.752156
04694		15.221343	2.904323	-11.761404
04695		15.210206	2.892189	-11.768857
04696		15.203113	2.879587	-11.774015
04697		15.202106	2.860252	-11.783513
04698		15.209936	2.856487	-11.797197
04699		15.217968	2.843780	-11.819570
04700		15.216834	2.839865	-11.844247
04701		15.197323	2.835119	-11.863709
04702		15.158713	2.838907	-11.881613
04703		15.099887	2.833057	-11.897348
04704		15.037469	2.837093	-11.914508
04705		14.980215	2.829136	-11.935596
04706		14.938961	2.826402	-11.960086
04707		14.911746	2.821742	-11.987051
04708		14.898960	2.823738	-12.017528
04709		14.884631	2.816190	-12.052381
04710		14.861829	2.810816	-12.090403
04711		14.832967	2.797359	-12.131030
04712		14.800307	2.789104	-12.172215
04713		14.758055	2.777855	-12.212445
04714		14.720112	2.772497	-12.257573
04715		14.679997	2.757023	-12.307880
04716		14.652758	2.745512	-12.366862
04717		14.640840	2.726253	-12.429258
04718		14.649417	2.708381	-12.499128
04719		14.662062	2.675502	-12.572548
04720		14.670531	2.649353	-12.644619
04721		14.666931	2.613305	-12.716545
04722		14.651703	2.589874	-12.790785
04723		14.624820	2.561496	-12.867709
04724		14.592007	2.537113	-12.951723
04725		14.552838	2.500266	-13.037772
04726		14.520418	2.468415	-13.123988
04727		14.494936	2.424725	-13.210157
04728		14.476648	2.394076	-13.297285
04729		14.464784	2.361836	-13.382563
04730		14.463473	2.332934	-13.476050
04731		14.458557	2.287403	-13.574331
04732		14.454389	2.247744	-13.679687
04733		14.449792	2.204310	-13.791205
04734		14.448948	2.168799	-13.904900
04735		14.434805	2.125401	-14.022553
04736		14.408868	2.084355	-14.142225
04737		14.377624	2.039653	-14.265422
04738		14.340995	2.005313	-14.388985
04739		14.306538	1.964560	-14.524156
04740		14.281676	1.931512	-14.669892
04741		14.258921	1.888750	-14.827771
04742		14.243669	1.854801	-14.998001
04743		14.229095	1.808769	-15.179725
04744		14.205083	1.772696	-15.370624
04745		14.179082	1.726840	-15.570665
04746		14.150896	1.682118	-15.782938
04747		14.119345	1.626457	-16.004985
04748		14.085470	1.580496	-16.242107
04749		14.050983	1.526572	-16.490900
04750		14.016023	1.483264	-16.753304
04751		13.974251	1.437897	-17.029724
04752		13.921651	1.396748	-17.318896
04753		13.858186	1.339634	-17.616996
04754		13.782197	1.284631	-17.928632
04755		13.700633	1.215718	-18.251033
04756		13.621967	1.144906	-18.584714
04757		13.554781	1.067960	-18.931849
04758		13.503411	0.998203	-19.285394
04759		13.462487	0.913213	-19.652693
04760		13.433980	0.831801	-20.037706
04761		13.420055	0.736859	-20.432785
04762		13.402525	0.647495	-20.838873
04763		13.380925	0.548483	-21.260144
04764		13.345401	0.452062	-21.696683
04765		13.285047	0.341844	-22.147078
04766		13.202167	0.235879	-22.610942
04767		13.097910	0.123025	-23.086277
04768		12.980300	0.016290	-23.574762
04769		12.857394	-0.098939	-24.077964
04770		12.725850	-0.202360	-24.600315
04771		12.588433	-0.312396	-25.147242
04772		12.433808	-0.410203	-25.724563
04773		12.254060	-0.509058	-26.329325
04774		12.028655	-0.597402	-26.947418
04775		11.750441	-0.687725	-27.571348
04776		11.420266	-0.753712	-28.191726
04777		11.058308	-0.819798	-28.812989
04778		10.683297	-0.882079	-29.439634
04779		10.325539	-0.954805	-30.078606
04780		10.011101	-1.019274	-30.731168
04781		9.770173	-1.087752	-31.403756
04782		9.608296	-1.141658	-32.096287
04783		9.533320	-1.202550	-32.803949
04784		9.519634	-1.258279	-33.518149
04785		9.548055	-1.316991	-34.241415
04786		9.601153	-1.363445	-34.960975
04787		9.666308	-1.414670	-35.695130
04788		9.718697	-1.451515	-36.432637
04789		9.765539	-1.481859	-37.180336
04790		9.788661	-1.504198	-37.930999
04791		9.793088	-1.535776	-38.688582
04792		9.779553	-1.558930	-39.441210
04793		9.763277	-1.599127	-40.195534
04794		9.744211	-1.647034	-40.942092
04795		9.756720	-1.702202	-41.689464
04796		9.812844	-1.743997	-42.447982
04797		9.936463	-1.793381	-43.217618
04798		10.103739	-1.837720	-44.001207
04799		10.312350	-1.890848	-44.793741
04800		10.539720	-1.938078	-45.590964
04801		10.791607	-1.991648	-46.400857
04802		11.045487	-2.032341	-47.220572
04803		11.300911	-2.071966	-48.066790
04804		11.553312	-2.101502	-48.933258
04805		11.823842	-2.132120	-49.838558
04806		12.112154	-2.158995	-50.781385
04807		12.451044	-2.211903	-51.734596
04808		12.820170	-2.273586	-52.681669
04809		13.190100	-2.353270	-53.601510
04810		13.520518	-2.424757	-54.503477
04811		13.813616	-2.487234	-55.412271
04812		14.093969	-2.532468	-56.338622
04813		14.403236	-2.597385	-57.282693
04814		14.744049	-2.689017	-58.222856
04815		15.112905	-2.802567	-59.143565
04816		15.485283	-2.888673	-60.042159
04817		15.866979	-2.942065	-60.929844
04818		16.233599	-2.970917	-61.821073
04819		16.580020	-3.009298	-62.717619
04820		16.882189	-3.057886	-63.619752
04821		17.153338	-3.112028	-64.518282
04822		17.368751	-3.155403	-65.406198
04823		17.547494	-3.202954	-66.271313
04824		17.656784	-3.235482	-67.116107
04825		17.705208	-3.257871	-67.941082
04826		17.711335	-3.267065	-68.748900
04827		17.698932	-3.271714	-69.550424
04828		17.689799	-3.274458	-70.351932
04829		17.693693	-3.301323	-71.149357
04830		17.666912	-3.325864	-71.940014
04831		17.621234	-3.347644	-72.711644
04832		17.548067	-3.347120	-73.462971
04833		17.463280	-3.339904	-74.197927
04834		17.380097	-3.329687	-74.929697
04835		17.317726	-3.324324	-75.663725
04836		17.278863	-3.311919	-76.397750
04837		17.274654	-3.310783	-77.122323
04838		17.273158	-3.309447	-77.835724
04839		17.269157	-3.307731	-78.535647
04840		17.257257	-3.295679	-79.220770
04841		17.250100	-3.287774	-79.900291
04842		17.240272	-3.281024	-80.572146
04843		17.262491	-3.276992	-81.239883
04844		17.302045	-3.268745	-81.899651
04845		17.367814	-3.264058	-82.555170
04846		17.445857	-3.248146	-83.199799
04847		17.539639	-3.230600	-83.831935
04848		17.633299	-3.211239	-84.455213
04849		17.748672	-3.201617	-85.064307
04850		17.856155	-3.194044	-85.658968
04851		17.981135	-3.188081	-86.230329
04852		18.098906	-3.173596	-86.782014
04853		18.218879	-3.159081	-87.318092
04854		18.325651	-3.143877	-87.843801
04855		18.414892	-3.138587	-88.353358
04856		18.460509	-3.117414	-88.846290
04857		18.490253	-3.084652	-89.325220
04858		18.517014	-3.042856	-89.792408
04859		18.564377	-3.010689	-90.255483
04860		18.641225	-2.993800	-90.719477
04861		18.767167	-2.993149	-91.176141
04862		18.926574	-2.987274	-91.618290
04863		19.124209	-2.980351	-92.040715
04864		19.335694	-2.958308	-92.446987
04865		19.556202	-2.936674	-92.842388
04866		19.769218	-2.925408	-93.240642
04867		19.987395	-2.928022	-93.641525
04868		20.200077	-2.927050	-94.038460
04869		20.408387	-2.916003	-94.428717
04870		20.602684	-2.891795	-94.810058
04871		20.795815	-2.871108	-95.186476
04872		20.975942	-2.852931	-95.557877
04873		21.161615	-2.845936	-95.920450
04874		21.335234	-2.829742	-96.274011
04875		21.514256	-2.809135	-96.618832
04876		21.689017	-2.786803	-96.963183
04877		21.869514	-2.771735	-97.308413
04878		22.035175	-2.755377	-97.654715
04879		22.191566	-2.745488	-98.000778
04880		22.319783	-2.733074	-98.341672
04881		22.438381	-2.711761	-98.670527
04882		22.547820	-2.686832	-99.000059
04883		22.667574	-2.670864	-99.329873
04884		22.805633	-2.658462	-99.666915
04885		22.972510	-2.648963	-100.009845
04886		23.148341	-2.639476	-100.357664
04887		23.331085	-2.633034	-100.706000
04888		23.497673	-2.618811	-101.054637
04889		23.660160	-2.615447	-101.403817
04890		23.803450	-2.609192	-101.754195
04891		23.942340	-2.601054	-102.107503
04892		24.078672	-2.585034	-102.466893
04893		24.237878	-2.568732	-102.829046
04894		24.402463	-2.561827	-103.188809
04895		24.563899	-2.561946	-103.546176
04896		24.703507	-2.549892	-103.898711
04897		24.835044	-2.531777	-104.248381
04898		24.936482	-2.518611	-104.601152
04899		25.026769	-2.522052	-104.954483
04900		25.096966	-2.525164	-105.307087
04901		25.174809	-2.516187	-105.655117
04902		25.255486	-2.497379	-105.995682
04903		25.357334	-2.483974	-106.337116
04904		25.468077	-2.478652	-106.685388
04905		25.600896	-2.475731	-107.035896
04906		25.743805	-2.473718	-107.395034
04907		25.910574	-2.473992	-107.760621
04908		26.087505	-2.464359	-108.134815
04909		26.288713	-2.447819	-108.522657
04910		26.485245	-2.421645	-108.930469
04911		26.684586	-2.394233	-109.364650
04912		26.857275	-2.361053	-109.813541
04913		26.987032	-2.331012	-110.274345
04914		27.044243	-2.292019	-110.734421
04915		27.061406	-2.246261	-111.188858
04916		27.027189	-2.185298	-111.626662
04917		26.973558	-2.119862	-112.046479
04918		26.909059	-2.061774	-112.454920
04919		26.870339	-2.020850	-112.865391
04920		26.850560	-1.994711	-113.282570
04921		26.865183	-1.971877	-113.703151
04922		26.915078	-1.941693	-114.121291
04923		27.012072	-1.906534	-114.539765
04924		27.147997	-1.866919	-114.951406
04925		27.338262	-1.822098	-115.349549
04926		27.564577	-1.774009	-115.729467
04927		27.833076	-1.730089	-116.090907
04928		28.111386	-1.689294	-116.440986
04929		28.389015	-1.651338	-116.778771
04930		28.636534	-1.617959	-117.101576
04931		28.855149	-1.588771	-117.403484
04932		29.028503	-1.558151	-117.682704
04933		29.177410	-1.531963	-117.937814
04934		29.301157	-1.513743	-118.172908
04935		29.418863	-1.502594	-118.388427
04936		29.517129	-1.491737	-118.579514
04937		29.617053	-1.477618	-118.754014
04938		29.709965	-1.466185	-118.908132
04939		29.801682	-1.459980	-119.041541
04940		29.872277	-1.453623	-119.150685
04941		29.936035	-1.452904	-119.239802
04942		29.972455	-1.456250	-119.313193
04943		29.996118	-1.452187	-119.360624
04944		30.004105	-1.442592	-119.387986
04945		30.023267	-1.429826	-119.399410
04946		30.042040	-1.419000	-119.390105
04947		30.080461	-1.408240	-119.369435
04948		30.119015	-1.398272	-119.331720
04949		30.166095	-1.387352	-119.279102
04950		30.202074	-1.374429	-119.211987
04951		30.234101	-1.361695	-119.130420
04952		30.249256	-1.348088	-119.041477
04953		30.272611	-1.335578	-118.944642
04954		30.292575	-1.324069	-118.847739
04955		30.320352	-1.315651	-118.752683
04956		30.342383	-1.311625	-118.656408
04957		30.376231	-1.307509	-118.552044
04958		30.399471	-1.305688	-118.444631
04959		30.416986	-1.307249	-118.333129
04960		30.416272	-1.306049	-118.223042
04961		30.416928	-1.302248	-118.112021
04962		30.401832	-1.295918	-117.998739
04963		30.387876	-1.289978	-117.880546
04964		30.360276	-1.279944	-117.756614
04965		30.335530	-1.272735	-117.629553
04966		30.303914	-1.267277	-117.502651
04967		30.269301	-1.267106	-117.377525
04968		30.217331	-1.262856	-117.249130
04969		30.161870	-1.257145	-117.117213
04970		30.094138	-1.256423	-116.989605
04971		30.019274	-1.261998	-116.865366
04972		29.939652	-1.263348	-116.735302
04973		29.869557	-1.264163	-116.599650
04974		29.804772	-1.268658	-116.456988
04975		29.763064	-1.279339	-116.310044
04976		29.726939	-1.287774	-116.159868
04977		29.714960	-1.298275	-115.997259
04978		29.705269	-1.311940	-115.827090
04979		29.699102	-1.337262	-115.656265
04980		29.687958	-1.362585	-115.480587
04981		29.686933	-1.384951	-115.302325
04982		29.678242	-1.409729	-115.120706
04983		29.668792	-1.435730	-114.931914
04984		29.648944	-1.460392	-114.734580
04985		29.629356	-1.492064	-114.529577
04986		29.605599	-1.525471	-114.319710
04987		29.591795	-1.565333	-114.100428
04988		29.578999	-1.606497	-113.874107
04989		29.581440	-1.655133	-113.639373
04990		29.589924	-1.712164	-113.402195
04991		29.611176	-1.777812	-113.157098
04992		29.638868	-1.842087	-112.904194
04993		29.683388	-1.915829	-112.646959
04994		29.739608	-1.995507	-112.386575
04995		29.809008	-2.079249	-112.118619
04996		29.876713	-2.168634	-111.840843
04997		29.949093	-2.271259	-111.552010
04998		30.012962	-2.376087	-111.249613
04999		30.075674	-2.486439	-110.931447
05000		30.124769	-2.594631	-110.594154
05001		30.173906	-2.702626	-110.239722
05002		30.200901	-2.801535	-109.868315
05003		30.208132	-2.873387	-109.465526
05004		30.178622	-2.940888	-109.039958
05005		30.126711	-3.004799	-108.602987
05006		30.031934	-3.055068	-108.156052
05007		29.896195	-3.091825	-107.683790
05008		29.700159	-3.117484	-107.181283
05009		29.458696	-3.153543	-106.659875
05010		29.169282	-3.195257	-106.130068
05011		28.846022	-3.253174	-105.599635
05012		28.501491	-3.319714	-105.070169
05013		28.167667	-3.398643	-104.542285
05014		27.836993	-3.483647	-104.006376
05015		27.518432	-3.579525	-103.458886
05016		27.214067	-3.669567	-102.894098
05017		26.944740	-3.756604	-102.317651
05018		26.694280	-3.846827	-101.738099
05019		26.478113	-3.941324	-101.151615
05020		26.273755	-4.024081	-100.552730
05021		26.067712	-4.107349	-99.948630
05022		25.846407	-4.177078	-99.331624
05023		25.617747	-4.236204	-98.697448
05024		25.390867	-4.282144	-98.051445
05025		25.174289	-4.332827	-97.409464
05026		24.966803	-4.381270	-96.765839
05027		24.770781	-4.426731	-96.113999
05028		24.556549	-4.462165	-95.451146
05029		24.329255	-4.494281	-94.777627
05030		24.090541	-4.508831	-94.091167
05031		23.865361	-4.513634	-93.398770
05032		23.652957	-4.510340	-92.707057
05033		23.463225	-4.509385	-92.029041
05034		23.275889	-4.493446	-91.359502
05035		23.088264	-4.459512	-90.691502
05036		22.882280	-4.402963	-90.019730
05037		22.678325	-4.327942	-89.343565
05038		22.488451	-4.243112	-88.674110
05039		22.335286	-4.176395	-88.016344
05040		22.232573	-4.125172	-87.373159
05041		22.195140	-4.097122	-86.742565
05042		22.212279	-4.077177	-86.117365
05043		22.276469	-4.059535	-85.495173
05044		22.358604	-4.049012	-84.872193
05045		22.465356	-4.058173	-84.250410
05046		22.577791	-4.076649	-83.628199
05047		22.686716	-4.101169	-83.003885
05048		22.767509	-4.115492	-82.370269
05049		22.820240	-4.127086	-81.734195
05050		22.834789	-4.135469	-81.097414
05051		22.826362	-4.158310	-80.464282
05052		22.808590	-4.185837	-79.828978
05053		22.780669	-4.229348	-79.193058
05054		22.739081	-4.266471	-78.549971
05055		22.705107	-4.295785	-77.899159
05056		22.671359	-4.329583	-77.251839
05057		22.660398	-4.377768	-76.607497
05058		22.670784	-4.419789	-75.949535
05059		22.710125	-4.454788	-75.278580
05060		22.770360	-4.479284	-74.589179
05061		22.845230	-4.511058	-73.894268
05062		22.930220	-4.544397	-73.198758
05063		23.019121	-4.582419	-72.505400
05064		23.086079	-4.602483	-71.801261
05065		23.131079	-4.608953	-71.084330
05066		23.137969	-4.603977	-70.351658
05067		23.114115	-4.598465	-69.604043
05068		23.046927	-4.569028	-68.846302
05069		22.941651	-4.526423	-68.094659
05070		22.779483	-4.470105	-67.346961
05071		22.567076	-4.409977	-66.596369
05072		22.313962	-4.341795	-65.841199
05073		22.057282	-4.279488	-65.081119
05074		21.843397	-4.203028	-64.309675
05075		21.696599	-4.124323	-63.532868
05076		21.628301	-4.050905	-62.764258
05077		21.648668	-3.978382	-62.000423
05078		21.747976	-3.890806	-61.248217
05079		21.888677	-3.824588	-60.517312
05080		22.032762	-3.765600	-59.803267
05081		22.156349	-3.705460	-59.086202
05082		22.223348	-3.638959	-58.361275
05083		22.238702	-3.578918	-57.635215
05084		22.239027	-3.509194	-56.905622
05085		22.240847	-3.445377	-56.184976
05086		22.249182	-3.383704	-55.477488
05087		22.276474	-3.341928	-54.785541
05088		22.339674	-3.311883	-54.106263
05089		22.450681	-3.305959	-53.433916
05090		22.594479	-3.304133	-52.767942
05091		22.764493	-3.304627	-52.106283
05092		22.957996	-3.298123	-51.447609
05093		23.176019	-3.294154	-50.794101
05094		23.416082	-3.284709	-50.151579
05095		23.684708	-3.296114	-49.524995
05096		23.970947	-3.326507	-48.909151
05097		24.248634	-3.369017	-48.298090
05098		24.500915	-3.406478	-47.680834
05099		24.702810	-3.445358	-47.065288
05100		24.848315	-3.482326	-46.456817
05101		24.910060	-3.527271	-45.854326
05102		24.884527	-3.555917	-45.249744
05103		24.798292	-3.580768	-44.646405
05104		24.692373	-3.590524	-44.048044
05105		24.602082	-3.616833	-43.460673
05106		24.541889	-3.650432	-42.887293
05107		24.508853	-3.692439	-42.325809
05108		24.501732	-3.727852	-41.769715
05109		24.510841	-3.768219	-41.218155
05110		24.524275	-3.812684	-40.670699
05111		24.533260	-3.863189	-40.126638
05112		24.540467	-3.910905	-39.582728
05113		24.542242	-3.952453	-39.041384
05114		24.551506	-3.979553	-38.510287
05115		24.560158	-4.011375	-37.993691
05116		24.564772	-4.037987	-37.481560
05117		24.557918	-4.069367	-36.970595
05118		24.532181	-4.087662	-36.455842
05119		24.484173	-4.107436	-35.939261
05120		24.405128	-4.118658	-35.426968
05121		24.298267	-4.133883	-34.921389
05122		24.176167	-4.146148	-34.424101
05123		24.037485	-4.164057	-33.939582
05124		23.900946	-4.176361	-33.464306
05125		23.782499	-4.187365	-33.001492
05126		23.686705	-4.183664	-32.548398
05127		23.613317	-4.188102	-32.105736
05128		23.561694	-4.194946	-31.668174
05129		23.514263	-4.217541	-31.231164
05130		23.471797	-4.235848	-30.790860
05131		23.440507	-4.244672	-30.352231
05132		23.422981	-4.234597	-29.926266
05133		23.410674	-4.236265	-29.518079
05134		23.403662	-4.244550	-29.122509
05135		23.394752	-4.246821	-28.733638
05136		23.381161	-4.237736	-28.344961
05137		23.342219	-4.236025	-27.952232
05138		23.279966	-4.227499	-27.556961
05139		23.216829	-4.217048	-27.164775
05140		23.163969	-4.205631	-26.775742
05141		23.118483	-4.197851	-26.391590
05142		23.090506	-4.183614	-26.012502
05143		23.077175	-4.173297	-25.635906
05144		23.066902	-4.161989	-25.258042
05145		23.051733	-4.161149	-24.877826
05146		23.034481	-4.151961	-24.502896
05147		23.012071	-4.142407	-24.129383
05148		22.977755	-4.125863	-23.755982
05149		22.920712	-4.108756	-23.379919
05150		22.842741	-4.073508	-22.995599
05151		22.743173	-4.035349	-22.605223
05152		22.626751	-3.996262	-22.213108
05153		22.487459	-3.966715	-21.825800
05154		22.324072	-3.933159	-21.439396
05155		22.136090	-3.899305	-21.051196
05156		21.932896	-3.848822	-20.669553
05157		21.734803	-3.803671	-20.295592
05158		21.561251	-3.761251	-19.929399
05159		21.417008	-3.725315	-19.570743
05160		21.311584	-3.682686	-19.214564
05161		21.241765	-3.650417	-18.860635
05162		21.185397	-3.619267	-18.508525
05163		21.137530	-3.597000	-18.158116
05164		21.104009	-3.579311	-17.811854
05165		21.083061	-3.568835	-17.472464
05166		21.072791	-3.553967	-17.140574
05167		21.059326	-3.546181	-16.821519
05168		21.051646	-3.529527	-16.513689
05169		21.036987	-3.516419	-16.212240
05170		21.017081	-3.492975	-15.916655
05171		20.978927	-3.470370	-15.623705
05172		20.936574	-3.439729	-15.338816
05173		20.890761	-3.412975	-15.063403
05174		20.835691	-3.385628	-14.802446
05175		20.775472	-3.360998	-14.551112
05176		20.720386	-3.335337	-14.304564
05177		20.676882	-3.310616	-14.065490
05178		20.660413	-3.282934	-13.836256
05179		20.657516	-3.265605	-13.615921
05180		20.661226	-3.244508	-13.402225
05181		20.654641	-3.222384	-13.189099
05182		20.633766	-3.183563	-12.973411
05183		20.594129	-3.149567	-12.756780
05184		20.546423	-3.114560	-12.540388
05185		20.494442	-3.086935	-12.328826
05186		20.448718	-3.046692	-12.126864
05187		20.405853	-3.001176	-11.932973
05188		20.363362	-2.954563	-11.747711
05189		20.308145	-2.906180	-11.568230
05190		20.241455	-2.843438	-11.387267
05191		20.143588	-2.784483	-11.202535
05192		20.005880	-2.723897	-11.015135
05193		19.833289	-2.670461	-10.829370
05194		19.660863	-2.614641	-10.653076
05195		19.512567	-2.568136	-10.491408
05196		19.409494	-2.522183	-10.336881
05197		19.360128	-2.480289	-10.184307
05198		19.345324	-2.437385	-10.036087
05199		19.352271	-2.401695	-9.894969
05200		19.379571	-2.361958	-9.763698
05201		19.405405	-2.333712	-9.643694
05202		19.419582	-2.305932	-9.532526
05203		19.422831	-2.290862	-9.424862
05204		19.418685	-2.273624	-9.317908
05205		19.398172	-2.249912	-9.210448
05206		19.375249	-2.220507	-9.107610
05207		19.342436	-2.203708	-9.012705
05208		19.302012	-2.185508	-8.930019
05209		19.254979	-2.174810	-8.855391
05210		19.204105	-2.160507	-8.793513
05211		19.153741	-2.155714	-8.743056
05212		19.107645	-2.152355	-8.697919
05213		19.068371	-2.155684	-8.655636
05214		19.047467	-2.155800	-8.617166
05215		19.037323	-2.167298	-8.586230
05216		19.039017	-2.185572	-8.565254
05217		19.039776	-2.214765	-8.550763
05218		19.043652	-2.236280	-8.544883
05219		19.040437	-2.266336	-8.542614
05220		19.019002	-2.286887	-8.545189
05221		18.986468	-2.306222	-8.549665
05222		18.943051	-2.321696	-8.558280
05223		18.891941	-2.347832	-8.572008
05224		18.844383	-2.364024	-8.593761
05225		18.804354	-2.388827	-8.627816
05226		18.776017	-2.406545	-8.673028
05227		18.756152	-2.432697	-8.729515
05228		18.729823	-2.449573	-8.791679
05229		18.693768	-2.461016	-8.856658
05230		18.651639	-2.461846	-8.927137
05231		18.594722	-2.471413	-9.007690
05232		18.529630	-2.478172	-9.097310
05233		18.465354	-2.486190	-9.196825
05234		18.387586	-2.491607	-9.309513
05235		18.289375	-2.497169	-9.434822
05236		18.175362	-2.495175	-9.570965
05237		18.042278	-2.499947	-9.718767
05238		17.888824	-2.508238	-9.873931
05239		17.710821	-2.528912	-10.032620
05240		17.507629	-2.537444	-10.197736
05241		17.288309	-2.543349	-10.369298
05242		17.059810	-2.534531	-10.553373
05243		16.844961	-2.521724	-10.752679
05244		16.663607	-2.497241	-10.965612
05245		16.533281	-2.474905	-11.189244
05246		16.443274	-2.455182	-11.420114
05247		16.376228	-2.451331	-11.656367
05248		16.339402	-2.450736	-11.899353
05249		16.337325	-2.454088	-12.147011
05250		16.369263	-2.453731	-12.402574
05251		16.430717	-2.456975	-12.666416
05252		16.523522	-2.449529	-12.941999
05253		16.640015	-2.439100	-13.231823
05254		16.754251	-2.424066	-13.536361
05255		16.848670	-2.416371	-13.847137
05256		16.906367	-2.405516	-14.163621
05257		16.920541	-2.401670	-14.477931
05258		16.889284	-2.387928	-14.799975
05259		16.831584	-2.374380	-15.133626
05260		16.766347	-2.357854	-15.487001
05261		16.705466	-2.358512	-15.858460
05262		16.645500	-2.357800	-16.251943
05263		16.590488	-2.359092	-16.664140
05264		16.533764	-2.359484	-17.098029
05265		16.472525	-2.366399	-17.543400
05266		16.402351	-2.361986	-18.000432
05267		16.328088	-2.357084	-18.463477
05268		16.242794	-2.347309	-18.930967
05269		16.142203	-2.348291	-19.397435
05270		16.024884	-2.358223	-19.870174
05271		15.907885	-2.379060	-20.348640
05272		15.809486	-2.398036	-20.837658
05273		15.752569	-2.415829	-21.338327
05274		15.737117	-2.428553	-21.848966
05275		15.768049	-2.457647	-22.361811
05276		15.828303	-2.492749	-22.880184
05277		15.908106	-2.529266	-23.401185
05278		15.991249	-2.562333	-23.925842
05279		16.068055	-2.599448	-24.445298
05280		16.122622	-2.633188	-24.966209
05281		16.163338	-2.668219	-25.491078
05282		16.183666	-2.706189	-26.020438
05283		16.191387	-2.754670	-26.554769
05284		16.190092	-2.798962	-27.094507
05285		16.192693	-2.848099	-27.639453
05286		16.198855	-2.891278	-28.189231
05287		16.222484	-2.934378	-28.737588
05288		16.257058	-2.970894	-29.291713
05289		16.314987	-3.013491	-29.855142
05290		16.382379	-3.051257	-30.427477
05291		16.461189	-3.100299	-31.005691
05292		16.541360	-3.148963	-31.585544
05293		16.624584	-3.205714	-32.161028
05294		16.699877	-3.254276	-32.736183
05295		16.777663	-3.303009	-33.309304
05296		16.849800	-3.344818	-33.889025
05297		16.925221	-3.385630	-34.480384
05298		17.005334	-3.428337	-35.083124
05299		17.100033	-3.481330	-35.690758
05300		17.204091	-3.536267	-36.295194
05301		17.313555	-3.588610	-36.901711
05302		17.426209	-3.628092	-37.519300
05303		17.541442	-3.664675	-38.146010
05304		17.637132	-3.692257	-38.782214
05305		17.722899	-3.728435	-39.428395
05306		17.785080	-3.764553	-40.078896
05307		17.841791	-3.797547	-40.736269
05308		17.889664	-3.824694	-41.403243
05309		17.929241	-3.859041	-42.071812
05310		17.952730	-3.889030	-42.741519
05311		17.984071	-3.923790	-43.417776
05312		18.030877	-3.969581	-44.102633
05313		18.101645	-4.023027	-44.795371
05314		18.187921	-4.065677	-45.499859
05315		18.305278	-4.114397	-46.214080
05316		18.429116	-4.168561	-46.931202
05317		18.550636	-4.222481	-47.650157
05318		18.670039	-4.270691	-48.370052
05319		18.792087	-4.329500	-49.083080
05320		18.901456	-4.392773	-49.786940
05321		19.012298	-4.464393	-50.481848
05322		19.130565	-4.536133	-51.160860
05323		19.269591	-4.611677	-51.830860
05324		19.434666	-4.689169	-52.501167
05325		19.640813	-4.778923	-53.174335
05326		19.879470	-4.868621	-53.845877
05327		20.158606	-4.948026	-54.511862
05328		20.462519	-5.014561	-55.164358
05329		20.768442	-5.085136	-55.797180
05330		21.030011	-5.158011	-56.410884
05331		21.234532	-5.233172	-57.003607
05332		21.376360	-5.295146	-57.583609
05333		21.475270	-5.351198	-58.156145
05334		21.528283	-5.395872	-58.730173
05335		21.552295	-5.440083	-59.304382
05336		21.542694	-5.476673	-59.873870
05337		21.517613	-5.517340	-60.436308
05338		21.475067	-5.562557	-60.993979
05339		21.423347	-5.610389	-61.553323
05340		21.364503	-5.648823	-62.119463
05341		21.311826	-5.685311	-62.701391
05342		21.260940	-5.711891	-63.297535
05343		21.233689	-5.733562	-63.901695
05344		21.225629	-5.752866	-64.512052
05345		21.236689	-5.770886	-65.127736
05346		21.256253	-5.784980	-65.741899
05347		21.285069	-5.797507	-66.357813
05348		21.315810	-5.796427	-66.980566
05349		21.369724	-5.788395	-67.612103
05350		21.440273	-5.773654	-68.251255
05351		21.532487	-5.755566	-68.894489
05352		21.646150	-5.733274	-69.535089
05353		21.784519	-5.704724	-70.172681
05354		21.947052	-5.664325	-70.804139
05355		22.143517	-5.621706	-71.435352
05356		22.354602	-5.572736	-72.073269
05357		22.577169	-5.521343	-72.716108
05358		22.769637	-5.456586	-73.363293
05359		22.933323	-5.388864	-74.011391
05360		23.047897	-5.312210	-74.662109
05361		23.128121	-5.229112	-75.307297
05362		23.172494	-5.137218	-75.953884
05363		23.187718	-5.051224	-76.601232
05364		23.159772	-4.962910	-77.241215
05365		23.099054	-4.873823	-77.868897
05366		23.012309	-4.789995	-78.488163
05367		22.918607	-4.706912	-79.103093
05368		22.840167	-4.628371	-79.720658
05369		22.816452	-4.565089	-80.336236
05370		22.841477	-4.507576	-80.956033
05371		22.927500	-4.449000	-81.568079
05372		23.063425	-4.392081	-82.171003
05373		23.241898	-4.345234	-82.768305
05374		23.449947	-4.302442	-83.363435
05375		23.689403	-4.262798	-83.957433
05376		23.935579	-4.219767	-84.548878
05377		24.179953	-4.175164	-85.135386
05378		24.399473	-4.125568	-85.716287
05379		24.583305	-4.073446	-86.289553
05380		24.718121	-4.019398	-86.847654
05381		24.797379	-3.961942	-87.387666
05382		24.817299	-3.897048	-87.907314
05383		24.806853	-3.829320	-88.410916
05384		24.770940	-3.752893	-88.905392
05385		24.740054	-3.676623	-89.389510
05386		24.721351	-3.588053	-89.857362
05387		24.719674	-3.498964	-90.304097
05388		24.719573	-3.413369	-90.733734
05389		24.724251	-3.329202	-91.152132
05390		24.739461	-3.247839	-91.564996
05391		24.776752	-3.171543	-91.981505
05392		24.827088	-3.097086	-92.394474
05393		24.910870	-3.014373	-92.804967
05394		25.039796	-2.934146	-93.206017
05395		25.215096	-2.862623	-93.600910
05396		25.414616	-2.798217	-93.991443
05397		25.605467	-2.728348	-94.374917
05398		25.770377	-2.651961	-94.752901
05399		25.923461	-2.589046	-95.125360
05400		26.049849	-2.541127	-95.496169
05401		26.149101	-2.496340	-95.856564
05402		26.215299	-2.440872	-96.205450
05403		26.261004	-2.374257	-96.543772
05404		26.298162	-2.299828	-96.878479
05405		26.351649	-2.234676	-97.213297
05406		26.424459	-2.187288	-97.554267
05407		26.503052	-2.146495	-97.896548
05408		26.578119	-2.100647	-98.224754
05409		26.654269	-2.056199	-98.544676
05410		26.713354	-2.009909	-98.861298
05411		26.768246	-1.960277	-99.185047
05412		26.832524	-1.903201	-99.522105
05413		26.936074	-1.836979	-99.883290
05414		27.099948	-1.760623	-100.269603
05415		27.353691	-1.674686	-100.674367
05416		27.716459	-1.580434	-101.091858
05417		28.173603	-1.501862	-101.515797
05418		28.654313	-1.430095	-101.942135
05419		29.119866	-1.366656	-102.343908
05420		29.530500	-1.317723	-102.717192
05421		29.838346	-1.283437	-103.060565
05422		30.013270	-1.249963	-103.376316
05423		30.077339	-1.211621	-103.667774
05424		30.053870	-1.161402	-103.955108
05425		29.969792	-1.110000	-104.249178
05426		29.852543	-1.055332	-104.554854
05427		29.755841	-1.000518	-104.866635
05428		29.703665	-0.952921	-105.186749
05429		29.720677	-0.913700	-105.503542
05430		29.801500	-0.879847	-105.807396
05431		29.925455	-0.857358	-106.098500
05432		30.049271	-0.833280	-106.366037
05433		30.158840	-0.810328	-106.612150
05434		30.235794	-0.793897	-106.839362
05435		30.282220	-0.789123	-107.055682
05436		30.304562	-0.785332	-107.255309
05437		30.322958	-0.779862	-107.431765
05438		30.348797	-0.776845	-107.588801
05439		30.399387	-0.779272	-107.726968
05440		30.477242	-0.774836	-107.850938
05441		30.583795	-0.769631	-107.959437
05442		30.689273	-0.768292	-108.053859
05443		30.768790	-0.763541	-108.126238
05444		30.812669	-0.752318	-108.172265
05445		30.836528	-0.744226	-108.201417
05446		30.837320	-0.743125	-108.224099
05447		30.825237	-0.735798	-108.235563
05448		30.799172	-0.721969	-108.231144
05449		30.777683	-0.708462	-108.212611
05450		30.756958	-0.706321	-108.181387
05451		30.743290	-0.704802	-108.136235
05452		30.744953	-0.702851	-108.077956
05453		30.773528	-0.705394	-108.013334
05454		30.820964	-0.710756	-107.951916
05455		30.866114	-0.713165	-107.892298
05456		30.895220	-0.699848	-107.825920
05457		30.918069	-0.694993	-107.749204
05458		30.918383	-0.705210	-107.662747
05459		30.900233	-0.719049	-107.567694
05460		30.870072	-0.726539	-107.459804
05461		30.843611	-0.729249	-107.346749
05462		30.821762	-0.738066	-107.231354
05463		30.815165	-0.753023	-107.111054
05464		30.824474	-0.766383	-106.975964
05465		30.849173	-0.777342	-106.830069
05466		30.879774	-0.788725	-106.676282
05467		30.914263	-0.808948	-106.529923
05468		30.934520	-0.825202	-106.383671
05469		30.950229	-0.830472	-106.225814
05470		30.945956	-0.834471	-106.056291
05471		30.916038	-0.842191	-105.883391
05472		30.861944	-0.844755	-105.704359
05473		30.816915	-0.841692	-105.529232
05474		30.787475	-0.839365	-105.350894
05475		30.785279	-0.846052	-105.172586
05476		30.805687	-0.862489	-104.993715
05477		30.848404	-0.882219	-104.812655
05478		30.896411	-0.899523	-104.626076
05479		30.929133	-0.917181	-104.435004
05480		30.908753	-0.937709	-104.234466
05481		30.827206	-0.953134	-104.021844
05482		30.684484	-0.968326	-103.805649
05483		30.496950	-0.985331	-103.583855
05484		30.292639	-1.008182	-103.358214
05485		30.107374	-1.034405	-103.125868
05486		29.970015	-1.061641	-102.886028
05487		29.890038	-1.092199	-102.639434
05488		29.850087	-1.126085	-102.388361
05489		29.841387	-1.157790	-102.130090
05490		29.839292	-1.187478	-101.858204
05491		29.836186	-1.214652	-101.579218
05492		29.815239	-1.242741	-101.291189
05493		29.775179	-1.270673	-100.990660
05494		29.713608	-1.297132	-100.673983
05495		29.642770	-1.324680	-100.339964
05496		29.578109	-1.360873	-99.991014
05497		29.519831	-1.395423	-99.621776
05498		29.469830	-1.425670	-99.232945
05499		29.423921	-1.455646	-98.827951
05500		29.376976	-1.480984	-98.411376
05501		29.328498	-1.503153	-97.982393
05502		29.273088	-1.523721	-97.539912
05503		29.219111	-1.548726	-97.086705
05504		29.172161	-1.577815	-96.623245
05505		29.142385	-1.609157	-96.139980
05506		29.131646	-1.645678	-95.636459
05507		29.156550	-1.694158	-95.112436
05508		29.225819	-1.758698	-94.566594
05509		29.355989	-1.836128	-93.999801
05510		29.554848	-1.928868	-93.425203
05511		29.833352	-2.033486	-92.854626
05512		30.195169	-2.146278	-92.294937
05513		30.617209	-2.261881	-91.750098
05514		31.055715	-2.385408	-91.214961
05515		31.462715	-2.515348	-90.682208
05516		31.809043	-2.642834	-90.146245
05517		32.082079	-2.754923	-89.599950
05518		32.284683	-2.847022	-89.042406
05519		32.438875	-2.932354	-88.467397
05520		32.545158	-3.027154	-87.881669
05521		32.608824	-3.135306	-87.287978
05522		32.641927	-3.238093	-86.686528
05523		32.672504	-3.335927	-86.082210
05524		32.702227	-3.429837	-85.483634
05525		32.720814	-3.515409	-84.891468
05526		32.712015	-3.595820	-84.302132
05527		32.655654	-3.673929	-83.711237
05528		32.536542	-3.752730	-83.106634
05529		32.350835	-3.831234	-82.481472
05530		32.127505	-3.902039	-81.841713
05531		31.900167	-3.982683	-81.193265
05532		31.697834	-4.064464	-80.546013
05533		31.552682	-4.150347	-79.903403
05534		31.475817	-4.237707	-79.272273
05535		31.455675	-4.326139	-78.645639
05536		31.472638	-4.419170	-78.017902
05537		31.488023	-4.513488	-77.380607
05538		31.481670	-4.597414	-76.722506
05539		31.461749	-4.680276	-76.043900
05540		31.417934	-4.758458	-75.353398
05541		31.391031	-4.830427	-74.653949
05542		31.424170	-4.904158	-73.956704
05543		31.534456	-4.980378	-73.268744
05544		31.719935	-5.049316	-72.579398
05545		31.974355	-5.108771	-71.890468
05546		32.279160	-5.153699	-71.200450
05547		32.601777	-5.191562	-70.503941
05548		32.901805	-5.228462	-69.801406
05549		33.139810	-5.264767	-69.086435
05550		33.283389	-5.299344	-68.355299
05551		33.337967	-5.336151	-67.601307
05552		33.308810	-5.368273	-66.825188
05553		33.190039	-5.390663	-66.028760
05554		33.008779	-5.399752	-65.213163
05555		32.808884	-5.408310	-64.388434
05556		32.615922	-5.417741	-63.558959
05557		32.443972	-5.433534	-62.727321
05558		32.329791	-5.448698	-61.896554
05559		32.267039	-5.473388	-61.074267
05560		32.246141	-5.498956	-60.249528
05561		32.249562	-5.522731	-59.415259
05562		32.257286	-5.544071	-58.569377
05563		32.257394	-5.562774	-57.715032
05564		32.249464	-5.578141	-56.865018
05565		32.217102	-5.599644	-56.035539
05566		32.166299	-5.607893	-55.220433
05567		32.098854	-5.607262	-54.412655
05568		32.014885	-5.608548	-53.604392
05569		31.916120	-5.609812	-52.787636
05570		31.812073	-5.589481	-51.943798
05571		31.721911	-5.567683	-51.091661
05572		31.651528	-5.521634	-50.240574
05573		31.620116	-5.461813	-49.410536
05574		31.635131	-5.388132	-48.617533
05575		31.692198	-5.289865	-47.848622
05576		31.756235	-5.176318	-47.089548
05577		31.764410	-5.066432	-46.335879
05578		31.654173	-4.953965	-45.575188
05579		31.412209	-4.827740	-44.811743
05580		31.080744	-4.691397	-44.049177
05581		30.701162	-4.543167	-43.296388
05582		30.305341	-4.394010	-42.566670
05583		29.908810	-4.258526	-41.861197
05584		29.540600	-4.117983	-41.160815
05585		29.221692	-3.983442	-40.463200
05586		28.966009	-3.860218	-39.767723
05587		28.771714	-3.758219	-39.087625
05588		28.631767	-3.675403	-38.420593
05589		28.527872	-3.596833	-37.766777
05590		28.449844	-3.526519	-37.128170
05591		28.369542	-3.473943	-36.512573
05592		28.276355	-3.425407	-35.909254
05593		28.163921	-3.374609	-35.314749
05594		28.028392	-3.325799	-34.733655
05595		27.872521	-3.282472	-34.169917
05596		27.704777	-3.236618	-33.624916
05597		27.530389	-3.192589	-33.099223
05598		27.363181	-3.145366	-32.585784
05599		27.218751	-3.102275	-32.079388
05600		27.080494	-3.069998	-31.579922
05601		26.939857	-3.040022	-31.080164
05602		26.800811	-3.010581	-30.571938
05603		26.647755	-2.977833	-30.063783
05604		26.492152	-2.928587	-29.558168
05605		26.363391	-2.875195	-29.063277
05606		26.285085	-2.823032	-28.579718
05607		26.252980	-2.781550	-28.102461
05608		26.250831	-2.741591	-27.622193
05609		26.265272	-2.708976	-27.142504
05610		26.290225	-2.683047	-26.658170
05611		26.311224	-2.654595	-26.171047
05612		26.329095	-2.623922	-25.686178
05613		26.350980	-2.604284	-25.215497
05614		26.373342	-2.584956	-24.753860
05615		26.385595	-2.564581	-24.291538
05616		26.364583	-2.562088	-23.834107
05617		26.280312	-2.578285	-23.379704
05618		26.137579	-2.591602	-22.918670
05619		25.964139	-2.602031	-22.455601
05620		25.792526	-2.601753	-21.999213
05621		25.653787	-2.600364	-21.557998
05622		25.559137	-2.602104	-21.141613
05623		25.503227	-2.606873	-20.750059
05624		25.478786	-2.620127	-20.372314
05625		25.465845	-2.638315	-20.003084
05626		25.453432	-2.660050	-19.637780
05627		25.437189	-2.688788	-19.274716
05628		25.411551	-2.718926	-18.913458
05629		25.367958	-2.747635	-18.558072
05630		25.322072	-2.767537	-18.212489
05631		25.287684	-2.794252	-17.880630
05632		25.247614	-2.828144	-17.554938
05633		25.192677	-2.865746	-17.227446
05634		25.119853	-2.895181	-16.899581
05635		25.023345	-2.919648	-16.574117
05636		24.926528	-2.943489	-16.258127
05637		24.834780	-2.956625	-15.954943
05638		24.758027	-2.961065	-15.658952
05639		24.694653	-2.974515	-15.368253
05640		24.624254	-2.987895	-15.078757
05641		24.544895	-2.994368	-14.788997
05642		24.463899	-2.994110	-14.496612
05643		24.377327	-2.992884	-14.201085
05644		24.278670	-2.983571	-13.902033
05645		24.166008	-2.970504	-13.606921
05646		24.041160	-2.953248	-13.316495
05647		23.916548	-2.938173	-13.026665
05648		23.792140	-2.930879	-12.738154
05649		23.652194	-2.928848	-12.450373
05650		23.487054	-2.914781	-12.160608
05651		23.310875	-2.888383	-11.874956
05652		23.129021	-2.857640	-11.594903
05653		22.956898	-2.829659	-11.316807
05654		22.817774	-2.804068	-11.046019
05655		22.712602	-2.781590	-10.780068
05656		22.640882	-2.761547	-10.522013
05657		22.582193	-2.741470	-10.268280
05658		22.511143	-2.721262	-10.020728
05659		22.418993	-2.695468	-9.775580
05660		22.307157	-2.661919	-9.538614
05661		22.179841	-2.626745	-9.312129
05662		22.051873	-2.589891	-9.096429
05663		21.931148	-2.556853	-8.888704
05664		21.810169	-2.519504	-8.687476
05665		21.690478	-2.479028	-8.497849
05666		21.576063	-2.433092	-8.316435
05667		21.475220	-2.391637	-8.148499
05668		21.394004	-2.349593	-7.991852
05669		21.329773	-2.318325	-7.845316
05670		21.271028	-2.293487	-7.703644
05671		21.210390	-2.274687	-7.564379
05672		21.155183	-2.256337	-7.432762
05673		21.108553	-2.234400	-7.308213
05674		21.083045	-2.203749	-7.195716
05675		21.080931	-2.171178	-7.100323
05676		21.103400	-2.137210	-7.020563
05677		21.135277	-2.103154	-6.957627
05678		21.157461	-2.059783	-6.907666
05679		21.159758	-2.019526	-6.863779
05680		21.133460	-1.969641	-6.828291
05681		21.096495	-1.920754	-6.798922
05682		21.070327	-1.880377	-6.775714
05683		21.044669	-1.844111	-6.760964
05684		21.023534	-1.810242	-6.751643
05685		21.015364	-1.781594	-6.758301
05686		21.024297	-1.744515	-6.781961
05687		21.059315	-1.707888	-6.823918
05688		21.109798	-1.667662	-6.886622
05689		21.178440	-1.628749	-6.959788
05690		21.254931	-1.589861	-7.042589
05691		21.331263	-1.555189	-7.131323
05692		21.401847	-1.516398	-7.229223
05693		21.472725	-1.481506	-7.332193
05694		21.535516	-1.446675	-7.440562
05695		21.586436	-1.415718	-7.545459
05696		21.626550	-1.391709	-7.641453
05697		21.664574	-1.384084	-7.735552
05698		21.716403	-1.376929	-7.835569
05699		21.796297	-1.365093	-7.940708
05700		21.887247	-1.348320	-8.045182
05701		21.973482	-1.339201	-8.148335
05702		22.052660	-1.336787	-8.252976
05703		22.128863	-1.338352	-8.358964
05704		22.184878	-1.334860	-8.462565
05705		22.215410	-1.331779	-8.561293
05706		22.210495	-1.332836	-8.649774
05707		22.178572	-1.347484	-8.736057
05708		22.130407	-1.360522	-8.822438
05709		22.081066	-1.370371	-8.908272
05710		22.042453	-1.378219	-8.999118
05711		22.021563	-1.393479	-9.098511
05712		22.022482	-1.407969	-9.200112
05713		22.038227	-1.426393	-9.301332
05714		22.055690	-1.447547	-9.404325
05715		22.064937	-1.473786	-9.512506
05716		22.066699	-1.501527	-9.625735
05717		22.053661	-1.525774	-9.743622
05718		22.013982	-1.540370	-9.863634
05719		21.956510	-1.543774	-9.981480
05720		21.894883	-1.533365	-10.102481
05721		21.832476	-1.522155	-10.222128
05722		21.778837	-1.518150	-10.338650
05723		21.738913	-1.520473	-10.463909
05724		21.699825	-1.516221	-10.597928
05725		21.642141	-1.501875	-10.732330
05726		21.545462	-1.479377	-10.857445
05727		21.415813	-1.459049	-10.970851
05728		21.248238	-1.435389	-11.080294
05729		21.068885	-1.395699	-11.192429
05730		20.897625	-1.344782	-11.306863
05731		20.755045	-1.290890	-11.420220
05732		20.647807	-1.233426	-11.538790
05733		20.587384	-1.187357	-11.667146
05734		20.561371	-1.149710	-11.806068
05735		20.563179	-1.123187	-11.951858
05736		20.565018	-1.103409	-12.107276
05737		20.549097	-1.092873	-12.265102
05738		20.515329	-1.085088	-12.432010
05739		20.463276	-1.085491	-12.600660
05740		20.397720	-1.098296	-12.776229
05741		20.341357	-1.117403	-12.955991
05742		20.307895	-1.132567	-13.142392
05743		20.315360	-1.146101	-13.337980
05744		20.345809	-1.163101	-13.542033
05745		20.390453	-1.186019	-13.760196
05746		20.433288	-1.211288	-13.986126
05747		20.467555	-1.247130	-14.219604
05748		20.489396	-1.279702	-14.454863
05749		20.498630	-1.310999	-14.689690
05750		20.494173	-1.344544	-14.930838
05751		20.493963	-1.390933	-15.181134
05752		20.509562	-1.442805	-15.444463
05753		20.540656	-1.487949	-15.714039
05754		20.584724	-1.525948	-15.988862
05755		20.633472	-1.561295	-16.268148
05756		20.681832	-1.591662	-16.547775
05757		20.721998	-1.619379	-16.826644
05758		20.741966	-1.647654	-17.108122
05759		20.752732	-1.687120	-17.394423
05760		20.756856	-1.730576	-17.686831
05761		20.761512	-1.769033	-17.987270
05762		20.772816	-1.804886	-18.292960
05763		20.791854	-1.832017	-18.604395
05764		20.808448	-1.856340	-18.924599
05765		20.824017	-1.874205	-19.245922
05766		20.828673	-1.885050	-19.570600
05767		20.823959	-1.896870	-19.901551
05768		20.812889	-1.910255	-20.238534
05769		20.811166	-1.928669	-20.575769
05770		20.808813	-1.947215	-20.915594
05771		20.814441	-1.961655	-21.261412
05772		20.836714	-1.977006	-21.614512
05773		20.874777	-1.991943	-21.970069
05774		20.915650	-2.003275	-22.330530
05775		20.964224	-2.014808	-22.693351
05776		21.015681	-2.022638	-23.056136
05777		21.068434	-2.032138	-23.415010
05778		21.102405	-2.038658	-23.772124
05779		21.121185	-2.041400	-24.128497
05780		21.130472	-2.038381	-24.486037
05781		21.146550	-2.035700	-24.847320
05782		21.169035	-2.035782	-25.212924
05783		21.209957	-2.042227	-25.581383
05784		21.261381	-2.052272	-25.956430
05785		21.317951	-2.069635	-26.330908
05786		21.365182	-2.081414	-26.706899
05787		21.405690	-2.093209	-27.086427
05788		21.431272	-2.109294	-27.465291
05789		21.441277	-2.121609	-27.839396
05790		21.429760	-2.126004	-28.218094
05791		21.412427	-2.135318	-28.603609
05792		21.380607	-2.146310	-28.997935
05793		21.337056	-2.160904	-29.396538
05794		21.275066	-2.178717	-29.800829
05795		21.203026	-2.201675	-30.206214
05796		21.114491	-2.218562	-30.609968
05797		21.007058	-2.227168	-31.017802
05798		20.887701	-2.235758	-31.430022
05799		20.778494	-2.250618	-31.846946
05800		20.679174	-2.276316	-32.266065
05801		20.595688	-2.294899	-32.689888
05802		20.538673	-2.304801	-33.111743
05803		20.506068	-2.308522	-33.539778
05804		20.495129	-2.317966	-33.976855
05805		20.516626	-2.329013	-34.421658
05806		20.555006	-2.334130	-34.873635
05807		20.604628	-2.336883	-35.329178
05808		20.652262	-2.346629	-35.790421
05809		20.702737	-2.365596	-36.248648
05810		20.752336	-2.391901	-36.714679
05811		20.805129	-2.421970	-37.184420
05812		20.858256	-2.464414	-37.660407
05813		20.906356	-2.510523	-38.147198
05814		20.950849	-2.552634	-38.643522
05815		20.993608	-2.591492	-39.141537
05816		21.024562	-2.638560	-39.649507
05817		21.050334	-2.686892	-40.168945
05818		21.075232	-2.744213	-40.698736
05819		21.104417	-2.799780	-41.241179
05820		21.135086	-2.856200	-41.800990
05821		21.174709	-2.916112	-42.375981
05822		21.217412	-2.973435	-42.965984
05823		21.264944	-3.031627	-43.571733
05824		21.306375	-3.090913	-44.189504
05825		21.337926	-3.144111	-44.811391
05826		21.354409	-3.190040	-45.436734
05827		21.372384	-3.239459	-46.073692
05828		21.397592	-3.293708	-46.722340
05829		21.438492	-3.349061	-47.387684
05830		21.500487	-3.405387	-48.063045
05831		21.577890	-3.461451	-48.744429
05832		21.658743	-3.515514	-49.433177
05833		21.740570	-3.569126	-50.130280
05834		21.810183	-3.616847	-50.839180
05835		21.855437	-3.659432	-51.553569
05836		21.859710	-3.693305	-52.269919
05837		21.828925	-3.723339	-52.977416
05838		21.757512	-3.753451	-53.676078
05839		21.661383	-3.782901	-54.374124
05840		21.566769	-3.811985	-55.078206
05841		21.510311	-3.831120	-55.787921
05842		21.493788	-3.842056	-56.491437
05843		21.524374	-3.845455	-57.196968
05844		21.592196	-3.841579	-57.899952
05845		21.689014	-3.832959	-58.599208
05846		21.792614	-3.823955	-59.299313
05847		21.901872	-3.821524	-59.994649
05848		21.996448	-3.818633	-60.682551
05849		22.074761	-3.810547	-61.364637
05850		22.158920	-3.804193	-62.048559
05851		22.253183	-3.797557	-62.739558
05852		22.349733	-3.783220	-63.429619
05853		22.460113	-3.767430	-64.117418
05854		22.582286	-3.759100	-64.799229
05855		22.709128	-3.745326	-65.470939
05856		22.829205	-3.725440	-66.136753
05857		22.950270	-3.712618	-66.800343
05858		23.058314	-3.698026	-67.455629
05859		23.162256	-3.671308	-68.107841
05860		23.279745	-3.640085	-68.758116
05861		23.416189	-3.612205	-69.407494
05862		23.555258	-3.582357	-70.050715
05863		23.689179	-3.555653	-70.687575
05864		23.800465	-3.531133	-71.313082
05865		23.881642	-3.495139	-71.922475
05866		23.944646	-3.454829	-72.519420
05867		24.005945	-3.416814	-73.109473
05868		24.082840	-3.374855	-73.698093
05869		24.189749	-3.337399	-74.285645
05870		24.325427	-3.310878	-74.873978
05871		24.484773	-3.275950	-75.454684
05872		24.661618	-3.235956	-76.022664
05873		24.848554	-3.198532	-76.583427
05874		25.030554	-3.170533	-77.144954
05875		25.199390	-3.139476	-77.704242
05876		25.347954	-3.107242	-78.263132
05877		25.467017	-3.074856	-78.820820
05878		25.555879	-3.044380	-79.373574
05879		25.626038	-3.010719	-79.913052
05880		25.674180	-2.979400	-80.443591
05881		25.715048	-2.947718	-80.965295
05882		25.747877	-2.919446	-81.482977
05883		25.772500	-2.887178	-82.007146
05884		25.809713	-2.856025	-82.536895
05885		25.868806	-2.831192	-83.065186
05886		25.942668	-2.806216	-83.588735
05887		26.038599	-2.776926	-84.109952
05888		26.153311	-2.744095	-84.631573
05889		26.275336	-2.710184	-85.148713
05890		26.393447	-2.677523	-85.655386
05891		26.514841	-2.648072	-86.152876
05892		26.618475	-2.615407	-86.643825
05893		26.713153	-2.575063	-87.129987
05894		26.799178	-2.536389	-87.613062
05895		26.871695	-2.496903	-88.091362
05896		26.934467	-2.460795	-88.564038
05897		26.992953	-2.418865	-89.031261
05898		27.055677	-2.377150	-89.491988
05899		27.130598	-2.330688	-89.948240
05900		27.220972	-2.281924	-90.402230
05901		27.321467	-2.233771	-90.854263
05902		27.421735	-2.188056	-91.302196
05903		27.519240	-2.147518	-91.741500
05904		27.603164	-2.102198	-92.169925
05905		27.672138	-2.049152	-92.585084
05906		27.735933	-1.985814	-92.995555
05907		27.803346	-1.921970	-93.400078
05908		27.878365	-1.865746	-93.812832
05909		27.946521	-1.813530	-94.227603
05910		27.999328	-1.752486	-94.633818
05911		28.041807	-1.691308	-95.029659
05912		28.067862	-1.641207	-95.421619
05913		28.086160	-1.588262	-95.810949
05914		28.105706	-1.521317	-96.187525
05915		28.149322	-1.448915	-96.559974
05916		28.221143	-1.384703	-96.936118
05917		28.322940	-1.321890	-97.312727
05918		28.453170	-1.255158	-97.683930
05919		28.609931	-1.201527	-98.050880
05920		28.757619	-1.154775	-98.411944
05921		28.885727	-1.095236	-98.758330
05922		29.002610	-1.024370	-99.099153
05923		29.113937	-0.963737	-99.438814
05924		29.221710	-0.907310	-99.773247
05925		29.338052	-0.844654	-100.099646
05926		29.472861	-0.777836	-100.420497
05927		29.634952	-0.714642	-100.740936
05928		29.833128	-0.655434	-101.061589
05929		30.053946	-0.605492	-101.379004
05930		30.276123	-0.560245	-101.694288
05931		30.486455	-0.516889	-102.000676
05932		30.665853	-0.476714	-102.299477
05933		30.819224	-0.431647	-102.586246
05934		30.944573	-0.381917	-102.860897
05935		31.049380	-0.332928	-103.129858
05936		31.150203	-0.283980	-103.397133
05937		31.265647	-0.236603	-103.663964
05938		31.416009	-0.190101	-103.928543
05939		31.599562	-0.143582	-104.192786
05940		31.809191	-0.099987	-104.453384
05941		32.032318	-0.054153	-104.711974
05942		32.255554	-0.009251	-104.964767
05943		32.460557	0.035288	-105.211708
05944		32.653573	0.076307	-105.452265
05945		32.838031	0.119740	-105.688133
05946		33.015957	0.165231	-105.919741
05947		33.194677	0.208365	-106.149716
05948		33.373397	0.246776	-106.373076
05949		33.527100	0.286569	-106.580591
05950		33.655950	0.331798	-106.769941
05951		33.760869	0.375802	-106.947098
05952		33.842080	0.418847	-107.117182
05953		33.903292	0.468043	-107.287907
05954		33.956622	0.516470	-107.457650
05955		34.016283	0.569487	-107.622845
05956		34.088231	0.625601	-107.782369
05957		34.168970	0.680152	-107.934432
05958		34.264053	0.731189	-108.082122
05959		34.377011	0.770058	-108.222571
05960		34.489006	0.810990	-108.352967
05961		34.590055	0.850448	-108.470305
05962		34.683792	0.888400	-108.577686
05963		34.774791	0.926185	-108.681067
05964		34.862844	0.962533	-108.781362
05965		34.954274	1.001593	-108.876460
05966		35.059304	1.039104	-108.967259
05967		35.173981	1.068958	-109.056788
05968		35.286314	1.096923	-109.142172
05969		35.381104	1.130268	-109.222991
05970		35.446918	1.163999	-109.294618
05971		35.485635	1.192027	-109.359044
05972		35.499552	1.217319	-109.417601
05973		35.506155	1.245706	-109.466915
05974		35.507390	1.275388	-109.511067
05975		35.505522	1.298713	-109.550547
05976		35.504777	1.311922	-109.585496
05977		35.500073	1.319046	-109.614116
05978		35.481911	1.329546	-109.619402
05979		35.454160	1.344828	-109.604763
05980		35.416401	1.355486	-109.574547
05981		35.379779	1.361228	-109.532493
05982		35.351262	1.364754	-109.488542
05983		35.335327	1.368183	-109.441675
05984		35.342181	1.365638	-109.386962
05985		35.363827	1.363456	-109.319842
05986		35.388169	1.360101	-109.245727
05987		35.403900	1.356349	-109.161642
05988		35.409886	1.354088	-109.065241
05989		35.406550	1.348161	-108.964854
05990		35.392692	1.337786	-108.858340
05991		35.376166	1.329254	-108.746545
05992		35.363495	1.315811	-108.628802
05993		35.354882	1.303257	-108.514939
05994		35.356119	1.288357	-108.398135
05995		35.370684	1.274917	-108.280261
05996		35.409133	1.255444	-108.166672
05997		35.467680	1.227941	-108.055456
05998		35.531114	1.203237	-107.940538
05999		35.583011	1.184137	-107.814792
06000		35.607559	1.164869	-107.673847
06001		35.599442	1.145122	-107.518772
06002		35.562088	1.125610	-107.353622
06003		35.511352	1.104199	-107.178236
06004		35.465273	1.082366	-106.998612
06005		35.441642	1.059893	-106.814763
06006		35.434408	1.035117	-106.626027
06007		35.442824	1.008780	-106.430371
06008		35.458852	0.983856	-106.224384
06009		35.476706	0.949940	-106.003088
06010		35.486525	0.907154	-105.772488
06011		35.475577	0.860458	-105.528775
06012		35.441545	0.814902	-105.270458
06013		35.385276	0.772657	-104.992533
06014		35.304346	0.728311	-104.699520
06015		35.205984	0.682073	-104.390751
06016		35.110676	0.629202	-104.061448
06017		35.032725	0.569031	-103.720512
06018		34.980117	0.501928	-103.368261
06019		34.951202	0.435216	-103.008078
06020		34.935573	0.365928	-102.642403
06021		34.922042	0.295032	-102.264888
06022		34.912615	0.215398	-101.877318
06023		34.903980	0.122615	-101.480782
06024		34.912221	0.023513	-101.076104
06025		34.946920	-0.088674	-100.666284
06026		35.034384	-0.207151	-100.260022
06027		35.173679	-0.327968	-99.854878
06028		35.348447	-0.445861	-99.454713
06029		35.530883	-0.563354	-99.055824
06030		35.697016	-0.679028	-98.647739
06031		35.819055	-0.794182	-98.224931
06032		35.884326	-0.910693	-97.781883
06033		35.882780	-1.029152	-97.324934
06034		35.827765	-1.153287	-96.854659
06035		35.725558	-1.282773	-96.367832
06036		35.595733	-1.413150	-95.863160
06037		35.439906	-1.542898	-95.337824
06038		35.272091	-1.667914	-94.794079
06039		35.095707	-1.786940	-94.236340
06040		34.928392	-1.901252	-93.664846
06041		34.770046	-2.017002	-93.086619
06042		34.622525	-2.136472	-92.499425
06043		34.482164	-2.252476	-91.899209
06044		34.356569	-2.366600	-91.282472
06045		34.236793	-2.480695	-90.654710
06046		34.118641	-2.590566	-90.014966
06047		33.998803	-2.695875	-89.358486
06048		33.884694	-2.800057	-88.690916
06049		33.762018	-2.904184	-88.014857
06050		33.637524	-3.005501	-87.332668
06051		33.503601	-3.107047	-86.645817
06052		33.351514	-3.204300	-85.954593
06053		33.154299	-3.288054	-85.256811
06054		32.916563	-3.357683	-84.556180
06055		32.652001	-3.417891	-83.862949
06056		32.385053	-3.473115	-83.182497
06057		32.122660	-3.516266	-82.519744
06058		31.860188	-3.547275	-81.868061
06059		31.587151	-3.570169	-81.219719
06060		31.292019	-3.585037	-80.574177
06061		30.964664	-3.593653	-79.927511
06062		30.617549	-3.595518	-79.277436
06063		30.263360	-3.592084	-78.623927
06064		29.929893	-3.592011	-77.966272
06065		29.627513	-3.601443	-77.309268
06066		29.363910	-3.615707	-76.644308
06067		29.142174	-3.630807	-75.969022
06068		28.966856	-3.653169	-75.291025
06069		28.828337	-3.681967	-74.611907
06070		28.726427	-3.711520	-73.928152
06071		28.638276	-3.742433	-73.244197
06072		28.553996	-3.781351	-72.555281
06073		28.462730	-3.824858	-71.863709
06074		28.344273	-3.872979	-71.166677
06075		28.185417	-3.919557	-70.455212
06076		27.993476	-3.959182	-69.731728
06077		27.777917	-3.998147	-69.000556
06078		27.564990	-4.033873	-68.260881
06079		27.371591	-4.073046	-67.510371
06080		27.212371	-4.118069	-66.758041
06081		27.092009	-4.173040	-66.011450
06082		27.025717	-4.227311	-65.267007
06083		26.986097	-4.286738	-64.530856
06084		26.941289	-4.340155	-63.798929
06085		26.882775	-4.386545	-63.061311
06086		26.810570	-4.436990	-62.324733
06087		26.725607	-4.497977	-61.594003
06088		26.653895	-4.561680	-60.867856
06089		26.612697	-4.633180	-60.156712
06090		26.615927	-4.713885	-59.457720
06091		26.664214	-4.802825	-58.774645
06092		26.734115	-4.891460	-58.099239
06093		26.802675	-4.981335	-57.429031
06094		26.858462	-5.078130	-56.766799
06095		26.875982	-5.174484	-56.110269
06096		26.863597	-5.268638	-55.459352
06097		26.827899	-5.365898	-54.811896
06098		26.775481	-5.461475	-54.166894
06099		26.711415	-5.552011	-53.508459
06100		26.641245	-5.640809	-52.841566
06101		26.572971	-5.733370	-52.176532
06102		26.517301	-5.817810	-51.508355
06103		26.478506	-5.901501	-50.842420
06104		26.451504	-5.982703	-50.183085
06105		26.428526	-6.060497	-49.526410
06106		26.408879	-6.126442	-48.867243
06107		26.391296	-6.193475	-48.201902
06108		26.374587	-6.260407	-47.531624
06109		26.353615	-6.313560	-46.855752
06110		26.348317	-6.355295	-46.180896
06111		26.369830	-6.404136	-45.524505
06112		26.405660	-6.456458	-44.891272
06113		26.434873	-6.486034	-44.261115
06114		26.424285	-6.497189	-43.625233
06115		26.359158	-6.513466	-42.980484
06116		26.223428	-6.528149	-42.331599
06117		26.023466	-6.524940	-41.680817
06118		25.804697	-6.508768	-41.034004
06119		25.604877	-6.497512	-40.401483
06120		25.448163	-6.485368	-39.784982
06121		25.337826	-6.463993	-39.181511
06122		25.273772	-6.445167	-38.599779
06123		25.191074	-6.433502	-38.035610
06124		25.044446	-6.405838	-37.479094
06125		24.814644	-6.371289	-36.927098
06126		24.493950	-6.337773	-36.382351
06127		24.085588	-6.311603	-35.846015
06128		23.599617	-6.285074	-35.315296
06129		23.051655	-6.259761	-34.783187
06130		22.451113	-6.225472	-34.254708
06131		21.838741	-6.186889	-33.735747
06132		21.303991	-6.161762	-33.229781
06133		20.884095	-6.149692	-32.739483
06134		20.604943	-6.141717	-32.262820
06135		20.461944	-6.148983	-31.797527
06136		20.420563	-6.157911	-31.345122
06137		20.439328	-6.162624	-30.894568
06138		20.491842	-6.169023	-30.452044
06139		20.543941	-6.180981	-30.014384
06140		20.579570	-6.191812	-29.579379
06141		20.586550	-6.197952	-29.151759
06142		20.575366	-6.193920	-28.738303
06143		20.577948	-6.174384	-28.342823
06144		20.651947	-6.132364	-27.966340
06145		20.819273	-6.076051	-27.606191
06146		21.092980	-6.021576	-27.250045
06147		21.466524	-5.990253	-26.889222
06148		21.883362	-5.978747	-26.521330
06149		22.268844	-5.986174	-26.146851
06150		22.567467	-5.979220	-25.762713
06151		22.751059	-5.954213	-25.365337
06152		22.828394	-5.925027	-24.958251
06153		22.809071	-5.907344	-24.543322
06154		22.707475	-5.880791	-24.125898
06155		22.570703	-5.850093	-23.713112
06156		22.443764	-5.829421	-23.312699
06157		22.329788	-5.809100	-22.928625
06158		22.252180	-5.782194	-22.556229
06159		22.228955	-5.768255	-22.195140
06160		22.244456	-5.764788	-21.837852
06161		22.251362	-5.753591	-21.477273
06162		22.262364	-5.753801	-21.118780
06163		22.239796	-5.759188	-20.760163
06164		22.163773	-5.754763	-20.392998
06165		22.045759	-5.747636	-20.022107
06166		21.916073	-5.743627	-19.656452
06167		21.802940	-5.729665	-19.300192
06168		21.739214	-5.706235	-18.953074
06169		21.724618	-5.684079	-18.619712
06170		21.745736	-5.659412	-18.296714
06171		21.793502	-5.639826	-17.969215
06172		21.817415	-5.609603	-17.649858
06173		21.805255	-5.566357	-17.335659
06174		21.777258	-5.509246	-17.024711
06175		21.733038	-5.447148	-16.714038
06176		21.676555	-5.373407	-16.406602
06177		21.619678	-5.300999	-16.097597
06178		21.559864	-5.234168	-15.788038
06179		21.488159	-5.169800	-15.478577
06180		21.403395	-5.103144	-15.163940
06181		21.300557	-5.032268	-14.846109
06182		21.187079	-4.959735	-14.533461
06183		21.081877	-4.879792	-14.233530
06184		21.008441	-4.794260	-13.947697
06185		20.973844	-4.708519	-13.683282
06186		20.954655	-4.622157	-13.427873
06187		20.940014	-4.548380	-13.178528
06188		20.914484	-4.465985	-12.928395
06189		20.885749	-4.375215	-12.677099
06190		20.854559	-4.283208	-12.433923
06191		20.821971	-4.190200	-12.202876
06192		20.810853	-4.103760	-11.982569
06193		20.829262	-4.015127	-11.777494
06194		20.867869	-3.924158	-11.579615
06195		20.916285	-3.836871	-11.379156
06196		20.959116	-3.756503	-11.181566
06197		20.964750	-3.667921	-10.977491
06198		20.947753	-3.578549	-10.766278
06199		20.897980	-3.486029	-10.557590
06200		20.835940	-3.385846	-10.360486
06201		20.782025	-3.282895	-10.185595
06202		20.744567	-3.181463	-10.023910
06203		20.704340	-3.090529	-9.864218
06204		20.627513	-2.998280	-9.700394
06205		20.525667	-2.900861	-9.532097
06206		20.426332	-2.805106	-9.371399
06207		20.334393	-2.711756	-9.228050
06208		20.264818	-2.609322	-9.102905
06209		20.228142	-2.514362	-8.993760
06210		20.210158	-2.430857	-8.902773
06211		20.204237	-2.355180	-8.824236
06212		20.209138	-2.286420	-8.752199
06213		20.200749	-2.220420	-8.678860
06214		20.176177	-2.156403	-8.601601
06215		20.144084	-2.102126	-8.526991
06216		20.118887	-2.059391	-8.457712
06217		20.124444	-2.022649	-8.394716
06218		20.166100	-1.997669	-8.335787
06219		20.214667	-1.981512	-8.282583
06220		20.259205	-1.971129	-8.229755
06221		20.296128	-1.971214	-8.185149
06222		20.319879	-1.972936	-8.150604
06223		20.337559	-1.978923	-8.124868
06224		20.341286	-1.983979	-8.104103
06225		20.342617	-1.986588	-8.084604
06226		20.351582	-1.994130	-8.071574
06227		20.357646	-2.008001	-8.059465
06228		20.349788	-2.020171	-8.045778
06229		20.338434	-2.028953	-8.033345
06230		20.321960	-2.034020	-8.026946
06231		20.300356	-2.041265	-8.025150
06232		20.274172	-2.050619	-8.027672
06233		20.244999	-2.061935	-8.033138
06234		20.205508	-2.064754	-8.041118
06235		20.166597	-2.068004	-8.053110
06236		20.136926	-2.066190	-8.074346
06237		20.115199	-2.059933	-8.100822
06238		20.095536	-2.054592	-8.133985
06239		20.078779	-2.051145	-8.169032
06240		20.061442	-2.050051	-8.206642
06241		20.047461	-2.048627	-8.247870
06242		20.031670	-2.037726	-8.288666
06243		20.021311	-2.030115	-8.336243
06244		20.021377	-2.025787	-8.396589
06245		20.018862	-2.019384	-8.468463
06246		20.014277	-2.007074	-8.544675
06247		20.008369	-1.995753	-8.625776
06248		19.991767	-1.984692	-8.711124
06249		19.961202	-1.966165	-8.798853
06250		19.927328	-1.952281	-8.890087
06251		19.884246	-1.936234	-8.985967
06252		19.842936	-1.921193	-9.086022
06253		19.811445	-1.910966	-9.193969
06254		19.800083	-1.903315	-9.311113
06255		19.821856	-1.900083	-9.437766
06256		19.873403	-1.901533	-9.577702
06257		19.943877	-1.906130	-9.728108
06258		20.010450	-1.909887	-9.891279
06259		20.058582	-1.917369	-10.063510
06260		20.082908	-1.921552	-10.241004
06261		20.088874	-1.924876	-10.421871
06262		20.076504	-1.931801	-10.613324
06263		20.054518	-1.940431	-10.816784
06264		20.027309	-1.944667	-11.027063
06265		20.000221	-1.947719	-11.247300
06266		19.976904	-1.954907	-11.476507
06267		19.948721	-1.956374	-11.714185
06268		19.916207	-1.954671	-11.960140
06269		19.883236	-1.947336	-12.217539
06270		19.844381	-1.938241	-12.492453
06271		19.795470	-1.926364	-12.780395
06272		19.724522	-1.907857	-13.076088
06273		19.631352	-1.888779	-13.372086
06274		19.508908	-1.863719	-13.665791
06275		19.376408	-1.837763	-13.959391
06276		19.244941	-1.814239	-14.262173
06277		19.132191	-1.793434	-14.581191
06278		19.048756	-1.770135	-14.919550
06279		19.011253	-1.750252	-15.273110
06280		19.017969	-1.734577	-15.628860
06281		19.050358	-1.723157	-15.986623
06282		19.089874	-1.716906	-16.347297
06283		19.134586	-1.709307	-16.712912
06284		19.171020	-1.703139	-17.086731
06285		19.205915	-1.701896	-17.467759
06286		19.236164	-1.704624	-17.858523
06287		19.270884	-1.708418	-18.259856
06288		19.318013	-1.721461	-18.671517
06289		19.369931	-1.744572	-19.088363
06290		19.411275	-1.767262	-19.506211
06291		19.448647	-1.788734	-19.930800
06292		19.476401	-1.815180	-20.360250
06293		19.498594	-1.843487	-20.797144
06294		19.515135	-1.870082	-21.246030
06295		19.544970	-1.904519	-21.706513
06296		19.581384	-1.943856	-22.176110
06297		19.627096	-1.985755	-22.652342
06298		19.684876	-2.031109	-23.137228
06299		19.759913	-2.083804	-23.632723
06300		19.834510	-2.140803	-24.137149
06301		19.904045	-2.198520	-24.650321
06302		19.971152	-2.259380	-25.174943
06303		20.047657	-2.320661	-25.707489
06304		20.127041	-2.378337	-26.249687
06305		20.225512	-2.442890	-26.799495
06306		20.336723	-2.510658	-27.361991
06307		20.460263	-2.578392	-27.933411
06308		20.586023	-2.646685	-28.517540
06309		20.709802	-2.714190	-29.114352
06310		20.818744	-2.776956	-29.722845
06311		20.905158	-2.831704	-30.344190
06312		20.966375	-2.880644	-30.982422
06313		21.011695	-2.925743	-31.632154
06314		21.024657	-2.964903	-32.294855
06315		21.000404	-3.003174	-32.963978
06316		20.929348	-3.035247	-33.644619
06317		20.822679	-3.061182	-34.336373
06318		20.684677	-3.083942	-35.049077
06319		20.514931	-3.097307	-35.790713
06320		20.310119	-3.097376	-36.553661
06321		20.067005	-3.088931	-37.329563
06322		19.771266	-3.078038	-38.112445
06323		19.444515	-3.062419	-38.890532
06324		19.104162	-3.041515	-39.652492
06325		18.783273	-3.015849	-40.403423
06326		18.514851	-2.995412	-41.161318
06327		18.334957	-2.978951	-41.932762
06328		18.245653	-2.963327	-42.717996
06329		18.238864	-2.950347	-43.515333
06330		18.287204	-2.938745	-44.313857
06331		18.372392	-2.920636	-45.104145
06332		18.465608	-2.901551	-45.886375
06333		18.553181	-2.884887	-46.662178
06334		18.619263	-2.870374	-47.436001
06335		18.667669	-2.858059	-48.199494
06336		18.698047	-2.848929	-48.949630
06337		18.713420	-2.840102	-49.690762
06338		18.706826	-2.831277	-50.423657
06339		18.698469	-2.822636	-51.149145
06340		18.689239	-2.810605	-51.871594
06341		18.695310	-2.802263	-52.595048
06342		18.721705	-2.790464	-53.320858
06343		18.795712	-2.778729	-54.039709
06344		18.908679	-2.775625	-54.754205
06345		19.057638	-2.768783	-55.462794
06346		19.230154	-2.762816	-56.165400
06347		19.423819	-2.761207	-56.864531
06348		19.625940	-2.763697	-57.562198
06349		19.828312	-2.764581	-58.255153
06350		20.034906	-2.760041	-58.947486
06351		20.249667	-2.746591	-59.641461
06352		20.466204	-2.729469	-60.331988
06353		20.676899	-2.707502	-61.020434
06354		20.865200	-2.678998	-61.701751
06355		21.019755	-2.650573	-62.377596
06356		21.123300	-2.616135	-63.052085
06357		21.205750	-2.576524	-63.719065
06358		21.270393	-2.529716	-64.376538
06359		21.319013	-2.480019	-65.027129
06360		21.360617	-2.431076	-65.668794
06361		21.394476	-2.380896	-66.309137
06362		21.416667	-2.328776	-66.949668
06363		21.449548	-2.273865	-67.593380
06364		21.487509	-2.223316	-68.235012
06365		21.525869	-2.168709	-68.873071
06366		21.557169	-2.120886	-69.511261
06367		21.584079	-2.072772	-70.149928
06368		21.605040	-2.023016	-70.785321
06369		21.637298	-1.976003	-71.416678
06370		21.687679	-1.931494	-72.043291
06371		21.759605	-1.885201	-72.660145
06372		21.851799	-1.839280	-73.272562
06373		21.971999	-1.792569	-73.880929
06374		22.112474	-1.747475	-74.490247
06375		22.276037	-1.707717	-75.104102
06376		22.458626	-1.671131	-75.714846
06377		22.646599	-1.634215	-76.315929
06378		22.824100	-1.594378	-76.903311
06379		22.998529	-1.556618	-77.479780
06380		23.156823	-1.514398	-78.051250
06381		23.294104	-1.466550	-78.616151
06382		23.423050	-1.419658	-79.182043
06383		23.548896	-1.378334	-79.746963
06384		23.658712	-1.325095	-80.305287
06385		23.759436	-1.260422	-80.855710
06386		23.866286	-1.197437	-81.403616
06387		23.978439	-1.143424	-81.956339
06388		24.080245	-1.077652	-82.505985
06389		24.180997	-1.004746	-83.049498
06390		24.277779	-0.940885	-83.587915
06391		24.359213	-0.871460	-84.113173
06392		24.430279	-0.792231	-84.626118
06393		24.489820	-0.718138	-85.135014
06394		24.531240	-0.644773	-85.639684
06395		24.554763	-0.570571	-86.139182
06396		24.558948	-0.498516	-86.634764
06397		24.536940	-0.430169	-87.122208
06398		24.483593	-0.363063	-87.595353
06399		24.391586	-0.288784	-88.049791
06400		24.269038	-0.217194	-88.484510
06401		24.135457	-0.150978	-88.897728
06402		24.002373	-0.083090	-89.286688
06403		23.899681	-0.018291	-89.648563
06404		23.848625	0.033846	-89.995450
06405		23.856306	0.073027	-90.340226
06406		23.926167	0.107824	-90.680469
06407		24.035761	0.146697	-91.016775
06408		24.156846	0.181462	-91.340308
06409		24.269164	0.217147	-91.649223
06410		24.362433	0.253603	-91.944295
06411		24.444927	0.285908	-92.234637
06412		24.513933	0.311392	-92.523894
06413		24.569796	0.328074	-92.813792
06414		24.605146	0.339077	-93.097980
06415		24.615923	0.347003	-93.371955
06416		24.613383	0.355863	-93.640122
06417		24.613956	0.359422	-93.907295
06418		24.620261	0.360998	-94.178921
06419		24.637218	0.363530	-94.455566
06420		24.671081	0.366378	-94.733908
06421		24.709730	0.370100	-95.007476
06422		24.739576	0.383509	-95.276980
06423		24.759117	0.402292	-95.545172
06424		24.766147	0.415513	-95.812474
06425		24.767776	0.420460	-96.081723
06426		24.765172	0.430184	-96.353297
06427		24.755152	0.448117	-96.624351
06428		24.738844	0.471863	-96.890343
06429		24.724008	0.500296	-97.151030
06430		24.718991	0.531149	-97.406012
06431		24.726059	0.564575	-97.652497
06432		24.757375	0.593197	-97.883908
06433		24.809669	0.619780	-98.095421
06434		24.879926	0.651068	-98.290350
06435		24.978935	0.684389	-98.470180
06436		25.103404	0.716019	-98.647675
06437		25.255163	0.740997	-98.829418
06438		25.411250	0.767677	-99.009736
06439		25.534359	0.813042	-99.182387
06440		25.616735	0.880022	-99.328752
06441		25.671110	0.949237	-99.449249
06442		25.716282	1.010767	-99.552498
06443		25.753686	1.069349	-99.647817
06444		25.795029	1.126021	-99.733345
06445		25.829658	1.176606	-99.818235
06446		25.853260	1.228359	-99.896171
06447		25.868665	1.282424	-99.960182
06448		25.886960	1.341897	-100.011076
06449		25.905688	1.395358	-100.054968
06450		25.926973	1.455823	-100.097027
06451		25.950037	1.521556	-100.138846
06452		25.974343	1.585931	-100.184980
06453		25.996638	1.640895	-100.232932
06454		26.002468	1.693869	-100.280335
06455		25.994840	1.745124	-100.326621
06456		25.983972	1.792969	-100.362835
06457		25.961791	1.831065	-100.399007
06458		25.932388	1.861921	-100.436568
06459		25.907562	1.879111	-100.476290
06460		25.896139	1.884226	-100.519739
06461		25.903424	1.883611	-100.564709
06462		25.945889	1.879911	-100.610748
06463		26.013251	1.868677	-100.660105
06464		26.103606	1.862226	-100.706521
06465		26.211811	1.856033	-100.753161
06466		26.328643	1.850118	-100.789973
06467		26.441736	1.853122	-100.816872
06468		26.547179	1.864817	-100.829655
06469		26.637014	1.882925	-100.830341
06470		26.711781	1.893285	-100.812507
06471		26.767406	1.895561	-100.782105
06472		26.799903	1.905204	-100.747069
06473		26.806264	1.919745	-100.702263
06474		26.799243	1.933085	-100.655143
06475		26.791287	1.938211	-100.608047
06476		26.793462	1.943882	-100.566478
06477		26.814303	1.951718	-100.525376
06478		26.858476	1.956847	-100.481101
06479		26.914332	1.957375	-100.432230
06480		26.979064	1.954050	-100.370487
06481		27.051300	1.947845	-100.302393
06482		27.127996	1.932850	-100.225132
06483		27.201604	1.913405	-100.142705
06484		27.277359	1.896512	-100.042435
06485		27.347225	1.880268	-99.923973
06486		27.414540	1.861071	-99.790409
06487		27.481398	1.832276	-99.646849
06488		27.552034	1.803184	-99.495194
06489		27.624550	1.773259	-99.335437
06490		27.692564	1.743790	-99.161689
06491		27.749223	1.711657	-98.975241
06492		27.787722	1.680849	-98.771395
06493		27.804205	1.651729	-98.547506
06494		27.811221	1.621905	-98.303467
06495		27.809657	1.589559	-98.040960
06496		27.810305	1.552774	-97.763291
06497		27.819130	1.515012	-97.471859
06498		27.832401	1.484137	-97.163609
06499		27.858847	1.450704	-96.844625
06500		27.890088	1.408090	-96.516384
06501		27.917549	1.359043	-96.177636
06502		27.935050	1.309399	-95.825400
06503		27.936648	1.258629	-95.459830
06504		27.913305	1.213445	-95.083540
06505		27.855552	1.185007	-94.695300
06506		27.766003	1.176184	-94.293089
06507		27.634580	1.178258	-93.878058
06508		27.484716	1.186688	-93.445871
06509		27.324168	1.187023	-92.993237
06510		27.178068	1.176994	-92.514579
06511		27.068709	1.149725	-92.007480
06512		27.007008	1.121010	-91.475976
06513		26.986196	1.084115	-90.925591
06514		27.005200	1.037463	-90.351628
06515		27.051024	0.976837	-89.762055
06516		27.099573	0.900982	-89.163882
06517		27.127541	0.812017	-88.561473
06518		27.123813	0.710411	-87.959029
06519		27.076211	0.603294	-87.353203
06520		26.996784	0.507209	-86.742988
06521		26.884668	0.419446	-86.121063
06522		26.760097	0.325879	-85.492382
06523		26.632237	0.224561	-84.858455
06524		26.524672	0.114040	-84.219527
06525		26.440920	-0.010172	-83.572336
06526		26.357133	-0.138664	-82.918733
06527		26.273401	-0.260712	-82.247425
06528		26.191852	-0.378361	-81.561753
06529		26.110751	-0.498027	-80.865350
06530		26.026960	-0.620489	-80.163519
06531		25.945132	-0.745667	-79.458560
06532		25.854182	-0.878118	-78.749520
06533		25.739369	-1.008167	-78.034764
06534		25.592701	-1.128706	-77.310067
06535		25.420683	-1.242074	-76.576966
06536		25.222170	-1.358978	-75.845879
06537		24.989702	-1.470171	-75.117941
06538		24.749033	-1.569058	-74.383203
06539		24.508270	-1.671404	-73.646552
06540		24.279779	-1.786171	-72.908890
06541		24.069531	-1.900539	-72.165744
06542		23.891705	-2.006843	-71.416901
06543		23.748275	-2.108386	-70.669699
06544		23.656160	-2.215074	-69.926792
06545		23.608196	-2.317257	-69.189144
06546		23.600459	-2.410110	-68.445820
06547		23.613382	-2.498900	-67.696856
06548		23.634641	-2.585958	-66.942374
06549		23.651876	-2.672213	-66.187560
06550		23.653808	-2.765305	-65.441786
06551		23.632648	-2.861419	-64.698677
06552		23.596994	-2.949152	-63.957469
06553		23.552797	-3.035431	-63.219323
06554		23.499814	-3.127082	-62.477937
06555		23.446622	-3.219123	-61.736363
06556		23.407609	-3.315306	-61.005112
06557		23.376675	-3.412176	-60.279029
06558		23.348946	-3.495847	-59.551005
06559		23.304318	-3.553367	-58.822493
06560		23.234584	-3.599094	-58.096100
06561		23.142175	-3.633835	-57.375664
06562		23.048847	-3.674690	-56.657341
06563		22.953351	-3.723862	-55.946064
06564		22.884458	-3.776868	-55.238533
06565		22.851952	-3.833647	-54.536856
06566		22.864987	-3.893706	-53.840636
06567		22.902340	-3.953903	-53.152158
06568		22.949306	-4.014540	-52.464733
06569		22.986446	-4.060799	-51.776539
06570		22.995855	-4.094205	-51.087580
06571		22.976686	-4.115514	-50.398111
06572		22.941648	-4.124935	-49.709349
06573		22.896902	-4.136314	-49.028554
06574		22.862546	-4.161629	-48.355217
06575		22.837081	-4.189428	-47.690615
06576		22.827527	-4.225134	-47.035163
06577		22.811654	-4.258535	-46.391243
06578		22.787573	-4.285770	-45.761763
06579		22.738830	-4.305538	-45.143297
06580		22.670966	-4.314405	-44.540866
06581		22.586632	-4.318723	-43.949857
06582		22.492768	-4.322488	-43.368654
06583		22.399001	-4.327632	-42.801744
06584		22.327441	-4.337154	-42.245148
06585		22.276138	-4.352015	-41.705246
06586		22.231449	-4.372957	-41.174365
06587		22.165489	-4.382398	-40.649589
06588		22.087139	-4.382166	-40.133519
06589		21.993537	-4.382620	-39.629006
06590		21.891322	-4.383960	-39.135341
06591		21.785908	-4.374118	-38.646226
06592		21.697453	-4.357767	-38.158782
06593		21.620428	-4.351209	-37.677785
06594		21.565703	-4.349795	-37.204915
06595		21.533106	-4.350461	-36.738236
06596		21.524851	-4.354607	-36.281694
06597		21.521985	-4.356906	-35.832970
06598		21.522594	-4.351382	-35.386727
06599		21.512826	-4.342732	-34.941536
06600		21.485393	-4.326744	-34.500269
06601		21.446538	-4.310843	-34.061891
06602		21.394527	-4.289538	-33.623390
06603		21.329279	-4.261735	-33.184784
06604		21.278437	-4.225721	-32.745781
06605		21.241307	-4.192489	-32.311429
06606		21.220684	-4.161380	-31.878743
06607		21.212214	-4.125520	-31.447135
06608		21.223338	-4.088682	-31.022089
06609		21.238426	-4.054958	-30.604435
06610		21.237888	-4.021092	-30.193039
06611		21.194865	-3.978033	-29.779305
06612		21.118344	-3.930486	-29.364265
06613		21.021644	-3.884723	-28.950971
06614		20.919605	-3.840415	-28.546419
06615		20.827321	-3.800728	-28.153891
06616		20.773120	-3.771795	-27.781790
06617		20.758520	-3.753176	-27.425144
06618		20.764914	-3.740800	-27.073606
06619		20.761464	-3.723588	-26.723482
06620		20.752541	-3.703598	-26.374044
06621		20.729587	-3.681629	-26.032582
06622		20.700928	-3.659707	-25.700069
06623		20.671791	-3.625485	-25.378689
06624		20.662802	-3.592200	-25.068261
06625		20.673850	-3.571791	-24.767595
06626		20.692175	-3.554197	-24.467198
06627		20.722322	-3.530219	-24.160806
06628		20.760694	-3.510596	-23.854647
06629		20.800916	-3.500661	-23.550977
06630		20.842338	-3.486269	-23.244576
06631		20.886580	-3.460357	-22.939272
06632		20.932351	-3.429753	-22.636368
06633		20.971751	-3.393257	-22.338083
06634		21.004223	-3.357527	-22.040740
06635		21.025801	-3.326162	-21.742771
06636		21.035592	-3.287990	-21.440616
06637		21.031704	-3.247110	-21.132326
06638		21.003333	-3.200961	-20.819591
06639		20.960085	-3.148568	-20.501992
06640		20.921147	-3.096282	-20.190352
06641		20.892722	-3.043640	-19.885399
06642		20.877836	-2.981642	-19.584109
06643		20.863329	-2.922067	-19.281249
06644		20.845491	-2.864422	-18.978644
06645		20.829514	-2.804129	-18.680772
06646		20.816953	-2.750131	-18.385411
06647		20.806607	-2.697688	-18.092633
06648		20.796851	-2.647491	-17.807403
06649		20.799361	-2.593089	-17.529858
06650		20.820084	-2.541663	-17.258176
06651		20.837740	-2.497095	-16.989288
06652		20.815921	-2.452267	-16.714930
06653		20.754210	-2.409893	-16.436566
06654		20.670534	-2.372312	-16.161174
06655		20.580135	-2.335121	-15.897393
06656		20.503669	-2.299639	-15.651069
06657		20.444366	-2.267285	-15.419934
06658		20.406855	-2.237020	-15.193433
06659		20.386696	-2.206363	-14.965380
06660		20.383670	-2.182360	-14.739443
06661		20.384202	-2.162408	-14.519586
06662		20.383992	-2.146088	-14.311551
06663		20.390698	-2.131823	-14.120893
06664		20.405651	-2.121431	-13.940989
06665		20.422274	-2.114304	-13.769614
06666		20.437648	-2.112674	-13.598922
06667		20.442757	-2.111419	-13.424940
06668		20.434287	-2.105788	-13.255208
06669		20.412992	-2.097210	-13.091834
06670		20.376253	-2.073325	-12.936791
06671		20.321075	-2.045933	-12.786581
06672		20.253939	-2.017492	-12.640327
06673		20.183649	-1.994007	-12.498399
06674		20.100909	-1.973551	-12.360422
06675		20.007435	-1.956089	-12.225465
06676		19.920432	-1.935943	-12.097931
06677		19.844732	-1.912030	-11.975104
06678		19.787613	-1.885027	-11.857470
06679		19.752497	-1.857028	-11.747986
06680		19.730991	-1.824655	-11.645503
06681		19.720963	-1.793739	-11.550587
06682		19.707068	-1.767352	-11.459434
06683		19.670255	-1.739821	-11.370022
06684		19.624646	-1.708132	-11.281268
06685		19.581142	-1.680398	-11.198202
06686		19.537113	-1.651278	-11.126159
06687		19.494718	-1.616449	-11.062006
06688		19.452907	-1.569788	-11.004056
06689		19.411108	-1.531697	-10.947595
06690		19.379291	-1.503550	-10.907180
06691		19.347574	-1.477357	-10.872534
06692		19.320634	-1.445574	-10.843721
06693		19.296519	-1.419486	-10.818308
06694		19.267811	-1.399989	-10.803319
06695		19.238990	-1.380441	-10.795081
06696		19.217428	-1.355931	-10.793518
06697		19.199023	-1.332298	-10.799519
06698		19.181980	-1.308146	-10.814278
06699		19.175645	-1.281694	-10.838925
06700		19.177323	-1.262520	-10.874843
06701		19.174361	-1.246563	-10.915250
06702		19.156926	-1.221455	-10.958091
06703		19.137379	-1.195798	-11.006594
06704		19.123691	-1.176758	-11.068847
06705		19.113448	-1.157260	-11.135449
06706		19.125831	-1.131447	-11.208605
06707		19.156503	-1.114372	-11.291942
06708		19.183607	-1.103692	-11.384479
06709		19.197174	-1.079717	-11.480200
06710		19.203484	-1.050722	-11.578476
06711		19.200224	-1.035918	-11.684699
06712		19.183378	-1.027924	-11.794632
06713		19.156920	-1.008298	-11.904060
06714		19.131570	-0.980849	-12.017424
06715		19.121154	-0.969781	-12.139910
06716		19.121614	-0.968943	-12.271282
06717		19.125014	-0.960961	-12.404591
06718		19.136346	-0.945645	-12.538880
06719		19.163480	-0.940792	-12.682339
06720		19.186981	-0.948782	-12.838156
06721		19.200604	-0.951692	-12.996584
06722		19.211325	-0.944181	-13.155982
06723		19.214681	-0.949690	-13.319305
06724		19.210283	-0.967573	-13.489886
06725		19.198130	-0.980091	-13.662068
06726		19.192744	-0.987757	-13.835233
06727		19.200078	-1.007271	-14.012940
06728		19.198360	-1.039054	-14.197865
06729		19.198693	-1.058163	-14.383715
06730		19.212801	-1.071978	-14.577582
06731		19.231804	-1.095990	-14.783614
06732		19.240586	-1.121417	-15.000766
06733		19.248901	-1.146064	-15.227124
06734		19.257667	-1.179922	-15.458955
06735		19.252243	-1.211258	-15.691821
06736		19.236533	-1.244190	-15.928366
06737		19.229278	-1.288209	-16.175088
06738		19.218833	-1.332202	-16.429137
06739		19.216445	-1.372500	-16.696093
06740		19.230372	-1.416160	-16.977892
06741		19.258603	-1.462824	-17.271803
06742		19.291466	-1.509996	-17.574970
06743		19.334673	-1.557714	-17.887730
06744		19.369166	-1.609050	-18.206626
06745		19.393280	-1.653183	-18.533623
06746		19.409656	-1.694621	-18.870400
06747		19.436489	-1.738863	-19.217181
06748		19.471766	-1.780769	-19.573787
06749		19.515189	-1.820880	-19.935366
06750		19.570420	-1.857798	-20.305358
06751		19.635047	-1.899313	-20.684618
06752		19.700391	-1.942375	-21.073220
06753		19.764747	-1.979344	-21.472263
06754		19.819603	-2.009198	-21.878385
06755		19.864494	-2.038570	-22.288061
06756		19.892856	-2.065686	-22.704417
06757		19.911465	-2.090835	-23.127761
06758		19.929560	-2.114521	-23.561364
06759		19.956968	-2.136969	-24.001680
06760		19.992324	-2.156133	-24.449916
06761		20.045802	-2.181221	-24.905464
06762		20.107695	-2.206604	-25.370372
06763		20.174388	-2.223788	-25.841045
06764		20.241798	-2.241538	-26.328044
06765		20.309473	-2.255790	-26.824163
06766		20.365562	-2.264737	-27.323873
06767		20.411532	-2.265046	-27.835948
06768		20.447045	-2.269029	-28.362529
06769		20.479362	-2.276267	-28.908174
06770		20.503248	-2.280306	-29.464845
06771		20.535402	-2.282955	-30.027477
06772		20.578981	-2.292739	-30.591671
06773		20.624924	-2.299744	-31.159381
06774		20.666554	-2.300289	-31.735887
06775		20.721043	-2.302967	-32.326439
06776		20.785745	-2.299454	-32.936950
06777		20.867682	-2.283138	-33.568114
06778		20.955194	-2.267378	-34.214450
06779		21.041396	-2.269088	-34.858489
06780		21.110130	-2.270945	-35.504641
06781		21.161566	-2.266210	-36.150683
06782		21.193236	-2.265210	-36.803791
06783		21.198167	-2.265572	-37.468049
06784		21.183493	-2.259434	-38.144370
06785		21.181687	-2.257117	-38.827977
06786		21.193698	-2.260649	-39.517497
06787		21.225099	-2.263916	-40.212164
06788		21.278375	-2.262029	-40.915919
06789		21.360271	-2.259812	-41.630925
06790		21.467778	-2.270721	-42.351316
06791		21.586967	-2.293229	-43.064256
06792		21.696346	-2.312900	-43.769207
06793		21.804924	-2.329086	-44.475525
06794		21.901958	-2.354237	-45.186438
06795		21.988309	-2.377654	-45.905190
06796		22.069143	-2.392589	-46.630025
06797		22.155804	-2.403889	-47.355465
06798		22.239676	-2.416538	-48.070827
06799		22.317470	-2.436035	-48.781043
06800		22.390938	-2.458747	-49.485318
06801		22.459764	-2.486421	-50.179336
06802		22.504268	-2.510493	-50.869312
06803		22.541485	-2.533463	-51.561296
06804		22.570319	-2.558471	-52.256619
06805		22.594590	-2.574781	-52.953169
06806		22.614990	-2.581965	-53.654107
06807		22.653459	-2.593486	-54.357125
06808		22.700211	-2.604748	-55.059813
06809		22.758048	-2.610452	-55.765590
06810		22.840175	-2.621651	-56.462732
06811		22.931573	-2.630434	-57.156715
06812		23.017387	-2.636085	-57.847045
06813		23.101069	-2.638435	-58.533708
06814		23.171211	-2.633469	-59.219578
06815		23.236720	-2.620079	-59.897230
06816		23.298581	-2.610502	-60.568078
06817		23.362068	-2.596966	-61.233333
06818		23.440593	-2.577838	-61.888473
06819		23.527309	-2.553088	-62.538875
06820		23.614713	-2.531280	-63.186086
06821		23.707991	-2.503709	-63.833828
06822		23.797974	-2.471179	-64.480547
06823		23.885729	-2.432683	-65.124525
06824		23.966738	-2.398796	-65.764319
06825		24.025911	-2.361606	-66.395752
06826		24.064551	-2.306749	-67.017686
06827		24.094434	-2.254418	-67.627335
06828		24.110392	-2.213549	-68.229841
06829		24.116735	-2.169999	-68.813955
06830		24.121557	-2.122639	-69.376465
06831		24.136366	-2.076532	-69.924433
06832		24.151766	-2.021097	-70.458864
06833		24.192350	-1.956707	-70.978782
06834		24.262333	-1.894614	-71.489667
06835		24.357059	-1.838719	-71.984757
06836		24.463976	-1.782087	-72.455867
06837		24.565047	-1.725962	-72.907158
06838		24.661131	-1.672246	-73.339046
06839		24.751822	-1.621572	-73.748124
06840		24.820005	-1.567789	-74.131672
06841		24.885571	-1.508868	-74.495533
06842		24.962319	-1.449645	-74.853573
06843		25.063797	-1.389868	-75.203864
06844		25.195539	-1.331236	-75.543809
06845		25.349982	-1.278123	-75.869124
06846		25.511228	-1.223355	-76.172775
06847		25.673485	-1.171294	-76.459290
06848		25.821572	-1.118201	-76.740428
06849		25.966024	-1.059387	-77.027431
06850		26.117668	-1.000924	-77.319394
06851		26.278965	-0.945830	-77.619921
06852		26.454995	-0.900265	-77.922094
06853		26.624347	-0.854479	-78.219575
06854		26.781824	-0.801025	-78.506632
06855		26.931399	-0.748581	-78.783603
06856		27.073212	-0.700695	-79.060589
06857		27.203880	-0.658411	-79.338481
06858		27.310818	-0.607759	-79.618047
06859		27.418184	-0.553134	-79.891041
06860		27.511916	-0.508203	-80.168839
06861		27.585096	-0.467488	-80.443432
06862		27.636636	-0.421209	-80.707651
06863		27.664703	-0.371881	-80.959082
06864		27.677975	-0.324689	-81.203493
06865		27.694886	-0.283902	-81.440833
06866		27.732582	-0.248546	-81.685249
06867		27.788683	-0.219203	-81.929806
06868		27.860353	-0.194351	-82.173276
06869		27.942709	-0.167546	-82.411877
06870		28.031107	-0.136470	-82.644297
06871		28.127744	-0.101301	-82.870163
06872		28.233192	-0.074182	-83.087262
06873		28.330007	-0.053554	-83.299512
06874		28.410266	-0.026834	-83.504494
06875		28.495345	0.012141	-83.702859
06876		28.588573	0.049084	-83.900675
06877		28.693940	0.078082	-84.103438
06878		28.822232	0.106858	-84.307069
06879		28.969301	0.139128	-84.511252
06880		29.121712	0.170666	-84.713760
06881		29.260606	0.201817	-84.909036
06882		29.364573	0.240303	-85.089967
06883		29.437860	0.289854	-85.263000
06884		29.490223	0.331030	-85.434062
06885		29.541910	0.356165	-85.611362
06886		29.588613	0.372708	-85.800007
06887		29.631207	0.391624	-85.992430
06888		29.673587	0.416625	-86.180341
06889		29.718502	0.439991	-86.358822
06890		29.762394	0.452634	-86.534643
06891		29.798412	0.469794	-86.699196
06892		29.846939	0.489699	-86.856231
06893		29.903979	0.503463	-87.014493
06894		29.968454	0.514573	-87.177104
06895		30.048026	0.528946	-87.332829
06896		30.133342	0.549059	-87.480148
06897		30.208460	0.565485	-87.616597
06898		30.276569	0.586593	-87.747148
06899		30.339580	0.614866	-87.877038
06900		30.405242	0.638197	-88.005801
06901		30.463850	0.659665	-88.133830
06902		30.511036	0.683782	-88.253861
06903		30.552518	0.714586	-88.360822
06904		30.584163	0.739485	-88.461518
06905		30.612952	0.764948	-88.562921
06906		30.649949	0.787988	-88.658358
06907		30.680184	0.819257	-88.745745
06908		30.704371	0.855360	-88.816844
06909		30.711685	0.889407	-88.878370
06910		30.699777	0.920318	-88.930305
06911		30.673997	0.950631	-88.971910
06912		30.648203	0.982967	-89.008169
06913		30.621203	1.016488	-89.039304
06914		30.603824	1.051202	-89.062450
06915		30.587467	1.086834	-89.082845
06916		30.580024	1.116328	-89.101254
06917		30.576217	1.139788	-89.116310
06918		30.574936	1.157512	-89.126041
06919		30.572153	1.174781	-89.129155
06920		30.562365	1.190884	-89.125604
06921		30.550845	1.206895	-89.119671
06922		30.526429	1.218742	-89.106525
06923		30.497364	1.229876	-89.084759
06924		30.470342	1.244838	-89.051010
06925		30.451725	1.252603	-89.009698
06926		30.451440	1.254401	-88.960974
06927		30.470993	1.251165	-88.906285
06928		30.506043	1.243265	-88.841600
06929		30.548777	1.241452	-88.766521
06930		30.591459	1.237131	-88.682603
06931		30.620134	1.224438	-88.593210
06932		30.626376	1.205024	-88.493016
06933		30.607529	1.183605	-88.379389
06934		30.569190	1.163089	-88.252300
06935		30.512074	1.144144	-88.112192
06936		30.448649	1.126432	-87.959882
06937		30.390608	1.102445	-87.797752
06938		30.349417	1.076867	-87.632298
06939		30.324800	1.048420	-87.453320
06940		30.316698	1.015287	-87.263269
06941		30.311141	0.981975	-87.058591
06942		30.309871	0.945086	-86.840994
06943		30.301704	0.902868	-86.610881
06944		30.282507	0.859864	-86.371265
06945		30.254333	0.814792	-86.121206
06946		30.220445	0.770352	-85.862909
06947		30.169202	0.727745	-85.590983
06948		30.117677	0.687453	-85.305306
06949		30.066314	0.635781	-85.011905
06950		30.017816	0.577894	-84.709638
06951		29.976788	0.519081	-84.398739
06952		29.941298	0.462176	-84.075045
06953		29.904595	0.403930	-83.742711
06954		29.880742	0.339824	-83.399497
06955		29.865298	0.264644	-83.052271
06956		29.864234	0.185853	-82.698662
06957		29.873422	0.112803	-82.331078
06958		29.879046	0.042797	-81.948029
06959		29.880328	-0.022579	-81.545387
06960		29.890227	-0.092257	-81.119080
06961		29.913095	-0.164659	-80.670492
06962		29.952587	-0.239341	-80.203113
06963		30.012419	-0.316338	-79.717292
06964		30.092724	-0.388852	-79.212594
06965		30.185056	-0.464390	-78.693965
06966		30.276043	-0.537266	-78.160445
06967		30.357852	-0.603863	-77.607841
06968		30.409536	-0.663601	-77.041670
06969		30.403966	-0.717532	-76.465663
06970		30.358646	-0.758877	-75.870973
06971		30.284279	-0.787741	-75.257113
06972		30.194304	-0.816874	-74.633555
06973		30.115683	-0.848699	-74.001219
06974		30.073313	-0.887539	-73.370880
06975		30.055214	-0.932635	-72.747773
06976		30.068250	-0.967989	-72.127022
06977		30.099281	-0.989648	-71.506318
06978		30.127690	-0.994737	-70.881823
06979		30.143498	-0.996754	-70.247182
06980		30.157916	-0.996434	-69.603995
06981		30.175643	-0.998493	-68.960878
06982		30.212654	-1.004959	-68.319900
06983		30.264870	-1.019117	-67.687640
06984		30.332574	-1.024708	-67.065790
06985		30.396074	-1.028007	-66.444419
06986		30.437949	-1.031028	-65.825502
06987		30.439551	-1.035591	-65.203840
06988		30.406915	-1.035112	-64.581024
06989		30.333442	-1.031761	-63.961957
06990		30.230668	-1.029502	-63.344262
06991		30.119207	-1.029573	-62.726123
06992		30.013650	-1.023891	-62.109527
06993		29.921050	-1.014274	-61.487404
06994		29.852150	-1.005156	-60.868573
06995		29.800477	-0.999655	-60.258261
06996		29.778277	-0.994371	-59.652894
06997		29.783913	-0.994119	-59.050539
06998		29.793890	-0.997327	-58.436112
06999		29.776093	-0.996721	-57.805675
07000		29.723505	-0.996748	-57.172068
07001		29.639373	-0.994368	-56.535231
07002		29.546512	-0.991814	-55.892209
07003		29.451227	-0.992802	-55.241784
07004		29.383470	-1.001718	-54.586517
07005		29.345275	-1.015672	-53.931387
07006		29.351556	-1.032566	-53.277151
07007		29.386943	-1.055063	-52.624724
07008		29.428176	-1.073875	-51.965125
07009		29.448127	-1.089299	-51.298958
07010		29.434193	-1.104646	-50.627094
07011		29.371952	-1.124817	-49.946027
07012		29.291285	-1.144024	-49.261257
07013		29.205321	-1.165124	-48.576633
07014		29.138480	-1.188149	-47.901212
07015		29.088131	-1.216637	-47.247869
07016		29.040863	-1.242704	-46.600626
07017		28.953232	-1.272294	-45.948820
07018		28.779927	-1.297551	-45.296035
07019		28.516369	-1.309715	-44.637577
07020		28.183619	-1.319695	-43.975487
07021		27.800165	-1.325871	-43.319193
07022		27.413030	-1.321406	-42.668241
07023		27.063003	-1.320156	-42.034185
07024		26.760049	-1.309159	-41.415237
07025		26.512677	-1.277460	-40.805189
07026		26.321303	-1.243985	-40.189572
07027		26.148529	-1.213477	-39.560110
07028		25.993648	-1.193569	-38.921793
07029		25.847854	-1.181797	-38.284365
07030		25.712027	-1.170703	-37.664017
07031		25.594936	-1.169893	-37.073633
07032		25.507940	-1.187185	-36.507185
07033		25.443910	-1.206983	-35.951127
07034		25.389267	-1.227283	-35.392135
07035		25.321954	-1.254617	-34.835077
07036		25.237394	-1.279141	-34.280564
07037		25.141342	-1.311235	-33.737522
07038		25.051478	-1.358864	-33.209901
07039		24.988116	-1.408187	-32.691241
07040		24.954348	-1.455543	-32.177368
07041		24.936495	-1.504476	-31.673161
07042		24.929507	-1.550981	-31.170713
07043		24.921214	-1.594715	-30.671561
07044		24.899607	-1.638044	-30.175707
07045		24.860898	-1.676544	-29.684959
07046		24.807998	-1.705309	-29.200070
07047		24.740533	-1.733646	-28.726467
07048		24.667434	-1.758355	-28.266681
07049		24.570668	-1.767082	-27.812721
07050		24.445675	-1.760087	-27.361834
07051		24.283101	-1.741628	-26.909234
07052		24.068964	-1.708670	-26.445024
07053		23.805743	-1.656915	-25.974311
07054		23.510339	-1.582517	-25.500333
07055		23.217217	-1.491311	-25.023686
07056		22.945979	-1.395091	-24.545157
07057		22.715323	-1.318017	-24.075128
07058		22.510330	-1.261109	-23.614967
07059		22.316074	-1.205071	-23.157437
07060		22.142525	-1.154611	-22.702700
07061		22.000400	-1.120667	-22.249661
07062		21.915544	-1.090844	-21.794225
07063		21.908686	-1.068278	-21.339626
07064		21.975188	-1.071306	-20.895024
07065		22.080253	-1.089215	-20.465750
07066		22.209073	-1.102879	-20.047271
07067		22.360109	-1.105203	-19.635971
07068		22.520991	-1.107660	-19.228473
07069		22.652012	-1.121111	-18.824079
07070		22.742452	-1.146007	-18.428012
07071		22.778438	-1.172742	-18.041798
07072		22.768504	-1.172107	-17.660203
07073		22.726428	-1.153899	-17.292227
07074		22.653466	-1.151964	-16.933236
07075		22.561999	-1.169341	-16.574499
07076		22.470572	-1.176593	-16.216961
07077		22.399958	-1.178873	-15.866384
07078		22.355320	-1.182967	-15.531788
07079		22.336468	-1.180451	-15.205796
07080		22.342990	-1.172386	-14.883372
07081		22.358777	-1.171444	-14.563460
07082		22.375250	-1.164090	-14.245378
07083		22.388631	-1.158135	-13.929542
07084		22.404390	-1.157547	-13.618138
07085		22.421694	-1.161237	-13.304946
07086		22.447633	-1.172516	-12.989384
07087		22.472261	-1.188436	-12.668179
07088		22.497599	-1.196435	-12.340389
07089		22.526519	-1.199701	-12.014289
07090		22.553510	-1.204566	-11.687009
07091		22.572669	-1.208415	-11.361511
07092		22.573403	-1.216455	-11.037288
07093		22.540940	-1.226366	-10.712626
07094		22.458834	-1.222670	-10.384454
07095		22.338465	-1.198176	-10.056968
07096		22.174779	-1.164949	-9.739640
07097		21.974505	-1.131146	-9.434102
07098		21.753746	-1.108905	-9.137241
07099		21.535859	-1.095385	-8.850037
07100		21.323630	-1.073650	-8.574048
07101		21.133141	-1.048366	-8.310126
07102		20.967508	-1.027102	-8.062561
07103		20.830467	-1.003842	-7.831255
07104		20.730703	-0.981983	-7.620132
07105		20.664431	-0.961762	-7.425096
07106		20.618212	-0.936084	-7.240863
07107		20.583509	-0.905541	-7.063358
07108		20.556118	-0.886306	-6.894112
07109		20.522382	-0.874515	-6.735454
07110		20.501676	-0.856256	-6.593880
07111		20.501996	-0.830627	-6.472819
07112		20.518805	-0.810403	-6.377806
07113		20.533718	-0.805704	-6.298226
07114		20.544768	-0.790648	-6.224959
07115		20.554828	-0.769455	-6.155991
07116		20.560426	-0.753879	-6.093494
07117		20.578357	-0.731929	-6.046437
07118		20.639756	-0.695638	-6.019804
07119		20.745981	-0.660706	-6.012011
07120		20.877404	-0.632354	-6.017405
07121		21.025815	-0.610519	-6.028833
07122		21.162127	-0.593787	-6.043855
07123		21.272697	-0.575367	-6.060780
07124		21.365238	-0.549631	-6.084379
07125		21.447164	-0.522698	-6.118939
07126		21.536185	-0.500688	-6.168721
07127		21.621216	-0.487936	-6.229158
07128		21.685396	-0.471607	-6.287663
07129		21.733805	-0.446633	-6.333764
07130		21.758421	-0.425500	-6.375088
07131		21.759294	-0.405131	-6.413976
07132		21.748833	-0.388418	-6.451796
07133		21.742202	-0.377098	-6.496324
07134		21.751891	-0.373538	-6.556220
07135		21.778920	-0.378775	-6.627847
07136		21.817580	-0.382455	-6.700010
07137		21.870767	-0.379956	-6.767482
07138		21.914390	-0.375810	-6.825148
07139		21.950830	-0.370216	-6.880917
07140		21.993096	-0.365776	-6.942537
07141		22.045465	-0.369713	-7.013307
07142		22.095188	-0.381225	-7.092677
07143		22.135918	-0.388845	-7.173979
07144		22.179432	-0.382607	-7.254575
07145		22.218517	-0.380576	-7.330788
07146		22.239785	-0.381297	-7.406832
07147		22.252922	-0.379234	-7.483830
07148		22.260600	-0.375032	-7.565389
07149		22.265353	-0.377585	-7.655878
07150		22.269687	-0.382702	-7.756134
07151		22.287508	-0.383901	-7.862248
07152		22.316771	-0.378460	-7.966662
07153		22.345219	-0.373539	-8.072323
07154		22.368204	-0.370807	-8.178735
07155		22.382079	-0.376290	-8.292355
07156		22.393593	-0.384304	-8.415423
07157		22.409614	-0.390846	-8.548206
07158		22.432579	-0.400436	-8.690350
07159		22.475755	-0.408997	-8.838280
07160		22.544968	-0.409214	-8.978768
07161		22.645979	-0.406913	-9.120520
07162		22.781857	-0.404488	-9.263496
07163		22.951886	-0.406770	-9.423257
07164		23.152178	-0.413714	-9.596022
07165		23.368735	-0.423313	-9.779839
07166		23.581684	-0.429997	-9.971706
07167		23.783591	-0.445218	-10.170339
07168		23.951261	-0.459157	-10.369703
07169		24.080888	-0.472785	-10.567859
07170		24.175665	-0.480591	-10.768216
07171		24.247936	-0.483797	-10.974594
07172		24.292722	-0.493166	-11.193775
07173		24.320200	-0.508808	-11.431168
07174		24.325641	-0.528973	-11.677193
07175		24.313426	-0.563082	-11.930501
07176		24.306112	-0.601035	-12.188751
07177		24.318747	-0.636634	-12.452324
07178		24.349527	-0.681453	-12.729018
07179		24.409854	-0.737299	-13.016827
07180		24.492891	-0.792643	-13.314674
07181		24.584733	-0.854129	-13.616086
07182		24.657347	-0.920146	-13.923767
07183		24.715467	-0.981078	-14.235459
07184		24.749631	-1.045969	-14.556182
07185		24.770509	-1.114501	-14.888207
07186		24.793169	-1.186838	-15.237213
07187		24.826596	-1.266251	-15.593876
07188		24.878635	-1.343508	-15.955884
07189		24.946739	-1.419447	-16.326411
07190		25.015325	-1.499380	-16.704768
07191		25.086606	-1.575742	-17.090994
07192		25.165132	-1.641073	-17.485863
07193		25.251083	-1.703946	-17.896494
07194		25.340451	-1.777986	-18.327782
07195		25.437841	-1.854927	-18.761145
07196		25.530445	-1.925602	-19.194523
07197		25.611922	-1.996968	-19.632213
07198		25.675316	-2.077097	-20.080393
07199		25.742520	-2.157489	-20.543313
07200		25.826681	-2.234448	-21.026182
07201		25.933577	-2.317989	-21.527918
07202		26.062004	-2.410090	-22.041881
07203		26.218080	-2.503073	-22.570304
07204		26.379882	-2.606213	-23.111623
07205		26.531827	-2.717700	-23.663761
07206		26.672539	-2.829081	-24.230294
07207		26.807264	-2.941392	-24.814040
07208		26.931780	-3.055888	-25.415080
07209		27.053389	-3.162945	-26.039087
07210		27.166041	-3.268441	-26.684816
07211		27.269787	-3.370860	-27.354051
07212		27.368026	-3.457438	-28.042088
07213		27.466650	-3.530228	-28.747393
07214		27.563526	-3.582055	-29.467268
07215		27.666282	-3.622612	-30.204699
07216		27.774118	-3.651495	-30.960401
07217		27.893779	-3.675494	-31.730977
07218		28.016046	-3.691932	-32.516624
07219		28.146401	-3.699419	-33.305778
07220		28.278167	-3.704384	-34.097804
07221		28.412119	-3.703404	-34.891568
07222		28.537529	-3.698789	-35.686563
07223		28.658066	-3.684092	-36.480926
07224		28.761454	-3.660806	-37.273900
07225		28.857521	-3.636901	-38.073161
07226		28.940132	-3.605099	-38.876583
07227		29.022269	-3.574473	-39.670752
07228		29.090414	-3.547707	-40.462109
07229		29.147238	-3.515480	-41.243393
07230		29.200723	-3.487495	-42.018306
07231		29.256535	-3.467730	-42.785952
07232		29.304649	-3.453096	-43.548430
07233		29.362558	-3.438288	-44.301365
07234		29.438182	-3.425337	-45.052401
07235		29.538494	-3.408116	-45.798618
07236		29.647428	-3.381149	-46.547742
07237		29.757667	-3.349477	-47.302554
07238		29.865295	-3.310775	-48.056251
07239		29.955396	-3.264179	-48.804133
07240		30.009631	-3.212944	-49.542369
07241		30.045266	-3.163752	-50.267615
07242		30.042431	-3.107437	-50.976465
07243		30.009004	-3.043598	-51.683988
07244		29.955920	-2.976661	-52.390717
07245		29.897489	-2.904791	-53.097008
07246		29.835742	-2.823848	-53.801196
07247		29.777461	-2.724774	-54.494965
07248		29.707559	-2.609523	-55.186123
07249		29.623061	-2.473344	-55.878459
07250		29.516355	-2.329338	-56.571848
07251		29.394647	-2.191664	-57.252206
07252		29.220203	-2.055372	-57.917269
07253		29.017813	-1.921832	-58.557501
07254		28.808579	-1.792822	-59.176316
07255		28.613472	-1.660228	-59.776451
07256		28.451926	-1.520000	-60.370305
07257		28.330453	-1.384073	-60.962414
07258		28.242992	-1.249385	-61.557126
07259		28.174863	-1.120281	-62.154325
07260		28.123429	-1.002668	-62.751606
07261		28.093216	-0.901787	-63.345573
07262		28.072721	-0.819515	-63.928267
07263		28.052716	-0.747584	-64.498482
07264		28.022359	-0.678036	-65.060671
07265		27.986528	-0.612857	-65.619546
07266		27.948270	-0.549866	-66.181617
07267		27.910961	-0.485319	-66.746898
07268		27.872124	-0.424185	-67.313840
07269		27.843052	-0.369347	-67.877589
07270		27.816321	-0.324290	-68.436719
07271		27.777903	-0.287615	-68.991538
07272		27.724971	-0.252497	-69.546765
07273		27.673853	-0.226595	-70.106533
07274		27.629366	-0.205046	-70.674811
07275		27.596535	-0.188077	-71.253203
07276		27.582087	-0.177840	-71.833798
07277		27.588711	-0.178846	-72.407236
07278		27.594755	-0.186657	-72.977303
07279		27.589549	-0.194001	-73.547215
07280		27.570175	-0.201726	-74.116137
07281		27.545943	-0.213115	-74.695964
07282		27.529350	-0.227410	-75.292102
07283		27.537299	-0.239695	-75.898534
07284		27.573151	-0.247938	-76.507003
07285		27.642265	-0.256478	-77.118728
07286		27.738947	-0.274331	-77.729859
07287		27.849465	-0.293058	-78.336875
07288		27.988439	-0.313947	-78.939696
07289		28.161762	-0.339050	-79.543144
07290		28.375624	-0.371954	-80.144110
07291		28.624676	-0.404341	-80.745547
07292		28.893382	-0.425417	-81.340207
07293		29.202271	-0.439550	-81.925016
07294		29.552424	-0.465764	-82.499803
07295		29.926618	-0.501973	-83.069164
07296		30.294602	-0.528287	-83.633266
07297		30.633063	-0.551745	-84.185010
07298		30.911683	-0.566987	-84.727836
07299		31.116184	-0.582654	-85.256231
07300		31.253645	-0.602851	-85.763947
07301		31.326168	-0.628472	-86.249271
07302		31.358344	-0.658490	-86.717343
07303		31.381831	-0.688394	-87.171500
07304		31.412375	-0.720936	-87.611949
07305		31.455439	-0.751515	-88.046297
07306		31.510051	-0.784995	-88.479304
07307		31.570770	-0.818536	-88.909957
07308		31.631991	-0.850751	-89.335590
07309		31.690780	-0.889537	-89.759106
07310		31.735612	-0.921067	-90.175325
07311		31.782609	-0.941516	-90.581307
07312		31.847333	-0.955350	-90.982101
07313		31.947641	-0.968980	-91.384891
07314		32.083778	-0.978776	-91.794042
07315		32.239661	-0.983433	-92.203787
07316		32.400825	-0.989470	-92.615947
07317		32.533942	-0.992191	-93.027821
07318		32.622926	-0.983059	-93.430732
07319		32.670733	-0.960168	-93.821601
07320		32.686195	-0.932044	-94.204685
07321		32.678638	-0.899484	-94.580897
07322		32.655800	-0.864342	-94.949845
07323		32.623955	-0.824334	-95.313674
07324		32.581520	-0.779838	-95.671470
07325		32.533946	-0.727142	-96.020893
07326		32.490228	-0.668392	-96.363142
07327		32.450544	-0.613845	-96.699660
07328		32.403315	-0.547977	-97.020365
07329		32.352095	-0.477210	-97.324449
07330		32.296286	-0.412641	-97.615595
07331		32.230346	-0.350296	-97.891566
07332		32.158255	-0.281799	-98.145553
07333		32.078593	-0.208764	-98.373186
07334		31.987161	-0.135304	-98.579319
07335		31.892039	-0.063198	-98.771837
07336		31.818149	0.014651	-98.958991
07337		31.789510	0.083480	-99.144044
07338		31.809712	0.141775	-99.329244
07339		31.857429	0.203767	-99.510945
07340		31.931892	0.269210	-99.684673
07341		32.012521	0.333893	-99.857659
07342		32.078743	0.401988	-100.024646
07343		32.123488	0.475048	-100.178306
07344		32.149823	0.554537	-100.315646
07345		32.168180	0.629888	-100.442938
07346		32.187499	0.702035	-100.562336
07347		32.210807	0.775308	-100.677347
07348		32.252947	0.842695	-100.791825
07349		32.300548	0.905338	-100.909951
07350		32.337423	0.980083	-101.017166
07351		32.368490	1.064966	-101.110246
07352		32.394688	1.139861	-101.196576
07353		32.412091	1.210040	-101.279228
07354		32.423864	1.293272	-101.352819
07355		32.446922	1.371111	-101.415249
07356		32.473828	1.442417	-101.471358
07357		32.502041	1.510834	-101.515130
07358		32.531612	1.582882	-101.545993
07359		32.559730	1.648566	-101.571298
07360		32.590543	1.709623	-101.593013
07361		32.625648	1.766721	-101.605315
07362		32.663889	1.822377	-101.609915
07363		32.701347	1.873646	-101.610286
07364		32.736839	1.920398	-101.598375
07365		32.768203	1.969010	-101.578995
07366		32.791896	2.015598	-101.549869
07367		32.804462	2.058127	-101.517805
07368		32.810470	2.100229	-101.477593
07369		32.812030	2.142389	-101.430963
07370		32.809411	2.178500	-101.371739
07371		32.807574	2.214946	-101.307046
07372		32.812264	2.245891	-101.236719
07373		32.815911	2.276681	-101.162517
07374		32.816116	2.315209	-101.077194
07375		32.812369	2.350824	-100.983274
07376		32.802587	2.384001	-100.893666
07377		32.777040	2.416976	-100.804338
07378		32.736147	2.453180	-100.710405
07379		32.668857	2.485673	-100.609054
07380		32.567061	2.513129	-100.505683
07381		32.446567	2.540927	-100.395267
07382		32.332019	2.566968	-100.280084
07383		32.236342	2.588199	-100.168068
07384		32.167454	2.608144	-100.056408
07385		32.142381	2.624550	-99.944904
07386		32.155283	2.630797	-99.827829
07387		32.192050	2.622596	-99.708489
07388		32.239267	2.608250	-99.582465
07389		32.294393	2.593643	-99.443802
07390		32.349850	2.573000	-99.292738
07391		32.388631	2.543535	-99.136811
07392		32.398182	2.513546	-98.969232
07393		32.377352	2.484196	-98.792602
07394		32.327220	2.453990	-98.607166
07395		32.248065	2.422444	-98.411394
07396		32.154143	2.391044	-98.203622
07397		32.054773	2.357880	-97.980094
07398		31.965321	2.317479	-97.749730
07399		31.896317	2.271962	-97.511670
07400		31.860430	2.223059	-97.267482
07401		31.851256	2.177134	-97.018219
07402		31.863871	2.130953	-96.761630
07403		31.877420	2.084838	-96.493072
07404		31.881308	2.043334	-96.210364
07405		31.868834	2.005715	-95.912366
07406		31.842782	1.971764	-95.601113
07407		31.816489	1.943348	-95.272016
07408		31.806342	1.920299	-94.919156
07409		31.810723	1.906053	-94.539142
07410		31.832393	1.902228	-94.141277
07411		31.874981	1.900313	-93.733628
07412		31.946311	1.903832	-93.316962
07413		32.031135	1.899774	-92.886200
07414		32.099593	1.894931	-92.432381
07415		32.137620	1.887281	-91.947674
07416		32.143541	1.884063	-91.442475
07417		32.121813	1.884682	-90.917758
07418		32.093305	1.884528	-90.382298
07419		32.060964	1.880025	-89.833468
07420		32.028988	1.871047	-89.272991
07421		31.994353	1.853062	-88.702844
07422		31.950339	1.837167	-88.126922
07423		31.880219	1.828715	-87.543567
07424		31.785371	1.827623	-86.953691
07425		31.658790	1.821719	-86.364313
07426		31.503071	1.815892	-85.768319
07427		31.321461	1.814941	-85.162806
07428		31.125627	1.817939	-84.552719
07429		30.922933	1.822121	-83.941177
07430		30.729788	1.831854	-83.329859
07431		30.558261	1.840208	-82.720712
07432		30.417852	1.845152	-82.119588
07433		30.303610	1.846911	-81.524623
07434		30.222146	1.849247	-80.934815
07435		30.173958	1.848308	-80.355272
07436		30.149079	1.845493	-79.780466
07437		30.143814	1.839436	-79.203793
07438		30.160603	1.834685	-78.623640
07439		30.195053	1.837443	-78.037198
07440		30.253738	1.838150	-77.436351
07441		30.341364	1.836228	-76.829927
07442		30.471365	1.826056	-76.210010
07443		30.650153	1.808564	-75.596607
07444		30.874878	1.771198	-74.999553
07445		31.140001	1.717126	-74.410265
07446		31.381042	1.658545	-73.817712
07447		31.538238	1.589742	-73.222517
07448		31.597403	1.531918	-72.605783
07449		31.564048	1.476415	-71.970328
07450		31.453838	1.425146	-71.337637
07451		31.300588	1.370894	-70.707700
07452		31.153578	1.319094	-70.088882
07453		31.024296	1.259088	-69.495375
07454		30.903368	1.189874	-68.927232
07455		30.762968	1.132566	-68.366638
07456		30.587577	1.088913	-67.801348
07457		30.371375	1.043118	-67.233686
07458		30.114683	1.004250	-66.663748
07459		29.831762	0.964088	-66.094261
07460		29.555413	0.926853	-65.524051
07461		29.307300	0.885615	-64.948984
07462		29.116322	0.841177	-64.368245
07463		28.980511	0.795055	-63.787663
07464		28.912338	0.751637	-63.209530
07465		28.895994	0.708117	-62.631980
07466		28.915139	0.662994	-62.063405
07467		28.944244	0.618869	-61.504429
07468		28.980606	0.577704	-60.946407
07469		29.011676	0.533120	-60.387978
07470		29.015059	0.485908	-59.825503
07471		28.977014	0.438990	-59.248939
07472		28.910460	0.389532	-58.660740
07473		28.821962	0.332816	-58.065257
07474		28.732194	0.277713	-57.459241
07475		28.655354	0.225287	-56.844844
07476		28.600154	0.169003	-56.235472
07477		28.567697	0.110008	-55.640238
07478		28.560201	0.055717	-55.054856
07479		28.544082	0.000820	-54.473607
07480		28.512045	-0.048087	-53.893646
07481		28.456400	-0.098715	-53.310208
07482		28.380101	-0.149873	-52.720810
07483		28.288623	-0.197838	-52.126643
07484		28.205610	-0.246106	-51.529617
07485		28.145906	-0.300604	-50.938464
07486		28.106589	-0.352209	-50.362185
07487		28.094367	-0.401451	-49.803219
07488		28.102412	-0.447967	-49.262822
07489		28.097799	-0.494307	-48.728611
07490		28.055415	-0.523856	-48.190653
07491		27.970891	-0.549765	-47.642549
07492		27.844821	-0.575383	-47.090602
07493		27.690137	-0.602404	-46.539470
07494		27.533039	-0.633571	-45.997536
07495		27.372943	-0.663647	-45.462867
07496		27.222861	-0.697814	-44.933793
07497		27.078025	-0.745717	-44.410079
07498		26.926114	-0.793888	-43.884454
07499		26.768707	-0.838142	-43.355093
07500		26.613250	-0.885234	-42.829459
07501		26.464781	-0.931763	-42.310816
07502		26.340182	-0.979809	-41.796359
07503		26.250820	-1.045089	-41.294834
07504		26.180835	-1.117430	-40.802796
07505		26.116792	-1.195372	-40.308909
07506		26.054030	-1.270580	-39.813926
07507		25.975209	-1.349127	-39.314482
07508		25.878887	-1.431224	-38.812173
07509		25.767208	-1.515129	-38.310593
07510		25.646581	-1.594611	-37.813451
07511		25.526824	-1.672672	-37.324729
07512		25.423470	-1.745648	-36.842140
07513		25.340606	-1.817885	-36.360236
07514		25.275651	-1.887428	-35.878257
07515		25.212542	-1.936010	-35.394251
07516		25.167159	-1.977627	-34.910870
07517		25.126815	-2.014316	-34.423695
07518		25.089362	-2.046801	-33.934534
07519		25.076199	-2.093486	-33.456670
07520		25.104287	-2.155930	-32.992527
07521		25.164724	-2.220255	-32.532298
07522		25.245511	-2.268774	-32.074985
07523		25.313792	-2.307340	-31.619050
07524		25.372201	-2.334215	-31.169242
07525		25.439846	-2.371278	-30.737361
07526		25.502489	-2.413585	-30.323563
07527		25.537055	-2.446331	-29.920419
07528		25.556839	-2.478809	-29.524066
07529		25.564939	-2.517464	-29.135081
07530		25.560702	-2.547555	-28.751946
07531		25.560847	-2.577087	-28.368913
07532		25.569353	-2.610889	-27.991276
07533		25.570315	-2.635702	-27.613373
07534		25.596488	-2.652962	-27.245093
07535		25.661560	-2.673505	-26.886823
07536		25.746204	-2.685847	-26.533547
07537		25.823230	-2.699731	-26.186507
07538		25.881134	-2.705541	-25.839400
07539		25.921579	-2.712415	-25.492363
07540		25.929906	-2.725399	-25.142856
07541		25.901645	-2.734746	-24.794804
07542		25.867744	-2.743679	-24.445708
07543		25.856216	-2.769871	-24.096262
07544		25.861533	-2.797435	-23.745522
07545		25.890871	-2.840060	-23.393325
07546		25.950141	-2.897967	-23.043816
07547		26.011155	-2.965979	-22.693174
07548		26.063144	-3.041663	-22.342306
07549		26.086193	-3.127260	-21.988077
07550		26.075063	-3.222448	-21.630789
07551		26.035418	-3.323453	-21.273551
07552		25.980429	-3.419514	-20.914241
07553		25.929263	-3.515001	-20.558893
07554		25.882233	-3.612251	-20.205865
07555		25.823802	-3.703298	-19.847912
07556		25.735265	-3.782876	-19.489118
07557		25.600908	-3.844442	-19.130449
07558		25.446319	-3.895452	-18.774494
07559		25.272343	-3.932510	-18.424917
07560		25.091997	-3.954856	-18.082466
07561		24.929175	-3.967445	-17.745191
07562		24.797724	-3.982362	-17.414550
07563		24.684121	-4.000576	-17.085628
07564		24.564165	-4.011210	-16.752330
07565		24.440608	-4.021425	-16.415632
07566		24.330774	-4.032520	-16.089255
07567		24.243089	-4.038445	-15.777686
07568		24.187556	-4.040185	-15.483187
07569		24.155965	-4.023443	-15.202671
07570		24.166545	-4.007082	-14.934747
07571		24.219429	-3.995024	-14.679498
07572		24.274078	-3.987239	-14.420604
07573		24.277091	-3.969463	-14.145287
07574		24.224422	-3.949585	-13.850609
07575		24.138878	-3.931742	-13.548506
07576		24.064592	-3.922490	-13.254158
07577		24.017197	-3.903283	-12.972403
07578		24.006889	-3.888252	-12.697347
07579		24.007715	-3.872182	-12.431376
07580		23.992241	-3.848752	-12.161459
07581		23.953691	-3.823663	-11.892252
07582		23.892273	-3.796380	-11.622996
07583		23.796399	-3.765489	-11.358846
07584		23.693981	-3.728214	-11.108114
07585		23.614797	-3.708158	-10.865656
07586		23.553640	-3.686213	-10.632656
07587		23.499345	-3.653061	-10.400058
07588		23.470924	-3.626972	-10.174725
07589		23.456379	-3.609396	-9.952914
07590		23.440652	-3.597138	-9.732631
07591		23.392332	-3.581023	-9.509530
07592		23.304861	-3.554934	-9.289398
07593		23.196163	-3.520685	-9.079539
07594		23.097840	-3.473581	-8.886511
07595		23.021698	-3.422486	-8.716848
07596		22.965492	-3.369742	-8.563730
07597		22.911320	-3.326714	-8.421084
07598		22.845656	-3.291779	-8.273930
07599		22.740194	-3.246161	-8.112562
07600		22.612433	-3.204114	-7.941126
07601		22.491364	-3.180175	-7.776957
07602		22.382805	-3.151258	-7.627007
07603		22.321132	-3.110143	-7.494784
07604		22.316682	-3.061897	-7.382408
07605		22.337247	-3.009584	-7.285436
07606		22.360324	-2.955743	-7.187154
07607		22.367821	-2.913285	-7.087026
07608		22.346177	-2.872501	-6.985347
07609		22.306984	-2.831736	-6.889721
07610		22.263562	-2.797907	-6.809359
07611		22.216673	-2.760846	-6.746673
07612		22.173040	-2.716923	-6.692984
07613		22.138554	-2.672813	-6.647358
07614		22.100802	-2.633028	-6.600297
07615		22.059976	-2.590758	-6.549287
07616		22.021032	-2.551436	-6.496781
07617		21.982297	-2.524389	-6.449883
07618		21.946433	-2.506717	-6.411668
07619		21.925269	-2.493107	-6.381189
07620		21.922831	-2.490682	-6.359702
07621		21.930780	-2.507332	-6.344499
07622		21.910108	-2.517473	-6.331487
07623		21.860065	-2.517635	-6.318891
07624		21.791047	-2.515796	-6.313825
07625		21.712244	-2.517096	-6.322451
07626		21.640502	-2.512321	-6.342887
07627		21.579514	-2.512303	-6.373627
07628		21.516624	-2.519152	-6.407839
07629		21.425419	-2.525666	-6.439487
07630		21.312653	-2.525255	-6.466890
07631		21.184964	-2.532432	-6.490696
07632		21.056057	-2.541380	-6.525402
07633		20.954066	-2.552106	-6.577442
07634		20.897910	-2.557352	-6.650291
07635		20.884895	-2.558033	-6.740189
07636		20.893431	-2.565002	-6.842322
07637		20.884194	-2.573723	-6.947544
07638		20.853319	-2.567887	-7.046113
07639		20.818426	-2.555645	-7.144356
07640		20.783842	-2.550346	-7.252505
07641		20.755452	-2.541704	-7.372979
07642		20.732667	-2.516652	-7.503695
07643		20.716647	-2.477605	-7.638990
07644		20.701260	-2.430696	-7.773352
07645		20.683387	-2.382471	-7.912156
07646		20.670499	-2.328276	-8.056053
07647		20.660662	-2.272411	-8.202478
07648		20.634880	-2.216244	-8.355858
07649		20.613608	-2.167221	-8.523248
07650		20.604844	-2.137359	-8.712257
07651		20.603094	-2.116063	-8.920104
07652		20.605021	-2.096214	-9.135748
07653		20.601361	-2.064461	-9.353344
07654		20.590568	-2.025094	-9.570865
07655		20.590045	-1.993255	-9.790212
07656		20.599245	-1.969660	-10.016347
07657		20.618285	-1.950943	-10.251205
07658		20.634199	-1.933335	-10.494430
07659		20.646314	-1.919773	-10.750562
07660		20.657257	-1.908658	-11.019865
07661		20.681540	-1.903918	-11.298380
07662		20.719357	-1.908426	-11.582507
07663		20.772600	-1.917716	-11.872482
07664		20.836820	-1.930059	-12.172028
07665		20.914710	-1.947984	-12.477515
07666		20.986691	-1.963297	-12.787503
07667		21.054603	-1.973706	-13.101759
07668		21.120277	-1.983896	-13.421558
07669		21.181952	-1.991146	-13.748063
07670		21.240723	-1.997306	-14.081373
07671		21.302274	-2.000794	-14.425802
07672		21.368397	-2.009288	-14.775492
07673		21.434993	-2.021355	-15.137035
07674		21.500429	-2.037127	-15.500370
07675		21.571764	-2.066927	-15.864292
07676		21.640301	-2.094629	-16.225739
07677		21.719829	-2.110209	-16.582086
07678		21.807828	-2.113151	-16.936625
07679		21.910914	-2.110405	-17.290742
07680		22.027862	-2.107472	-17.645632
07681		22.165390	-2.097855	-18.004500
07682		22.312500	-2.093373	-18.362714
07683		22.448938	-2.089264	-18.723227
07684		22.570201	-2.079440	-19.084031
07685		22.671534	-2.071922	-19.444563
07686		22.731605	-2.076546	-19.806991
07687		22.766765	-2.092133	-20.172748
07688		22.789709	-2.115069	-20.541961
07689		22.817808	-2.138542	-20.916953
07690		22.855727	-2.159679	-21.296340
07691		22.905629	-2.181072	-21.681415
07692		22.952042	-2.208175	-22.069707
07693		23.005423	-2.233697	-22.463495
07694		23.055129	-2.263483	-22.866819
07695		23.091437	-2.298124	-23.279321
07696		23.119600	-2.328530	-23.702143
07697		23.147404	-2.359653	-24.132963
07698		23.170163	-2.391416	-24.568055
07699		23.198440	-2.415427	-25.008553
07700		23.239598	-2.445830	-25.461419
07701		23.292927	-2.482252	-25.927218
07702		23.353797	-2.516804	-26.402429
07703		23.432183	-2.552206	-26.892486
07704		23.526140	-2.595116	-27.396607
07705		23.631184	-2.641199	-27.911912
07706		23.741792	-2.684856	-28.438158
07707		23.845081	-2.717693	-28.969378
07708		23.936451	-2.732322	-29.507733
07709		24.007239	-2.738111	-30.058176
07710		24.054470	-2.745451	-30.617783
07711		24.084619	-2.755574	-31.185801
07712		24.104100	-2.768489	-31.765096
07713		24.126311	-2.793549	-32.353535
07714		24.145162	-2.815829	-32.951492
07715		24.164561	-2.835946	-33.556912
07716		24.179381	-2.852824	-34.171892
07717		24.195233	-2.866895	-34.795142
07718		24.209276	-2.876808	-35.424100
07719		24.219341	-2.883312	-36.057761
07720		24.222707	-2.887238	-36.698396
07721		24.224737	-2.894640	-37.347175
07722		24.229259	-2.900583	-38.013272
07723		24.240539	-2.903006	-38.687118
07724		24.252273	-2.908261	-39.368200
07725		24.266574	-2.917480	-40.053096
07726		24.286116	-2.919875	-40.743620
07727		24.325385	-2.915976	-41.437186
07728		24.369333	-2.919243	-42.132939
07729		24.426000	-2.917645	-42.828221
07730		24.499151	-2.906626	-43.532494
07731		24.590379	-2.901459	-44.242796
07732		24.679684	-2.895097	-44.944306
07733		24.755932	-2.872548	-45.636366
07734		24.824377	-2.845454	-46.331619
07735		24.904087	-2.825907	-47.037519
07736		24.984841	-2.804521	-47.746113
07737		25.077039	-2.770482	-48.465709
07738		25.184943	-2.739784	-49.191712
07739		25.320979	-2.719586	-49.914113
07740		25.458813	-2.697719	-50.634674
07741		25.608233	-2.674957	-51.358929
07742		25.769826	-2.653621	-52.087748
07743		25.935099	-2.635332	-52.820980
07744		26.097691	-2.605963	-53.559279
07745		26.263400	-2.573154	-54.300111
07746		26.417179	-2.538574	-55.046926
07747		26.558927	-2.507116	-55.792331
07748		26.684664	-2.481623	-56.534237
07749		26.792065	-2.465796	-57.269236
07750		26.881748	-2.446576	-57.987266
07751		26.963100	-2.424310	-58.693322
07752		27.047386	-2.392149	-59.394607
07753		27.170787	-2.358019	-60.097069
07754		27.326174	-2.325225	-60.802855
07755		27.507466	-2.289168	-61.505574
07756		27.690789	-2.253906	-62.203498
07757		27.857523	-2.228860	-62.901086
07758		27.986168	-2.201296	-63.591677
07759		28.070809	-2.172112	-64.273921
07760		28.108249	-2.149949	-64.962649
07761		28.108307	-2.134143	-65.650731
07762		28.083978	-2.112384	-66.340512
07763		28.053946	-2.095470	-67.034592
07764		28.022157	-2.089186	-67.724481
07765		28.007966	-2.080896	-68.408689
07766		28.025682	-2.064703	-69.092456
07767		28.098400	-2.048955	-69.781041
07768		28.229815	-2.032352	-70.476570
07769		28.411685	-2.011006	-71.182449
07770		28.646998	-1.994532	-71.898997
07771		28.901725	-1.987845	-72.616575
07772		29.127381	-1.980973	-73.329667
07773		29.307979	-1.963521	-74.034317
07774		29.447985	-1.941245	-74.733106
07775		29.547169	-1.921839	-75.429825
07776		29.609524	-1.907049	-76.125300
07777		29.651193	-1.877462	-76.821462
07778		29.684349	-1.835935	-77.514952
07779		29.735443	-1.784244	-78.210452
07780		29.808042	-1.733687	-78.905920
07781		29.905251	-1.689826	-79.596742
07782		30.006039	-1.638243	-80.272633
07783		30.107095	-1.586919	-80.936849
07784		30.200380	-1.540885	-81.594945
07785		30.290485	-1.496977	-82.243603
07786		30.365711	-1.446911	-82.884629
07787		30.437636	-1.395530	-83.513201
07788		30.504315	-1.336073	-84.125531
07789		30.582764	-1.277307	-84.725829
07790		30.680422	-1.219234	-85.320715
07791		30.809718	-1.164645	-85.910182
07792		30.965683	-1.111290	-86.496386
07793		31.134563	-1.068233	-87.076724
07794		31.296514	-1.019144	-87.641760
07795		31.433969	-0.959679	-88.183966
07796		31.545236	-0.897620	-88.707373
07797		31.636470	-0.848562	-89.224273
07798		31.698947	-0.796354	-89.734306
07799		31.747886	-0.731159	-90.226355
07800		31.804607	-0.679446	-90.711564
07801		31.866557	-0.641833	-91.195698
07802		31.924166	-0.580271	-91.655853
07803		31.991269	-0.508244	-92.097413
07804		32.074442	-0.449832	-92.544517
07805		32.177311	-0.411587	-93.004628
07806		32.263931	-0.361631	-93.459244
07807		32.340096	-0.291747	-93.888690
07808		32.415627	-0.226093	-94.309079
07809		32.501019	-0.178790	-94.727813
07810		32.603438	-0.129917	-95.140901
07811		32.714403	-0.066215	-95.544607
07812		32.836104	-0.000571	-95.945148
07813		32.965514	0.050500	-96.351929
07814		33.064742	0.103403	-96.753394
07815		33.130081	0.171776	-97.134107
