// General information: 
//  MT Manager version: 2022.2.0 
//  XDA version: 2022.2.0 build 7381 rev 124627 built on 2023-07-19
// Device information: 
//  DeviceId: 00B44730
//  ProductCode: MTW2-3A7G6
//  Firmware Version: 4.3.5
//  Hardware Version: 2.0.0
// Device settings: 
//  Filter Profile: human(46.1)
//  Option Flags: Orientation Smoother Disabled, Position/Velocity Smoother Disabled, Continuous Zero Rotation Update Disabled, AHS Disabled, ICC Disabled
// Coordinate system: ENU
PacketCounter	SampleTimeFine	Roll	Pitch	Yaw
04661		19.777586	-2.004707	-61.491624
04662		19.753084	-1.990617	-61.445481
04663		19.741770	-1.977568	-61.399553
04664		19.753741	-1.964074	-61.352611
04665		19.777810	-1.951567	-61.309036
04666		19.803759	-1.941107	-61.265926
04667		19.830389	-1.926119	-61.230016
04668		19.862379	-1.906589	-61.196061
04669		19.892399	-1.884109	-61.168101
04670		19.911690	-1.859652	-61.142302
04671		19.924266	-1.839529	-61.115658
04672		19.925743	-1.822939	-61.085019
04673		19.915267	-1.814786	-61.057795
04674		19.894628	-1.803757	-61.027231
04675		19.878301	-1.796592	-60.997090
04676		19.868035	-1.789677	-60.966110
04677		19.865177	-1.783823	-60.934360
04678		19.865735	-1.781286	-60.903812
04679		19.865933	-1.787058	-60.878856
04680		19.860286	-1.791177	-60.857223
04681		19.864057	-1.790778	-60.841999
04682		19.867204	-1.793219	-60.826633
04683		19.865537	-1.799151	-60.813465
04684		19.861461	-1.799908	-60.799733
04685		19.851667	-1.809920	-60.787871
04686		19.832403	-1.824161	-60.776235
04687		19.815967	-1.838262	-60.764771
04688		19.805921	-1.843492	-60.754113
04689		19.799338	-1.857536	-60.743639
04690		19.790708	-1.873479	-60.740681
04691		19.776127	-1.892383	-60.736544
04692		19.752815	-1.911630	-60.737589
04693		19.721141	-1.930841	-60.740526
04694		19.686054	-1.941510	-60.745077
04695		19.659976	-1.950587	-60.753194
04696		19.649948	-1.948945	-60.759873
04697		19.648916	-1.954481	-60.762514
04698		19.646297	-1.966987	-60.764568
04699		19.636433	-1.990628	-60.770648
04700		19.622716	-2.008936	-60.778920
04701		19.610742	-2.029696	-60.791773
04702		19.593839	-2.048634	-60.804861
04703		19.572027	-2.064833	-60.818901
04704		19.540782	-2.080735	-60.836951
04705		19.512420	-2.099123	-60.854986
04706		19.492705	-2.115870	-60.871784
04707		19.487264	-2.133916	-60.883862
04708		19.475328	-2.158441	-60.894202
04709		19.459810	-2.189652	-60.906621
04710		19.448336	-2.218606	-60.923517
04711		19.436808	-2.244169	-60.944550
04712		19.425741	-2.264502	-60.964789
04713		19.429200	-2.286874	-60.985547
04714		19.434499	-2.303018	-61.004765
04715		19.433544	-2.325854	-61.024953
04716		19.433117	-2.349758	-61.052189
04717		19.439025	-2.378197	-61.084203
04718		19.442944	-2.410613	-61.118834
04719		19.448906	-2.445773	-61.153334
04720		19.457547	-2.478652	-61.188784
04721		19.469080	-2.512307	-61.227378
04722		19.486215	-2.542709	-61.271584
04723		19.504360	-2.577357	-61.322110
04724		19.519403	-2.618011	-61.374740
04725		19.532639	-2.665167	-61.430485
04726		19.531745	-2.713683	-61.487728
04727		19.525588	-2.767487	-61.550721
04728		19.529673	-2.821364	-61.614919
04729		19.544511	-2.871901	-61.674154
04730		19.563808	-2.924977	-61.735277
04731		19.579016	-2.983443	-61.798828
04732		19.587904	-3.045435	-61.866137
04733		19.594313	-3.107763	-61.936129
04734		19.599260	-3.164435	-62.009075
04735		19.612828	-3.220559	-62.084521
04736		19.629774	-3.270166	-62.164169
04737		19.656099	-3.313505	-62.249942
04738		19.695404	-3.360863	-62.337897
04739		19.739551	-3.409948	-62.428346
04740		19.773508	-3.461942	-62.521718
04741		19.800458	-3.519390	-62.619178
04742		19.822810	-3.577614	-62.720305
04743		19.840541	-3.636096	-62.825370
04744		19.864108	-3.691818	-62.936517
04745		19.893967	-3.745497	-63.049839
04746		19.932929	-3.798058	-63.171111
04747		19.968161	-3.856593	-63.299975
04748		20.001985	-3.921321	-63.439718
04749		20.037153	-3.984680	-63.585093
04750		20.069929	-4.047087	-63.737574
04751		20.104313	-4.120542	-63.900676
04752		20.130262	-4.201928	-64.077604
04753		20.153644	-4.290150	-64.268629
04754		20.176656	-4.377160	-64.468278
04755		20.198679	-4.467248	-64.675331
04756		20.206498	-4.559233	-64.891042
04757		20.214758	-4.656181	-65.120847
04758		20.236006	-4.757496	-65.361330
04759		20.267566	-4.867803	-65.613347
04760		20.299985	-4.989101	-65.880653
04761		20.344837	-5.118714	-66.160142
04762		20.386031	-5.255472	-66.450860
04763		20.428088	-5.397788	-66.754000
04764		20.459734	-5.540082	-67.066735
04765		20.487743	-5.684210	-67.388638
04766		20.517498	-5.821994	-67.717888
04767		20.543264	-5.959639	-68.051538
04768		20.550752	-6.096270	-68.395532
04769		20.551448	-6.239823	-68.751839
04770		20.547960	-6.392752	-69.123821
04771		20.533660	-6.555004	-69.509154
04772		20.501712	-6.723343	-69.908501
04773		20.434564	-6.899057	-70.319546
04774		20.341044	-7.079012	-70.754573
04775		20.246094	-7.255921	-71.216480
04776		20.164534	-7.425056	-71.695768
04777		20.095155	-7.585623	-72.184116
04778		20.054779	-7.729114	-72.673009
04779		20.030027	-7.866237	-73.161893
04780		20.013184	-8.009087	-73.655288
04781		19.996991	-8.155050	-74.150109
04782		19.967075	-8.296068	-74.655304
04783		19.932160	-8.426727	-75.179607
04784		19.913499	-8.552461	-75.724567
04785		19.926972	-8.661887	-76.282470
04786		19.961794	-8.755215	-76.845576
04787		20.014209	-8.843474	-77.418681
04788		20.085451	-8.937530	-77.990356
04789		20.170440	-9.028674	-78.566703
04790		20.251701	-9.118170	-79.144486
04791		20.319547	-9.203524	-79.725446
04792		20.373443	-9.273876	-80.305334
04793		20.419654	-9.340137	-80.888970
04794		20.472659	-9.407085	-81.472057
04795		20.532075	-9.477706	-82.055856
04796		20.597656	-9.549873	-82.628295
04797		20.669516	-9.618784	-83.189501
04798		20.744048	-9.698418	-83.752587
04799		20.816232	-9.787851	-84.319173
04800		20.871726	-9.892631	-84.898577
04801		20.934206	-10.002901	-85.485860
04802		21.013720	-10.094936	-86.085782
04803		21.100844	-10.148731	-86.677503
04804		21.190106	-10.178195	-87.256110
04805		21.264572	-10.202268	-87.825637
04806		21.313123	-10.239481	-88.394998
04807		21.318365	-10.308542	-88.986513
04808		21.329179	-10.394674	-89.584508
04809		21.375664	-10.484962	-90.163784
04810		21.445684	-10.581221	-90.741885
04811		21.579699	-10.665936	-91.318969
04812		21.749011	-10.721907	-91.893248
04813		21.919956	-10.758145	-92.470879
04814		22.068600	-10.801778	-93.056188
04815		22.217415	-10.854648	-93.643610
04816		22.362174	-10.906743	-94.227210
04817		22.518283	-10.959054	-94.805461
04818		22.662348	-11.003026	-95.387610
04819		22.798326	-11.051267	-95.967908
04820		22.914077	-11.089018	-96.544252
04821		22.997796	-11.118231	-97.125981
04822		23.040311	-11.126340	-97.703878
04823		23.059540	-11.133722	-98.281228
04824		23.084014	-11.159822	-98.859850
04825		23.112284	-11.184191	-99.434537
04826		23.154278	-11.207908	-100.016008
04827		23.186491	-11.232642	-100.584001
04828		23.197282	-11.268532	-101.130677
04829		23.188127	-11.319518	-101.671387
04830		23.173166	-11.381405	-102.208139
04831		23.166496	-11.442706	-102.741661
04832		23.168309	-11.500744	-103.278248
04833		23.183338	-11.542592	-103.805420
04834		23.208882	-11.573777	-104.326898
04835		23.240791	-11.599239	-104.842039
04836		23.246279	-11.616011	-105.348671
04837		23.230169	-11.640202	-105.856345
04838		23.201646	-11.668778	-106.364125
04839		23.176243	-11.700383	-106.860200
04840		23.164349	-11.725915	-107.347581
04841		23.169390	-11.741668	-107.830806
04842		23.187358	-11.760583	-108.306575
04843		23.200579	-11.794938	-108.776619
04844		23.212490	-11.839173	-109.236024
04845		23.235710	-11.874510	-109.683203
04846		23.250746	-11.905020	-110.124278
04847		23.259284	-11.947502	-110.567406
04848		23.272855	-11.993019	-111.007322
04849		23.297782	-12.020959	-111.436009
04850		23.324907	-12.044585	-111.846934
04851		23.361302	-12.070536	-112.249594
04852		23.400828	-12.094925	-112.638934
04853		23.449056	-12.121776	-113.017027
04854		23.495709	-12.150527	-113.387405
04855		23.555752	-12.178325	-113.752571
04856		23.612228	-12.202788	-114.112532
04857		23.661372	-12.211534	-114.467342
04858		23.691715	-12.205967	-114.821247
04859		23.721290	-12.190246	-115.171077
04860		23.740239	-12.166254	-115.510950
04861		23.759921	-12.156384	-115.849503
04862		23.785382	-12.149648	-116.183922
04863		23.829933	-12.130230	-116.504718
04864		23.888005	-12.113949	-116.815561
04865		23.959432	-12.102346	-117.119711
04866		24.044805	-12.100729	-117.422845
04867		24.134981	-12.100279	-117.722749
04868		24.222597	-12.097872	-118.021589
04869		24.298136	-12.087952	-118.314173
04870		24.361166	-12.072708	-118.603885
04871		24.418725	-12.056660	-118.893998
04872		24.477503	-12.034760	-119.183451
04873		24.535952	-12.004174	-119.464734
04874		24.586494	-11.970034	-119.741966
04875		24.648954	-11.951316	-120.011397
04876		24.710701	-11.936602	-120.272392
04877		24.781157	-11.932009	-120.535576
04878		24.848298	-11.925942	-120.799836
04879		24.915809	-11.923868	-121.065723
04880		24.974403	-11.928653	-121.336645
04881		25.034962	-11.928268	-121.605185
04882		25.084358	-11.918636	-121.864109
04883		25.132937	-11.912948	-122.121120
04884		25.186444	-11.910118	-122.373738
04885		25.240759	-11.909308	-122.623140
04886		25.284215	-11.907573	-122.874248
04887		25.344298	-11.902732	-123.127517
04888		25.403406	-11.903895	-123.382480
04889		25.465546	-11.900795	-123.637794
04890		25.532528	-11.907302	-123.898659
04891		25.606524	-11.904749	-124.153912
04892		25.674985	-11.896797	-124.404951
04893		25.741523	-11.887115	-124.655561
04894		25.806930	-11.872041	-124.919846
04895		25.862066	-11.869280	-125.187327
04896		25.915896	-11.884115	-125.445207
04897		25.977516	-11.895328	-125.691787
04898		26.031566	-11.902124	-125.933849
04899		26.096433	-11.917475	-126.176293
04900		26.162256	-11.935476	-126.417079
04901		26.228442	-11.950324	-126.656643
04902		26.283363	-11.962709	-126.895280
04903		26.329178	-11.979962	-127.127245
04904		26.366148	-11.994465	-127.353120
04905		26.391484	-11.998984	-127.573388
04906		26.421612	-11.996081	-127.789063
04907		26.448513	-11.996975	-128.002688
04908		26.465267	-11.994422	-128.209005
04909		26.468854	-11.986763	-128.399214
04910		26.450876	-11.981112	-128.568616
04911		26.388813	-11.962359	-128.723278
04912		26.243848	-11.911988	-128.874465
04913		26.025661	-11.802592	-129.033157
04914		25.776717	-11.654694	-129.219879
04915		25.538173	-11.503187	-129.432315
04916		25.322500	-11.379080	-129.656527
04917		25.155542	-11.281633	-129.883068
04918		25.022928	-11.199568	-130.109891
04919		24.927636	-11.124323	-130.338423
04920		24.854219	-11.053826	-130.577362
04921		24.810352	-10.984379	-130.820911
04922		24.779050	-10.923598	-131.079156
04923		24.777874	-10.881291	-131.347252
04924		24.787080	-10.846007	-131.616222
04925		24.821359	-10.811165	-131.880391
04926		24.896680	-10.766218	-132.137034
04927		25.015414	-10.725238	-132.393442
04928		25.149740	-10.692724	-132.646730
04929		25.284530	-10.652575	-132.892106
04930		25.414714	-10.619466	-133.129769
04931		25.552881	-10.598670	-133.361085
04932		25.676993	-10.576591	-133.581024
04933		25.803702	-10.559610	-133.792037
04934		25.914978	-10.545728	-133.994529
04935		26.007998	-10.528074	-134.187230
04936		26.080727	-10.503882	-134.374769
04937		26.147713	-10.473120	-134.549539
04938		26.184205	-10.433419	-134.709997
04939		26.227004	-10.402494	-134.855328
04940		26.261004	-10.362796	-134.976286
04941		26.283710	-10.326576	-135.084404
04942		26.308368	-10.291975	-135.177148
04943		26.330148	-10.264691	-135.257779
04944		26.341175	-10.240459	-135.327417
04945		26.338565	-10.209495	-135.382148
04946		26.331018	-10.174386	-135.419179
04947		26.330228	-10.137333	-135.439664
04948		26.337334	-10.107842	-135.445060
04949		26.353051	-10.092190	-135.438684
04950		26.366441	-10.074643	-135.417991
04951		26.381478	-10.062837	-135.388015
04952		26.403239	-10.051024	-135.349792
04953		26.434258	-10.043723	-135.307619
04954		26.476947	-10.032073	-135.259904
04955		26.521891	-10.019148	-135.206008
04956		26.563487	-10.010773	-135.151002
04957		26.602525	-10.000276	-135.089222
04958		26.641697	-9.981100	-135.018700
04959		26.672717	-9.963668	-134.944401
04960		26.699811	-9.944537	-134.865108
04961		26.727299	-9.927249	-134.785249
04962		26.750443	-9.913103	-134.700163
04963		26.772659	-9.883794	-134.611825
04964		26.787300	-9.850310	-134.519441
04965		26.799486	-9.817601	-134.427270
04966		26.803069	-9.783668	-134.329917
04967		26.803384	-9.752971	-134.234830
04968		26.804338	-9.714485	-134.134717
04969		26.804921	-9.683349	-134.030643
04970		26.795018	-9.654111	-133.926995
04971		26.787940	-9.633520	-133.822980
04972		26.786541	-9.619065	-133.725773
04973		26.797412	-9.603211	-133.628823
04974		26.808291	-9.582747	-133.528130
04975		26.821375	-9.555044	-133.424181
04976		26.842978	-9.529654	-133.316040
04977		26.877693	-9.513307	-133.205907
04978		26.920792	-9.494582	-133.098555
04979		26.966886	-9.489560	-132.988172
04980		27.005211	-9.497360	-132.876533
04981		27.040723	-9.496922	-132.756817
04982		27.067284	-9.484470	-132.629497
04983		27.089577	-9.477183	-132.495017
04984		27.106994	-9.472490	-132.353064
04985		27.133130	-9.475547	-132.209911
04986		27.169452	-9.480751	-132.065906
04987		27.206256	-9.486707	-131.917366
04988		27.237420	-9.489487	-131.760554
04989		27.278627	-9.484642	-131.596089
04990		27.321625	-9.480226	-131.423586
04991		27.365287	-9.490294	-131.249874
04992		27.405572	-9.513197	-131.068420
04993		27.445200	-9.542310	-130.881066
04994		27.485869	-9.572064	-130.686338
04995		27.533076	-9.597985	-130.484608
04996		27.583816	-9.616412	-130.276385
04997		27.639790	-9.628630	-130.059751
04998		27.698789	-9.639888	-129.834979
04999		27.766759	-9.650721	-129.599915
05000		27.834442	-9.672865	-129.362485
05001		27.908286	-9.695511	-129.117005
05002		27.985002	-9.714529	-128.855075
05003		28.066426	-9.739366	-128.583699
05004		28.125772	-9.778544	-128.320061
05005		28.171521	-9.820577	-128.052092
05006		28.190598	-9.856012	-127.769965
05007		28.186246	-9.880699	-127.473317
05008		28.156531	-9.893891	-127.168012
05009		28.113347	-9.908913	-126.855535
05010		28.062825	-9.950160	-126.546907
05011		28.011698	-10.010083	-126.236608
05012		27.962775	-10.072179	-125.910786
05013		27.918837	-10.129332	-125.575590
05014		27.870412	-10.173469	-125.227084
05015		27.817058	-10.193946	-124.865407
05016		27.751921	-10.239917	-124.502149
05017		27.668843	-10.323958	-124.155451
05018		27.585729	-10.391853	-123.790356
05019		27.502377	-10.441108	-123.407529
05020		27.424051	-10.478270	-123.013699
05021		27.352496	-10.499654	-122.610373
05022		27.269240	-10.510223	-122.197501
05023		27.192450	-10.528859	-121.779395
05024		27.106426	-10.574632	-121.360641
05025		27.012422	-10.625716	-120.936834
05026		26.918471	-10.675354	-120.504853
05027		26.828939	-10.728388	-120.067148
05028		26.740461	-10.768850	-119.619811
05029		26.656581	-10.779886	-119.162141
05030		26.583238	-10.777055	-118.701467
05031		26.510251	-10.788970	-118.252593
05032		26.438260	-10.826140	-117.812694
05033		26.368247	-10.865046	-117.362949
05034		26.286732	-10.884307	-116.901925
05035		26.196529	-10.903318	-116.447706
05036		26.105548	-10.904033	-115.995119
05037		26.021898	-10.880717	-115.548343
05038		25.928015	-10.841017	-115.105764
05039		25.829183	-10.800691	-114.654585
05040		25.725731	-10.768400	-114.190741
05041		25.633971	-10.738000	-113.716177
05042		25.562047	-10.708161	-113.227103
05043		25.513590	-10.698993	-112.734095
05044		25.490261	-10.713578	-112.236138
05045		25.499647	-10.732625	-111.731836
05046		25.536356	-10.733191	-111.234514
05047		25.593175	-10.721265	-110.754343
05048		25.650159	-10.708077	-110.290112
05049		25.703263	-10.696117	-109.845739
05050		25.743835	-10.677639	-109.416371
05051		25.778303	-10.659338	-108.990358
05052		25.804722	-10.636827	-108.560990
05053		25.814151	-10.600489	-108.122347
05054		25.811723	-10.552626	-107.677112
05055		25.799687	-10.523608	-107.234120
05056		25.775690	-10.499372	-106.790648
05057		25.752366	-10.483580	-106.338524
05058		25.733619	-10.465230	-105.882543
05059		25.724715	-10.430215	-105.406362
05060		25.731662	-10.389082	-104.924134
05061		25.757250	-10.358614	-104.441501
05062		25.798272	-10.347101	-103.965206
05063		25.837853	-10.353190	-103.486058
05064		25.859920	-10.329693	-102.995523
05065		25.840906	-10.271685	-102.492935
05066		25.806029	-10.186846	-101.975493
05067		25.802107	-10.093026	-101.437086
05068		25.836254	-10.008676	-100.886504
05069		25.839203	-9.991982	-100.347933
05070		25.803391	-9.990308	-99.809620
05071		25.711515	-9.964381	-99.263513
05072		25.586446	-9.916525	-98.715714
05073		25.424911	-9.845320	-98.168685
05074		25.271211	-9.736701	-97.616477
05075		25.155249	-9.603057	-97.060191
05076		25.051977	-9.474999	-96.495291
05077		24.999331	-9.385645	-95.929993
05078		24.987863	-9.359276	-95.370493
05079		25.008643	-9.361106	-94.806177
05080		25.030700	-9.336305	-94.223691
05081		25.038833	-9.298932	-93.649938
05082		25.041511	-9.241411	-93.088425
05083		25.047940	-9.168750	-92.537068
05084		25.061821	-9.087962	-91.986101
05085		25.085696	-9.005700	-91.423163
05086		25.103997	-8.934151	-90.857367
05087		25.109431	-8.881147	-90.300429
05088		25.110091	-8.852739	-89.755711
05089		25.109127	-8.825642	-89.212574
05090		25.093621	-8.796394	-88.670200
05091		25.061696	-8.767931	-88.130680
05092		25.020033	-8.726474	-87.604327
05093		24.976643	-8.673154	-87.091957
05094		24.974241	-8.617622	-86.583847
05095		24.994452	-8.568549	-86.068004
05096		25.027794	-8.529874	-85.548740
05097		25.066083	-8.481923	-85.024831
05098		25.108874	-8.440771	-84.510989
05099		25.149707	-8.426380	-84.017429
05100		25.171903	-8.428578	-83.531750
05101		25.172862	-8.431222	-83.045130
05102		25.150402	-8.422805	-82.564970
05103		25.108174	-8.410905	-82.100780
05104		25.074592	-8.404194	-81.657992
05105		25.046339	-8.407189	-81.224741
05106		25.016747	-8.413846	-80.787770
05107		24.976094	-8.427275	-80.343155
05108		24.921720	-8.447365	-79.887693
05109		24.843320	-8.462035	-79.427167
05110		24.749045	-8.474302	-78.970264
05111		24.662990	-8.495348	-78.532522
05112		24.583821	-8.514113	-78.106406
05113		24.525335	-8.526356	-77.682719
05114		24.453607	-8.536872	-77.261685
05115		24.391155	-8.553307	-76.845536
05116		24.345881	-8.571320	-76.432623
05117		24.307577	-8.595597	-76.025832
05118		24.260328	-8.613981	-75.621393
05119		24.200655	-8.633478	-75.225614
05120		24.143427	-8.651946	-74.828332
05121		24.089486	-8.666097	-74.429625
05122		24.031811	-8.679248	-74.027647
05123		23.954469	-8.715169	-73.630922
05124		23.876071	-8.763874	-73.239636
05125		23.805577	-8.806886	-72.849763
05126		23.747859	-8.842375	-72.466078
05127		23.696106	-8.881928	-72.089339
05128		23.657526	-8.918992	-71.716810
05129		23.636177	-8.946399	-71.345219
05130		23.644293	-8.951845	-70.972704
05131		23.671340	-8.944395	-70.596459
05132		23.702995	-8.941931	-70.226600
05133		23.715931	-8.966485	-69.867756
05134		23.710708	-8.989942	-69.509555
05135		23.685670	-9.005813	-69.148822
05136		23.651249	-9.015700	-68.783073
05137		23.623687	-9.017668	-68.422843
05138		23.617057	-9.012236	-68.063848
05139		23.624079	-9.000944	-67.705195
05140		23.635702	-8.982830	-67.347156
05141		23.653041	-8.965799	-66.988508
05142		23.658483	-8.953461	-66.632554
05143		23.651598	-8.950074	-66.285387
05144		23.646195	-8.941378	-65.944266
05145		23.651655	-8.923873	-65.606862
05146		23.664009	-8.894700	-65.269323
05147		23.684216	-8.865925	-64.935742
05148		23.715940	-8.833420	-64.602002
05149		23.749929	-8.791767	-64.267821
05150		23.770939	-8.742633	-63.931505
05151		23.782900	-8.697692	-63.600204
05152		23.799617	-8.652044	-63.267170
05153		23.787400	-8.612155	-62.930460
05154		23.738425	-8.581393	-62.599295
05155		23.684248	-8.567140	-62.275124
05156		23.603098	-8.558094	-61.959594
05157		23.499484	-8.562404	-61.655514
05158		23.402978	-8.561015	-61.356634
05159		23.314913	-8.556481	-61.061449
05160		23.234681	-8.545335	-60.766633
05161		23.164721	-8.524957	-60.466788
05162		23.091241	-8.500632	-60.170890
05163		23.026623	-8.474301	-59.879097
05164		22.969038	-8.440376	-59.595097
05165		22.927429	-8.408471	-59.319485
05166		22.902801	-8.373547	-59.055714
05167		22.904458	-8.337901	-58.800854
05168		22.916417	-8.305240	-58.547835
05169		22.921214	-8.284873	-58.298265
05170		22.915185	-8.267923	-58.056284
05171		22.889085	-8.262122	-57.831219
05172		22.843618	-8.252093	-57.621978
05173		22.794145	-8.237614	-57.422897
05174		22.737739	-8.213228	-57.228653
05175		22.687487	-8.191485	-57.038747
05176		22.643563	-8.167749	-56.853819
05177		22.600841	-8.137292	-56.672025
05178		22.570506	-8.111731	-56.496636
05179		22.540940	-8.092886	-56.324971
05180		22.498083	-8.074587	-56.163242
05181		22.451307	-8.052012	-56.011706
05182		22.404584	-8.020257	-55.864846
05183		22.350931	-7.985045	-55.728104
05184		22.318237	-7.944503	-55.598705
05185		22.297276	-7.895271	-55.467164
05186		22.285203	-7.837435	-55.332603
05187		22.272508	-7.788663	-55.202631
05188		22.249621	-7.746052	-55.074000
05189		22.210137	-7.694991	-54.942782
05190		22.150289	-7.643359	-54.808295
05191		22.067550	-7.616744	-54.676840
05192		21.965101	-7.597776	-54.554909
05193		21.866828	-7.576821	-54.434474
05194		21.781230	-7.544106	-54.318016
05195		21.709309	-7.515766	-54.206633
05196		21.641538	-7.486546	-54.097096
05197		21.575842	-7.462099	-53.990369
05198		21.514775	-7.433727	-53.884693
05199		21.461962	-7.404219	-53.781989
05200		21.420379	-7.372979	-53.687044
05201		21.402940	-7.337120	-53.597635
05202		21.399578	-7.294449	-53.511316
05203		21.385256	-7.260835	-53.439570
05204		21.374461	-7.230134	-53.379171
05205		21.374122	-7.195899	-53.326262
05206		21.375880	-7.165409	-53.273854
05207		21.366163	-7.149399	-53.222171
05208		21.348499	-7.146380	-53.172636
05209		21.316963	-7.155878	-53.121852
05210		21.275660	-7.167446	-53.073392
05211		21.217047	-7.181400	-53.030215
05212		21.147192	-7.199973	-52.998976
05213		21.085615	-7.216343	-52.980880
05214		21.048307	-7.221324	-52.968925
05215		21.035145	-7.225587	-52.959531
05216		21.043725	-7.226407	-52.949913
05217		21.056427	-7.242690	-52.938795
05218		21.064060	-7.259085	-52.929560
05219		21.065365	-7.276876	-52.925344
05220		21.056366	-7.296263	-52.927138
05221		21.037895	-7.322188	-52.933848
05222		21.008841	-7.351020	-52.946210
05223		20.989120	-7.381375	-52.965792
05224		20.976533	-7.401463	-52.987264
05225		20.971571	-7.426969	-53.010630
05226		20.974222	-7.456606	-53.038342
05227		20.966426	-7.501214	-53.072485
05228		20.945432	-7.549475	-53.114322
05229		20.927069	-7.592044	-53.157832
05230		20.916060	-7.623898	-53.206515
05231		20.910010	-7.653381	-53.263245
05232		20.923524	-7.674744	-53.321129
05233		20.960026	-7.693458	-53.376684
05234		20.994292	-7.707100	-53.429473
05235		21.027990	-7.724640	-53.483847
05236		21.058531	-7.735309	-53.539925
05237		21.079037	-7.749252	-53.598429
05238		21.078245	-7.770865	-53.657282
05239		21.054804	-7.808924	-53.725128
05240		21.030450	-7.851869	-53.806876
05241		21.008810	-7.893527	-53.897603
05242		21.000493	-7.928859	-53.998088
05243		20.999885	-7.967153	-54.103100
05244		21.002245	-8.001620	-54.207438
05245		20.995619	-8.038093	-54.316663
05246		20.978018	-8.074807	-54.435174
05247		20.954793	-8.107029	-54.563789
05248		20.930523	-8.121247	-54.704879
05249		20.939952	-8.127666	-54.858918
05250		20.997286	-8.125516	-55.029266
05251		21.080790	-8.131759	-55.216508
05252		21.187549	-8.147442	-55.413772
05253		21.292566	-8.168239	-55.614653
05254		21.375842	-8.205357	-55.821095
05255		21.439183	-8.250306	-56.036798
05256		21.499096	-8.281991	-56.261829
05257		21.557226	-8.307291	-56.488970
05258		21.602693	-8.318479	-56.722130
05259		21.633901	-8.329282	-56.958443
05260		21.647874	-8.339152	-57.199797
05261		21.654662	-8.365552	-57.449743
05262		21.633946	-8.402682	-57.706830
05263		21.599439	-8.450980	-57.975954
05264		21.560222	-8.494409	-58.261104
05265		21.525997	-8.535912	-58.563920
05266		21.508930	-8.568482	-58.884201
05267		21.497663	-8.597026	-59.220633
05268		21.494419	-8.622881	-59.572812
05269		21.514780	-8.651644	-59.933217
05270		21.556192	-8.675218	-60.295101
05271		21.610726	-8.717272	-60.666389
05272		21.679076	-8.763961	-61.049890
05273		21.754964	-8.816221	-61.443898
05274		21.816209	-8.866269	-61.847170
05275		21.876263	-8.920057	-62.262773
05276		21.938488	-8.970194	-62.690310
05277		22.006708	-9.018525	-63.125117
05278		22.066390	-9.064451	-63.566495
05279		22.127302	-9.117349	-64.016152
05280		22.195403	-9.165664	-64.469297
05281		22.262883	-9.215955	-64.919705
05282		22.316406	-9.269351	-65.375740
05283		22.359739	-9.331527	-65.833079
05284		22.390888	-9.385318	-66.291117
05285		22.421756	-9.437686	-66.752984
05286		22.443168	-9.487575	-67.220390
05287		22.467901	-9.534965	-67.691264
05288		22.496995	-9.584442	-68.163806
05289		22.528693	-9.640847	-68.641900
05290		22.560574	-9.697564	-69.124650
05291		22.589142	-9.755369	-69.610844
05292		22.618631	-9.814504	-70.105606
05293		22.662946	-9.871973	-70.611551
05294		22.722580	-9.923069	-71.122004
05295		22.790747	-9.974197	-71.631405
05296		22.850554	-10.029926	-72.147076
05297		22.901879	-10.088823	-72.671379
05298		22.944972	-10.138585	-73.193032
05299		22.979952	-10.181900	-73.715606
05300		23.021630	-10.219395	-74.240692
05301		23.067653	-10.260745	-74.766822
05302		23.109301	-10.306790	-75.293259
05303		23.149521	-10.366844	-75.821764
05304		23.186913	-10.423222	-76.345707
05305		23.217944	-10.483981	-76.875351
05306		23.238444	-10.546648	-77.412781
05307		23.249936	-10.607620	-77.959592
05308		23.250125	-10.662868	-78.515223
05309		23.244541	-10.719552	-79.075389
05310		23.243360	-10.774412	-79.642807
05311		23.256018	-10.824742	-80.206591
05312		23.265815	-10.863144	-80.763892
05313		23.279209	-10.911039	-81.333071
05314		23.298531	-10.971261	-81.903492
05315		23.307896	-11.031313	-82.466826
05316		23.315377	-11.085693	-83.032562
05317		23.335954	-11.141027	-83.606778
05318		23.367051	-11.196196	-84.180646
05319		23.390919	-11.257200	-84.755485
05320		23.426944	-11.323143	-85.338045
05321		23.474150	-11.379554	-85.910086
05322		23.535806	-11.429794	-86.476098
05323		23.615098	-11.474702	-87.035048
05324		23.700515	-11.501596	-87.575652
05325		23.789474	-11.522511	-88.103910
05326		23.893429	-11.555258	-88.626706
05327		24.014007	-11.609097	-89.149124
05328		24.131805	-11.673607	-89.668626
05329		24.241683	-11.747337	-90.189011
05330		24.332777	-11.819846	-90.708632
05331		24.408511	-11.902044	-91.233058
05332		24.461152	-11.979475	-91.754871
05333		24.488875	-12.038678	-92.268282
05334		24.499089	-12.086792	-92.776637
05335		24.502169	-12.133507	-93.279630
05336		24.497499	-12.176501	-93.767781
05337		24.488512	-12.217958	-94.250336
05338		24.468936	-12.254559	-94.723753
05339		24.448684	-12.305890	-95.195872
05340		24.426538	-12.364595	-95.662857
05341		24.406859	-12.423482	-96.125719
05342		24.383236	-12.473873	-96.582940
05343		24.353403	-12.516595	-97.040787
05344		24.318229	-12.548513	-97.495414
05345		24.281883	-12.577364	-97.942341
05346		24.244268	-12.601792	-98.393862
05347		24.225108	-12.627318	-98.845878
05348		24.214766	-12.651615	-99.297039
05349		24.217076	-12.668837	-99.744171
05350		24.233564	-12.675394	-100.190479
05351		24.264262	-12.670882	-100.632464
05352		24.307165	-12.650614	-101.067251
05353		24.350998	-12.627947	-101.495767
05354		24.398109	-12.617753	-101.920750
05355		24.446278	-12.616658	-102.342825
05356		24.489657	-12.612923	-102.752519
05357		24.537576	-12.605019	-103.160332
05358		24.596039	-12.588068	-103.569108
05359		24.659312	-12.567074	-103.990594
05360		24.719365	-12.557314	-104.426167
05361		24.770280	-12.552447	-104.855364
05362		24.805140	-12.536543	-105.269859
05363		24.829887	-12.501916	-105.674380
05364		24.845429	-12.453332	-106.070216
05365		24.870876	-12.406639	-106.468943
05366		24.899328	-12.360921	-106.860202
05367		24.939278	-12.317931	-107.243339
05368		24.993039	-12.274422	-107.619544
05369		25.047068	-12.231552	-107.991327
05370		25.091783	-12.185730	-108.358995
05371		25.151980	-12.133881	-108.714702
05372		25.229834	-12.083466	-109.067700
05373		25.319766	-12.033904	-109.415399
05374		25.418996	-11.985870	-109.765680
05375		25.517114	-11.950563	-110.129126
05376		25.612767	-11.905141	-110.480186
05377		25.692466	-11.851174	-110.819754
05378		25.758042	-11.798414	-111.163512
05379		25.823818	-11.743813	-111.489268
05380		25.881778	-11.686636	-111.804833
05381		25.930169	-11.632690	-112.115754
05382		25.973550	-11.580737	-112.417620
05383		26.009370	-11.541622	-112.722923
05384		26.050366	-11.502107	-113.019182
05385		26.086544	-11.455061	-113.303430
05386		26.119554	-11.403048	-113.584287
05387		26.157266	-11.366980	-113.862840
05388		26.191262	-11.354482	-114.139016
05389		26.228456	-11.336702	-114.410046
05390		26.268049	-11.304760	-114.673921
05391		26.299379	-11.264422	-114.937883
05392		26.324474	-11.225521	-115.206171
05393		26.340495	-11.178634	-115.473377
05394		26.334964	-11.110431	-115.730183
05395		26.313331	-11.027006	-115.967560
05396		26.297796	-10.964439	-116.198638
05397		26.295802	-10.918117	-116.424515
05398		26.297588	-10.867579	-116.645005
05399		26.312139	-10.817265	-116.860427
05400		26.328721	-10.775961	-117.078367
05401		26.352425	-10.743177	-117.290145
05402		26.363432	-10.705543	-117.499583
05403		26.369317	-10.667045	-117.710425
05404		26.367545	-10.631250	-117.929371
05405		26.365922	-10.592937	-118.140111
05406		26.362692	-10.554554	-118.351232
05407		26.365294	-10.526477	-118.569996
05408		26.373451	-10.501131	-118.792500
05409		26.387679	-10.494544	-119.016230
05410		26.402546	-10.502866	-119.238704
05411		26.428167	-10.520780	-119.457288
05412		26.455874	-10.535984	-119.666050
05413		26.481833	-10.532979	-119.867177
05414		26.490489	-10.500028	-120.066831
05415		26.487368	-10.437152	-120.267544
05416		26.461790	-10.355596	-120.476860
05417		26.426548	-10.261614	-120.692761
05418		26.400575	-10.155545	-120.912671
05419		26.390891	-10.059909	-121.131621
05420		26.417902	-9.994560	-121.348408
05421		26.487002	-9.972906	-121.557042
05422		26.574335	-9.967756	-121.748177
05423		26.668460	-9.967735	-121.930580
05424		26.743810	-9.972499	-122.113039
05425		26.790239	-9.973134	-122.297658
05426		26.804537	-9.948475	-122.484095
05427		26.795790	-9.899133	-122.672671
05428		26.777181	-9.838536	-122.874573
05429		26.764962	-9.776323	-123.086109
05430		26.759775	-9.702021	-123.291043
05431		26.769767	-9.643004	-123.493450
05432		26.800787	-9.611016	-123.687103
05433		26.844380	-9.588343	-123.864517
05434		26.882489	-9.564203	-124.031905
05435		26.917917	-9.552782	-124.196506
05436		26.949048	-9.546343	-124.352473
05437		26.979070	-9.537328	-124.501629
05438		27.003743	-9.516208	-124.635993
05439		27.021865	-9.486753	-124.758383
05440		27.038367	-9.461606	-124.864135
05441		27.054602	-9.427763	-124.955246
05442		27.077863	-9.392985	-125.034792
05443		27.105270	-9.365268	-125.108486
05444		27.139077	-9.347054	-125.176646
05445		27.168845	-9.335309	-125.228819
05446		27.183865	-9.327006	-125.268690
05447		27.191491	-9.322382	-125.302849
05448		27.192939	-9.313645	-125.324376
05449		27.191651	-9.284865	-125.332224
05450		27.184581	-9.257511	-125.334051
05451		27.187675	-9.227822	-125.329371
05452		27.187274	-9.204027	-125.318320
05453		27.193673	-9.184714	-125.292980
05454		27.201200	-9.166864	-125.255526
05455		27.208690	-9.165414	-125.217653
05456		27.216434	-9.162301	-125.172857
05457		27.230582	-9.142906	-125.117548
05458		27.252726	-9.122861	-125.060582
05459		27.280837	-9.110634	-124.998239
05460		27.303346	-9.097399	-124.933903
05461		27.318932	-9.085119	-124.865461
05462		27.328167	-9.061840	-124.790077
05463		27.345393	-9.034693	-124.706573
05464		27.364431	-9.002092	-124.616170
05465		27.396284	-8.989975	-124.521644
05466		27.436463	-8.980884	-124.419177
05467		27.479886	-8.978130	-124.319653
05468		27.529498	-8.984391	-124.218137
05469		27.580358	-8.990214	-124.113662
05470		27.627568	-8.995623	-124.009565
05471		27.676978	-9.002884	-123.903849
05472		27.724453	-9.003365	-123.794270
05473		27.766588	-8.990673	-123.686235
05474		27.803352	-8.976589	-123.573521
05475		27.832930	-8.964557	-123.458807
05476		27.861446	-8.955202	-123.334846
05477		27.894247	-8.956871	-123.202863
05478		27.929507	-8.967920	-123.064827
05479		27.967431	-8.986254	-122.923336
05480		27.992942	-9.009420	-122.773678
05481		28.007444	-9.031108	-122.619677
05482		28.014010	-9.050641	-122.459290
05483		28.017672	-9.066388	-122.294543
05484		28.021703	-9.080404	-122.119617
05485		28.023919	-9.096327	-121.940742
05486		28.014442	-9.109108	-121.753782
05487		27.990992	-9.118028	-121.562127
05488		27.970162	-9.128966	-121.365563
05489		27.958887	-9.147131	-121.171020
05490		27.954274	-9.168569	-120.969893
05491		27.954372	-9.187870	-120.758844
05492		27.960583	-9.206584	-120.541744
05493		27.968633	-9.216876	-120.313944
05494		27.975922	-9.217523	-120.080635
05495		27.988021	-9.212740	-119.842031
05496		28.001538	-9.213259	-119.601598
05497		28.015194	-9.208472	-119.352248
05498		28.026916	-9.200965	-119.091348
05499		28.032564	-9.194882	-118.819832
05500		28.036278	-9.193808	-118.541917
05501		28.043709	-9.192912	-118.256269
05502		28.043265	-9.189230	-117.964632
05503		28.045319	-9.181339	-117.665277
05504		28.046065	-9.172472	-117.354878
05505		28.044728	-9.167781	-117.035471
05506		28.029707	-9.160274	-116.705329
05507		28.005885	-9.133917	-116.360942
05508		27.990784	-9.094969	-116.011781
05509		28.011165	-9.091834	-115.676394
05510		28.073093	-9.127087	-115.353649
05511		28.160153	-9.190255	-115.041582
05512		28.263009	-9.285884	-114.724805
05513		28.375443	-9.386213	-114.387695
05514		28.470819	-9.459051	-114.025887
05515		28.538757	-9.503268	-113.650421
05516		28.577486	-9.536124	-113.278700
05517		28.609101	-9.565190	-112.907310
05518		28.647195	-9.587486	-112.532583
05519		28.696008	-9.607637	-112.155153
05520		28.737651	-9.632199	-111.773201
05521		28.765357	-9.650009	-111.383358
05522		28.788177	-9.660226	-110.990215
05523		28.806434	-9.678609	-110.594797
05524		28.808400	-9.716877	-110.198042
05525		28.798883	-9.778485	-109.800802
05526		28.764523	-9.837173	-109.392255
05527		28.701319	-9.870405	-108.979529
05528		28.624923	-9.881159	-108.557887
05529		28.549876	-9.861940	-108.123350
05530		28.481825	-9.833089	-107.681813
05531		28.423654	-9.827246	-107.237796
05532		28.381858	-9.846714	-106.790456
05533		28.360741	-9.912170	-106.353687
05534		28.358336	-9.991707	-105.919666
05535		28.362486	-10.065736	-105.476833
05536		28.368511	-10.122334	-105.018702
05537		28.357057	-10.154234	-104.552345
05538		28.346497	-10.165162	-104.075423
05539		28.342329	-10.161032	-103.590785
05540		28.326022	-10.130931	-103.094434
05541		28.307045	-10.091087	-102.591132
05542		28.290406	-10.065696	-102.086897
05543		28.278892	-10.057823	-101.579745
05544		28.259606	-10.067598	-101.066668
05545		28.230586	-10.073296	-100.540399
05546		28.196174	-10.095731	-100.006322
05547		28.156921	-10.116702	-99.464930
05548		28.105263	-10.110691	-98.909392
05549		28.049672	-10.103426	-98.347256
05550		27.989408	-10.101559	-97.779034
05551		27.899350	-10.099284	-97.200319
05552		27.792552	-10.088675	-96.605512
05553		27.676487	-10.060418	-95.989781
05554		27.557219	-10.019274	-95.365207
05555		27.443287	-9.981781	-94.748256
05556		27.329431	-9.950620	-94.145351
05557		27.229082	-9.917089	-93.541213
05558		27.139410	-9.879162	-92.925326
05559		27.059440	-9.835083	-92.314850
05560		26.976209	-9.780131	-91.705110
05561		26.905007	-9.713407	-91.089386
05562		26.838766	-9.628952	-90.465396
05563		26.808909	-9.541710	-89.853799
05564		26.809821	-9.524987	-89.275638
05565		26.814308	-9.574224	-88.713182
05566		26.809566	-9.616094	-88.129445
05567		26.786878	-9.620454	-87.526684
05568		26.722922	-9.596565	-86.931309
05569		26.618478	-9.532531	-86.347557
05570		26.534279	-9.410193	-85.774109
05571		26.500913	-9.220465	-85.198536
05572		26.571365	-9.033466	-84.613347
05573		26.689328	-8.898341	-84.002150
05574		26.764180	-8.762195	-83.364824
05575		26.756752	-8.666974	-82.750713
05576		26.644954	-8.623566	-82.162046
05577		26.477298	-8.571848	-81.573393
05578		26.280924	-8.527520	-80.989143
05579		26.056205	-8.519730	-80.419412
05580		25.827880	-8.526433	-79.851560
05581		25.595640	-8.535615	-79.286632
05582		25.344240	-8.531082	-78.714268
05583		25.067389	-8.512853	-78.149902
05584		24.786307	-8.465062	-77.604264
05585		24.560115	-8.397707	-77.082726
05586		24.386126	-8.301935	-76.576082
05587		24.270582	-8.205103	-76.073497
05588		24.191161	-8.102070	-75.570826
05589		24.134899	-8.009334	-75.076429
05590		24.095514	-7.937978	-74.598910
05591		24.068370	-7.863358	-74.130219
05592		24.034503	-7.775400	-73.672194
05593		23.998832	-7.692306	-73.233440
05594		23.957415	-7.608847	-72.817222
05595		23.912454	-7.517807	-72.414376
05596		23.862959	-7.440818	-72.019963
05597		23.768397	-7.401023	-71.634790
05598		23.636601	-7.366896	-71.246762
05599		23.489688	-7.335737	-70.867181
05600		23.335494	-7.305554	-70.496150
05601		23.172980	-7.272949	-70.139940
05602		23.029412	-7.223720	-69.798933
05603		22.928752	-7.140311	-69.453926
05604		22.874687	-7.036889	-69.109584
05605		22.843962	-6.938976	-68.770732
05606		22.816803	-6.852131	-68.432257
05607		22.769245	-6.772270	-68.093737
05608		22.710969	-6.693765	-67.754150
05609		22.636241	-6.609584	-67.408828
05610		22.548288	-6.510498	-67.061077
05611		22.476586	-6.407074	-66.711380
05612		22.435440	-6.332070	-66.366511
05613		22.352461	-6.307452	-66.024207
05614		22.212334	-6.308105	-65.673765
05615		22.029786	-6.314658	-65.319076
05616		21.817395	-6.323265	-64.968736
05617		21.603440	-6.332911	-64.630862
05618		21.424205	-6.335618	-64.307148
05619		21.303632	-6.323967	-63.993978
05620		21.225927	-6.292216	-63.679817
05621		21.156487	-6.253237	-63.366205
05622		21.087457	-6.230422	-63.053325
05623		20.990298	-6.232230	-62.754994
05624		20.886400	-6.239811	-62.463058
05625		20.784469	-6.235827	-62.179232
05626		20.701134	-6.228979	-61.906354
05627		20.633146	-6.223590	-61.640576
05628		20.584744	-6.216968	-61.387100
05629		20.560805	-6.204342	-61.135140
05630		20.547579	-6.193897	-60.885586
05631		20.509630	-6.199131	-60.638834
05632		20.453838	-6.211694	-60.400075
05633		20.399122	-6.220733	-60.164526
05634		20.338821	-6.216971	-59.930979
05635		20.280362	-6.212784	-59.705715
05636		20.236875	-6.210210	-59.477167
05637		20.181646	-6.217978	-59.247201
05638		20.118595	-6.228773	-59.021062
05639		20.039454	-6.246798	-58.802012
05640		19.947100	-6.258725	-58.593964
05641		19.852393	-6.259821	-58.387355
05642		19.776066	-6.254158	-58.174135
05643		19.695893	-6.244326	-57.961083
05644		19.619730	-6.222547	-57.745740
05645		19.539086	-6.201142	-57.531046
05646		19.434565	-6.188107	-57.321715
05647		19.306265	-6.181736	-57.114552
05648		19.171802	-6.188170	-56.913088
05649		19.035880	-6.198524	-56.712154
05650		18.905783	-6.202727	-56.517087
05651		18.782131	-6.198697	-56.325443
05652		18.666257	-6.186054	-56.139529
05653		18.553184	-6.169647	-55.961864
05654		18.446663	-6.146546	-55.786813
05655		18.344527	-6.123918	-55.617553
05656		18.262413	-6.108798	-55.450432
05657		18.198698	-6.090306	-55.286031
05658		18.138019	-6.064121	-55.123594
05659		18.082944	-6.033858	-54.967265
05660		18.020494	-6.003465	-54.814018
05661		17.948013	-5.984233	-54.670607
05662		17.858548	-5.965531	-54.538362
05663		17.779599	-5.938568	-54.409189
05664		17.705478	-5.904105	-54.278498
05665		17.646087	-5.871827	-54.150826
05666		17.589404	-5.838441	-54.021346
05667		17.537175	-5.809947	-53.893494
05668		17.481650	-5.783315	-53.772912
05669		17.416434	-5.762342	-53.661510
05670		17.338886	-5.746576	-53.559104
05671		17.281765	-5.728614	-53.462026
05672		17.251518	-5.691328	-53.362960
05673		17.237771	-5.647900	-53.267603
05674		17.231798	-5.594473	-53.175901
05675		17.230019	-5.539947	-53.090078
05676		17.224448	-5.500673	-53.009686
05677		17.214579	-5.466504	-52.929715
05678		17.199038	-5.430807	-52.850819
05679		17.183850	-5.394744	-52.774913
05680		17.170404	-5.352200	-52.710674
05681		17.146912	-5.322148	-52.663838
05682		17.117713	-5.300596	-52.631286
05683		17.103329	-5.278573	-52.606084
05684		17.101178	-5.261180	-52.585698
05685		17.101447	-5.251499	-52.569530
05686		17.100838	-5.242408	-52.562909
05687		17.103841	-5.228193	-52.566680
05688		17.113356	-5.199684	-52.583242
05689		17.117456	-5.168991	-52.611966
05690		17.133278	-5.143004	-52.650655
05691		17.158675	-5.121755	-52.692003
05692		17.184046	-5.110279	-52.742000
05693		17.212180	-5.114207	-52.801874
05694		17.234324	-5.110993	-52.862697
05695		17.259548	-5.106281	-52.922868
05696		17.286412	-5.107898	-52.988735
05697		17.346459	-5.113196	-53.058674
05698		17.404321	-5.107451	-53.118932
05699		17.446558	-5.102518	-53.171019
05700		17.486418	-5.093973	-53.221990
05701		17.523718	-5.085757	-53.275902
05702		17.564297	-5.082676	-53.333926
05703		17.603946	-5.088855	-53.389661
05704		17.633444	-5.095522	-53.441875
05705		17.655944	-5.109602	-53.495249
05706		17.683783	-5.123312	-53.559528
05707		17.713138	-5.139046	-53.621122
05708		17.744530	-5.152699	-53.679158
05709		17.774167	-5.166816	-53.733827
05710		17.795938	-5.181763	-53.785005
05711		17.795705	-5.202430	-53.844144
05712		17.789051	-5.219536	-53.909638
05713		17.795002	-5.240491	-53.980410
05714		17.825036	-5.262869	-54.046487
05715		17.853926	-5.289267	-54.111608
05716		17.888118	-5.324017	-54.176137
05717		17.930016	-5.357848	-54.243467
05718		17.961830	-5.386732	-54.316579
05719		17.983984	-5.414398	-54.396895
05720		17.996759	-5.432648	-54.482611
05721		18.006278	-5.449756	-54.577258
05722		18.020064	-5.465835	-54.677138
05723		18.044989	-5.488239	-54.777395
05724		18.067524	-5.515465	-54.878155
05725		18.103854	-5.549618	-54.984065
05726		18.141457	-5.588627	-55.094038
05727		18.168223	-5.626476	-55.211048
05728		18.198980	-5.661168	-55.330123
05729		18.218316	-5.705075	-55.449493
05730		18.219618	-5.744584	-55.563103
05731		18.208028	-5.781393	-55.670813
05732		18.187501	-5.815064	-55.779634
05733		18.167703	-5.844372	-55.890353
05734		18.146319	-5.876090	-56.001129
05735		18.125049	-5.918478	-56.113635
05736		18.109350	-5.966519	-56.228922
05737		18.098053	-6.019553	-56.347701
05738		18.083509	-6.067682	-56.471299
05739		18.075179	-6.109414	-56.603122
05740		18.087994	-6.137958	-56.745653
05741		18.124834	-6.157273	-56.895392
05742		18.181667	-6.178311	-57.048414
05743		18.236287	-6.207331	-57.203938
05744		18.278691	-6.243551	-57.364427
05745		18.317857	-6.282944	-57.533902
05746		18.354890	-6.317482	-57.707325
05747		18.395630	-6.351775	-57.890703
05748		18.441100	-6.384362	-58.079064
05749		18.494654	-6.411771	-58.269121
05750		18.560252	-6.438356	-58.465731
05751		18.635395	-6.468593	-58.665719
05752		18.707132	-6.497989	-58.868608
05753		18.775817	-6.527327	-59.076854
05754		18.845868	-6.561625	-59.289946
05755		18.909845	-6.591886	-59.508804
05756		18.958672	-6.613948	-59.728351
05757		19.002638	-6.637497	-59.951216
05758		19.047020	-6.663955	-60.183139
05759		19.094850	-6.695045	-60.419600
05760		19.148452	-6.731868	-60.661955
05761		19.204378	-6.773304	-60.906077
05762		19.248417	-6.811977	-61.147879
05763		19.293123	-6.847667	-61.389461
05764		19.337606	-6.882031	-61.630680
05765		19.373133	-6.915187	-61.873866
05766		19.411629	-6.948454	-62.116658
05767		19.449643	-6.980207	-62.361903
05768		19.464227	-7.008366	-62.613182
05769		19.469924	-7.034582	-62.877013
05770		19.495864	-7.049631	-63.148505
05771		19.540067	-7.064405	-63.419979
05772		19.588520	-7.081277	-63.692708
05773		19.656285	-7.105789	-63.963178
05774		19.739932	-7.131972	-64.231071
05775		19.817347	-7.170631	-64.506385
05776		19.880023	-7.202875	-64.790345
05777		19.948733	-7.229086	-65.085131
05778		20.024320	-7.253906	-65.386365
05779		20.099537	-7.273537	-65.686781
05780		20.172184	-7.286035	-65.985719
05781		20.248376	-7.302784	-66.283606
05782		20.328782	-7.318263	-66.575807
05783		20.417239	-7.340814	-66.865676
05784		20.506653	-7.373261	-67.152764
05785		20.584357	-7.403167	-67.435145
05786		20.650948	-7.434327	-67.723204
05787		20.695154	-7.473011	-68.012179
05788		20.716215	-7.503768	-68.305618
05789		20.744474	-7.523640	-68.602323
05790		20.783081	-7.532292	-68.899271
05791		20.825080	-7.541434	-69.193907
05792		20.861192	-7.555675	-69.486610
05793		20.897120	-7.576928	-69.782608
05794		20.923423	-7.600214	-70.084728
05795		20.945216	-7.622910	-70.395592
05796		20.965727	-7.642525	-70.718074
05797		20.981856	-7.655356	-71.047605
05798		20.995589	-7.663472	-71.381856
05799		21.010079	-7.674632	-71.721426
05800		21.029835	-7.690935	-72.060371
05801		21.061277	-7.703533	-72.400670
05802		21.109027	-7.722404	-72.739391
05803		21.166111	-7.758494	-73.089870
05804		21.217395	-7.813170	-73.444440
05805		21.265606	-7.868502	-73.800394
05806		21.320045	-7.918969	-74.161380
05807		21.382518	-7.965691	-74.521547
05808		21.457494	-8.008570	-74.886699
05809		21.541951	-8.056748	-75.252708
05810		21.617774	-8.114002	-75.626369
05811		21.688682	-8.178546	-76.007515
05812		21.768755	-8.235448	-76.395675
05813		21.859423	-8.302368	-76.793740
05814		21.938551	-8.367858	-77.194668
05815		22.009822	-8.425846	-77.599266
05816		22.074867	-8.489298	-78.015694
05817		22.135707	-8.565820	-78.436019
05818		22.195103	-8.637407	-78.862319
05819		22.259211	-8.703053	-79.299918
05820		22.317976	-8.769675	-79.748270
05821		22.372799	-8.851406	-80.206528
05822		22.416733	-8.941996	-80.671495
05823		22.438149	-9.038196	-81.145701
05824		22.450232	-9.145774	-81.623769
05825		22.451618	-9.248998	-82.105268
05826		22.462484	-9.353499	-82.594794
05827		22.488640	-9.438385	-83.083700
05828		22.527849	-9.512773	-83.574394
05829		22.589397	-9.576342	-84.068000
05830		22.650983	-9.627573	-84.570955
05831		22.719677	-9.696400	-85.085030
05832		22.788392	-9.774451	-85.606473
05833		22.856521	-9.852660	-86.124094
05834		22.921315	-9.927008	-86.639376
05835		22.976300	-10.002572	-87.152464
05836		23.014832	-10.066972	-87.663490
05837		23.025444	-10.119066	-88.172326
05838		23.037640	-10.167043	-88.683535
05839		23.060087	-10.216530	-89.189962
05840		23.077474	-10.261550	-89.684592
05841		23.094681	-10.293048	-90.177468
05842		23.115009	-10.321074	-90.681113
05843		23.146487	-10.346230	-91.181318
05844		23.172319	-10.372279	-91.682292
05845		23.194017	-10.411274	-92.189999
05846		23.223890	-10.442541	-92.697586
05847		23.255700	-10.461385	-93.201733
05848		23.297319	-10.491983	-93.715441
05849		23.344816	-10.526339	-94.238419
05850		23.394395	-10.559188	-94.745380
05851		23.449309	-10.576091	-95.231257
05852		23.487136	-10.594498	-95.712243
05853		23.532521	-10.605454	-96.180765
05854		23.574396	-10.601936	-96.640295
05855		23.622776	-10.608266	-97.105861
05856		23.671757	-10.614758	-97.563288
05857		23.723248	-10.612717	-98.004745
05858		23.781827	-10.614169	-98.447473
05859		23.853856	-10.626632	-98.892825
05860		23.919862	-10.630757	-99.330449
05861		23.973232	-10.632637	-99.756788
05862		24.013061	-10.640137	-100.171912
05863		24.040051	-10.647440	-100.580764
05864		24.075428	-10.651040	-100.983697
05865		24.127812	-10.653742	-101.392000
05866		24.198227	-10.656965	-101.796336
05867		24.270532	-10.650168	-102.198542
05868		24.348139	-10.641182	-102.601677
05869		24.423619	-10.622644	-102.993724
05870		24.489288	-10.601332	-103.378374
05871		24.563196	-10.575479	-103.759128
05872		24.639548	-10.546549	-104.135925
05873		24.718592	-10.521076	-104.510941
05874		24.801934	-10.519556	-104.891750
05875		24.886775	-10.526712	-105.269446
05876		24.978930	-10.525626	-105.638341
05877		25.070424	-10.531459	-106.006427
05878		25.150405	-10.531650	-106.372356
05879		25.212461	-10.528152	-106.732637
05880		25.262758	-10.520691	-107.089317
05881		25.305826	-10.511614	-107.442369
05882		25.348206	-10.505817	-107.800549
05883		25.396094	-10.494765	-108.154795
05884		25.438314	-10.491141	-108.506254
05885		25.486633	-10.489888	-108.858030
05886		25.545249	-10.494230	-109.218071
05887		25.602478	-10.499183	-109.579895
05888		25.652474	-10.498905	-109.935840
05889		25.690799	-10.490861	-110.290534
05890		25.729762	-10.479195	-110.635715
05891		25.784118	-10.477673	-110.973398
05892		25.843282	-10.477880	-111.308587
05893		25.907994	-10.479991	-111.638643
05894		25.973923	-10.484395	-111.972019
05895		26.049791	-10.485220	-112.300121
05896		26.126989	-10.483469	-112.623392
05897		26.195619	-10.472124	-112.942950
05898		26.254145	-10.454890	-113.261415
05899		26.303045	-10.447916	-113.581592
05900		26.356260	-10.455126	-113.901913
05901		26.416722	-10.450424	-114.210181
05902		26.477338	-10.431964	-114.512845
05903		26.537846	-10.406156	-114.816213
05904		26.600321	-10.397603	-115.125226
05905		26.671370	-10.412825	-115.443461
05906		26.736804	-10.431820	-115.757346
05907		26.807771	-10.430699	-116.055577
05908		26.861014	-10.402869	-116.346173
05909		26.908539	-10.384938	-116.636041
05910		26.942412	-10.369523	-116.920675
05911		26.973258	-10.342496	-117.198643
05912		27.001476	-10.312524	-117.468125
05913		27.027765	-10.283160	-117.740504
05914		27.053693	-10.260913	-118.010453
05915		27.090610	-10.238090	-118.272766
05916		27.123016	-10.210410	-118.530080
05917		27.148033	-10.183717	-118.787210
05918		27.171903	-10.152448	-119.042219
05919		27.214295	-10.114123	-119.288405
05920		27.265883	-10.092079	-119.532432
05921		27.325399	-10.076621	-119.765370
05922		27.383534	-10.055960	-119.987691
05923		27.448140	-10.045073	-120.209791
05924		27.517745	-10.032513	-120.427879
05925		27.586612	-10.011373	-120.640369
05926		27.646063	-9.984807	-120.852605
05927		27.705115	-9.951788	-121.061904
05928		27.760437	-9.913649	-121.268949
05929		27.818920	-9.882510	-121.474793
05930		27.876619	-9.852936	-121.677656
05931		27.948878	-9.825933	-121.880256
05932		28.027287	-9.800740	-122.077785
05933		28.103941	-9.788736	-122.273795
05934		28.179633	-9.775145	-122.462052
05935		28.248777	-9.751146	-122.639479
05936		28.321068	-9.726541	-122.809097
05937		28.391341	-9.705919	-122.980595
05938		28.453630	-9.685189	-123.156991
05939		28.513023	-9.662177	-123.333708
05940		28.570179	-9.630810	-123.506186
05941		28.630056	-9.596128	-123.667234
05942		28.678632	-9.560868	-123.825204
05943		28.730200	-9.529376	-123.978856
05944		28.780208	-9.501048	-124.132092
05945		28.831811	-9.465639	-124.282274
05946		28.877801	-9.429966	-124.423719
05947		28.917402	-9.392517	-124.554910
05948		28.953816	-9.358866	-124.680974
05949		28.997671	-9.330310	-124.801012
05950		29.038339	-9.302342	-124.916834
05951		29.077322	-9.288894	-125.036839
05952		29.107832	-9.269176	-125.155577
05953		29.132003	-9.229846	-125.271777
05954		29.148751	-9.184984	-125.389535
05955		29.163678	-9.127217	-125.495492
05956		29.184408	-9.066077	-125.597921
05957		29.206073	-9.014045	-125.698860
05958		29.230569	-8.965824	-125.796551
05959		29.272343	-8.927404	-125.894780
05960		29.326067	-8.895918	-125.987872
05961		29.385181	-8.866857	-126.077413
05962		29.441259	-8.840784	-126.162428
05963		29.489059	-8.815145	-126.244983
05964		29.536073	-8.786875	-126.320902
05965		29.594696	-8.761549	-126.394427
05966		29.651971	-8.742507	-126.468327
05967		29.713833	-8.726780	-126.540323
05968		29.771690	-8.719221	-126.603852
05969		29.823353	-8.700794	-126.657981
05970		29.859703	-8.679468	-126.705602
05971		29.881079	-8.655963	-126.746266
05972		29.892187	-8.629361	-126.782432
05973		29.892820	-8.614018	-126.815995
05974		29.888291	-8.598003	-126.841366
05975		29.890027	-8.575680	-126.854279
05976		29.887265	-8.552663	-126.856649
05977		29.873718	-8.535396	-126.855405
05978		29.854899	-8.514916	-126.848020
05979		29.836907	-8.498307	-126.834480
05980		29.819119	-8.486114	-126.813002
05981		29.795929	-8.475068	-126.787215
05982		29.775589	-8.462922	-126.756362
05983		29.764320	-8.450926	-126.718786
05984		29.757122	-8.441726	-126.678069
05985		29.758411	-8.434851	-126.628070
05986		29.762965	-8.425484	-126.566226
05987		29.776247	-8.431627	-126.508746
05988		29.785778	-8.447609	-126.447331
05989		29.793197	-8.462947	-126.375514
05990		29.797524	-8.477048	-126.293951
05991		29.806063	-8.496889	-126.206157
05992		29.811698	-8.517644	-126.114212
05993		29.810775	-8.539747	-126.014528
05994		29.810877	-8.557077	-125.912539
05995		29.820939	-8.571910	-125.803585
05996		29.833521	-8.583287	-125.696276
05997		29.850320	-8.598795	-125.586368
05998		29.872500	-8.616908	-125.470538
05999		29.906784	-8.626000	-125.346323
06000		29.938973	-8.628003	-125.213101
06001		29.964316	-8.628151	-125.073157
06002		29.987638	-8.631909	-124.933441
06003		30.005629	-8.642147	-124.794191
06004		30.021713	-8.646077	-124.649313
06005		30.045316	-8.643053	-124.492894
06006		30.075224	-8.640407	-124.337170
06007		30.107204	-8.632373	-124.178304
06008		30.133912	-8.628044	-124.016780
06009		30.168772	-8.630476	-123.847468
06010		30.213024	-8.636880	-123.670767
06011		30.255554	-8.641490	-123.484091
06012		30.288750	-8.654866	-123.290176
06013		30.314503	-8.662880	-123.082593
06014		30.329892	-8.656995	-122.849809
06015		30.338346	-8.646557	-122.603205
06016		30.348764	-8.635897	-122.350061
06017		30.359308	-8.631139	-122.102922
06018		30.372294	-8.633912	-121.850903
06019		30.376466	-8.638496	-121.591862
06020		30.370526	-8.637857	-121.322212
06021		30.352506	-8.636251	-121.045117
06022		30.321225	-8.627345	-120.760252
06023		30.283544	-8.608537	-120.469792
06024		30.238086	-8.603527	-120.186979
06025		30.193313	-8.613676	-119.902897
06026		30.156479	-8.626251	-119.608880
06027		30.126849	-8.641919	-119.300067
06028		30.100667	-8.658180	-118.978182
06029		30.074174	-8.674000	-118.643339
06030		30.048058	-8.694057	-118.300535
06031		30.024359	-8.717719	-117.955717
06032		30.002054	-8.738249	-117.593764
06033		29.974688	-8.770113	-117.224885
06034		29.939882	-8.810217	-116.855690
06035		29.895175	-8.846648	-116.478826
06036		29.834268	-8.884332	-116.095039
06037		29.760461	-8.922540	-115.698417
06038		29.676529	-8.952742	-115.288896
06039		29.591501	-8.967901	-114.869954
06040		29.505547	-8.969376	-114.452975
06041		29.418500	-8.980348	-114.043162
06042		29.321034	-9.036523	-113.650563
06043		29.235264	-9.088669	-113.248962
06044		29.165235	-9.126161	-112.822057
06045		29.109334	-9.158806	-112.378799
06046		29.065400	-9.179537	-111.927003
06047		29.029401	-9.212948	-111.480139
06048		28.993776	-9.282583	-111.044315
06049		28.953447	-9.385895	-110.615019
06050		28.907205	-9.480252	-110.183117
06051		28.846383	-9.557478	-109.736712
06052		28.771459	-9.623048	-109.281591
06053		28.686324	-9.677893	-108.820758
06054		28.595124	-9.736454	-108.364860
06055		28.499490	-9.809993	-107.920372
06056		28.397324	-9.873259	-107.474911
06057		28.282828	-9.925460	-107.014402
06058		28.150170	-9.963284	-106.539961
06059		27.995623	-9.989624	-106.053898
06060		27.820158	-10.022570	-105.567737
06061		27.645551	-10.059765	-105.072399
06062		27.481385	-10.085164	-104.564448
06063		27.325701	-10.100308	-104.049755
06064		27.179310	-10.116287	-103.537285
06065		27.051489	-10.122479	-103.021496
06066		26.935914	-10.112631	-102.498914
06067		26.842961	-10.111149	-101.976030
06068		26.763098	-10.107671	-101.447228
06069		26.687658	-10.084350	-100.910463
06070		26.621125	-10.066184	-100.384655
06071		26.557500	-10.064754	-99.871045
06072		26.486915	-10.068589	-99.363065
06073		26.402816	-10.100422	-98.859146
06074		26.316427	-10.120885	-98.336802
06075		26.229679	-10.108601	-97.793040
06076		26.147888	-10.101450	-97.242817
06077		26.057357	-10.117871	-96.692339
06078		25.966020	-10.111933	-96.127158
06079		25.876111	-10.109468	-95.564742
06080		25.784750	-10.156174	-95.020826
06081		25.703687	-10.209356	-94.482151
06082		25.644279	-10.260003	-93.943489
06083		25.582453	-10.318549	-93.411660
06084		25.511459	-10.372603	-92.880646
06085		25.430833	-10.420004	-92.356102
06086		25.358518	-10.457348	-91.826176
06087		25.295008	-10.476014	-91.288138
06088		25.237388	-10.480412	-90.743727
06089		25.174049	-10.486744	-90.198989
06090		25.105545	-10.515528	-89.659252
06091		25.046225	-10.556947	-89.114874
06092		24.976206	-10.604618	-88.566705
06093		24.920530	-10.664572	-88.029888
06094		24.884426	-10.718139	-87.487584
06095		24.847455	-10.750408	-86.941749
06096		24.833119	-10.768725	-86.403939
06097		24.828868	-10.772066	-85.863688
06098		24.816193	-10.772793	-85.330657
06099		24.799614	-10.768800	-84.813066
06100		24.792180	-10.767743	-84.315100
06101		24.786663	-10.785178	-83.832673
06102		24.782788	-10.793978	-83.349923
06103		24.779831	-10.798059	-82.864756
06104		24.775012	-10.798804	-82.374510
06105		24.767406	-10.789362	-81.873590
06106		24.746711	-10.766421	-81.371408
06107		24.724457	-10.752295	-80.882302
06108		24.701853	-10.741845	-80.389527
06109		24.692684	-10.727960	-79.891087
06110		24.699473	-10.724350	-79.401780
06111		24.718560	-10.765211	-78.927240
06112		24.727527	-10.798242	-78.438729
06113		24.698796	-10.793007	-77.925713
06114		24.611603	-10.778067	-77.422309
06115		24.471442	-10.766872	-76.942594
06116		24.329018	-10.745054	-76.463386
06117		24.196821	-10.702829	-75.975532
06118		24.074324	-10.650637	-75.491412
06119		23.964388	-10.617506	-75.025288
06120		23.847104	-10.595860	-74.563968
06121		23.711797	-10.587545	-74.112356
06122		23.551911	-10.601827	-73.678107
06123		23.365359	-10.598434	-73.246969
06124		23.171245	-10.578255	-72.818022
06125		22.973783	-10.543130	-72.400848
06126		22.780448	-10.522108	-72.010585
06127		22.581918	-10.526492	-71.647202
06128		22.383945	-10.552035	-71.305115
06129		22.212963	-10.572879	-70.978448
06130		22.069011	-10.566415	-70.652065
06131		21.944819	-10.538514	-70.323820
06132		21.835420	-10.492665	-69.994496
06133		21.745162	-10.432617	-69.662401
06134		21.672243	-10.379554	-69.334762
06135		21.595833	-10.356085	-69.019260
06136		21.519464	-10.344513	-68.703706
06137		21.441273	-10.318350	-68.388983
06138		21.386429	-10.281951	-68.076745
06139		21.359158	-10.238891	-67.767823
06140		21.360697	-10.202361	-67.469269
06141		21.374586	-10.172691	-67.174307
06142		21.373549	-10.139380	-66.880522
06143		21.347968	-10.094744	-66.587598
06144		21.285351	-10.052185	-66.302658
06145		21.187483	-10.070850	-66.035506
06146		21.063994	-10.109903	-65.766587
06147		20.924800	-10.125347	-65.488522
06148		20.795300	-10.112320	-65.200336
06149		20.665620	-10.092154	-64.906895
06150		20.540439	-10.070609	-64.619742
06151		20.428654	-10.039540	-64.344457
06152		20.336493	-10.005039	-64.084918
06153		20.268424	-9.962566	-63.833505
06154		20.215476	-9.901965	-63.584595
06155		20.135953	-9.844519	-63.335214
06156		20.052318	-9.787580	-63.083133
06157		19.972925	-9.725846	-62.828471
06158		19.894980	-9.682678	-62.582650
06159		19.814228	-9.665377	-62.346248
06160		19.751428	-9.639774	-62.109955
06161		19.695374	-9.610270	-61.880014
06162		19.650405	-9.578204	-61.656991
06163		19.606879	-9.538491	-61.441635
06164		19.573879	-9.487128	-61.238362
06165		19.562729	-9.435858	-61.049022
06166		19.563326	-9.375796	-60.860860
06167		19.562931	-9.318646	-60.681851
06168		19.553031	-9.261420	-60.509561
06169		19.542004	-9.215908	-60.340179
06170		19.500857	-9.192106	-60.178977
06171		19.450096	-9.179227	-60.022034
06172		19.423101	-9.165968	-59.861516
06173		19.404128	-9.136652	-59.687415
06174		19.394553	-9.098001	-59.500274
06175		19.363160	-9.062593	-59.311042
06176		19.301500	-9.032667	-59.132170
06177		19.205065	-8.984048	-58.957927
06178		19.088480	-8.921594	-58.792875
06179		18.983709	-8.840139	-58.618133
06180		18.916181	-8.757956	-58.434209
06181		18.874741	-8.679207	-58.246135
06182		18.845934	-8.597400	-58.054375
06183		18.804403	-8.513417	-57.861783
06184		18.734622	-8.440284	-57.673914
06185		18.648329	-8.359808	-57.495389
06186		18.549384	-8.286767	-57.335583
06187		18.451477	-8.207575	-57.178518
06188		18.394143	-8.116334	-57.020976
06189		18.380393	-8.012479	-56.856634
06190		18.385635	-7.890796	-56.683427
06191		18.374075	-7.775588	-56.514695
06192		18.363586	-7.671953	-56.356850
06193		18.345073	-7.571725	-56.205698
06194		18.297412	-7.474842	-56.058488
06195		18.248441	-7.388257	-55.926997
06196		18.213220	-7.283017	-55.796209
06197		18.178813	-7.167183	-55.663417
06198		18.171257	-7.044964	-55.533394
06199		18.174783	-6.911073	-55.401022
06200		18.178107	-6.794867	-55.282052
06201		18.133514	-6.708725	-55.173534
06202		18.050115	-6.643421	-55.070227
06203		17.956210	-6.568245	-54.973547
06204		17.880828	-6.473396	-54.879886
06205		17.823640	-6.381275	-54.794795
06206		17.770680	-6.302642	-54.710017
06207		17.715826	-6.224993	-54.613827
06208		17.659993	-6.146899	-54.510844
06209		17.597148	-6.081474	-54.413549
06210		17.516447	-6.035523	-54.331740
06211		17.456185	-5.992690	-54.261706
06212		17.404764	-5.944788	-54.192716
06213		17.375957	-5.901218	-54.126993
06214		17.374886	-5.858950	-54.065214
06215		17.394854	-5.817568	-54.007329
06216		17.403185	-5.780983	-53.953969
06217		17.389076	-5.753544	-53.909299
06218		17.368751	-5.729678	-53.872042
06219		17.359160	-5.701411	-53.834840
06220		17.362910	-5.675714	-53.797736
06221		17.389644	-5.652067	-53.758646
06222		17.424575	-5.636118	-53.718444
06223		17.461908	-5.634101	-53.682364
06224		17.491635	-5.634470	-53.649141
06225		17.495600	-5.636176	-53.623158
06226		17.488083	-5.642772	-53.609043
06227		17.490264	-5.645966	-53.596182
06228		17.515736	-5.651559	-53.587063
06229		17.538509	-5.657430	-53.576558
06230		17.556086	-5.663110	-53.570831
06231		17.581600	-5.667665	-53.572470
06232		17.601985	-5.667373	-53.578985
06233		17.625966	-5.671543	-53.592653
06234		17.658230	-5.675240	-53.610902
06235		17.693367	-5.676984	-53.632521
06236		17.722140	-5.682782	-53.652020
06237		17.747585	-5.696967	-53.673364
06238		17.759983	-5.710382	-53.694814
06239		17.771086	-5.712435	-53.719324
06240		17.758972	-5.709758	-53.754416
06241		17.751093	-5.711967	-53.792835
06242		17.761658	-5.706430	-53.833662
06243		17.787934	-5.706094	-53.874344
06244		17.812310	-5.709068	-53.912934
06245		17.829996	-5.715733	-53.954774
06246		17.845277	-5.719125	-54.003997
06247		17.860513	-5.727102	-54.059447
06248		17.876841	-5.738915	-54.115692
06249		17.883193	-5.751134	-54.176093
06250		17.883909	-5.760095	-54.241044
06251		17.891280	-5.765488	-54.308421
06252		17.904992	-5.768277	-54.377288
06253		17.926252	-5.762883	-54.446445
06254		17.956723	-5.757656	-54.519996
06255		17.990390	-5.755808	-54.603046
06256		18.031941	-5.763910	-54.692478
06257		18.092414	-5.768210	-54.789057
06258		18.148732	-5.768783	-54.884113
06259		18.211115	-5.772946	-54.981881
06260		18.277198	-5.773984	-55.086363
06261		18.343108	-5.777720	-55.200179
06262		18.391887	-5.789544	-55.321600
06263		18.426020	-5.803169	-55.448966
06264		18.448087	-5.813646	-55.583222
06265		18.486812	-5.814809	-55.729552
06266		18.537282	-5.814765	-55.881391
06267		18.602262	-5.823131	-56.037685
06268		18.676904	-5.833520	-56.191346
06269		18.752305	-5.842074	-56.340564
06270		18.810889	-5.854402	-56.496283
06271		18.859283	-5.866239	-56.658436
06272		18.887699	-5.881818	-56.830864
06273		18.891496	-5.900745	-57.024437
06274		18.889691	-5.914367	-57.236407
06275		18.912133	-5.925877	-57.456680
06276		18.946822	-5.939134	-57.680135
06277		18.998457	-5.954039	-57.903046
06278		19.054639	-5.976433	-58.130434
06279		19.103752	-6.008027	-58.366359
06280		19.156536	-6.036426	-58.610378
06281		19.227926	-6.056699	-58.862573
06282		19.300089	-6.067567	-59.115187
06283		19.374262	-6.074997	-59.370290
06284		19.445203	-6.085961	-59.629579
06285		19.517890	-6.101002	-59.890939
06286		19.580883	-6.118194	-60.156573
06287		19.638192	-6.142899	-60.427823
06288		19.680775	-6.172563	-60.704970
06289		19.726680	-6.199563	-60.991744
06290		19.785257	-6.231338	-61.287669
06291		19.846324	-6.273159	-61.594013
06292		19.907257	-6.319056	-61.908346
06293		19.979311	-6.371232	-62.228687
06294		20.048480	-6.428414	-62.556945
06295		20.098663	-6.489719	-62.896210
06296		20.152800	-6.551167	-63.248570
06297		20.221974	-6.615341	-63.612909
06298		20.299365	-6.677568	-63.984942
06299		20.385719	-6.740653	-64.359504
06300		20.480513	-6.805025	-64.746347
06301		20.588825	-6.875543	-65.146744
06302		20.704450	-6.943853	-65.558544
06303		20.828020	-7.011450	-65.982277
06304		20.956345	-7.078537	-66.419355
06305		21.081127	-7.149119	-66.860975
06306		21.181417	-7.229775	-67.317108
06307		21.275151	-7.308789	-67.784425
06308		21.366116	-7.383850	-68.257320
06309		21.457215	-7.456764	-68.735382
06310		21.556247	-7.529977	-69.221520
06311		21.656824	-7.606749	-69.718534
06312		21.751274	-7.689462	-70.220250
06313		21.840368	-7.767600	-70.726418
06314		21.925782	-7.839176	-71.234429
06315		21.994348	-7.901710	-71.751398
06316		22.051941	-7.972064	-72.277462
06317		22.089833	-8.066205	-72.815474
06318		22.106840	-8.186661	-73.368334
06319		22.091632	-8.338247	-73.929734
06320		22.053132	-8.488552	-74.485079
06321		21.999210	-8.622301	-75.046325
06322		21.936322	-8.730822	-75.626772
06323		21.872143	-8.812605	-76.215734
06324		21.821522	-8.879624	-76.805673
06325		21.815022	-8.935050	-77.392105
06326		21.832953	-8.991369	-77.966779
06327		21.856034	-9.043249	-78.532210
06328		21.897605	-9.081333	-79.109356
06329		21.961517	-9.124236	-79.691733
06330		22.015406	-9.169012	-80.273645
06331		22.069999	-9.199006	-80.858721
06332		22.116830	-9.218424	-81.437081
06333		22.173598	-9.253242	-82.020814
06334		22.237426	-9.291621	-82.600478
06335		22.303879	-9.333750	-83.177818
06336		22.361643	-9.359965	-83.751362
06337		22.418206	-9.384367	-84.324049
06338		22.466262	-9.416686	-84.896147
06339		22.486491	-9.456901	-85.462154
06340		22.503335	-9.492728	-86.023328
06341		22.519227	-9.510515	-86.574074
06342		22.538155	-9.525728	-87.112846
06343		22.557865	-9.550573	-87.650797
06344		22.575137	-9.579221	-88.190498
06345		22.602394	-9.600244	-88.722522
06346		22.636742	-9.605063	-89.252411
06347		22.675538	-9.604424	-89.782858
06348		22.737514	-9.607338	-90.314774
06349		22.836988	-9.603859	-90.844624
06350		22.940929	-9.564569	-91.358005
06351		23.035227	-9.519609	-91.871002
06352		23.120473	-9.484158	-92.389424
06353		23.202528	-9.455560	-92.902524
06354		23.283619	-9.430483	-93.410470
06355		23.365886	-9.419571	-93.911695
06356		23.451804	-9.407848	-94.406722
06357		23.531500	-9.394110	-94.896767
06358		23.612576	-9.393215	-95.391424
06359		23.692499	-9.381380	-95.879674
06360		23.755361	-9.345402	-96.355016
06361		23.806004	-9.307910	-96.833434
06362		23.845577	-9.285685	-97.310316
06363		23.882559	-9.269103	-97.781251
06364		23.915396	-9.239987	-98.246510
06365		23.961364	-9.200016	-98.707430
06366		24.005038	-9.151690	-99.167759
06367		24.048226	-9.111912	-99.628658
06368		24.094629	-9.085024	-100.090164
06369		24.150148	-9.056261	-100.551595
06370		24.204039	-9.032126	-101.005694
06371		24.274668	-9.005844	-101.453634
06372		24.353121	-8.974235	-101.892331
06373		24.437340	-8.954110	-102.327113
06374		24.519142	-8.948794	-102.765253
06375		24.590474	-8.937303	-103.196290
06376		24.654930	-8.912224	-103.623018
06377		24.727842	-8.888166	-104.048613
06378		24.809780	-8.867430	-104.472746
06379		24.892383	-8.840777	-104.883572
06380		24.974541	-8.811962	-105.294946
06381		25.056359	-8.792462	-105.713371
06382		25.138266	-8.775488	-106.127537
06383		25.211155	-8.745344	-106.531192
06384		25.270244	-8.713365	-106.930723
06385		25.319445	-8.682399	-107.328557
06386		25.363312	-8.642972	-107.715946
06387		25.389487	-8.601454	-108.105079
06388		25.404387	-8.571522	-108.491107
06389		25.415517	-8.537132	-108.868273
06390		25.418002	-8.496864	-109.246439
06391		25.424316	-8.456612	-109.620732
06392		25.432681	-8.410644	-109.985361
06393		25.441177	-8.389906	-110.343630
06394		25.445788	-8.369781	-110.694527
06395		25.456200	-8.347853	-111.041731
06396		25.460636	-8.315179	-111.381925
06397		25.448706	-8.270221	-111.708565
06398		25.427210	-8.225389	-112.034900
06399		25.412482	-8.186429	-112.352613
06400		25.411389	-8.144579	-112.666876
06401		25.418214	-8.090997	-112.975416
06402		25.441076	-8.039238	-113.267700
06403		25.496625	-7.985851	-113.546442
06404		25.582048	-7.965321	-113.827769
06405		25.670759	-7.984196	-114.117260
06406		25.753663	-8.011818	-114.398667
06407		25.811813	-8.030006	-114.670305
06408		25.871996	-8.034086	-114.938547
06409		25.929573	-8.041225	-115.212087
06410		25.979611	-8.058684	-115.483889
06411		26.013463	-8.071451	-115.743695
06412		26.040345	-8.078630	-115.990022
06413		26.061663	-8.088544	-116.231139
06414		26.080709	-8.102866	-116.468548
06415		26.102651	-8.120429	-116.699110
06416		26.119895	-8.158850	-116.926093
06417		26.134255	-8.195795	-117.147878
06418		26.152613	-8.233610	-117.365372
06419		26.149635	-8.270297	-117.583004
06420		26.138184	-8.301430	-117.794786
06421		26.128689	-8.321914	-117.993028
06422		26.115218	-8.344341	-118.190088
06423		26.094771	-8.368165	-118.387601
06424		26.064425	-8.393652	-118.580571
06425		26.028729	-8.423911	-118.774159
06426		26.004168	-8.468332	-118.964015
06427		25.984454	-8.492069	-119.143150
06428		25.980528	-8.504702	-119.317761
06429		25.982425	-8.505100	-119.483911
06430		25.990950	-8.489718	-119.640944
06431		26.009638	-8.459446	-119.789257
06432		26.040726	-8.404710	-119.924427
06433		26.117104	-8.331367	-120.038988
06434		26.218626	-8.298899	-120.158182
06435		26.334271	-8.310592	-120.281569
06436		26.432842	-8.332263	-120.416196
06437		26.517210	-8.371831	-120.544210
06438		26.581985	-8.396940	-120.655402
06439		26.637499	-8.418356	-120.765916
06440		26.686067	-8.427979	-120.877295
06441		26.725809	-8.421407	-120.984344
06442		26.764552	-8.409398	-121.089268
06443		26.810183	-8.399778	-121.181519
06444		26.854428	-8.398363	-121.261013
06445		26.896917	-8.392392	-121.330855
06446		26.937198	-8.389115	-121.397602
06447		26.978136	-8.398551	-121.462317
06448		27.022275	-8.415397	-121.522888
06449		27.060166	-8.433162	-121.582178
06450		27.086211	-8.444596	-121.636557
06451		27.096893	-8.444431	-121.684207
06452		27.091305	-8.438652	-121.720010
06453		27.083421	-8.442709	-121.748463
06454		27.075437	-8.444104	-121.770470
06455		27.065629	-8.439356	-121.784081
06456		27.056217	-8.433210	-121.792856
06457		27.052902	-8.430408	-121.800626
06458		27.058486	-8.424439	-121.803171
06459		27.073486	-8.417695	-121.800713
06460		27.087293	-8.424746	-121.801840
06461		27.103112	-8.444926	-121.800897
06462		27.123490	-8.471170	-121.797049
06463		27.157702	-8.501953	-121.790507
06464		27.201249	-8.531652	-121.779709
06465		27.256752	-8.543706	-121.764661
06466		27.328310	-8.561478	-121.753107
06467		27.406201	-8.585951	-121.743691
06468		27.486689	-8.613311	-121.733057
06469		27.565897	-8.630960	-121.720548
06470		27.641100	-8.643835	-121.708005
06471		27.709422	-8.655117	-121.698434
06472		27.773537	-8.669843	-121.685711
06473		27.827783	-8.683005	-121.665161
06474		27.870712	-8.683915	-121.637924
06475		27.910063	-8.684622	-121.602208
06476		27.939610	-8.682776	-121.558253
06477		27.958164	-8.683796	-121.509932
06478		27.993819	-8.679619	-121.459557
06479		28.048262	-8.675040	-121.408803
06480		28.107310	-8.674056	-121.357233
06481		28.157263	-8.674858	-121.304816
06482		28.213222	-8.671805	-121.247275
06483		28.276069	-8.650667	-121.178679
06484		28.342301	-8.630639	-121.097717
06485		28.412291	-8.612677	-121.008699
06486		28.488052	-8.603149	-120.913902
06487		28.567976	-8.591111	-120.811605
06488		28.647290	-8.580333	-120.703073
06489		28.720578	-8.569151	-120.592913
06490		28.796945	-8.560529	-120.472645
06491		28.864687	-8.545742	-120.341071
06492		28.921096	-8.528795	-120.200690
06493		28.969276	-8.502659	-120.049994
06494		29.017514	-8.479589	-119.891415
06495		29.065770	-8.468141	-119.727813
06496		29.104506	-8.475349	-119.565280
06497		29.147863	-8.505324	-119.396846
06498		29.198230	-8.535882	-119.221918
06499		29.254602	-8.568043	-119.043206
06500		29.303116	-8.598852	-118.863592
06501		29.353526	-8.627623	-118.676550
06502		29.391435	-8.652214	-118.480445
06503		29.409716	-8.683596	-118.270719
06504		29.409422	-8.722292	-118.049049
06505		29.394206	-8.757141	-117.809309
06506		29.352439	-8.797765	-117.555432
06507		29.292317	-8.830186	-117.284914
06508		29.219540	-8.858858	-117.001462
06509		29.158065	-8.876931	-116.710000
06510		29.121165	-8.899899	-116.415030
06511		29.107757	-8.932995	-116.115936
06512		29.108652	-8.979703	-115.819424
06513		29.140055	-9.048477	-115.526789
06514		29.196438	-9.122104	-115.227518
06515		29.244946	-9.179554	-114.918417
06516		29.279364	-9.219750	-114.596619
06517		29.302640	-9.234687	-114.253243
06518		29.296480	-9.238510	-113.900694
06519		29.253455	-9.237772	-113.536463
06520		29.183782	-9.232096	-113.154894
06521		29.103908	-9.215778	-112.748335
06522		29.027702	-9.217626	-112.335853
06523		28.962718	-9.240926	-111.917560
06524		28.898997	-9.268331	-111.485775
06525		28.833049	-9.303931	-111.048681
06526		28.766150	-9.342479	-110.606896
06527		28.698392	-9.368320	-110.146761
06528		28.635471	-9.409892	-109.687852
06529		28.578306	-9.479356	-109.222930
06530		28.511348	-9.554604	-108.741916
06531		28.438939	-9.639153	-108.249913
06532		28.362955	-9.725586	-107.742926
06533		28.276434	-9.800904	-107.218407
06534		28.169167	-9.874079	-106.681095
06535		28.060436	-9.961689	-106.149401
06536		27.928054	-10.048250	-105.616115
06537		27.766727	-10.123132	-105.068898
06538		27.576336	-10.184654	-104.515328
06539		27.363055	-10.234965	-103.962435
06540		27.149981	-10.263075	-103.398108
06541		26.948669	-10.266467	-102.821759
06542		26.773235	-10.246174	-102.232067
06543		26.619786	-10.256069	-101.656601
06544		26.498364	-10.288075	-101.090359
06545		26.402079	-10.335515	-100.513164
06546		26.320482	-10.383360	-99.929206
06547		26.247808	-10.416691	-99.331083
06548		26.179636	-10.447733	-98.738857
06549		26.105915	-10.494079	-98.160665
06550		26.027193	-10.520585	-97.576495
06551		25.934966	-10.514800	-96.973210
06552		25.837317	-10.491985	-96.368862
06553		25.739898	-10.475883	-95.765820
06554		25.653295	-10.462179	-95.164157
06555		25.584796	-10.447773	-94.575096
06556		25.513419	-10.478058	-94.012129
06557		25.437006	-10.531506	-93.454261
06558		25.362817	-10.550447	-92.885597
06559		25.291031	-10.550986	-92.314302
06560		25.197819	-10.535267	-91.741891
06561		25.080050	-10.499733	-91.166772
06562		24.955464	-10.448949	-90.600770
06563		24.851367	-10.387041	-90.034436
06564		24.756176	-10.329585	-89.461546
06565		24.661165	-10.287856	-88.888928
06566		24.559800	-10.280314	-88.320840
06567		24.456537	-10.291620	-87.756822
06568		24.356080	-10.300012	-87.190600
06569		24.276866	-10.302020	-86.636160
06570		24.200297	-10.292753	-86.080755
06571		24.120323	-10.265575	-85.526247
06572		24.034811	-10.224412	-84.975399
06573		23.939274	-10.187503	-84.434486
06574		23.845271	-10.165282	-83.901695
06575		23.749078	-10.180382	-83.379987
06576		23.639020	-10.224647	-82.867990
06577		23.516664	-10.265109	-82.353256
06578		23.400325	-10.279453	-81.836907
06579		23.265527	-10.277135	-81.325443
06580		23.121243	-10.264910	-80.818184
06581		22.971478	-10.257072	-80.323723
06582		22.838913	-10.266062	-79.834703
06583		22.701811	-10.263720	-79.352478
06584		22.572485	-10.261541	-78.886150
06585		22.459211	-10.272694	-78.432022
06586		22.354540	-10.283383	-77.980213
06587		22.260095	-10.283512	-77.540190
06588		22.176650	-10.283488	-77.106735
06589		22.106502	-10.289002	-76.690181
06590		22.036178	-10.275868	-76.283801
06591		21.950021	-10.241852	-75.890991
06592		21.860740	-10.195021	-75.515398
06593		21.779323	-10.136828	-75.150850
06594		21.716308	-10.057258	-74.791884
06595		21.671904	-9.986275	-74.431180
06596		21.643859	-9.934269	-74.076466
06597		21.609362	-9.890738	-73.726851
06598		21.580925	-9.841552	-73.377836
06599		21.553865	-9.785112	-73.030328
06600		21.515591	-9.730407	-72.684326
06601		21.464649	-9.679465	-72.346931
06602		21.418928	-9.623962	-72.008839
06603		21.359212	-9.550622	-71.675230
06604		21.301040	-9.468381	-71.348745
06605		21.258675	-9.373578	-71.023897
06606		21.212264	-9.282289	-70.705414
06607		21.128636	-9.242140	-70.409079
06608		21.026382	-9.250205	-70.130057
06609		20.912918	-9.250363	-69.851157
06610		20.772604	-9.240932	-69.565846
06611		20.621341	-9.225172	-69.279290
06612		20.467283	-9.205027	-69.004725
06613		20.328757	-9.158574	-68.733060
06614		20.218043	-9.099657	-68.465122
06615		20.140246	-9.055641	-68.198659
06616		20.070668	-9.014434	-67.927573
06617		19.990803	-8.973323	-67.652534
06618		19.914058	-8.936265	-67.382626
06619		19.858088	-8.896163	-67.126262
06620		19.819715	-8.847092	-66.877292
06621		19.804517	-8.794727	-66.632908
06622		19.799291	-8.734854	-66.387337
06623		19.790781	-8.675659	-66.143887
06624		19.779282	-8.633018	-65.904455
06625		19.762990	-8.587284	-65.661647
06626		19.753319	-8.530407	-65.417646
06627		19.761375	-8.466195	-65.180664
06628		19.783322	-8.398201	-64.953916
06629		19.819499	-8.325974	-64.730635
06630		19.879589	-8.246312	-64.511818
06631		19.951623	-8.156009	-64.292469
06632		20.012981	-8.070687	-64.072205
06633		20.059510	-7.994958	-63.853414
06634		20.087473	-7.919965	-63.648654
06635		20.098521	-7.840539	-63.443465
06636		20.081031	-7.761323	-63.247559
06637		20.050632	-7.675890	-63.056617
06638		20.036215	-7.576820	-62.861499
06639		20.046107	-7.483164	-62.666967
06640		20.055352	-7.414437	-62.472806
06641		20.037454	-7.353602	-62.273916
06642		19.996158	-7.289561	-62.073506
06643		19.948836	-7.215956	-61.873643
06644		19.899674	-7.134746	-61.679975
06645		19.867321	-7.056587	-61.481648
06646		19.833257	-6.980657	-61.279661
06647		19.812404	-6.907070	-61.076487
06648		19.772350	-6.853118	-60.873515
06649		19.698619	-6.819349	-60.669428
06650		19.594074	-6.792173	-60.470537
06651		19.485326	-6.755448	-60.282694
06652		19.396223	-6.707976	-60.097518
06653		19.323834	-6.659605	-59.903822
06654		19.273376	-6.618822	-59.715210
06655		19.245214	-6.583842	-59.533092
06656		19.207958	-6.560648	-59.358167
06657		19.164767	-6.529602	-59.182374
06658		19.108222	-6.506724	-59.011097
06659		19.048457	-6.486201	-58.850455
06660		18.997751	-6.459416	-58.692360
06661		18.959570	-6.432508	-58.539300
06662		18.936444	-6.406061	-58.386686
06663		18.931369	-6.384697	-58.235231
06664		18.937254	-6.361694	-58.085998
06665		18.937180	-6.340619	-57.947822
06666		18.934080	-6.314460	-57.811594
06667		18.933241	-6.283007	-57.687630
06668		18.928578	-6.253602	-57.571340
06669		18.917628	-6.228486	-57.458764
06670		18.893642	-6.208733	-57.351318
06671		18.844756	-6.192902	-57.251128
06672		18.794742	-6.174339	-57.156655
06673		18.735341	-6.150575	-57.073113
06674		18.665052	-6.126179	-56.993625
06675		18.618659	-6.103091	-56.918684
06676		18.572767	-6.073330	-56.844750
06677		18.510713	-6.048161	-56.776987
06678		18.443261	-6.026965	-56.723061
06679		18.391722	-5.999959	-56.675800
06680		18.363169	-5.961682	-56.632777
06681		18.333530	-5.927947	-56.593335
06682		18.311706	-5.890524	-56.554729
06683		18.287167	-5.849617	-56.517827
06684		18.252325	-5.812916	-56.484485
06685		18.220690	-5.782985	-56.460273
06686		18.186856	-5.754208	-56.441938
06687		18.159303	-5.720345	-56.418933
06688		18.130990	-5.684916	-56.396748
06689		18.090536	-5.662022	-56.384467
06690		18.051916	-5.642956	-56.377688
06691		18.004155	-5.627794	-56.375165
06692		17.963419	-5.611863	-56.378006
06693		17.940895	-5.588612	-56.384859
06694		17.913842	-5.567329	-56.394641
06695		17.892853	-5.546078	-56.408997
06696		17.891431	-5.516219	-56.428819
06697		17.893931	-5.484398	-56.446177
06698		17.889889	-5.453864	-56.463843
06699		17.870868	-5.436996	-56.490416
06700		17.827514	-5.435752	-56.525887
06701		17.791682	-5.430511	-56.566432
06702		17.779373	-5.411296	-56.606572
06703		17.787404	-5.394505	-56.651680
06704		17.792982	-5.380275	-56.699688
06705		17.802215	-5.368726	-56.750446
06706		17.806187	-5.359145	-56.807167
06707		17.810714	-5.351777	-56.873885
06708		17.814158	-5.341479	-56.937002
06709		17.823793	-5.326961	-57.003597
06710		17.840933	-5.312123	-57.079089
06711		17.845289	-5.309215	-57.163545
06712		17.849558	-5.300557	-57.247205
06713		17.858499	-5.279109	-57.328361
06714		17.874263	-5.262052	-57.416309
06715		17.871564	-5.264338	-57.517883
06716		17.865615	-5.273529	-57.623946
06717		17.875129	-5.268690	-57.726335
06718		17.904528	-5.260469	-57.827674
06719		17.923287	-5.276909	-57.934606
06720		17.937197	-5.300890	-58.045210
06721		17.956948	-5.311112	-58.149423
06722		17.990086	-5.311225	-58.254167
06723		18.027629	-5.318717	-58.366322
06724		18.047654	-5.335947	-58.484129
06725		18.071213	-5.349541	-58.602862
06726		18.105144	-5.359493	-58.722914
06727		18.131662	-5.385631	-58.847811
06728		18.156388	-5.416405	-58.973696
06729		18.200911	-5.436497	-59.095814
06730		18.255986	-5.458212	-59.218139
06731		18.308899	-5.492186	-59.338134
06732		18.362991	-5.523511	-59.455333
06733		18.407412	-5.556556	-59.573966
06734		18.433060	-5.594279	-59.702817
06735		18.457272	-5.637401	-59.840341
06736		18.490484	-5.682677	-59.987354
06737		18.529673	-5.728647	-60.141264
06738		18.586576	-5.773664	-60.297885
06739		18.657920	-5.813208	-60.457748
06740		18.738146	-5.857417	-60.623770
06741		18.814233	-5.905804	-60.797545
06742		18.886932	-5.962606	-60.981314
06743		18.946899	-6.028611	-61.177268
06744		18.994460	-6.095442	-61.382768
06745		19.050131	-6.151721	-61.594052
06746		19.113542	-6.196922	-61.816389
06747		19.191769	-6.244052	-62.051720
06748		19.291933	-6.289745	-62.298450
06749		19.399433	-6.335120	-62.552433
06750		19.511790	-6.382805	-62.813433
06751		19.621831	-6.434122	-63.081230
06752		19.718221	-6.492922	-63.357421
06753		19.809557	-6.553426	-63.642800
06754		19.887878	-6.618644	-63.938686
06755		19.958595	-6.680338	-64.235448
06756		20.027382	-6.730326	-64.538110
06757		20.089457	-6.775206	-64.848065
06758		20.146185	-6.813197	-65.165451
06759		20.205831	-6.844654	-65.493894
06760		20.266460	-6.874142	-65.833979
06761		20.335527	-6.899340	-66.182151
06762		20.409091	-6.919692	-66.536044
06763		20.483366	-6.951936	-66.901493
06764		20.540332	-7.003814	-67.282235
06765		20.584673	-7.053749	-67.671742
06766		20.640976	-7.098205	-68.068757
06767		20.712650	-7.134979	-68.468988
06768		20.776211	-7.168454	-68.869196
06769		20.839243	-7.198085	-69.278446
06770		20.896918	-7.225539	-69.701174
06771		20.935511	-7.256323	-70.138122
06772		20.969846	-7.282073	-70.580300
06773		21.007453	-7.298931	-71.026482
06774		21.044953	-7.322207	-71.476378
06775		21.079202	-7.359418	-71.933877
06776		21.113166	-7.413105	-72.394868
06777		21.135636	-7.465786	-72.857082
06778		21.125841	-7.516164	-73.322148
06779		21.080102	-7.580557	-73.800445
06780		21.045063	-7.660598	-74.297411
06781		21.017935	-7.727106	-74.795520
06782		20.997334	-7.787160	-75.298389
06783		20.996000	-7.841338	-75.807557
06784		21.005201	-7.901251	-76.314620
06785		21.020474	-7.971147	-76.821896
06786		21.044488	-8.029613	-77.333289
06787		21.073403	-8.075894	-77.847972
06788		21.109435	-8.121065	-78.369147
06789		21.141598	-8.163836	-78.897815
06790		21.167159	-8.210069	-79.419413
06791		21.200280	-8.262692	-79.949228
06792		21.265748	-8.318740	-80.474781
06793		21.334611	-8.373108	-80.989732
06794		21.398360	-8.428179	-81.501395
06795		21.475701	-8.471020	-82.016579
06796		21.553828	-8.504648	-82.533192
06797		21.616213	-8.540191	-83.056614
06798		21.661181	-8.584294	-83.589149
06799		21.701395	-8.635574	-84.125379
06800		21.735559	-8.676259	-84.638461
06801		21.777576	-8.709054	-85.141711
06802		21.830149	-8.747584	-85.638406
06803		21.884003	-8.791045	-86.130938
06804		21.930054	-8.840787	-86.620816
06805		21.976925	-8.897577	-87.116551
06806		22.020133	-8.937471	-87.603356
06807		22.043684	-8.977618	-88.095353
06808		22.060432	-9.033711	-88.593137
06809		22.069663	-9.071574	-89.077819
06810		22.056503	-9.100248	-89.552614
06811		22.044931	-9.129193	-90.020951
06812		22.043378	-9.152666	-90.482655
06813		22.055102	-9.174554	-90.942193
06814		22.070346	-9.189452	-91.398041
06815		22.091828	-9.211584	-91.854329
06816		22.123784	-9.249257	-92.317226
06817		22.156398	-9.288485	-92.777533
06818		22.182048	-9.319576	-93.238271
06819		22.220247	-9.345602	-93.694256
06820		22.270196	-9.378042	-94.142633
06821		22.316216	-9.410413	-94.577002
06822		22.356272	-9.427100	-95.002969
06823		22.398953	-9.433354	-95.426198
06824		22.431053	-9.436872	-95.847739
06825		22.454810	-9.428107	-96.261714
06826		22.476200	-9.431626	-96.671900
06827		22.490356	-9.424581	-97.075349
06828		22.498283	-9.411251	-97.469911
06829		22.528656	-9.399108	-97.864592
06830		22.591010	-9.378475	-98.253199
06831		22.667633	-9.358985	-98.629507
06832		22.744624	-9.345796	-99.000304
06833		22.817306	-9.336379	-99.363687
06834		22.881417	-9.310772	-99.713096
06835		22.938925	-9.276829	-100.058891
06836		22.993049	-9.242621	-100.400118
06837		23.035831	-9.200597	-100.729542
06838		23.069105	-9.151632	-101.050384
06839		23.100775	-9.096563	-101.363157
06840		23.162742	-9.044479	-101.662418
06841		23.241639	-9.010957	-101.956124
06842		23.324358	-8.997053	-102.242362
06843		23.389308	-8.984633	-102.514334
06844		23.438520	-8.958205	-102.771100
06845		23.473429	-8.923649	-103.019770
06846		23.509996	-8.894622	-103.268846
06847		23.555029	-8.871159	-103.520553
06848		23.602368	-8.859534	-103.774981
06849		23.643531	-8.850347	-104.015224
06850		23.667002	-8.828766	-104.247550
06851		23.683729	-8.802749	-104.471272
06852		23.703957	-8.762777	-104.682606
06853		23.715534	-8.704413	-104.879303
06854		23.713649	-8.641526	-105.064330
06855		23.720811	-8.588195	-105.241131
06856		23.745111	-8.565474	-105.415585
06857		23.786926	-8.549837	-105.582274
06858		23.836969	-8.527926	-105.739320
06859		23.894636	-8.503506	-105.896666
06860		23.949847	-8.479355	-106.057229
06861		23.991149	-8.458994	-106.223055
06862		24.017935	-8.434748	-106.388867
06863		24.042623	-8.402821	-106.552433
06864		24.069910	-8.357922	-106.706549
06865		24.095790	-8.314641	-106.862558
06866		24.115926	-8.276969	-107.016314
06867		24.129029	-8.240745	-107.159547
06868		24.139357	-8.212679	-107.300201
06869		24.161376	-8.186945	-107.439453
06870		24.193230	-8.165071	-107.582606
06871		24.224177	-8.150137	-107.725365
06872		24.250093	-8.138388	-107.867778
06873		24.286522	-8.126847	-108.008555
06874		24.329264	-8.104570	-108.140510
06875		24.380007	-8.088275	-108.269038
06876		24.416100	-8.077203	-108.400194
06877		24.443248	-8.059420	-108.530537
06878		24.457442	-8.038167	-108.656564
06879		24.468753	-8.016058	-108.782109
06880		24.481919	-7.991173	-108.907675
06881		24.500652	-7.962711	-109.029768
06882		24.535078	-7.934103	-109.142172
06883		24.587394	-7.905287	-109.242682
06884		24.645130	-7.884830	-109.341618
06885		24.705565	-7.891095	-109.449571
06886		24.767260	-7.915865	-109.555790
06887		24.813140	-7.931060	-109.659475
06888		24.829639	-7.930735	-109.768495
06889		24.816362	-7.916948	-109.886749
06890		24.781756	-7.898125	-110.005214
06891		24.752783	-7.852565	-110.112405
06892		24.773110	-7.790348	-110.195244
06893		24.812954	-7.755285	-110.278189
06894		24.855804	-7.746083	-110.368146
06895		24.902002	-7.742392	-110.453133
06896		24.942979	-7.741064	-110.531401
06897		24.969664	-7.734787	-110.611929
06898		24.978126	-7.727783	-110.687274
06899		24.968178	-7.715488	-110.759508
06900		24.967070	-7.703379	-110.824704
06901		24.971398	-7.691836	-110.884325
06902		24.966901	-7.677953	-110.940032
06903		24.951138	-7.655617	-110.989708
06904		24.927634	-7.624139	-111.034717
06905		24.902999	-7.587395	-111.077575
06906		24.872152	-7.555663	-111.113998
06907		24.846839	-7.528215	-111.144366
06908		24.844698	-7.499175	-111.169461
06909		24.856528	-7.472141	-111.189725
06910		24.863289	-7.466283	-111.213485
06911		24.860378	-7.458922	-111.234157
06912		24.846408	-7.443135	-111.249542
06913		24.826433	-7.415405	-111.262032
06914		24.804111	-7.386896	-111.272949
06915		24.778254	-7.365046	-111.280453
06916		24.747799	-7.337414	-111.282365
06917		24.728709	-7.310972	-111.276282
06918		24.712571	-7.289681	-111.267878
06919		24.703899	-7.273531	-111.260414
06920		24.692653	-7.261287	-111.246244
06921		24.677776	-7.240912	-111.229616
06922		24.663669	-7.225634	-111.208077
06923		24.650838	-7.207128	-111.181977
06924		24.637032	-7.189255	-111.146137
06925		24.626191	-7.161108	-111.104421
06926		24.633667	-7.124089	-111.052721
06927		24.655900	-7.092255	-110.995884
06928		24.682935	-7.070840	-110.935097
06929		24.718417	-7.054808	-110.867988
06930		24.753994	-7.048246	-110.796956
06931		24.792194	-7.050011	-110.726539
06932		24.827687	-7.055757	-110.649503
06933		24.852851	-7.059779	-110.568188
06934		24.866353	-7.057615	-110.476427
06935		24.875038	-7.051197	-110.380426
06936		24.876422	-7.052162	-110.280003
06937		24.865256	-7.054440	-110.169690
06938		24.853702	-7.066433	-110.050642
06939		24.840988	-7.077980	-109.926820
06940		24.840173	-7.085687	-109.794266
06941		24.854187	-7.088229	-109.650289
06942		24.879991	-7.098082	-109.501893
06943		24.918815	-7.116712	-109.348239
06944		24.950550	-7.138356	-109.188376
06945		24.957509	-7.165701	-109.031432
06946		24.954234	-7.195254	-108.870732
06947		24.953471	-7.224718	-108.694870
06948		24.957954	-7.253216	-108.511059
06949		24.963788	-7.279872	-108.322744
06950		24.968368	-7.301189	-108.128238
06951		24.981572	-7.303099	-107.918422
06952		24.996202	-7.282540	-107.689909
06953		25.008400	-7.256294	-107.447382
06954		25.003061	-7.260330	-107.212062
06955		24.987887	-7.285336	-106.974888
06956		24.982339	-7.310411	-106.724999
06957		24.990760	-7.345428	-106.464235
06958		25.003376	-7.380832	-106.197831
06959		25.027816	-7.396645	-105.923201
06960		25.064430	-7.389649	-105.636481
06961		25.116656	-7.366175	-105.336717
06962		25.173054	-7.346720	-105.029208
06963		25.243768	-7.336771	-104.714969
06964		25.327616	-7.359224	-104.403292
06965		25.404618	-7.415198	-104.099652
06966		25.467798	-7.464573	-103.788016
06967		25.517806	-7.506145	-103.461801
06968		25.550081	-7.531659	-103.125202
06969		25.562119	-7.532887	-102.773124
06970		25.566574	-7.520564	-102.406207
06971		25.578542	-7.483598	-102.027155
06972		25.585775	-7.440241	-101.644095
06973		25.608208	-7.414990	-101.261208
06974		25.633287	-7.411785	-100.875178
06975		25.644127	-7.437245	-100.490898
06976		25.648050	-7.450866	-100.089750
06977		25.655637	-7.437971	-99.669782
06978		25.672183	-7.392921	-99.235913
06979		25.695809	-7.327776	-98.792899
06980		25.721546	-7.251883	-98.345909
06981		25.754972	-7.187185	-97.898600
06982		25.794674	-7.158103	-97.459224
06983		25.838511	-7.149394	-97.018444
06984		25.889983	-7.141875	-96.563324
06985		25.934810	-7.110857	-96.094320
06986		25.972477	-7.058688	-95.624148
06987		26.001755	-7.016142	-95.162054
06988		26.030352	-6.992593	-94.714539
06989		26.043418	-6.966488	-94.261465
06990		26.032923	-6.928697	-93.798159
06991		26.012241	-6.876025	-93.329615
06992		25.992369	-6.802001	-92.850725
06993		25.985629	-6.714780	-92.368846
06994		25.989551	-6.633467	-91.881580
06995		26.001003	-6.582389	-91.399210
06996		26.006676	-6.573832	-90.930010
06997		26.005981	-6.566399	-90.452449
06998		26.006229	-6.540531	-89.969247
06999		26.021006	-6.508840	-89.488915
07000		26.035943	-6.462010	-89.008387
07001		26.047775	-6.390337	-88.517881
07002		26.059574	-6.310022	-88.025184
07003		26.081899	-6.237285	-87.534607
07004		26.120820	-6.177086	-87.042985
07005		26.182421	-6.139910	-86.551955
07006		26.245223	-6.103080	-86.058246
07007		26.292012	-6.079130	-85.566977
07008		26.306116	-6.088109	-85.088945
07009		26.309173	-6.097080	-84.603622
07010		26.305287	-6.084631	-84.108455
07011		26.279387	-6.046971	-83.610254
07012		26.241664	-5.997749	-83.120702
07013		26.220798	-5.942720	-82.631971
07014		26.185960	-5.939951	-82.153770
07015		26.109047	-5.992875	-81.682908
07016		26.007882	-6.043900	-81.187748
07017		25.879055	-6.100440	-80.692799
07018		25.748294	-6.146478	-80.196314
07019		25.619669	-6.165001	-79.707867
07020		25.496526	-6.150724	-79.223615
07021		25.362735	-6.115444	-78.751829
07022		25.227270	-6.086414	-78.307866
07023		25.138186	-6.068564	-77.868864
07024		25.067858	-6.048855	-77.424478
07025		25.006853	-6.040779	-76.977489
07026		24.953700	-6.019747	-76.515130
07027		24.909145	-6.006746	-76.057470
07028		24.863376	-6.000334	-75.608592
07029		24.821542	-6.006651	-75.177306
07030		24.764402	-6.024256	-74.760408
07031		24.694895	-6.067142	-74.353057
07032		24.606253	-6.124062	-73.945038
07033		24.511478	-6.170108	-73.525463
07034		24.419937	-6.214529	-73.101464
07035		24.311437	-6.270670	-72.679514
07036		24.218049	-6.314377	-72.265332
07037		24.119215	-6.332103	-71.861538
07038		24.024525	-6.331678	-71.472401
07039		23.955881	-6.335252	-71.097148
07040		23.914462	-6.343861	-70.726521
07041		23.873079	-6.361339	-70.357925
07042		23.853916	-6.390034	-70.002028
07043		23.844605	-6.422636	-69.651899
07044		23.818178	-6.451686	-69.306844
07045		23.793087	-6.465316	-68.955511
07046		23.742577	-6.471066	-68.607107
07047		23.657688	-6.491609	-68.283106
07048		23.570557	-6.502874	-67.961433
07049		23.483363	-6.492480	-67.631907
07050		23.392181	-6.488699	-67.306708
07051		23.282272	-6.486746	-66.990085
07052		23.185228	-6.491765	-66.681382
07053		23.083852	-6.500142	-66.377948
07054		22.964659	-6.515767	-66.073421
07055		22.812202	-6.535809	-65.764532
07056		22.623590	-6.565627	-65.462515
07057		22.410856	-6.596954	-65.169123
07058		22.215055	-6.608356	-64.864676
07059		22.043870	-6.611617	-64.543407
07060		21.882614	-6.605151	-64.208675
07061		21.753079	-6.585406	-63.871308
07062		21.640783	-6.557361	-63.542801
07063		21.546566	-6.524527	-63.221017
07064		21.455583	-6.500873	-62.916725
07065		21.399166	-6.480471	-62.624584
07066		21.374632	-6.441120	-62.338404
07067		21.358549	-6.392147	-62.054889
07068		21.349637	-6.353185	-61.777584
07069		21.344893	-6.327420	-61.506122
07070		21.335339	-6.303065	-61.231514
07071		21.290506	-6.285858	-60.960586
07072		21.229932	-6.268572	-60.695601
07073		21.156503	-6.250702	-60.437254
07074		21.064168	-6.247918	-60.194205
07075		20.988828	-6.246203	-59.958860
07076		20.921892	-6.225434	-59.723897
07077		20.857288	-6.195707	-59.484970
07078		20.781994	-6.164937	-59.246206
07079		20.707284	-6.134761	-59.016066
07080		20.628941	-6.110060	-58.794998
07081		20.560571	-6.078073	-58.576801
07082		20.508952	-6.046144	-58.365117
07083		20.468913	-6.012070	-58.152761
07084		20.430394	-5.981451	-57.946522
07085		20.382647	-5.955877	-57.748623
07086		20.298081	-5.935822	-57.561268
07087		20.205936	-5.912899	-57.377681
07088		20.132681	-5.874313	-57.185675
07089		20.083926	-5.837840	-56.985009
07090		20.050017	-5.803901	-56.782971
07091		19.984770	-5.786360	-56.590033
07092		19.914384	-5.769699	-56.389903
07093		19.838587	-5.744427	-56.177007
07094		19.741076	-5.731950	-55.962887
07095		19.626329	-5.711217	-55.745825
07096		19.470278	-5.678178	-55.524458
07097		19.298245	-5.660702	-55.311319
07098		19.116111	-5.679833	-55.117458
07099		18.932588	-5.702785	-54.931285
07100		18.755589	-5.693090	-54.740654
07101		18.596194	-5.670037	-54.544823
07102		18.479892	-5.639921	-54.351761
07103		18.390116	-5.606300	-54.161827
07104		18.303211	-5.593200	-53.981671
07105		18.234995	-5.588128	-53.820581
07106		18.176698	-5.572248	-53.670185
07107		18.117227	-5.568337	-53.542771
07108		18.073916	-5.551231	-53.423420
07109		18.050913	-5.515745	-53.308125
07110		18.050605	-5.468746	-53.186194
07111		18.029101	-5.444217	-53.071669
07112		17.971706	-5.456926	-52.980908
07113		17.928876	-5.455618	-52.898318
07114		17.900163	-5.434943	-52.823512
07115		17.899059	-5.408647	-52.760907
07116		17.920088	-5.369867	-52.702935
07117		17.942616	-5.321828	-52.645949
07118		17.931345	-5.295528	-52.599069
07119		17.898422	-5.285316	-52.560534
07120		17.826464	-5.286419	-52.536305
07121		17.756500	-5.300759	-52.523852
07122		17.708046	-5.306441	-52.523550
07123		17.705327	-5.284152	-52.524626
07124		17.751769	-5.249052	-52.518184
07125		17.813265	-5.227353	-52.511611
07126		17.840615	-5.236886	-52.512451
07127		17.841425	-5.260912	-52.522297
07128		17.810185	-5.281426	-52.539578
07129		17.779003	-5.290797	-52.570897
07130		17.750968	-5.288861	-52.607587
07131		17.749854	-5.276431	-52.639131
07132		17.777850	-5.253238	-52.665221
07133		17.828377	-5.230856	-52.683920
07134		17.876435	-5.219440	-52.703210
07135		17.903166	-5.227009	-52.727068
07136		17.898259	-5.241275	-52.759273
07137		17.895849	-5.248959	-52.802020
07138		17.911770	-5.240306	-52.851596
07139		17.946147	-5.223269	-52.905468
07140		18.001443	-5.201804	-52.956120
07141		18.071309	-5.182552	-53.000222
07142		18.125317	-5.179334	-53.044603
07143		18.175923	-5.181431	-53.089778
07144		18.213909	-5.189602	-53.140273
07145		18.243276	-5.197558	-53.198261
07146		18.275042	-5.203740	-53.261682
07147		18.315010	-5.202910	-53.325785
07148		18.359756	-5.198191	-53.388439
07149		18.401989	-5.193159	-53.449858
07150		18.432970	-5.191682	-53.514108
07151		18.463427	-5.188897	-53.583842
07152		18.491942	-5.196120	-53.658589
07153		18.529991	-5.204275	-53.739428
07154		18.579524	-5.203981	-53.820023
07155		18.628117	-5.205548	-53.904334
07156		18.676603	-5.210104	-53.992257
07157		18.727276	-5.210226	-54.085828
07158		18.751663	-5.210761	-54.186349
07159		18.760733	-5.212321	-54.296880
07160		18.771161	-5.212274	-54.422907
07161		18.799455	-5.199943	-54.555576
07162		18.851555	-5.182605	-54.691391
07163		18.933772	-5.160220	-54.824965
07164		19.042410	-5.147832	-54.950779
07165		19.149963	-5.153588	-55.078947
07166		19.260493	-5.169641	-55.210941
07167		19.362855	-5.184965	-55.347733
07168		19.466741	-5.198241	-55.492143
07169		19.574333	-5.209136	-55.646126
07170		19.677393	-5.235715	-55.810833
07171		19.761293	-5.278785	-55.985808
07172		19.824917	-5.319520	-56.165198
07173		19.867092	-5.354653	-56.344518
07174		19.889963	-5.393344	-56.530861
07175		19.910999	-5.430766	-56.722762
07176		19.943729	-5.466168	-56.921814
07177		19.987348	-5.509559	-57.120217
07178		20.049669	-5.552173	-57.323656
07179		20.125750	-5.590081	-57.528662
07180		20.198856	-5.634517	-57.739864
07181		20.260720	-5.687182	-57.962047
07182		20.328402	-5.739593	-58.193326
07183		20.410831	-5.785365	-58.430135
07184		20.491463	-5.829100	-58.668204
07185		20.561944	-5.887379	-58.915461
07186		20.622606	-5.958440	-59.175407
07187		20.664075	-6.028083	-59.442467
07188		20.715451	-6.088959	-59.719802
07189		20.790955	-6.143675	-60.003539
07190		20.896780	-6.187984	-60.285815
07191		21.023922	-6.231859	-60.569563
07192		21.154326	-6.286802	-60.863062
07193		21.287750	-6.347215	-61.167657
07194		21.399435	-6.402258	-61.478507
07195		21.481318	-6.463257	-61.800272
07196		21.561344	-6.518429	-62.140322
07197		21.650241	-6.572863	-62.490801
07198		21.741094	-6.621998	-62.848922
07199		21.846165	-6.667867	-63.214322
07200		21.969450	-6.713928	-63.588500
07201		22.102436	-6.756310	-63.971427
07202		22.227615	-6.799002	-64.362346
07203		22.347581	-6.844741	-64.764996
07204		22.461129	-6.889578	-65.180788
07205		22.578685	-6.932583	-65.611336
07206		22.687668	-6.982897	-66.054527
07207		22.804320	-7.023374	-66.510900
07208		22.916078	-7.056822	-66.976511
07209		22.999437	-7.098882	-67.458255
07210		23.066309	-7.135902	-67.956906
07211		23.124400	-7.174177	-68.474517
07212		23.160745	-7.217388	-69.010710
07213		23.198453	-7.245981	-69.564330
07214		23.252002	-7.266287	-70.129664
07215		23.306261	-7.292609	-70.711751
07216		23.371783	-7.319552	-71.302094
07217		23.435918	-7.336763	-71.886260
07218		23.484527	-7.364989	-72.475149
07219		23.531970	-7.392173	-73.057048
07220		23.571187	-7.409399	-73.635031
07221		23.585962	-7.429463	-74.212799
07222		23.592460	-7.447819	-74.797602
07223		23.622666	-7.447890	-75.386632
07224		23.667651	-7.462322	-75.974117
07225		23.716157	-7.476066	-76.558593
07226		23.749083	-7.494943	-77.141183
07227		23.780421	-7.516837	-77.718935
07228		23.824660	-7.529032	-78.299678
07229		23.882790	-7.530945	-78.879205
07230		23.952630	-7.519606	-79.449464
07231		24.021869	-7.506693	-80.014552
07232		24.091541	-7.499486	-80.579396
07233		24.156797	-7.494280	-81.148009
07234		24.213418	-7.481793	-81.706651
07235		24.273587	-7.471319	-82.264752
07236		24.337262	-7.462723	-82.818515
07237		24.381053	-7.450111	-83.364960
07238		24.392451	-7.449704	-83.909981
07239		24.387674	-7.457473	-84.455646
07240		24.371989	-7.459139	-84.987229
07241		24.355372	-7.446521	-85.503514
07242		24.336790	-7.434355	-86.014191
07243		24.316111	-7.427382	-86.510575
07244		24.293167	-7.426625	-87.008580
07245		24.254343	-7.445626	-87.526034
07246		24.215324	-7.473514	-88.045258
07247		24.174943	-7.511162	-88.572796
07248		24.118906	-7.571236	-89.102209
07249		24.057902	-7.620738	-89.611099
07250		23.953037	-7.642600	-90.093962
07251		23.836322	-7.655065	-90.570651
07252		23.727292	-7.658193	-91.038664
07253		23.636583	-7.641301	-91.496099
07254		23.558520	-7.614707	-91.943569
07255		23.509344	-7.598738	-92.389576
07256		23.476242	-7.585924	-92.830900
07257		23.461017	-7.559243	-93.270422
07258		23.461527	-7.539146	-93.707807
07259		23.475102	-7.505683	-94.144270
07260		23.500217	-7.458628	-94.572935
07261		23.514674	-7.414474	-94.996167
07262		23.535283	-7.365648	-95.411914
07263		23.576106	-7.321507	-95.822024
07264		23.628767	-7.302861	-96.227906
07265		23.684069	-7.302412	-96.624795
07266		23.724802	-7.306082	-97.014095
07267		23.774447	-7.316779	-97.398999
07268		23.823808	-7.326011	-97.771729
07269		23.870022	-7.320683	-98.138699
07270		23.914849	-7.319235	-98.503302
07271		23.952708	-7.320323	-98.874102
07272		23.987759	-7.323231	-99.244431
07273		24.015728	-7.346571	-99.615067
07274		24.063069	-7.377283	-99.983448
07275		24.101940	-7.384313	-100.338700
07276		24.127843	-7.385069	-100.692442
07277		24.145205	-7.403279	-101.057465
07278		24.191461	-7.433957	-101.418472
07279		24.242827	-7.456469	-101.771738
07280		24.297612	-7.486321	-102.125475
07281		24.355889	-7.520948	-102.483103
07282		24.415965	-7.540049	-102.837047
07283		24.461764	-7.537758	-103.183227
07284		24.499318	-7.533990	-103.533619
07285		24.536477	-7.532487	-103.887144
07286		24.583248	-7.543905	-104.252712
07287		24.639476	-7.568115	-104.624965
07288		24.712988	-7.593255	-104.991514
07289		24.808075	-7.619728	-105.356946
07290		24.921561	-7.645256	-105.715778
07291		25.039078	-7.679079	-106.071290
07292		25.152032	-7.704925	-106.428066
07293		25.265836	-7.713810	-106.786391
07294		25.373502	-7.693464	-107.133134
07295		25.469949	-7.678123	-107.478037
07296		25.548436	-7.704502	-107.823920
07297		25.615480	-7.746070	-108.174552
07298		25.680739	-7.787284	-108.525101
07299		25.736610	-7.812578	-108.858852
07300		25.786564	-7.832316	-109.191377
07301		25.823250	-7.863052	-109.532929
07302		25.846834	-7.888605	-109.874402
07303		25.860729	-7.906393	-110.213253
07304		25.860160	-7.930392	-110.546050
07305		25.868111	-7.941516	-110.872229
07306		25.886551	-7.956086	-111.191306
07307		25.916297	-7.994781	-111.509338
07308		25.947240	-8.033424	-111.823366
07309		25.983966	-8.078949	-112.138112
07310		26.024928	-8.127619	-112.449657
07311		26.062668	-8.173965	-112.756324
07312		26.098623	-8.226239	-113.057966
07313		26.125160	-8.277923	-113.362770
07314		26.149063	-8.318520	-113.661276
07315		26.165177	-8.339245	-113.954307
07316		26.169727	-8.337455	-114.232826
07317		26.157326	-8.342319	-114.505687
07318		26.143034	-8.363522	-114.776848
07319		26.130855	-8.399162	-115.044263
07320		26.117971	-8.429683	-115.306400
07321		26.100441	-8.467894	-115.562662
07322		26.085495	-8.499190	-115.812702
07323		26.065396	-8.509992	-116.053706
07324		26.040909	-8.511539	-116.286997
07325		26.017021	-8.500187	-116.521007
07326		26.001775	-8.470166	-116.752841
07327		25.995846	-8.438585	-116.977702
07328		26.002361	-8.404732	-117.191248
07329		26.026314	-8.364481	-117.391874
07330		26.047667	-8.335169	-117.584615
07331		26.065497	-8.310575	-117.769851
07332		26.088302	-8.287768	-117.946660
07333		26.109101	-8.273842	-118.123394
07334		26.134538	-8.247359	-118.287400
07335		26.154923	-8.214064	-118.448753
07336		26.183528	-8.153605	-118.598452
07337		26.207239	-8.078117	-118.744490
07338		26.232585	-8.011209	-118.892580
07339		26.269712	-7.953350	-119.034732
07340		26.308303	-7.889861	-119.168523
07341		26.356513	-7.844010	-119.297277
07342		26.398958	-7.794222	-119.416501
07343		26.431468	-7.748910	-119.537245
07344		26.459966	-7.702619	-119.652087
07345		26.493478	-7.633494	-119.750855
07346		26.523191	-7.561965	-119.843268
07347		26.550106	-7.488588	-119.933075
07348		26.567537	-7.411623	-120.017884
07349		26.582309	-7.345291	-120.103554
07350		26.595531	-7.274242	-120.184088
07351		26.613115	-7.198650	-120.255422
07352		26.636001	-7.137010	-120.324977
07353		26.657170	-7.085615	-120.392045
07354		26.674949	-7.029240	-120.450240
07355		26.693399	-6.953517	-120.500407
07356		26.713493	-6.882018	-120.543542
07357		26.738962	-6.824493	-120.579782
07358		26.764614	-6.768058	-120.610925
07359		26.792960	-6.713911	-120.640654
07360		26.828618	-6.664364	-120.662603
07361		26.863161	-6.607541	-120.676168
07362		26.896889	-6.560477	-120.688951
07363		26.925780	-6.516858	-120.696064
07364		26.952914	-6.483512	-120.697458
07365		26.976837	-6.452985	-120.689227
07366		27.010150	-6.422186	-120.670641
07367		27.043479	-6.386067	-120.645826
07368		27.068138	-6.354784	-120.620977
07369		27.093184	-6.325449	-120.595359
07370		27.116689	-6.289373	-120.559242
07371		27.145085	-6.248576	-120.519396
07372		27.179135	-6.210315	-120.477601
07373		27.212599	-6.173097	-120.432299
07374		27.248370	-6.138790	-120.381688
07375		27.279498	-6.111254	-120.328515
07376		27.304643	-6.087532	-120.268087
07377		27.325536	-6.056777	-120.203357
07378		27.334050	-6.029026	-120.131719
07379		27.345626	-5.997040	-120.060264
07380		27.361219	-5.960633	-119.987357
07381		27.382902	-5.932672	-119.918587
07382		27.399436	-5.908064	-119.851942
07383		27.414900	-5.886060	-119.784094
07384		27.423591	-5.865284	-119.711505
07385		27.430320	-5.846366	-119.633279
07386		27.444498	-5.816247	-119.549062
07387		27.464005	-5.788180	-119.461164
07388		27.494095	-5.752128	-119.368148
07389		27.541703	-5.725095	-119.271427
07390		27.594559	-5.725259	-119.177458
07391		27.647334	-5.734955	-119.080578
07392		27.697312	-5.752165	-118.974086
07393		27.743447	-5.765157	-118.853615
07394		27.780281	-5.780709	-118.724051
07395		27.802644	-5.786937	-118.584722
07396		27.807832	-5.787164	-118.433480
07397		27.799223	-5.785023	-118.279546
07398		27.797102	-5.793243	-118.124064
07399		27.801948	-5.806452	-117.964260
07400		27.814004	-5.820257	-117.796652
07401		27.839201	-5.828445	-117.619128
07402		27.867459	-5.827016	-117.430830
07403		27.896118	-5.822395	-117.235760
07404		27.926800	-5.814575	-117.034462
07405		27.958574	-5.800105	-116.822803
07406		27.993719	-5.775561	-116.599487
07407		28.030615	-5.734597	-116.356653
07408		28.059547	-5.686008	-116.095268
07409		28.077787	-5.651932	-115.825750
07410		28.081877	-5.660857	-115.563466
07411		28.087294	-5.710945	-115.293987
07412		28.106728	-5.770479	-115.006679
07413		28.122841	-5.814314	-114.696493
07414		28.138722	-5.848112	-114.372068
07415		28.152322	-5.895116	-114.046077
07416		28.169872	-5.945125	-113.722766
07417		28.198454	-6.005584	-113.397076
07418		28.231659	-6.059506	-113.066784
07419		28.261061	-6.092867	-112.723270
07420		28.275850	-6.116958	-112.369985
07421		28.280157	-6.129347	-112.001949
07422		28.268860	-6.132452	-111.623636
07423		28.253307	-6.135765	-111.232852
07424		28.220147	-6.141979	-110.834511
07425		28.160826	-6.166109	-110.432783
07426		28.088453	-6.182272	-110.016822
07427		28.000143	-6.177435	-109.584055
07428		27.911101	-6.155690	-109.140245
07429		27.812176	-6.125940	-108.694749
07430		27.713797	-6.087187	-108.246861
07431		27.618892	-6.036122	-107.788761
07432		27.533252	-5.987331	-107.325085
07433		27.456003	-5.944274	-106.868713
07434		27.392714	-5.928488	-106.425589
07435		27.340069	-5.924442	-105.984282
07436		27.305103	-5.911661	-105.535902
07437		27.302749	-5.871961	-105.072127
07438		27.303721	-5.821147	-104.606151
07439		27.308171	-5.764225	-104.146503
07440		27.315953	-5.681788	-103.675355
07441		27.346006	-5.577642	-103.193701
07442		27.403771	-5.488914	-102.714569
07443		27.434968	-5.539351	-102.292917
07444		27.484062	-5.650760	-101.882983
07445		27.533147	-5.733410	-101.436228
07446		27.580463	-5.798074	-100.976284
07447		27.607147	-5.836506	-100.509802
07448		27.612512	-5.852259	-100.042079
07449		27.596340	-5.865706	-99.576417
07450		27.551884	-5.900522	-99.116988
07451		27.486905	-5.935064	-98.651448
07452		27.435028	-5.972567	-98.188504
07453		27.395842	-6.031355	-97.723429
07454		27.342373	-6.083715	-97.244166
07455		27.273702	-6.128154	-96.764756
07456		27.192237	-6.174532	-96.292247
07457		27.102026	-6.224276	-95.831759
07458		27.003157	-6.279738	-95.379311
07459		26.901599	-6.324282	-94.916650
07460		26.800177	-6.369581	-94.451928
07461		26.710245	-6.419414	-93.985768
07462		26.622919	-6.450780	-93.509111
07463		26.548311	-6.473939	-93.035578
07464		26.504456	-6.496321	-92.565132
07465		26.500927	-6.514813	-92.091506
07466		26.533548	-6.529221	-91.623628
07467		26.579232	-6.569401	-91.170207
07468		26.631966	-6.618060	-90.727636
07469		26.686430	-6.661967	-90.292463
07470		26.734397	-6.693096	-89.853860
07471		26.761460	-6.707898	-89.407987
07472		26.762876	-6.709022	-88.953542
07473		26.750255	-6.695609	-88.484462
07474		26.727572	-6.669972	-88.008684
07475		26.712614	-6.654197	-87.534178
07476		26.690241	-6.671752	-87.080425
07477		26.664047	-6.711163	-86.635746
07478		26.634189	-6.761352	-86.194676
07479		26.601231	-6.798583	-85.753514
07480		26.551420	-6.826094	-85.311937
07481		26.471502	-6.840584	-84.869248
07482		26.376377	-6.844066	-84.435089
07483		26.275872	-6.842936	-84.002443
07484		26.196954	-6.832017	-83.559312
07485		26.144182	-6.827366	-83.108442
07486		26.101762	-6.852024	-82.666642
07487		26.061400	-6.904639	-82.231236
07488		26.011315	-6.948413	-81.794306
07489		25.954087	-6.970847	-81.353169
07490		25.887111	-6.986951	-80.917933
07491		25.807419	-6.987738	-80.489008
07492		25.730340	-6.981392	-80.060501
07493		25.646089	-6.973474	-79.636237
07494		25.550233	-6.969230	-79.209381
07495		25.433596	-6.959330	-78.774305
07496		25.317501	-6.948764	-78.342958
07497		25.223367	-6.938551	-77.918877
07498		25.165435	-6.943308	-77.510656
07499		25.120825	-6.941037	-77.113712
07500		25.089317	-6.944777	-76.724374
07501		25.075879	-6.946415	-76.340599
07502		25.057969	-6.957284	-75.971969
07503		25.044296	-6.973540	-75.608271
07504		25.028561	-6.988630	-75.242699
07505		24.999181	-7.017510	-74.885753
07506		24.960257	-7.049160	-74.533390
07507		24.910168	-7.072967	-74.188475
07508		24.864484	-7.095879	-73.855971
07509		24.835289	-7.122890	-73.531821
07510		24.812166	-7.159740	-73.205375
07511		24.773582	-7.196877	-72.877482
07512		24.724324	-7.230588	-72.542619
07513		24.650209	-7.269115	-72.209034
07514		24.550512	-7.309454	-71.885225
07515		24.448988	-7.348954	-71.559831
07516		24.339915	-7.353787	-71.220643
07517		24.246036	-7.329871	-70.873446
07518		24.178057	-7.315853	-70.538632
07519		24.086129	-7.359047	-70.227186
07520		23.976183	-7.427829	-69.913386
07521		23.848437	-7.493791	-69.586429
07522		23.710995	-7.539148	-69.254843
07523		23.571129	-7.558876	-68.923678
07524		23.462440	-7.564569	-68.597310
07525		23.366162	-7.572492	-68.271828
07526		23.272908	-7.582833	-67.944916
07527		23.180695	-7.588785	-67.611832
07528		23.074747	-7.590304	-67.286126
07529		22.979158	-7.579050	-66.964644
07530		22.911025	-7.557689	-66.652186
07531		22.837230	-7.536507	-66.353855
07532		22.784196	-7.509220	-66.062778
07533		22.751595	-7.491867	-65.788099
07534		22.722298	-7.495332	-65.524504
07535		22.687800	-7.501808	-65.266368
07536		22.647115	-7.492152	-65.010615
07537		22.615179	-7.472737	-64.756672
07538		22.558833	-7.453620	-64.513747
07539		22.479028	-7.432590	-64.286843
07540		22.398639	-7.418703	-64.064365
07541		22.330258	-7.405877	-63.847168
07542		22.259837	-7.389631	-63.640754
07543		22.224879	-7.367152	-63.430276
07544		22.217672	-7.343399	-63.220890
07545		22.184507	-7.342044	-63.023864
07546		22.151300	-7.356965	-62.823986
07547		22.112759	-7.369484	-62.621716
07548		22.068319	-7.372591	-62.416653
07549		22.023775	-7.375028	-62.207493
07550		21.986282	-7.377501	-61.997985
07551		21.965175	-7.368433	-61.774402
07552		21.950839	-7.355744	-61.537152
07553		21.918975	-7.356911	-61.299399
07554		21.872885	-7.362493	-61.065464
07555		21.817547	-7.362078	-60.837342
07556		21.764027	-7.351497	-60.605290
07557		21.743051	-7.354873	-60.371867
07558		21.732306	-7.376202	-60.132985
07559		21.707666	-7.396279	-59.891651
07560		21.639494	-7.413808	-59.659389
07561		21.499194	-7.439655	-59.440381
07562		21.337921	-7.481742	-59.232987
07563		21.187877	-7.516647	-59.028572
07564		21.072375	-7.533275	-58.815102
07565		20.976982	-7.558448	-58.601260
07566		20.906101	-7.586074	-58.387261
07567		20.861306	-7.589039	-58.170513
07568		20.825723	-7.560041	-57.938677
07569		20.771413	-7.527525	-57.703512
07570		20.669741	-7.522371	-57.493997
07571		20.538087	-7.531443	-57.301659
07572		20.427813	-7.528564	-57.120752
07573		20.365056	-7.483341	-56.933198
07574		20.344879	-7.415116	-56.735166
07575		20.328675	-7.357796	-56.536773
07576		20.292791	-7.322571	-56.345234
07577		20.226070	-7.289895	-56.165941
07578		20.120680	-7.285767	-55.999810
07579		20.018405	-7.273236	-55.822764
07580		19.907955	-7.258332	-55.640868
07581		19.810068	-7.236438	-55.466199
07582		19.753761	-7.186604	-55.287292
07583		19.715035	-7.129550	-55.096476
07584		19.642028	-7.109845	-54.911915
07585		19.538670	-7.120607	-54.730796
07586		19.451854	-7.105052	-54.550295
07587		19.352406	-7.077960	-54.376206
07588		19.246501	-7.057717	-54.210294
07589		19.119040	-7.048813	-54.063070
07590		19.013312	-7.027504	-53.913040
07591		18.942076	-6.985997	-53.755013
07592		18.899684	-6.937439	-53.589743
07593		18.866193	-6.882504	-53.412539
07594		18.811956	-6.832340	-53.234466
07595		18.729095	-6.798774	-53.066788
07596		18.599794	-6.784879	-52.911237
07597		18.414116	-6.815995	-52.790261
07598		18.264387	-6.825827	-52.680001
07599		18.160330	-6.799611	-52.566312
07600		18.103028	-6.772154	-52.460387
07601		18.089860	-6.729956	-52.344927
07602		18.096229	-6.679964	-52.226816
07603		18.082138	-6.647076	-52.111921
07604		18.015241	-6.628692	-52.007716
07605		17.920206	-6.624978	-51.917469
07606		17.827301	-6.613035	-51.838408
07607		17.760850	-6.584419	-51.761167
07608		17.736980	-6.549473	-51.681628
07609		17.740984	-6.511303	-51.596617
07610		17.735920	-6.479690	-51.506558
07611		17.715653	-6.455429	-51.419468
07612		17.669711	-6.427739	-51.343505
07613		17.600348	-6.412418	-51.288035
07614		17.525537	-6.404369	-51.251248
07615		17.479459	-6.377554	-51.217340
07616		17.463615	-6.344926	-51.182910
07617		17.457786	-6.315952	-51.149794
07618		17.458018	-6.299958	-51.117330
07619		17.444696	-6.292272	-51.090819
07620		17.397051	-6.316521	-51.080575
07621		17.367504	-6.342567	-51.071768
07622		17.348653	-6.363589	-51.063954
07623		17.344639	-6.381229	-51.055015
07624		17.345708	-6.385893	-51.046535
07625		17.347529	-6.380061	-51.034054
07626		17.334281	-6.393684	-51.024338
07627		17.295195	-6.434032	-51.030907
07628		17.248979	-6.480888	-51.047769
07629		17.221104	-6.525026	-51.074064
07630		17.215420	-6.553652	-51.104390
07631		17.230851	-6.573580	-51.137617
07632		17.256354	-6.601333	-51.173306
07633		17.267596	-6.637143	-51.210225
07634		17.263688	-6.669369	-51.250305
07635		17.231372	-6.720487	-51.298579
07636		17.190800	-6.776007	-51.359682
07637		17.174143	-6.812538	-51.424068
07638		17.177880	-6.844276	-51.499451
07639		17.195414	-6.875548	-51.580455
07640		17.228529	-6.887672	-51.665479
07641		17.272433	-6.893051	-51.750346
07642		17.306107	-6.906782	-51.837097
07643		17.322036	-6.937657	-51.930225
07644		17.330506	-6.960845	-52.037687
07645		17.350157	-6.974498	-52.152165
07646		17.374333	-6.987887	-52.267386
07647		17.389121	-7.004917	-52.384000
07648		17.406265	-7.021366	-52.500315
07649		17.433997	-7.041204	-52.623242
07650		17.465614	-7.063338	-52.747351
07651		17.498881	-7.086672	-52.878173
07652		17.517355	-7.107480	-53.018690
07653		17.539955	-7.126082	-53.172593
07654		17.575837	-7.135378	-53.337548
07655		17.627568	-7.150625	-53.511398
07656		17.689333	-7.163779	-53.692328
07657		17.756693	-7.175704	-53.878017
07658		17.834186	-7.179015	-54.060587
07659		17.907589	-7.188972	-54.243126
07660		17.973753	-7.192502	-54.429212
07661		18.019734	-7.195850	-54.621663
07662		18.065310	-7.210555	-54.829790
07663		18.127655	-7.220343	-55.045603
07664		18.188138	-7.227678	-55.263801
07665		18.267905	-7.236078	-55.489905
07666		18.363835	-7.233984	-55.715957
07667		18.473176	-7.228109	-55.952288
07668		18.588259	-7.218840	-56.198733
07669		18.704781	-7.216144	-56.448977
07670		18.808947	-7.222271	-56.702433
07671		18.893080	-7.234311	-56.954813
07672		18.959847	-7.246878	-57.210146
07673		19.024369	-7.253006	-57.474118
07674		19.083290	-7.259242	-57.746538
07675		19.147262	-7.263358	-58.024165
07676		19.215146	-7.269388	-58.313956
07677		19.286673	-7.278232	-58.618786
07678		19.373406	-7.287255	-58.942001
07679		19.496102	-7.294678	-59.271550
07680		19.640364	-7.292477	-59.588834
07681		19.789586	-7.291377	-59.895998
07682		19.921435	-7.308010	-60.198773
07683		20.017167	-7.347885	-60.500678
07684		20.083571	-7.394342	-60.799720
07685		20.134321	-7.436008	-61.095912
07686		20.171571	-7.471046	-61.389535
07687		20.214410	-7.495848	-61.684225
07688		20.260427	-7.519253	-61.980547
07689		20.317325	-7.541218	-62.279145
07690		20.371071	-7.574634	-62.579355
07691		20.420151	-7.613133	-62.878683
07692		20.477931	-7.658097	-63.181276
07693		20.532652	-7.700943	-63.487125
07694		20.577358	-7.744449	-63.800282
07695		20.624933	-7.785301	-64.122157
07696		20.656348	-7.824798	-64.449702
07697		20.669598	-7.872324	-64.789850
07698		20.678768	-7.904998	-65.132760
07699		20.698167	-7.927043	-65.485168
07700		20.727043	-7.943727	-65.839621
07701		20.761788	-7.960527	-66.197888
07702		20.801470	-7.982259	-66.564967
07703		20.845147	-8.007567	-66.938893
07704		20.896747	-8.041214	-67.322069
07705		20.959587	-8.075912	-67.718527
07706		21.026595	-8.120643	-68.129206
07707		21.097490	-8.160210	-68.550701
07708		21.163030	-8.193334	-68.983624
07709		21.225994	-8.225536	-69.427590
07710		21.278961	-8.251763	-69.878528
07711		21.325277	-8.281143	-70.338296
07712		21.357263	-8.316204	-70.807534
07713		21.381297	-8.356387	-71.289563
07714		21.411443	-8.388046	-71.776355
07715		21.453966	-8.419562	-72.274083
07716		21.511889	-8.462741	-72.779274
07717		21.569363	-8.504998	-73.295688
07718		21.628768	-8.542128	-73.815906
07719		21.680286	-8.581010	-74.335248
07720		21.735305	-8.625909	-74.860340
07721		21.792585	-8.660053	-75.385199
07722		21.838395	-8.690400	-75.908237
07723		21.872640	-8.715355	-76.428341
07724		21.897752	-8.747090	-76.953360
07725		21.933593	-8.769366	-77.480686
07726		21.969439	-8.780340	-77.998748
07727		21.999306	-8.795406	-78.515793
07728		22.017209	-8.811124	-79.037389
07729		22.064623	-8.830728	-79.574865
07730		22.129925	-8.852524	-80.113189
07731		22.174599	-8.863520	-80.647387
07732		22.217636	-8.874038	-81.193971
07733		22.284101	-8.884093	-81.753613
07734		22.363141	-8.896613	-82.311330
07735		22.436219	-8.900075	-82.857756
07736		22.515481	-8.898118	-83.404486
07737		22.611435	-8.880525	-83.951180
07738		22.681416	-8.853288	-84.488412
07739		22.745544	-8.830305	-85.037065
07740		22.829665	-8.798989	-85.579882
07741		22.925395	-8.755179	-86.110556
07742		23.029547	-8.723898	-86.646399
07743		23.143353	-8.686569	-87.187790
07744		23.278742	-8.655194	-87.726025
07745		23.418111	-8.637647	-88.266220
07746		23.579711	-8.614266	-88.802617
07747		23.752611	-8.565521	-89.334918
07748		23.930493	-8.508232	-89.870724
07749		24.099135	-8.449958	-90.406522
07750		24.264726	-8.404408	-90.953687
07751		24.441271	-8.368184	-91.498355
07752		24.616051	-8.362605	-92.049013
07753		24.773509	-8.375643	-92.596925
07754		24.908695	-8.379636	-93.134480
07755		25.023688	-8.387684	-93.665839
07756		25.118994	-8.398632	-94.190878
07757		25.195592	-8.406155	-94.711012
