// General information: 
//  MT Manager version: 2022.2.0 
//  XDA version: 2022.2.0 build 7381 rev 124627 built on 2023-07-19
// Device information: 
//  DeviceId: 00B447FD
//  ProductCode: MTW2-3A7G6
//  Firmware Version: 4.3.5
//  Hardware Version: 2.0.0
// Device settings: 
//  Filter Profile: human(46.1)
//  Option Flags: Orientation Smoother Disabled, Position/Velocity Smoother Disabled, Continuous Zero Rotation Update Disabled, AHS Disabled, ICC Disabled
// Coordinate system: ENU
PacketCounter	SampleTimeFine	Roll	Pitch	Yaw
04661		-2.305942	4.146325	-45.272492
04662		-2.289547	4.149256	-45.227798
04663		-2.274178	4.157409	-45.199691
04664		-2.265040	4.164055	-45.176118
04665		-2.283011	4.173488	-45.144935
04666		-2.336558	4.184138	-45.099747
04667		-2.419335	4.196836	-45.036892
04668		-2.497879	4.215489	-44.964377
04669		-2.553245	4.231369	-44.888702
04670		-2.604099	4.243106	-44.820661
04671		-2.673178	4.245950	-44.762947
04672		-2.757823	4.241428	-44.719615
04673		-2.838754	4.229314	-44.681770
04674		-2.911016	4.218965	-44.651162
04675		-2.981987	4.220292	-44.636173
04676		-3.050052	4.234256	-44.634639
04677		-3.116316	4.262827	-44.642272
04678		-3.162066	4.306564	-44.647201
04679		-3.183612	4.365782	-44.646497
04680		-3.176218	4.427566	-44.636827
04681		-3.150498	4.475282	-44.620325
04682		-3.137506	4.493454	-44.600377
04683		-3.141418	4.473664	-44.579511
04684		-3.168379	4.427152	-44.568495
04685		-3.213165	4.371470	-44.567974
04686		-3.263072	4.323418	-44.570366
04687		-3.322591	4.296621	-44.575098
04688		-3.394095	4.299168	-44.580621
04689		-3.458725	4.320886	-44.583353
04690		-3.505094	4.356886	-44.586837
04691		-3.544772	4.397779	-44.587930
04692		-3.578148	4.440360	-44.601235
04693		-3.600044	4.470677	-44.632437
04694		-3.603514	4.481826	-44.681462
04695		-3.586349	4.474637	-44.744870
04696		-3.569750	4.443834	-44.808031
04697		-3.573513	4.414175	-44.861498
04698		-3.583915	4.396548	-44.894978
04699		-3.599450	4.390700	-44.912885
04700		-3.622306	4.403597	-44.920546
04701		-3.641623	4.427029	-44.922577
04702		-3.649068	4.452038	-44.922026
04703		-3.654829	4.475147	-44.931461
04704		-3.675665	4.481146	-44.951771
04705		-3.701077	4.468794	-44.983404
04706		-3.723042	4.442127	-45.018002
04707		-3.749606	4.418177	-45.052747
04708		-3.771140	4.402174	-45.089240
04709		-3.776842	4.391306	-45.124865
04710		-3.772611	4.384212	-45.160016
04711		-3.779974	4.378272	-45.198310
04712		-3.812714	4.373987	-45.238371
04713		-3.856719	4.378600	-45.289030
04714		-3.884022	4.385178	-45.344195
04715		-3.895140	4.384020	-45.418291
04716		-3.883156	4.372065	-45.507269
04717		-3.849125	4.349975	-45.602939
04718		-3.804859	4.311933	-45.700757
04719		-3.788784	4.268237	-45.798864
04720		-3.810890	4.225069	-45.895807
04721		-3.846675	4.193484	-45.985319
04722		-3.878573	4.175067	-46.066522
04723		-3.891548	4.175459	-46.145076
04724		-3.881021	4.177618	-46.224852
04725		-3.862422	4.178559	-46.312068
04726		-3.854710	4.154837	-46.410241
04727		-3.872849	4.109139	-46.520687
04728		-3.904524	4.056325	-46.632785
04729		-3.928121	4.006591	-46.745624
04730		-3.920913	3.955354	-46.850136
04731		-3.890623	3.904080	-46.950365
04732		-3.835034	3.853349	-47.045718
04733		-3.768969	3.797967	-47.137243
04734		-3.709193	3.738029	-47.233039
04735		-3.682779	3.679829	-47.332848
04736		-3.684648	3.619688	-47.439187
04737		-3.694812	3.567596	-47.559788
04738		-3.672948	3.515026	-47.688662
04739		-3.628782	3.478269	-47.822912
04740		-3.568081	3.448527	-47.963703
04741		-3.515945	3.431391	-48.116975
04742		-3.475266	3.425467	-48.278763
04743		-3.449658	3.429321	-48.450528
04744		-3.434517	3.460797	-48.631924
04745		-3.383859	3.524360	-48.820355
04746		-3.309574	3.603003	-49.011443
04747		-3.257692	3.681475	-49.219889
04748		-3.256374	3.729674	-49.452413
04749		-3.322033	3.719264	-49.712847
04750		-3.453777	3.662650	-49.991377
04751		-3.604352	3.575591	-50.277265
04752		-3.742631	3.477341	-50.565726
04753		-3.908295	3.375645	-50.871427
04754		-4.069681	3.274729	-51.194271
04755		-4.197018	3.171600	-51.534210
04756		-4.308312	3.078351	-51.892478
04757		-4.423397	2.997387	-52.275076
04758		-4.536559	2.916540	-52.669784
04759		-4.667350	2.838850	-53.078131
04760		-4.801671	2.749936	-53.494383
04761		-4.939589	2.638662	-53.919598
04762		-5.075094	2.517631	-54.348374
04763		-5.191156	2.380102	-54.779080
04764		-5.291528	2.236839	-55.211254
04765		-5.414217	2.093723	-55.658018
04766		-5.563506	1.944114	-56.121710
04767		-5.723608	1.792627	-56.600075
04768		-5.880952	1.639957	-57.089353
04769		-6.037748	1.487055	-57.593290
04770		-6.179508	1.328277	-58.109808
04771		-6.331694	1.170669	-58.637993
04772		-6.510370	1.005019	-59.172568
04773		-6.744921	0.818115	-59.711835
04774		-7.044595	0.608087	-60.257103
04775		-7.424974	0.383368	-60.819973
04776		-7.850604	0.166735	-61.401021
04777		-8.298132	-0.041004	-62.010847
04778		-8.821616	-0.237946	-62.660787
04779		-9.434875	-0.396809	-63.367283
04780		-10.094205	-0.533995	-64.114836
04781		-10.741219	-0.639763	-64.895108
04782		-11.271978	-0.737849	-65.683180
04783		-11.628217	-0.821295	-66.469135
04784		-11.802692	-0.876162	-67.247211
04785		-11.862716	-0.897891	-68.019386
04786		-11.852555	-0.904997	-68.773732
04787		-11.839819	-0.921870	-69.511897
04788		-11.865580	-0.961051	-70.240063
04789		-11.907727	-1.026779	-70.963170
04790		-11.934813	-1.108805	-71.682091
04791		-11.980969	-1.187826	-72.415945
04792		-12.014114	-1.257789	-73.168791
04793		-12.010129	-1.316893	-73.947330
04794		-11.981248	-1.348004	-74.761470
04795		-11.962842	-1.344787	-75.604529
04796		-11.959688	-1.330873	-76.458301
04797		-11.998007	-1.323578	-77.311868
04798		-12.051937	-1.353152	-78.147510
04799		-12.090196	-1.409264	-78.961385
04800		-12.074605	-1.483895	-79.746414
04801		-12.004076	-1.570969	-80.518201
04802		-11.860021	-1.672443	-81.276095
04803		-11.649789	-1.790270	-82.036792
04804		-11.348749	-1.925302	-82.795752
04805		-10.953896	-2.055065	-83.549623
04806		-10.394831	-2.182785	-84.298361
04807		-9.708460	-2.317401	-85.066967
04808		-9.040438	-2.432058	-85.891086
04809		-8.452875	-2.450277	-86.777905
04810		-8.068456	-2.340865	-87.713525
04811		-7.935195	-2.104903	-88.706467
04812		-7.865582	-1.798106	-89.715268
04813		-7.674728	-1.488229	-90.712017
04814		-7.304561	-1.263074	-91.683798
04815		-6.871552	-1.165375	-92.654830
04816		-6.494478	-1.167214	-93.635248
04817		-6.167914	-1.201916	-94.631381
04818		-5.887666	-1.240788	-95.619479
04819		-5.650709	-1.256340	-96.584092
04820		-5.400208	-1.242264	-97.511598
04821		-5.132029	-1.230911	-98.400944
04822		-4.836463	-1.251999	-99.259711
04823		-4.626179	-1.306986	-100.118534
04824		-4.569508	-1.359658	-100.982244
04825		-4.624639	-1.382694	-101.851871
04826		-4.722929	-1.376174	-102.718443
04827		-4.855423	-1.366853	-103.581709
04828		-5.006496	-1.377443	-104.447835
04829		-5.172893	-1.408471	-105.305450
04830		-5.383005	-1.444607	-106.140294
04831		-5.659925	-1.450956	-106.957239
04832		-6.031494	-1.448044	-107.753264
04833		-6.473120	-1.439234	-108.527774
04834		-6.895002	-1.426329	-109.275936
04835		-7.231691	-1.433026	-110.004675
04836		-7.380918	-1.485756	-110.710257
04837		-7.355243	-1.559439	-111.411327
04838		-7.271730	-1.621820	-112.116006
04839		-7.245641	-1.657578	-112.823162
04840		-7.330204	-1.653315	-113.532551
04841		-7.472672	-1.597517	-114.229351
04842		-7.566538	-1.513893	-114.907358
04843		-7.593182	-1.417721	-115.579333
04844		-7.592136	-1.328991	-116.243179
04845		-7.596384	-1.244287	-116.894343
04846		-7.595621	-1.173572	-117.530253
04847		-7.592296	-1.101038	-118.143741
04848		-7.565191	-1.031837	-118.734036
04849		-7.563845	-0.952451	-119.296133
04850		-7.626961	-0.853668	-119.827909
04851		-7.803462	-0.735587	-120.352241
04852		-8.091546	-0.621545	-120.890150
04853		-8.439734	-0.530520	-121.437997
04854		-8.788566	-0.481389	-122.009521
04855		-9.141869	-0.452690	-122.598261
04856		-9.456267	-0.431900	-123.178591
04857		-9.697639	-0.401345	-123.726633
04858		-9.862677	-0.362661	-124.254164
04859		-9.904203	-0.338091	-124.751522
04860		-9.804961	-0.349210	-125.222291
04861		-9.635053	-0.376376	-125.679215
04862		-9.438235	-0.412441	-126.127030
04863		-9.252979	-0.439223	-126.569059
04864		-9.146319	-0.438118	-127.015649
04865		-9.112586	-0.399612	-127.457665
04866		-9.088042	-0.311738	-127.880807
04867		-9.010366	-0.191119	-128.289500
04868		-8.869152	-0.049425	-128.690917
04869		-8.676372	0.098484	-129.087298
04870		-8.444538	0.235598	-129.480763
04871		-8.209308	0.335201	-129.872773
04872		-7.972537	0.383583	-130.258491
04873		-7.759086	0.412252	-130.648838
04874		-7.581812	0.438399	-131.045773
04875		-7.416614	0.475415	-131.436480
04876		-7.282862	0.534455	-131.819928
04877		-7.217537	0.624618	-132.196672
04878		-7.173185	0.723241	-132.562968
04879		-7.118725	0.830487	-132.920342
04880		-7.056390	0.944935	-133.274468
04881		-6.952098	1.056877	-133.629595
04882		-6.775587	1.152287	-133.976593
04883		-6.534588	1.232776	-134.325020
04884		-6.279411	1.277571	-134.677214
04885		-6.058928	1.295072	-135.032796
04886		-5.894710	1.307129	-135.389024
04887		-5.772203	1.329034	-135.743336
04888		-5.625435	1.355567	-136.093375
04889		-5.455821	1.390353	-136.444854
04890		-5.287336	1.437778	-136.797965
04891		-5.077370	1.488665	-137.139450
04892		-4.827250	1.525519	-137.482270
04893		-4.542046	1.519021	-137.836498
04894		-4.262227	1.458654	-138.201401
04895		-4.076268	1.376190	-138.588288
04896		-3.985118	1.310706	-138.988915
04897		-3.929447	1.284348	-139.388113
04898		-3.852168	1.292017	-139.777377
04899		-3.749651	1.328134	-140.153715
04900		-3.643335	1.365552	-140.519663
04901		-3.544147	1.392296	-140.877726
04902		-3.436585	1.413020	-141.235047
04903		-3.323311	1.417698	-141.597357
04904		-3.189689	1.414773	-141.964468
04905		-3.019693	1.406879	-142.323629
04906		-2.802170	1.394867	-142.678700
04907		-2.552560	1.381119	-143.020593
04908		-2.257877	1.366277	-143.351269
04909		-1.922957	1.358558	-143.671160
04910		-1.544372	1.358420	-143.992729
04911		-1.090495	1.358458	-144.318833
04912		-0.554724	1.356420	-144.660275
04913		0.047374	1.358746	-145.011585
04914		0.794942	1.365969	-145.366129
04915		1.632578	1.402427	-145.711635
04916		2.299517	1.464120	-146.066901
04917		2.549226	1.593063	-146.464253
04918		2.457701	1.781886	-146.903851
04919		2.230453	2.029158	-147.357110
04920		2.070608	2.357616	-147.803637
04921		2.072994	2.757528	-148.236248
04922		2.243442	3.170620	-148.673603
04923		2.520187	3.556033	-149.106478
04924		2.842480	3.867609	-149.546017
04925		3.139891	4.092411	-150.000370
04926		3.398592	4.217242	-150.470322
04927		3.628426	4.285010	-150.943106
04928		3.843607	4.332601	-151.417453
04929		4.028176	4.397105	-151.884229
04930		4.199503	4.501583	-152.323915
04931		4.353788	4.646750	-152.722133
04932		4.488070	4.825323	-153.087849
04933		4.596271	5.023724	-153.430701
04934		4.684933	5.210616	-153.752650
04935		4.766282	5.380215	-154.051026
04936		4.836115	5.521454	-154.329896
04937		4.901590	5.625446	-154.599360
04938		4.968945	5.672495	-154.845944
04939		5.024555	5.684833	-155.066850
04940		5.077957	5.666201	-155.252305
04941		5.140700	5.634932	-155.387631
04942		5.197711	5.605683	-155.474374
04943		5.251381	5.589719	-155.512623
04944		5.337000	5.588782	-155.512883
04945		5.458798	5.592668	-155.486291
04946		5.596162	5.592785	-155.442933
04947		5.709954	5.592296	-155.401313
04948		5.762798	5.586936	-155.361773
04949		5.766103	5.594520	-155.315286
04950		5.750896	5.614164	-155.256595
04951		5.727379	5.652982	-155.186145
04952		5.713772	5.713430	-155.102885
04953		5.724727	5.782741	-155.000195
04954		5.736065	5.843173	-154.894149
04955		5.730743	5.889943	-154.784713
04956		5.720369	5.915237	-154.675617
04957		5.701757	5.917868	-154.566929
04958		5.684518	5.903493	-154.454024
04959		5.649496	5.882476	-154.341577
04960		5.602854	5.859317	-154.232093
04961		5.564208	5.833012	-154.120760
04962		5.538425	5.803748	-154.007349
04963		5.512154	5.777645	-153.881871
04964		5.477780	5.755269	-153.747731
04965		5.435390	5.744116	-153.608286
04966		5.375483	5.732916	-153.469313
04967		5.290460	5.719714	-153.337934
04968		5.186268	5.708998	-153.216576
04969		5.082883	5.677097	-153.105614
04970		4.997468	5.638152	-152.993672
04971		4.885313	5.629694	-152.881203
04972		4.766511	5.616558	-152.769944
04973		4.681315	5.607498	-152.648422
04974		4.619179	5.568379	-152.526882
04975		4.586849	5.543049	-152.391526
04976		4.581348	5.514480	-152.252135
04977		4.571382	5.487099	-152.108546
04978		4.552640	5.475194	-151.960564
04979		4.540951	5.468098	-151.806939
04980		4.519794	5.455194	-151.643678
04981		4.501869	5.428941	-151.473130
04982		4.503836	5.384888	-151.297293
04983		4.510312	5.317411	-151.122003
04984		4.503419	5.243861	-150.947021
04985		4.496890	5.174856	-150.764972
04986		4.490182	5.113756	-150.570189
04987		4.489497	5.056753	-150.371781
04988		4.496529	5.002721	-150.166812
04989		4.515674	4.945195	-149.950644
04990		4.556045	4.891628	-149.719805
04991		4.619151	4.837765	-149.479881
04992		4.696874	4.777994	-149.229268
04993		4.794105	4.703518	-148.968299
04994		4.914221	4.601251	-148.697611
04995		5.044205	4.475556	-148.424299
04996		5.164330	4.330533	-148.145873
04997		5.270656	4.177573	-147.864351
04998		5.364022	4.019164	-147.571643
04999		5.466717	3.863686	-147.266276
05000		5.560802	3.707985	-146.942089
05001		5.654200	3.553653	-146.592896
05002		5.762416	3.419536	-146.216269
05003		5.878216	3.303939	-145.819030
05004		6.025576	3.182664	-145.399670
05005		6.215177	3.050591	-144.951113
05006		6.420591	2.899047	-144.476543
05007		6.582799	2.715397	-143.990828
05008		6.652291	2.489705	-143.501529
05009		6.572947	2.251895	-143.018009
05010		6.335329	1.971138	-142.538164
05011		5.996350	1.707973	-142.033621
05012		5.677715	1.504627	-141.482418
05013		5.394449	1.341784	-140.907763
05014		5.119499	1.211102	-140.324134
05015		4.889589	1.093300	-139.736167
05016		4.678357	0.965828	-139.144863
05017		4.468564	0.827739	-138.533627
05018		4.251212	0.684930	-137.901913
05019		4.000445	0.538116	-137.273034
05020		3.735289	0.369933	-136.657715
05021		3.505318	0.183233	-136.047406
05022		3.294240	-0.009412	-135.435016
05023		3.120870	-0.188178	-134.813387
05024		2.968913	-0.372911	-134.174658
05025		2.807843	-0.538625	-133.508721
05026		2.579490	-0.655180	-132.819415
05027		2.297383	-0.716235	-132.117125
05028		2.020148	-0.742126	-131.402752
05029		1.775775	-0.753413	-130.693540
05030		1.556376	-0.768703	-130.002952
05031		1.389621	-0.815938	-129.332880
05032		1.227735	-0.896321	-128.671659
05033		1.038345	-0.993697	-128.001412
05034		0.773703	-1.080359	-127.322990
05035		0.480612	-1.162132	-126.641234
05036		0.186378	-1.236880	-125.957292
05037		-0.047349	-1.298111	-125.282876
05038		-0.165978	-1.358850	-124.624245
05039		-0.135689	-1.403572	-123.989991
05040		-0.042081	-1.426379	-123.395775
05041		0.026249	-1.412239	-122.843635
05042		-0.023227	-1.340145	-122.338676
05043		-0.190337	-1.220517	-121.865479
05044		-0.433710	-1.059827	-121.393958
05045		-0.711135	-0.868863	-120.905837
05046		-0.959437	-0.664245	-120.387819
05047		-1.124915	-0.475372	-119.831624
05048		-1.221769	-0.327650	-119.244196
05049		-1.263435	-0.240920	-118.644014
05050		-1.268929	-0.231647	-118.034591
05051		-1.243260	-0.286571	-117.420553
05052		-1.237766	-0.389259	-116.808692
05053		-1.247242	-0.495798	-116.195563
05054		-1.284020	-0.582173	-115.594373
05055		-1.321129	-0.654169	-115.005265
05056		-1.295322	-0.703534	-114.409869
05057		-1.202064	-0.722733	-113.795476
05058		-1.107163	-0.721197	-113.168324
05059		-1.047620	-0.695140	-112.536648
05060		-1.046159	-0.660131	-111.908555
05061		-1.016607	-0.624232	-111.268007
05062		-0.961510	-0.589583	-110.601888
05063		-0.897754	-0.544433	-109.911236
05064		-0.858723	-0.480556	-109.208349
05065		-0.813293	-0.411401	-108.507309
05066		-0.734792	-0.333440	-107.810188
05067		-0.626535	-0.241946	-107.101304
05068		-0.538914	-0.111422	-106.364877
05069		-0.514449	0.081219	-105.592087
05070		-0.562375	0.377612	-104.782935
05071		-0.660463	0.743225	-103.950823
05072		-0.757358	1.130303	-103.102345
05073		-0.829615	1.508335	-102.262180
05074		-0.867910	1.813680	-101.466457
05075		-0.799594	1.999023	-100.711951
05076		-0.605051	2.072997	-99.973011
05077		-0.371105	2.099632	-99.243971
05078		-0.184613	2.105387	-98.511675
05079		-0.053069	2.145042	-97.738811
05080		-0.028960	2.256293	-96.934241
05081		-0.083786	2.391376	-96.122019
05082		-0.139984	2.525547	-95.313032
05083		-0.132900	2.642589	-94.507913
05084		-0.039785	2.730279	-93.721042
05085		0.096641	2.794871	-92.973292
05086		0.194100	2.848656	-92.276711
05087		0.277187	2.903013	-91.612898
05088		0.384463	2.966935	-90.956946
05089		0.527543	3.062462	-90.296913
05090		0.680405	3.199335	-89.628765
05091		0.859791	3.371790	-88.959425
05092		1.064595	3.563494	-88.297322
05093		1.355328	3.756445	-87.638127
05094		1.836693	3.911708	-86.968629
05095		2.490199	4.005667	-86.278825
05096		3.189546	4.031642	-85.562735
05097		3.750277	3.966051	-84.840070
05098		4.029744	3.823401	-84.141826
05099		4.015993	3.599399	-83.471368
05100		3.816809	3.321880	-82.814536
05101		3.594854	3.057280	-82.160232
05102		3.431504	2.823173	-81.507728
05103		3.387203	2.671905	-80.860130
05104		3.481222	2.594468	-80.227965
05105		3.705661	2.564450	-79.611251
05106		3.939116	2.553447	-79.020274
05107		4.115297	2.572906	-78.444497
05108		4.262031	2.600071	-77.874186
05109		4.386606	2.620252	-77.314721
05110		4.467607	2.622144	-76.777385
05111		4.507080	2.588953	-76.262309
05112		4.484388	2.533092	-75.756752
05113		4.450531	2.464852	-75.245824
05114		4.448219	2.383755	-74.726865
05115		4.444785	2.303535	-74.208769
05116		4.427582	2.220769	-73.698186
05117		4.417167	2.142262	-73.188556
05118		4.400043	2.073335	-72.677078
05119		4.395306	2.022431	-72.162851
05120		4.399210	1.979610	-71.642081
05121		4.388272	1.939975	-71.122478
05122		4.330081	1.885393	-70.619549
05123		4.241534	1.839110	-70.123683
05124		4.139464	1.798094	-69.626415
05125		4.045591	1.767285	-69.136571
05126		3.911511	1.736339	-68.675768
05127		3.767382	1.727543	-68.244235
05128		3.637331	1.716237	-67.837528
05129		3.528641	1.728312	-67.448686
05130		3.429957	1.765655	-67.058530
05131		3.342504	1.821614	-66.666022
05132		3.288865	1.873018	-66.262173
05133		3.290246	1.907275	-65.845034
05134		3.299851	1.914506	-65.420855
05135		3.284625	1.893980	-64.999527
05136		3.234324	1.855922	-64.592335
05137		3.150089	1.809982	-64.202456
05138		3.057026	1.775426	-63.820832
05139		2.996818	1.761853	-63.435265
05140		2.964445	1.768196	-63.053177
05141		2.939518	1.789326	-62.673419
05142		2.896427	1.823310	-62.296706
05143		2.823914	1.873664	-61.933596
05144		2.741542	1.921839	-61.580570
05145		2.673218	1.969202	-61.230076
05146		2.616480	2.008567	-60.872532
05147		2.553247	2.013440	-60.511351
05148		2.444197	1.985379	-60.149545
05149		2.266467	1.943040	-59.788847
05150		2.050601	1.910882	-59.424170
05151		1.848400	1.889720	-59.059691
05152		1.655633	1.870832	-58.700921
05153		1.440801	1.869540	-58.350956
05154		1.182748	1.881113	-58.013037
05155		0.881848	1.908271	-57.671655
05156		0.583002	1.931930	-57.317379
05157		0.289143	1.950453	-56.955233
05158		0.026182	1.956853	-56.588264
05159		-0.171845	1.954861	-56.209050
05160		-0.288292	1.944519	-55.816687
05161		-0.338182	1.921685	-55.420659
05162		-0.361888	1.891225	-55.035054
05163		-0.382102	1.861405	-54.663777
05164		-0.403410	1.838683	-54.304590
05165		-0.414061	1.829444	-53.957369
05166		-0.421648	1.832913	-53.625122
05167		-0.442155	1.853981	-53.302247
05168		-0.481937	1.892492	-52.982088
05169		-0.559578	1.929859	-52.666141
05170		-0.665052	1.959961	-52.359781
05171		-0.752627	1.982025	-52.060293
05172		-0.809897	1.994884	-51.779116
05173		-0.834646	2.009520	-51.517959
05174		-0.858934	2.011888	-51.271285
05175		-0.921715	2.019605	-51.029937
05176		-0.985245	2.045623	-50.792030
05177		-1.014099	2.090956	-50.549578
05178		-1.018238	2.141253	-50.307484
05179		-1.014856	2.199666	-50.078521
05180		-1.045274	2.256948	-49.859021
05181		-1.139963	2.320834	-49.658185
05182		-1.259388	2.396814	-49.466220
05183		-1.337089	2.472079	-49.280421
05184		-1.375401	2.530984	-49.108019
05185		-1.394002	2.592622	-48.931470
05186		-1.425927	2.650180	-48.756515
05187		-1.473604	2.706147	-48.571548
05188		-1.519454	2.759054	-48.375143
05189		-1.602418	2.806997	-48.171039
05190		-1.712716	2.850024	-47.956219
05191		-1.883089	2.899666	-47.741662
05192		-2.108921	2.996032	-47.536350
05193		-2.344315	3.143794	-47.348064
05194		-2.561019	3.323685	-47.177987
05195		-2.745785	3.494654	-47.028085
05196		-2.963005	3.601928	-46.914121
05197		-3.195677	3.675355	-46.819891
05198		-3.375637	3.689119	-46.729234
05199		-3.505576	3.686463	-46.623596
05200		-3.584965	3.686304	-46.505367
05201		-3.592233	3.694618	-46.371776
05202		-3.544776	3.706484	-46.222591
05203		-3.500050	3.714682	-46.076248
05204		-3.496336	3.709338	-45.946260
05205		-3.543124	3.709851	-45.829232
05206		-3.606932	3.717457	-45.728162
05207		-3.661502	3.726078	-45.642124
05208		-3.720083	3.744689	-45.568511
05209		-3.766372	3.762534	-45.502892
05210		-3.798745	3.770158	-45.430162
05211		-3.829634	3.763485	-45.350494
05212		-3.839931	3.724811	-45.271940
05213		-3.830412	3.660191	-45.191859
05214		-3.799196	3.575073	-45.114302
05215		-3.739720	3.455929	-45.042636
05216		-3.713096	3.324995	-44.982985
05217		-3.732603	3.223346	-44.929834
05218		-3.757461	3.135869	-44.885589
05219		-3.795754	3.061252	-44.850253
05220		-3.824808	2.989289	-44.817825
05221		-3.826578	2.914438	-44.789613
05222		-3.827899	2.826109	-44.772948
05223		-3.858323	2.730653	-44.778187
05224		-3.905868	2.621536	-44.803536
05225		-3.958363	2.516575	-44.842870
05226		-3.999524	2.420084	-44.883735
05227		-4.022451	2.341873	-44.922580
05228		-4.061556	2.291652	-44.958267
05229		-4.122000	2.265908	-44.995683
05230		-4.191264	2.244143	-45.043381
05231		-4.256067	2.230362	-45.106685
05232		-4.304461	2.207797	-45.192178
05233		-4.357224	2.172587	-45.296832
05234		-4.452325	2.123120	-45.420342
05235		-4.605099	2.073202	-45.558254
05236		-4.789230	2.018453	-45.704231
05237		-4.973898	1.965598	-45.851740
05238		-5.191101	1.915255	-46.006763
05239		-5.491399	1.894117	-46.185912
05240		-5.853874	1.912577	-46.383837
05241		-6.239250	1.953124	-46.598926
05242		-6.565120	2.013237	-46.809546
05243		-6.842914	2.041438	-47.015147
05244		-7.078938	2.042336	-47.228828
05245		-7.238082	2.000432	-47.446720
05246		-7.316324	1.931529	-47.669654
05247		-7.361067	1.875278	-47.902139
05248		-7.385209	1.839617	-48.148206
05249		-7.382158	1.822575	-48.413440
05250		-7.343368	1.823332	-48.688079
05251		-7.283808	1.836661	-48.961705
05252		-7.223719	1.848902	-49.232767
05253		-7.180050	1.870772	-49.498584
05254		-7.169571	1.896375	-49.768340
05255		-7.225069	1.922341	-50.054341
05256		-7.319678	1.949828	-50.357509
05257		-7.399535	1.978823	-50.676326
05258		-7.450949	2.009804	-51.009679
05259		-7.498293	2.017932	-51.365380
05260		-7.542889	1.985931	-51.737522
05261		-7.584150	1.936176	-52.114819
05262		-7.609458	1.892088	-52.487035
05263		-7.647041	1.850665	-52.852910
05264		-7.711795	1.815157	-53.231107
05265		-7.806300	1.778377	-53.616033
05266		-7.908631	1.730986	-54.016014
05267		-8.024228	1.676860	-54.436948
05268		-8.118412	1.601685	-54.885855
05269		-8.222347	1.510019	-55.357914
05270		-8.385443	1.431902	-55.864540
05271		-8.577047	1.408668	-56.396819
05272		-8.745842	1.420530	-56.941273
05273		-8.862131	1.464834	-57.486673
05274		-8.934220	1.503743	-58.041506
05275		-8.989570	1.530795	-58.593213
05276		-9.020526	1.550971	-59.137589
05277		-9.031559	1.552591	-59.671080
05278		-9.003333	1.528422	-60.194951
05279		-8.978908	1.490910	-60.715693
05280		-8.938995	1.444379	-61.231823
05281		-8.881919	1.399712	-61.753028
05282		-8.808166	1.355868	-62.282055
05283		-8.747408	1.340570	-62.818210
05284		-8.711634	1.327634	-63.363974
05285		-8.692800	1.313539	-63.914850
05286		-8.621044	1.274722	-64.467382
05287		-8.518873	1.208177	-65.020423
05288		-8.402022	1.136584	-65.580408
05289		-8.284342	1.070197	-66.133161
05290		-8.179841	1.027867	-66.685222
05291		-8.103483	1.022174	-67.236988
05292		-8.012335	1.027200	-67.799677
05293		-7.934976	1.048791	-68.380294
05294		-7.850856	1.077119	-68.977066
05295		-7.792867	1.109859	-69.580526
05296		-7.754202	1.146320	-70.188358
05297		-7.706923	1.180236	-70.796837
05298		-7.615117	1.197377	-71.402460
05299		-7.512654	1.179649	-72.018434
05300		-7.387798	1.140929	-72.638806
05301		-7.271354	1.101085	-73.260970
05302		-7.184726	1.075961	-73.885177
05303		-7.121724	1.072872	-74.503819
05304		-7.039985	1.066736	-75.123958
05305		-6.974975	1.041786	-75.743815
05306		-6.942135	1.013877	-76.367686
05307		-6.920597	0.986704	-76.986988
05308		-6.869054	0.952567	-77.613505
05309		-6.821475	0.927406	-78.259365
05310		-6.768657	0.909897	-78.929372
05311		-6.680663	0.886969	-79.608961
05312		-6.579255	0.859428	-80.300041
05313		-6.517428	0.842966	-80.998802
05314		-6.446194	0.833072	-81.701243
05315		-6.384490	0.819866	-82.407622
05316		-6.352676	0.800547	-83.123828
05317		-6.336637	0.778762	-83.838745
05318		-6.290640	0.749962	-84.552595
05319		-6.234399	0.711529	-85.270448
05320		-6.160094	0.659125	-85.998614
05321		-6.073697	0.606110	-86.729424
05322		-5.996505	0.575738	-87.469195
05323		-5.915173	0.561212	-88.203213
05324		-5.807450	0.557588	-88.931914
05325		-5.680894	0.566548	-89.644564
05326		-5.519349	0.590255	-90.340678
05327		-5.388378	0.635527	-90.994817
05328		-5.252919	0.714486	-91.594119
05329		-5.057727	0.820641	-92.131447
05330		-4.796480	0.948300	-92.628554
05331		-4.461733	1.087676	-93.089517
05332		-4.057045	1.179617	-93.536957
05333		-3.621913	1.206158	-93.979115
05334		-3.193616	1.149167	-94.428433
05335		-2.846752	1.029025	-94.879687
05336		-2.615107	0.875448	-95.347755
05337		-2.492480	0.712302	-95.824260
05338		-2.463248	0.554919	-96.309000
05339		-2.511529	0.446875	-96.801452
05340		-2.574438	0.377094	-97.302773
05341		-2.612147	0.332871	-97.805599
05342		-2.612490	0.302747	-98.316913
05343		-2.573427	0.266863	-98.836772
05344		-2.495569	0.204183	-99.365477
05345		-2.429244	0.127239	-99.911916
05346		-2.381023	0.057830	-100.480108
05347		-2.359331	0.010725	-101.069043
05348		-2.323588	-0.007902	-101.684048
05349		-2.257330	-0.006637	-102.317719
05350		-2.142546	0.007681	-102.966599
05351		-2.007574	0.036585	-103.624077
05352		-1.857952	0.092206	-104.295167
05353		-1.695200	0.184577	-104.977638
05354		-1.474765	0.294671	-105.673950
05355		-1.245685	0.419706	-106.372434
05356		-1.033351	0.554279	-107.071473
05357		-0.937242	0.714498	-107.763732
05358		-0.938567	0.902563	-108.445414
05359		-0.973920	1.115995	-109.095748
05360		-0.994495	1.340714	-109.730171
05361		-0.969373	1.547379	-110.344698
05362		-0.890067	1.700031	-110.945012
05363		-0.863253	1.793346	-111.545641
05364		-0.918933	1.853768	-112.168689
05365		-1.031695	1.894199	-112.814438
05366		-1.149240	1.950430	-113.460722
05367		-1.249026	2.057086	-114.094851
05368		-1.246963	2.183259	-114.712493
05369		-1.152327	2.314129	-115.320168
05370		-1.028347	2.450896	-115.927130
05371		-0.923784	2.581114	-116.540553
05372		-0.859326	2.702548	-117.163371
05373		-0.803218	2.806787	-117.780477
05374		-0.698869	2.903414	-118.385263
05375		-0.540126	2.982535	-118.971754
05376		-0.321300	3.045301	-119.537445
05377		-0.100246	3.085263	-120.095025
05378		0.080509	3.112142	-120.651540
05379		0.225163	3.134237	-121.195286
05380		0.355519	3.214840	-121.725219
05381		0.427031	3.318858	-122.243165
05382		0.443942	3.451224	-122.763714
05383		0.435000	3.568014	-123.282526
05384		0.427285	3.657321	-123.788463
05385		0.442914	3.752435	-124.267695
05386		0.465310	3.844675	-124.745426
05387		0.466223	3.943206	-125.219736
05388		0.427714	4.062323	-125.686065
05389		0.331762	4.201320	-126.139313
05390		0.232005	4.341598	-126.568121
05391		0.179451	4.494576	-126.960449
05392		0.247981	4.666929	-127.314524
05393		0.513214	4.817087	-127.639525
05394		0.952501	4.917952	-127.963276
05395		1.427735	4.959379	-128.318853
05396		1.848399	4.991997	-128.689938
05397		2.136635	5.042078	-129.060985
05398		2.268713	5.130959	-129.431827
05399		2.290366	5.239452	-129.792108
05400		2.281995	5.360716	-130.140413
05401		2.301814	5.499289	-130.470259
05402		2.387660	5.636969	-130.794955
05403		2.519938	5.760957	-131.114503
05404		2.700827	5.851894	-131.438811
05405		2.890293	5.895244	-131.770802
05406		3.001432	5.906357	-132.105636
05407		3.003995	5.931730	-132.434689
05408		2.958829	5.983359	-132.757205
05409		2.932554	6.053156	-133.072962
05410		2.949056	6.128790	-133.380138
05411		3.000637	6.205608	-133.666138
05412		3.106702	6.275214	-133.927528
05413		3.349167	6.352494	-134.161518
05414		3.846458	6.441365	-134.355813
05415		4.620017	6.524636	-134.533785
05416		5.567022	6.590474	-134.724167
05417		6.512436	6.658049	-134.923793
05418		7.272115	6.738416	-135.142119
05419		7.691700	6.829457	-135.406770
05420		7.714353	6.934361	-135.759821
05421		7.392301	7.064925	-136.191650
05422		6.863363	7.230154	-136.690043
05423		6.286744	7.449787	-137.217895
05424		5.826959	7.710458	-137.747201
05425		5.504100	8.008258	-138.252182
05426		5.307118	8.308084	-138.716551
05427		5.220443	8.556314	-139.123707
05428		5.211980	8.739146	-139.478923
05429		5.278144	8.853626	-139.790471
05430		5.425989	8.882023	-140.074165
05431		5.597433	8.865502	-140.346732
05432		5.702151	8.833293	-140.617370
05433		5.762902	8.808177	-140.875137
05434		5.781926	8.809086	-141.113722
05435		5.786734	8.840708	-141.333228
05436		5.823414	8.898288	-141.526908
05437		5.916309	8.976035	-141.701032
05438		6.087132	9.047751	-141.858361
05439		6.303184	9.093251	-142.005971
05440		6.488290	9.105805	-142.157456
05441		6.601090	9.085499	-142.303599
05442		6.642433	9.055133	-142.428237
05443		6.617770	9.049195	-142.522520
05444		6.574835	9.066827	-142.587612
05445		6.551229	9.093029	-142.616702
05446		6.566068	9.145524	-142.607365
05447		6.575239	9.213394	-142.574929
05448		6.562362	9.283152	-142.541198
05449		6.518538	9.341574	-142.507433
05450		6.470837	9.410376	-142.461311
05451		6.468374	9.492813	-142.412363
05452		6.493110	9.565776	-142.372411
05453		6.486582	9.602768	-142.352718
05454		6.426241	9.609307	-142.334578
05455		6.318595	9.600710	-142.299628
05456		6.183509	9.594058	-142.238394
05457		6.074126	9.592516	-142.154295
05458		6.025337	9.594714	-142.054216
05459		6.003774	9.605615	-141.956301
05460		6.001041	9.610082	-141.860304
05461		6.026371	9.590385	-141.759858
05462		6.080174	9.566133	-141.641670
05463		6.141710	9.556775	-141.514665
05464		6.177565	9.539726	-141.393298
05465		6.190214	9.518345	-141.274994
05466		6.179417	9.476134	-141.152549
05467		6.193643	9.445989	-140.998539
05468		6.220802	9.444042	-140.814409
05469		6.258352	9.457526	-140.614453
05470		6.331071	9.470066	-140.400464
05471		6.535945	9.489551	-140.159128
05472		6.959380	9.529131	-139.870722
05473		7.627342	9.604518	-139.528946
05474		8.455861	9.698907	-139.152826
05475		9.217131	9.762250	-138.787435
05476		9.706987	9.765298	-138.462976
05477		9.894883	9.710461	-138.176898
05478		9.807741	9.619855	-137.930787
05479		9.535571	9.519374	-137.720899
05480		9.217095	9.434692	-137.531617
05481		8.927093	9.379976	-137.348222
05482		8.670239	9.359957	-137.167632
05483		8.464233	9.358756	-136.989958
05484		8.297365	9.358888	-136.806669
05485		8.111245	9.342974	-136.626898
05486		7.869665	9.303214	-136.444109
05487		7.593023	9.232257	-136.261653
05488		7.278859	9.130804	-136.073655
05489		6.941451	9.018684	-135.864965
05490		6.615131	8.909531	-135.616922
05491		6.340106	8.821831	-135.323523
05492		6.141220	8.765490	-134.981222
05493		6.015991	8.745357	-134.598758
05494		5.923404	8.754905	-134.199861
05495		5.813368	8.776172	-133.810504
05496		5.666145	8.777676	-133.444964
05497		5.473758	8.752717	-133.110213
05498		5.245660	8.707779	-132.800294
05499		5.021692	8.645151	-132.487449
05500		4.805516	8.573933	-132.149333
05501		4.589719	8.507627	-131.780928
05502		4.387487	8.442398	-131.376956
05503		4.229131	8.383557	-130.938926
05504		4.122243	8.335719	-130.467684
05505		4.075141	8.300295	-129.974172
05506		4.086901	8.270896	-129.461831
05507		4.173081	8.249322	-128.936091
05508		4.316440	8.230470	-128.404557
05509		4.506013	8.195538	-127.886863
05510		4.776767	8.148800	-127.361731
05511		5.083306	8.089823	-126.826026
05512		5.368863	8.021169	-126.269535
05513		5.653527	7.926407	-125.692023
05514		5.936884	7.807091	-125.086797
05515		6.219593	7.657814	-124.471783
05516		6.461955	7.496511	-123.845726
05517		6.643191	7.360262	-123.213707
05518		6.765121	7.264694	-122.590533
05519		6.867858	7.176281	-121.995525
05520		6.943410	7.094934	-121.426561
05521		6.981559	7.028092	-120.885582
05522		6.995887	6.967996	-120.365385
05523		7.005747	6.906037	-119.840299
05524		6.979659	6.848469	-119.303140
05525		6.869578	6.786077	-118.756297
05526		6.679064	6.720990	-118.190507
05527		6.416035	6.638462	-117.621100
05528		6.132938	6.545511	-117.055186
05529		5.891368	6.445658	-116.494024
05530		5.736230	6.341191	-115.935291
05531		5.693502	6.217749	-115.380298
05532		5.719522	6.093229	-114.813850
05533		5.761057	5.971216	-114.226992
05534		5.783527	5.856872	-113.611928
05535		5.745810	5.743927	-112.983363
05536		5.688294	5.624894	-112.334319
05537		5.674873	5.527969	-111.661435
05538		5.704564	5.447283	-110.990899
05539		5.780601	5.341316	-110.344194
05540		5.860269	5.234573	-109.704139
05541		5.986373	5.118082	-109.057465
05542		6.214143	4.988469	-108.376278
05543		6.520504	4.891806	-107.662371
05544		6.839269	4.836772	-106.920011
05545		7.194947	4.827917	-106.151332
05546		7.617424	4.865190	-105.348938
05547		8.150386	4.925525	-104.503434
05548		8.718287	5.007327	-103.625016
05549		9.190587	5.093306	-102.742541
05550		9.477261	5.159591	-101.860790
05551		9.574008	5.201788	-100.994995
05552		9.548553	5.202505	-100.147425
05553		9.485016	5.168262	-99.321492
05554		9.404361	5.111664	-98.509296
05555		9.374378	5.048705	-97.701705
05556		9.400366	4.985981	-96.871604
05557		9.462200	4.949207	-96.019120
05558		9.517576	4.906595	-95.159377
05559		9.612183	4.845230	-94.294117
05560		9.683858	4.774736	-93.425073
05561		9.702413	4.708302	-92.575849
05562		9.691011	4.638189	-91.746540
05563		9.673112	4.571344	-90.942221
05564		9.636879	4.508346	-90.129183
05565		9.568990	4.486002	-89.288881
05566		9.402532	4.526243	-88.435105
05567		9.216382	4.578736	-87.596106
05568		9.100277	4.606417	-86.768934
05569		9.045358	4.599246	-85.972837
05570		9.055501	4.542541	-85.205048
05571		9.151904	4.439994	-84.450327
05572		9.222722	4.329844	-83.689012
05573		9.279194	4.212927	-82.899523
05574		9.344156	4.132525	-82.056550
05575		9.344540	4.115037	-81.191491
05576		9.336640	4.132162	-80.318579
05577		9.302511	4.197450	-79.461460
05578		9.227367	4.334214	-78.607035
05579		9.192484	4.519763	-77.757891
05580		9.143138	4.739308	-76.922874
05581		9.069063	4.951962	-76.113475
05582		8.971156	5.111722	-75.333226
05583		8.756130	5.213431	-74.588801
05584		8.452850	5.266909	-73.857827
05585		8.189207	5.274689	-73.117638
05586		8.011115	5.246981	-72.346861
05587		7.951853	5.209762	-71.548382
05588		7.974652	5.163234	-70.735055
05589		7.996050	5.092411	-69.950638
05590		7.960996	4.998913	-69.205372
05591		7.860023	4.904939	-68.495463
05592		7.642911	4.816916	-67.824127
05593		7.361980	4.755876	-67.206123
05594		7.120594	4.700828	-66.621212
05595		6.948536	4.664068	-66.073618
05596		6.811225	4.641211	-65.555875
05597		6.652015	4.659957	-65.055410
05598		6.444765	4.714945	-64.582571
05599		6.246897	4.790178	-64.134837
05600		6.070006	4.893067	-63.700343
05601		5.874682	5.006634	-63.291066
05602		5.673177	5.124657	-62.896374
05603		5.493114	5.244777	-62.498266
05604		5.336429	5.336211	-62.080082
05605		5.260988	5.375703	-61.624262
05606		5.271138	5.357326	-61.124169
05607		5.284545	5.303376	-60.599751
05608		5.267840	5.244435	-60.070841
05609		5.274305	5.203674	-59.543713
05610		5.299523	5.181228	-59.026894
05611		5.365149	5.183487	-58.517934
05612		5.455608	5.190899	-58.009878
05613		5.559230	5.229493	-57.482290
05614		5.621557	5.291773	-56.959523
05615		5.638995	5.355564	-56.460313
05616		5.606272	5.421532	-55.992984
05617		5.462422	5.499460	-55.568898
05618		5.254948	5.575979	-55.168578
05619		5.048481	5.621692	-54.776593
05620		4.837416	5.628229	-54.383636
05621		4.700340	5.578498	-53.987001
05622		4.663767	5.496639	-53.580154
05623		4.674665	5.421525	-53.171117
05624		4.681712	5.367526	-52.773996
05625		4.658658	5.341192	-52.397210
05626		4.614774	5.325047	-52.035689
05627		4.567455	5.303122	-51.687130
05628		4.530070	5.264754	-51.341995
05629		4.505718	5.215810	-51.002380
05630		4.498266	5.153165	-50.665626
05631		4.480549	5.061574	-50.343922
05632		4.375735	4.961908	-50.051153
05633		4.208694	4.877341	-49.779016
05634		4.036244	4.819292	-49.514966
05635		3.912803	4.778568	-49.243688
05636		3.864097	4.746324	-48.961570
05637		3.833471	4.712421	-48.671899
05638		3.777667	4.656727	-48.384768
05639		3.712215	4.575931	-48.098824
05640		3.620915	4.497371	-47.817504
05641		3.518223	4.441046	-47.531883
05642		3.439692	4.407581	-47.240742
05643		3.358793	4.384538	-46.945160
05644		3.273014	4.361606	-46.652144
05645		3.196051	4.332049	-46.358206
05646		3.111383	4.291369	-46.067548
05647		3.021528	4.239429	-45.785656
05648		2.900197	4.191294	-45.516067
05649		2.741710	4.171720	-45.249131
05650		2.556697	4.175262	-44.991271
05651		2.398376	4.174083	-44.735903
05652		2.303920	4.151800	-44.467685
05653		2.264084	4.102114	-44.189180
05654		2.230714	4.041691	-43.910399
05655		2.177208	3.976395	-43.637125
05656		2.115201	3.907563	-43.372812
05657		2.017792	3.853054	-43.110483
05658		1.854332	3.817381	-42.851140
05659		1.673738	3.800513	-42.591276
05660		1.513458	3.789545	-42.342421
05661		1.389399	3.781669	-42.107228
05662		1.292850	3.772261	-41.888099
05663		1.183991	3.767812	-41.691998
05664		1.031023	3.771384	-41.522035
05665		0.849911	3.779001	-41.371515
05666		0.657348	3.795214	-41.229363
05667		0.474329	3.815842	-41.090484
05668		0.331118	3.834531	-40.951475
05669		0.211412	3.847540	-40.813328
05670		0.068176	3.873203	-40.678961
05671		-0.069242	3.913728	-40.555847
05672		-0.180529	3.956824	-40.436851
05673		-0.271907	3.997361	-40.327075
05674		-0.329025	4.008309	-40.224255
05675		-0.341832	3.995209	-40.121612
05676		-0.327587	3.980995	-40.015636
05677		-0.308804	3.981562	-39.913219
05678		-0.290691	3.997109	-39.828144
05679		-0.285131	4.023900	-39.760191
05680		-0.288762	4.067754	-39.711799
05681		-0.253340	4.119182	-39.677333
05682		-0.155249	4.160268	-39.657094
05683		-0.062919	4.212628	-39.665046
05684		-0.017180	4.277772	-39.701984
05685		-0.029500	4.358592	-39.749114
05686		-0.028163	4.447748	-39.810029
05687		-0.012580	4.536277	-39.891169
05688		0.012240	4.619288	-39.979200
05689		0.046398	4.686825	-40.072904
05690		0.064540	4.730138	-40.169798
05691		0.047588	4.765222	-40.265040
05692		-0.013541	4.797619	-40.364501
05693		-0.085212	4.844883	-40.465013
05694		-0.146293	4.918797	-40.564455
05695		-0.209345	5.009442	-40.672714
05696		-0.263660	5.092942	-40.793799
05697		-0.257832	5.166460	-40.915131
05698		-0.194181	5.235107	-41.021005
05699		-0.142782	5.281296	-41.129757
05700		-0.119794	5.299167	-41.245757
05701		-0.098555	5.281549	-41.357732
05702		-0.060832	5.247315	-41.449867
05703		-0.039341	5.210521	-41.528904
05704		-0.073649	5.185249	-41.602746
05705		-0.145987	5.173158	-41.687526
05706		-0.196970	5.170651	-41.771515
05707		-0.222907	5.184791	-41.853905
05708		-0.256558	5.205388	-41.938112
05709		-0.309051	5.217499	-42.028680
05710		-0.335962	5.203936	-42.121021
05711		-0.314581	5.156893	-42.214491
05712		-0.273904	5.086534	-42.310041
05713		-0.212142	5.013379	-42.409568
05714		-0.154514	4.963221	-42.507990
05715		-0.151112	4.933300	-42.612387
05716		-0.212073	4.925476	-42.726632
05717		-0.304788	4.932449	-42.848740
05718		-0.391269	4.934142	-42.977017
05719		-0.426356	4.919233	-43.109775
05720		-0.389779	4.871471	-43.243329
05721		-0.289982	4.806059	-43.377415
05722		-0.170531	4.731354	-43.524631
05723		-0.091125	4.665772	-43.683483
05724		-0.119471	4.616212	-43.859875
05725		-0.283356	4.594706	-44.051156
05726		-0.531725	4.597267	-44.244749
05727		-0.798616	4.624573	-44.433799
05728		-0.995681	4.672794	-44.612521
05729		-1.082488	4.725740	-44.776402
05730		-1.104553	4.744427	-44.945702
05731		-1.134978	4.718580	-45.124650
05732		-1.194717	4.652684	-45.316076
05733		-1.284537	4.571012	-45.512108
05734		-1.376402	4.488696	-45.720843
05735		-1.485614	4.413138	-45.943218
05736		-1.585912	4.358193	-46.161339
05737		-1.709811	4.324112	-46.365945
05738		-1.847674	4.307086	-46.563350
05739		-1.993701	4.292556	-46.761752
05740		-2.121930	4.269306	-46.964697
05741		-2.224138	4.243599	-47.172974
05742		-2.273310	4.221140	-47.379521
05743		-2.258925	4.190013	-47.582549
05744		-2.212765	4.174182	-47.795217
05745		-2.175788	4.161449	-48.015889
05746		-2.160749	4.157458	-48.247366
05747		-2.176497	4.148189	-48.488712
05748		-2.210684	4.138933	-48.737027
05749		-2.255596	4.124632	-48.993432
05750		-2.311351	4.111045	-49.256371
05751		-2.364777	4.086814	-49.520238
05752		-2.412567	4.043978	-49.782849
05753		-2.455641	3.994632	-50.048078
05754		-2.457648	3.940973	-50.313642
05755		-2.412122	3.897057	-50.579120
05756		-2.347294	3.865617	-50.853898
05757		-2.308692	3.847678	-51.145776
05758		-2.316940	3.839525	-51.452199
05759		-2.376696	3.841444	-51.761135
05760		-2.433050	3.853787	-52.066446
05761		-2.465425	3.867215	-52.365335
05762		-2.469702	3.863273	-52.665345
05763		-2.473392	3.842918	-52.968354
05764		-2.461769	3.804324	-53.274328
05765		-2.464035	3.757178	-53.586996
05766		-2.484373	3.714111	-53.906257
05767		-2.500949	3.687167	-54.225513
05768		-2.501963	3.669705	-54.553860
05769		-2.508184	3.660344	-54.903297
05770		-2.508536	3.664609	-55.267284
05771		-2.477317	3.677194	-55.633699
05772		-2.416543	3.688521	-55.999333
05773		-2.399332	3.696685	-56.370151
05774		-2.439908	3.709383	-56.740656
05775		-2.524640	3.735848	-57.102177
05776		-2.597100	3.757975	-57.464727
05777		-2.633724	3.769770	-57.830082
05778		-2.632579	3.770217	-58.193300
05779		-2.625323	3.766839	-58.554895
05780		-2.603486	3.748179	-58.924179
05781		-2.577830	3.721841	-59.299014
05782		-2.565436	3.711915	-59.678379
05783		-2.569840	3.719683	-60.054175
05784		-2.560768	3.739945	-60.419613
05785		-2.579313	3.771051	-60.780422
05786		-2.623090	3.800436	-61.146051
05787		-2.650930	3.817599	-61.508660
05788		-2.647024	3.809547	-61.880303
05789		-2.646235	3.789963	-62.270652
05790		-2.651148	3.773004	-62.666249
05791		-2.676948	3.764731	-63.054779
05792		-2.730583	3.758075	-63.449722
05793		-2.832382	3.745074	-63.850534
05794		-2.983020	3.727199	-64.253142
05795		-3.172530	3.707941	-64.650770
05796		-3.365735	3.690336	-65.049596
05797		-3.513006	3.674568	-65.445401
05798		-3.602157	3.645943	-65.854037
05799		-3.682913	3.606037	-66.281047
05800		-3.790824	3.576682	-66.719164
05801		-3.946105	3.574816	-67.170983
05802		-4.105247	3.585212	-67.631894
05803		-4.239133	3.608450	-68.086632
05804		-4.304072	3.632300	-68.524887
05805		-4.329798	3.652595	-68.958589
05806		-4.345420	3.662867	-69.395507
05807		-4.341180	3.652897	-69.833918
05808		-4.349532	3.630818	-70.281117
05809		-4.362066	3.606805	-70.739268
05810		-4.347512	3.600219	-71.203063
05811		-4.301350	3.582781	-71.664488
05812		-4.297449	3.540554	-72.128500
05813		-4.290063	3.512097	-72.600898
05814		-4.269917	3.471865	-73.076766
05815		-4.279340	3.432870	-73.571622
05816		-4.267779	3.387402	-74.076855
05817		-4.234035	3.324249	-74.587345
05818		-4.192180	3.257231	-75.106365
05819		-4.156750	3.178862	-75.638267
05820		-4.098912	3.098578	-76.180163
05821		-4.048011	3.012697	-76.735254
05822		-4.010782	2.936230	-77.299599
05823		-4.004546	2.869349	-77.872656
05824		-4.037071	2.822825	-78.467094
05825		-4.088040	2.789002	-79.084725
05826		-4.091474	2.765033	-79.722567
05827		-4.048060	2.741229	-80.368662
05828		-4.000006	2.719373	-81.029770
05829		-3.967636	2.696805	-81.697152
05830		-3.932895	2.668164	-82.376229
05831		-3.949197	2.634719	-83.068067
05832		-4.011405	2.597178	-83.762039
05833		-4.114713	2.563121	-84.452865
05834		-4.211489	2.518009	-85.137949
05835		-4.319708	2.464146	-85.822811
05836		-4.417867	2.381970	-86.522409
05837		-4.514650	2.310044	-87.236981
05838		-4.603608	2.267682	-87.968949
05839		-4.686189	2.248523	-88.701700
05840		-4.742591	2.247695	-89.434678
05841		-4.786080	2.243823	-90.168015
05842		-4.748549	2.260527	-90.886385
05843		-4.647816	2.283433	-91.591088
05844		-4.553799	2.304472	-92.304918
05845		-4.532913	2.313856	-93.023928
05846		-4.559345	2.320456	-93.740974
05847		-4.606921	2.343788	-94.455631
05848		-4.632921	2.398144	-95.160852
05849		-4.582870	2.459064	-95.850831
05850		-4.444541	2.515874	-96.524163
05851		-4.293031	2.552301	-97.190299
05852		-4.150596	2.565563	-97.857957
05853		-4.027875	2.568903	-98.517352
05854		-3.927024	2.584658	-99.185309
05855		-3.864696	2.613949	-99.857625
05856		-3.803902	2.655278	-100.524913
05857		-3.758325	2.710518	-101.183177
05858		-3.713079	2.786160	-101.838326
05859		-3.643626	2.868718	-102.482523
05860		-3.498266	2.948153	-103.109172
05861		-3.337632	3.015644	-103.728915
05862		-3.214392	3.060622	-104.358245
05863		-3.167482	3.094900	-104.990832
05864		-3.222094	3.148965	-105.634139
05865		-3.296734	3.230977	-106.267518
05866		-3.271175	3.340318	-106.867584
05867		-3.138188	3.454993	-107.437991
05868		-2.928128	3.551680	-107.995350
05869		-2.693588	3.611628	-108.543900
05870		-2.497733	3.655456	-109.092249
05871		-2.365924	3.693946	-109.645946
05872		-2.223592	3.748793	-110.203437
05873		-2.001926	3.801811	-110.743879
05874		-1.692230	3.869202	-111.268224
05875		-1.366729	3.941343	-111.772736
05876		-1.119270	4.024405	-112.267754
05877		-0.995989	4.105498	-112.752364
05878		-0.955303	4.177825	-113.241702
05879		-0.959518	4.227044	-113.746905
05880		-0.934533	4.254301	-114.275008
05881		-0.868628	4.258518	-114.819406
05882		-0.816178	4.268013	-115.362071
05883		-0.767883	4.287917	-115.891226
05884		-0.705890	4.306263	-116.409481
05885		-0.667506	4.328115	-116.919997
05886		-0.638447	4.353437	-117.425290
05887		-0.570782	4.375776	-117.907310
05888		-0.441819	4.398270	-118.379309
05889		-0.277717	4.425847	-118.853995
05890		-0.081114	4.443678	-119.346302
05891		0.083640	4.479184	-119.841695
05892		0.173600	4.531634	-120.333145
05893		0.197383	4.610477	-120.815929
05894		0.177422	4.697326	-121.298613
05895		0.173488	4.785760	-121.771190
05896		0.220789	4.867803	-122.229505
05897		0.312162	4.940372	-122.680109
05898		0.446964	4.999294	-123.132505
05899		0.566036	5.038002	-123.583856
05900		0.638899	5.080108	-124.028160
05901		0.669644	5.135028	-124.459129
05902		0.702048	5.213342	-124.880091
05903		0.751903	5.308413	-125.293229
05904		0.830875	5.417596	-125.706934
05905		0.918541	5.522485	-126.121991
05906		1.007554	5.619417	-126.533764
05907		1.094775	5.689745	-126.948728
05908		1.153752	5.735672	-127.362124
05909		1.201509	5.791283	-127.756594
05910		1.234046	5.838599	-128.144352
05911		1.284172	5.906879	-128.525961
05912		1.395976	5.968971	-128.889202
05913		1.498127	6.046405	-129.252557
05914		1.610821	6.132766	-129.623667
05915		1.740663	6.204257	-129.990734
05916		1.911298	6.276544	-130.349716
05917		2.105093	6.348181	-130.705048
05918		2.321111	6.427409	-131.061423
05919		2.541494	6.516169	-131.419562
05920		2.699034	6.635780	-131.783790
05921		2.779345	6.783308	-132.143079
05922		2.844050	6.935431	-132.488704
05923		2.939867	7.092670	-132.824674
05924		3.043327	7.231364	-133.153377
05925		3.197069	7.341350	-133.462555
05926		3.455784	7.424415	-133.749184
05927		3.793450	7.481858	-134.030657
05928		4.150265	7.515880	-134.317922
05929		4.487473	7.553860	-134.611739
05930		4.778701	7.608074	-134.909303
05931		4.982323	7.689662	-135.210604
05932		5.129039	7.796788	-135.507713
05933		5.257471	7.917683	-135.799070
05934		5.373435	8.048291	-136.079489
05935		5.510767	8.191232	-136.346244
05936		5.688418	8.348306	-136.602956
05937		5.912345	8.501875	-136.859273
05938		6.178998	8.633498	-137.120580
05939		6.462026	8.742010	-137.392814
05940		6.761080	8.836102	-137.677502
05941		7.063781	8.929572	-137.968816
05942		7.311591	9.041543	-138.258902
05943		7.499109	9.183746	-138.549271
05944		7.675828	9.351352	-138.830706
05945		7.870270	9.544562	-139.104510
05946		8.140099	9.755329	-139.378891
05947		8.462000	9.981936	-139.673631
05948		8.751281	10.214342	-140.007334
05949		8.938521	10.450055	-140.373811
05950		9.018730	10.680864	-140.749535
05951		9.005597	10.894194	-141.114983
05952		8.955328	11.070864	-141.451209
05953		8.946007	11.197249	-141.745452
05954		9.010708	11.279676	-141.994848
05955		9.133454	11.319601	-142.207115
05956		9.314062	11.318043	-142.394342
05957		9.497896	11.304416	-142.567207
05958		9.675458	11.300382	-142.732491
05959		9.837477	11.325775	-142.887224
05960		9.956527	11.379397	-143.030130
05961		10.052632	11.468232	-143.159194
05962		10.138127	11.566099	-143.285012
05963		10.223043	11.665822	-143.404663
05964		10.326975	11.765534	-143.521497
05965		10.465500	11.863399	-143.624887
05966		10.629621	11.946499	-143.712737
05967		10.776992	12.014474	-143.798778
05968		10.868092	12.066131	-143.884008
05969		10.911667	12.106076	-143.972149
05970		10.926383	12.138246	-144.061201
05971		10.933217	12.169072	-144.151368
05972		10.958037	12.206695	-144.236060
05973		11.001741	12.245019	-144.320172
05974		11.034065	12.280714	-144.399783
05975		11.029491	12.314203	-144.468753
05976		10.990430	12.352483	-144.527795
05977		10.919161	12.414799	-144.577497
05978		10.807632	12.478028	-144.623559
05979		10.705452	12.552648	-144.654424
05980		10.628782	12.618537	-144.671373
05981		10.590115	12.663655	-144.668317
05982		10.598437	12.691379	-144.636090
05983		10.637524	12.699263	-144.582821
05984		10.686713	12.677007	-144.512214
05985		10.726668	12.636622	-144.435583
05986		10.752645	12.591429	-144.348382
05987		10.765119	12.558392	-144.247558
05988		10.768036	12.528661	-144.140920
05989		10.766459	12.499274	-144.037079
05990		10.746913	12.475298	-143.931304
05991		10.719483	12.466172	-143.824469
05992		10.696438	12.461412	-143.710414
05993		10.694463	12.466138	-143.596074
05994		10.723206	12.470912	-143.480967
05995		10.773747	12.467079	-143.369496
05996		10.828700	12.451634	-143.260167
05997		10.829470	12.435870	-143.178641
05998		10.740996	12.429535	-143.127020
05999		10.607334	12.438514	-143.088683
06000		10.465077	12.460662	-143.045985
06001		10.334668	12.504048	-143.004748
06002		10.219057	12.543233	-142.953096
06003		10.140372	12.570116	-142.890344
06004		10.084805	12.575015	-142.803233
06005		10.049170	12.549492	-142.690622
06006		10.008995	12.495620	-142.555443
06007		9.937415	12.426812	-142.408252
06008		9.819621	12.344048	-142.259909
06009		9.680559	12.245693	-142.106752
06010		9.525707	12.140464	-141.943608
06011		9.361431	12.047976	-141.771360
06012		9.191973	11.970137	-141.584704
06013		9.034786	11.905918	-141.382494
06014		8.887816	11.853563	-141.158652
06015		8.769464	11.814151	-140.906623
06016		8.666283	11.780307	-140.624324
06017		8.584383	11.730744	-140.310051
06018		8.530891	11.661268	-139.965160
06019		8.483184	11.572377	-139.596234
06020		8.434168	11.483801	-139.205273
06021		8.394775	11.396407	-138.802347
06022		8.379166	11.320393	-138.383546
06023		8.418386	11.244157	-137.961881
06024		8.491836	11.175332	-137.531775
06025		8.619945	11.116492	-137.093118
06026		8.781151	11.065801	-136.657645
06027		8.964165	11.003798	-136.241370
06028		9.133384	10.923500	-135.834920
06029		9.268525	10.827100	-135.433389
06030		9.337506	10.715101	-135.029942
06031		9.346333	10.590944	-134.624651
06032		9.293081	10.450245	-134.207420
06033		9.195821	10.291069	-133.774605
06034		9.070195	10.126813	-133.317133
06035		8.953652	9.966424	-132.838804
06036		8.856678	9.809270	-132.349543
06037		8.788177	9.656551	-131.856481
06038		8.711009	9.509635	-131.360039
06039		8.610137	9.361495	-130.847235
06040		8.489681	9.221193	-130.319422
06041		8.392323	9.065797	-129.778741
06042		8.276232	8.927118	-129.203531
06043		8.192249	8.796871	-128.605474
06044		8.115249	8.669003	-127.988543
06045		8.047150	8.540719	-127.370546
06046		7.970481	8.394127	-126.749056
06047		7.868599	8.227488	-126.123706
06048		7.746998	8.038855	-125.474695
06049		7.581880	7.843150	-124.799986
06050		7.334673	7.642191	-124.095511
06051		7.044049	7.438224	-123.376661
06052		6.716553	7.237007	-122.655891
06053		6.382592	7.039273	-121.948299
06054		6.050200	6.851585	-121.250624
06055		5.741343	6.661612	-120.580331
06056		5.434345	6.463332	-119.937728
06057		5.118980	6.276123	-119.321598
06058		4.770251	6.100313	-118.729316
06059		4.390764	5.943835	-118.161810
06060		3.946166	5.830768	-117.604263
06061		3.446483	5.770108	-117.050126
06062		2.878884	5.762544	-116.493502
06063		2.314135	5.809102	-115.940895
06064		1.769451	5.848131	-115.384011
06065		1.279137	5.895995	-114.825397
06066		0.856986	5.923490	-114.258970
06067		0.537567	5.908349	-113.682121
06068		0.285214	5.849665	-113.078716
06069		0.072171	5.761563	-112.454108
06070		-0.131266	5.647913	-111.807233
06071		-0.302707	5.520569	-111.130508
06072		-0.462761	5.396537	-110.425678
06073		-0.618369	5.270325	-109.711332
06074		-0.792472	5.152653	-108.984470
06075		-0.971726	5.044864	-108.264081
06076		-1.163890	4.952347	-107.549561
06077		-1.334860	4.877097	-106.839201
06078		-1.462967	4.808706	-106.122636
06079		-1.546528	4.738596	-105.409669
06080		-1.602317	4.636742	-104.678593
06081		-1.632835	4.522476	-103.926276
06082		-1.682057	4.402289	-103.154284
06083		-1.731193	4.277627	-102.364159
06084		-1.804868	4.176235	-101.553077
06085		-1.895036	4.088314	-100.749869
06086		-1.936501	4.013609	-99.942426
06087		-1.895570	3.953063	-99.140771
06088		-1.818065	3.895130	-98.356850
06089		-1.682804	3.832207	-97.601224
06090		-1.531980	3.757997	-96.875709
06091		-1.404580	3.689111	-96.180778
06092		-1.357470	3.646323	-95.511311
06093		-1.365996	3.626737	-94.857741
06094		-1.399927	3.606596	-94.210045
06095		-1.469796	3.581884	-93.572229
06096		-1.542600	3.514152	-92.936072
06097		-1.576659	3.395194	-92.282716
06098		-1.596334	3.230878	-91.616558
06099		-1.610044	3.044582	-90.959470
06100		-1.585708	2.861040	-90.297835
06101		-1.526330	2.696479	-89.627057
06102		-1.496532	2.557001	-88.957331
06103		-1.466263	2.433958	-88.288967
06104		-1.423455	2.335851	-87.617368
06105		-1.397949	2.261736	-86.957989
06106		-1.406054	2.190049	-86.316594
06107		-1.396204	2.114848	-85.688377
06108		-1.356662	2.065368	-85.055497
06109		-1.309483	2.046002	-84.420919
06110		-1.271256	2.016310	-83.777371
06111		-1.232073	1.954743	-83.103420
06112		-1.227117	1.892442	-82.399553
06113		-1.300802	1.829639	-81.704147
06114		-1.399683	1.750324	-81.033592
06115		-1.477148	1.665087	-80.382470
06116		-1.565951	1.609145	-79.735181
06117		-1.668845	1.594796	-79.092910
06118		-1.762032	1.598262	-78.456640
06119		-1.778481	1.599323	-77.818241
06120		-1.744364	1.598300	-77.166187
06121		-1.727644	1.592761	-76.520855
06122		-1.803943	1.564134	-75.881971
06123		-2.032173	1.552197	-75.256342
06124		-2.407222	1.541978	-74.657304
06125		-2.850092	1.517973	-74.094945
06126		-3.332082	1.463456	-73.558093
06127		-3.866324	1.397617	-73.042777
06128		-4.499317	1.343341	-72.551785
06129		-5.228301	1.310113	-72.088385
06130		-5.967381	1.328804	-71.631566
06131		-6.558233	1.349861	-71.172475
06132		-6.955523	1.334151	-70.713714
06133		-7.152629	1.269301	-70.261017
06134		-7.214090	1.143420	-69.808496
06135		-7.249442	1.008302	-69.344325
06136		-7.333541	0.901287	-68.871038
06137		-7.403808	0.806168	-68.392537
06138		-7.399550	0.722479	-67.915068
06139		-7.313186	0.658448	-67.426180
06140		-7.183720	0.623933	-66.932527
06141		-7.071553	0.629207	-66.446365
06142		-6.972077	0.663863	-65.978182
06143		-6.813141	0.731178	-65.529388
06144		-6.496910	0.837370	-65.074139
06145		-5.916857	0.982287	-64.582191
06146		-5.096437	1.144385	-64.051431
06147		-4.188039	1.302162	-63.495818
06148		-3.372045	1.436474	-62.939648
06149		-2.867245	1.572535	-62.419879
06150		-2.733902	1.715775	-61.949535
06151		-2.808077	1.842874	-61.513334
06152		-2.926157	1.956040	-61.085232
06153		-2.947465	2.071522	-60.653177
06154		-2.816624	2.172665	-60.216518
06155		-2.583609	2.226822	-59.798278
06156		-2.360669	2.237485	-59.400209
06157		-2.203672	2.235144	-59.003519
06158		-2.116509	2.232227	-58.597482
06159		-2.067693	2.230688	-58.184066
06160		-2.072185	2.236583	-57.779356
06161		-2.109028	2.236090	-57.389557
06162		-2.145148	2.219656	-57.011733
06163		-2.223032	2.202012	-56.645452
06164		-2.317736	2.191317	-56.297481
06165		-2.399665	2.175515	-55.956338
06166		-2.457769	2.159538	-55.617789
06167		-2.458076	2.142096	-55.278647
06168		-2.381219	2.106154	-54.937626
06169		-2.273764	2.053147	-54.600963
06170		-2.218900	1.985903	-54.268261
06171		-2.200760	1.921172	-53.945178
06172		-2.238685	1.906769	-53.616462
06173		-2.321650	1.948766	-53.271058
06174		-2.424025	2.026732	-52.903822
06175		-2.480270	2.126988	-52.510064
06176		-2.430478	2.218442	-52.115622
06177		-2.328872	2.269189	-51.748737
06178		-2.244414	2.285562	-51.419398
06179		-2.226337	2.294383	-51.127605
06180		-2.300103	2.327891	-50.853806
06181		-2.425225	2.393635	-50.586267
06182		-2.535328	2.491941	-50.312317
06183		-2.583674	2.612242	-50.027437
06184		-2.560014	2.737162	-49.726731
06185		-2.521421	2.836057	-49.431779
06186		-2.538980	2.896785	-49.158500
06187		-2.610662	2.945766	-48.914096
06188		-2.757643	3.013305	-48.697747
06189		-2.908396	3.096533	-48.496776
06190		-3.011892	3.192210	-48.298339
06191		-3.032939	3.286124	-48.084724
06192		-2.956417	3.377154	-47.848539
06193		-2.858985	3.459176	-47.599220
06194		-2.831052	3.518160	-47.364844
06195		-2.864727	3.550515	-47.150904
06196		-2.935208	3.593662	-46.948246
06197		-3.045941	3.656741	-46.759693
06198		-3.122441	3.732450	-46.580680
06199		-3.165217	3.819962	-46.405583
06200		-3.209741	3.915460	-46.231148
06201		-3.255210	4.035767	-46.035170
06202		-3.353340	4.163204	-45.838976
06203		-3.553069	4.292634	-45.670788
06204		-3.797497	4.429750	-45.522397
06205		-3.983503	4.551687	-45.388140
06206		-4.105990	4.644116	-45.264830
06207		-4.222206	4.724402	-45.150732
06208		-4.287700	4.799646	-45.046096
06209		-4.302218	4.839385	-44.948823
06210		-4.356172	4.883703	-44.855473
06211		-4.441696	4.939816	-44.772597
06212		-4.582000	4.999823	-44.697718
06213		-4.788680	5.082702	-44.628729
06214		-4.956413	5.180809	-44.556020
06215		-5.018118	5.263409	-44.465574
06216		-4.976498	5.311809	-44.366160
06217		-4.876005	5.304648	-44.261022
06218		-4.769022	5.254674	-44.170696
06219		-4.706488	5.197649	-44.105362
06220		-4.670149	5.143558	-44.058730
06221		-4.637850	5.105210	-44.017769
06222		-4.607942	5.072119	-43.978722
06223		-4.579342	5.049361	-43.936280
06224		-4.565377	5.033635	-43.897407
06225		-4.548793	5.022866	-43.866891
06226		-4.505746	5.008165	-43.842474
06227		-4.469788	4.999895	-43.830418
06228		-4.449756	4.995714	-43.830338
06229		-4.430160	4.990747	-43.836306
06230		-4.427779	4.967836	-43.849201
06231		-4.432988	4.932375	-43.873492
06232		-4.431589	4.892605	-43.903542
06233		-4.464703	4.865498	-43.938740
06234		-4.517199	4.860188	-43.978292
06235		-4.558585	4.870103	-44.020355
06236		-4.596461	4.901620	-44.065290
06237		-4.645005	4.951521	-44.112172
06238		-4.670986	5.016517	-44.157546
06239		-4.661179	5.075464	-44.204805
06240		-4.608481	5.109626	-44.255299
06241		-4.550539	5.122224	-44.314717
06242		-4.524260	5.121546	-44.381955
06243		-4.508693	5.106705	-44.451471
06244		-4.511569	5.090688	-44.515880
06245		-4.560703	5.090249	-44.582548
06246		-4.630648	5.101487	-44.655562
06247		-4.705162	5.124042	-44.734691
06248		-4.793935	5.151622	-44.822361
06249		-4.901367	5.170897	-44.920051
06250		-5.008898	5.185891	-45.029552
06251		-5.107146	5.204626	-45.149775
06252		-5.177500	5.226789	-45.279675
06253		-5.212819	5.250886	-45.413499
06254		-5.199124	5.271275	-45.550090
06255		-5.123545	5.285764	-45.683211
06256		-5.010372	5.299040	-45.815870
06257		-4.913748	5.314456	-45.952792
06258		-4.868848	5.330225	-46.094963
06259		-4.904036	5.347214	-46.247765
06260		-4.969672	5.354369	-46.412376
06261		-4.993961	5.353268	-46.582215
06262		-4.941331	5.349163	-46.752070
06263		-4.889680	5.334241	-46.941199
06264		-4.891932	5.300698	-47.157636
06265		-4.945773	5.261189	-47.398269
06266		-5.021765	5.235674	-47.647787
06267		-5.107251	5.229626	-47.898671
06268		-5.183441	5.238114	-48.153698
06269		-5.247788	5.258797	-48.409778
06270		-5.316300	5.276471	-48.677338
06271		-5.414680	5.282283	-48.959658
06272		-5.557290	5.286706	-49.259808
06273		-5.753801	5.297754	-49.581383
06274		-5.941518	5.336288	-49.928422
06275		-6.071769	5.384825	-50.285561
06276		-6.140723	5.443484	-50.633134
06277		-6.201115	5.502857	-50.977328
06278		-6.282959	5.571219	-51.318809
06279		-6.354440	5.627747	-51.657389
06280		-6.393949	5.674015	-52.000771
06281		-6.419214	5.700717	-52.346468
06282		-6.448325	5.726398	-52.701796
06283		-6.495014	5.746978	-53.061098
06284		-6.524781	5.758926	-53.427571
06285		-6.524430	5.772603	-53.796372
06286		-6.481642	5.786246	-54.171140
06287		-6.399317	5.790191	-54.547818
06288		-6.300118	5.779231	-54.928800
06289		-6.269107	5.761585	-55.324339
06290		-6.298505	5.747708	-55.737737
06291		-6.325974	5.747951	-56.153493
06292		-6.306824	5.752582	-56.571576
06293		-6.275994	5.749909	-56.995778
06294		-6.243476	5.730616	-57.428206
06295		-6.221141	5.697293	-57.868670
06296		-6.200259	5.651534	-58.322920
06297		-6.148099	5.608003	-58.789710
06298		-6.028972	5.567029	-59.260757
06299		-5.916202	5.517913	-59.746636
06300		-5.890910	5.465808	-60.254343
06301		-5.940239	5.420934	-60.776058
06302		-5.976577	5.388730	-61.303207
06303		-5.955133	5.367466	-61.828761
06304		-5.866961	5.348033	-62.350894
06305		-5.728105	5.324738	-62.874649
06306		-5.569550	5.285891	-63.413894
06307		-5.452658	5.241515	-63.978397
06308		-5.378671	5.193548	-64.562806
06309		-5.333120	5.150473	-65.157360
06310		-5.286194	5.115075	-65.760220
06311		-5.227986	5.073662	-66.366128
06312		-5.195527	5.013305	-66.976227
06313		-5.249255	4.929082	-67.602151
06314		-5.369007	4.840185	-68.245278
06315		-5.514224	4.763251	-68.901825
06316		-5.652445	4.712200	-69.574385
06317		-5.778922	4.658259	-70.259152
06318		-5.942830	4.598892	-70.964343
06319		-6.247383	4.512193	-71.690117
06320		-6.715072	4.402496	-72.442721
06321		-7.271428	4.300397	-73.208404
06322		-7.757054	4.227857	-73.973860
06323		-8.070800	4.183251	-74.746097
06324		-8.246113	4.157217	-75.547956
06325		-8.379618	4.143110	-76.375420
06326		-8.564863	4.148294	-77.222731
06327		-8.849226	4.184310	-78.085079
06328		-9.139262	4.236833	-78.951404
06329		-9.341280	4.299894	-79.799829
06330		-9.474437	4.373758	-80.628037
06331		-9.597187	4.433717	-81.436446
06332		-9.713834	4.475735	-82.226554
06333		-9.831318	4.502495	-82.991368
06334		-9.913471	4.519501	-83.743644
06335		-9.964800	4.531822	-84.488189
06336		-9.976826	4.537543	-85.237615
06337		-10.001674	4.541142	-85.991739
06338		-10.052455	4.570156	-86.741486
06339		-10.105561	4.619402	-87.486583
06340		-10.106427	4.667189	-88.224981
06341		-10.028093	4.715998	-88.938997
06342		-9.877505	4.752854	-89.637178
06343		-9.693862	4.774774	-90.321323
06344		-9.497255	4.774741	-91.009421
06345		-9.352465	4.766524	-91.696268
06346		-9.229530	4.770781	-92.382572
06347		-9.076821	4.790791	-93.050427
06348		-8.885467	4.830676	-93.710499
06349		-8.674880	4.893073	-94.354911
06350		-8.411679	4.977222	-94.985551
06351		-8.125375	5.070122	-95.619354
06352		-7.862943	5.153257	-96.275662
06353		-7.661909	5.237777	-96.946518
06354		-7.447378	5.336884	-97.617982
06355		-7.238997	5.461306	-98.272380
06356		-7.103823	5.614098	-98.923042
06357		-7.061731	5.781425	-99.577009
06358		-7.057503	5.959039	-100.228932
06359		-7.039704	6.129641	-100.861490
06360		-6.969133	6.272044	-101.488240
06361		-6.907188	6.375264	-102.112320
06362		-6.838581	6.438067	-102.737994
06363		-6.792788	6.478110	-103.365379
06364		-6.768087	6.509958	-103.999550
06365		-6.758895	6.549085	-104.629132
06366		-6.744780	6.605366	-105.250530
06367		-6.731224	6.685587	-105.868000
06368		-6.697675	6.774640	-106.486574
06369		-6.644973	6.860516	-107.105442
06370		-6.578229	6.944458	-107.727990
06371		-6.504075	7.033083	-108.348600
06372		-6.408704	7.115184	-108.971658
06373		-6.331101	7.204762	-109.589882
06374		-6.241054	7.292492	-110.194373
06375		-6.105555	7.379154	-110.773169
06376		-5.936847	7.461641	-111.345554
06377		-5.780866	7.538602	-111.919796
06378		-5.627755	7.607383	-112.488317
06379		-5.467316	7.685207	-113.042541
06380		-5.340769	7.774974	-113.598412
06381		-5.242653	7.868636	-114.151472
06382		-5.116302	7.954248	-114.690402
06383		-4.972722	8.044894	-115.216838
06384		-4.823985	8.135073	-115.750687
06385		-4.640007	8.213345	-116.282247
06386		-4.407145	8.274287	-116.801880
06387		-4.204035	8.353072	-117.321672
06388		-4.065793	8.460728	-117.847102
06389		-3.964836	8.566735	-118.370752
06390		-3.894763	8.693759	-118.899232
06391		-3.848746	8.817544	-119.435493
06392		-3.789111	8.932777	-119.963994
06393		-3.754665	9.059524	-120.482722
06394		-3.792476	9.190918	-121.012083
06395		-3.868326	9.318303	-121.542391
06396		-3.952751	9.442284	-122.062854
06397		-4.059912	9.552715	-122.575855
06398		-4.212102	9.643527	-123.087588
06399		-4.413809	9.711886	-123.589231
06400		-4.597714	9.782310	-124.064802
06401		-4.738769	9.881254	-124.524455
06402		-4.840758	9.993848	-124.980129
06403		-4.892436	10.116482	-125.418852
06404		-4.937136	10.250566	-125.831804
06405		-4.996236	10.388251	-126.207002
06406		-5.050169	10.521944	-126.547471
06407		-5.079131	10.636042	-126.855238
06408		-5.037443	10.721019	-127.129223
06409		-4.918107	10.780976	-127.373770
06410		-4.753780	10.809950	-127.606397
06411		-4.601514	10.811890	-127.843602
06412		-4.480664	10.786290	-128.091154
06413		-4.414395	10.755055	-128.345560
06414		-4.398946	10.737194	-128.606685
06415		-4.415617	10.745721	-128.867914
06416		-4.420703	10.772764	-129.123342
06417		-4.406295	10.804688	-129.372847
06418		-4.354513	10.818659	-129.610283
06419		-4.270257	10.809839	-129.837763
06420		-4.177895	10.775461	-130.071060
06421		-4.101073	10.728548	-130.311992
06422		-4.054390	10.688239	-130.563572
06423		-4.053044	10.661462	-130.829337
06424		-4.051332	10.647914	-131.096399
06425		-4.015398	10.645948	-131.361633
06426		-3.951166	10.642155	-131.623927
06427		-3.899102	10.650153	-131.884620
06428		-3.891658	10.676838	-132.150215
06429		-3.886907	10.720544	-132.415748
06430		-3.841329	10.775376	-132.685631
06431		-3.774365	10.828050	-132.969336
06432		-3.707955	10.877886	-133.264354
06433		-3.675502	10.937863	-133.564491
06434		-3.664375	11.010044	-133.848134
06435		-3.658588	11.110528	-134.101732
06436		-3.644357	11.234828	-134.320180
06437		-3.608573	11.359050	-134.507208
06438		-3.561884	11.453473	-134.663713
06439		-3.479266	11.570950	-134.787123
06440		-3.358105	11.646693	-134.883250
06441		-3.198675	11.703542	-134.967892
06442		-3.041245	11.728268	-135.055644
06443		-2.912628	11.740144	-135.151312
06444		-2.831356	11.768202	-135.243841
06445		-2.786840	11.842161	-135.321919
06446		-2.767694	11.952007	-135.395964
06447		-2.750394	12.079025	-135.470274
06448		-2.739052	12.192999	-135.529623
06449		-2.744292	12.288289	-135.579993
06450		-2.762676	12.358709	-135.627903
06451		-2.744697	12.396684	-135.675540
06452		-2.664580	12.388612	-135.717352
06453		-2.563648	12.355113	-135.759237
06454		-2.494656	12.333918	-135.792919
06455		-2.453307	12.341942	-135.829485
06456		-2.444782	12.370547	-135.872590
06457		-2.453875	12.417783	-135.923331
06458		-2.476248	12.466527	-135.975257
06459		-2.485219	12.517671	-136.029511
06460		-2.479854	12.573952	-136.080097
06461		-2.483178	12.624888	-136.130681
06462		-2.489429	12.664899	-136.174693
06463		-2.500966	12.687950	-136.209147
06464		-2.481804	12.700052	-136.234343
06465		-2.402908	12.696631	-136.246311
06466		-2.294736	12.676405	-136.251193
06467		-2.177133	12.646510	-136.249746
06468		-2.052242	12.619410	-136.235367
06469		-1.936048	12.598126	-136.217233
06470		-1.860129	12.580919	-136.204190
06471		-1.831173	12.580254	-136.192848
06472		-1.829949	12.602479	-136.170714
06473		-1.831612	12.639357	-136.144981
06474		-1.808020	12.680514	-136.106491
06475		-1.776684	12.715779	-136.068136
06476		-1.738917	12.727285	-136.023114
06477		-1.667781	12.723471	-135.971420
06478		-1.608604	12.711016	-135.916433
06479		-1.572861	12.708972	-135.858962
06480		-1.540872	12.728970	-135.797449
06481		-1.494962	12.764329	-135.729811
06482		-1.441599	12.803320	-135.657521
06483		-1.392867	12.841599	-135.585215
06484		-1.355477	12.877303	-135.506229
06485		-1.311631	12.916463	-135.413264
06486		-1.251963	12.942381	-135.300809
06487		-1.195219	12.949592	-135.174187
06488		-1.159668	12.943612	-135.033447
06489		-1.121926	12.919003	-134.868279
06490		-1.089684	12.889898	-134.681811
06491		-1.045312	12.854906	-134.480958
06492		-0.998060	12.828656	-134.268719
06493		-0.945528	12.813275	-134.048009
06494		-0.896547	12.803628	-133.816538
06495		-0.844590	12.795033	-133.572040
06496		-0.791790	12.778053	-133.314414
06497		-0.749991	12.758503	-133.038416
06498		-0.714110	12.724168	-132.740322
06499		-0.670234	12.686084	-132.414481
06500		-0.594180	12.630509	-132.058817
06501		-0.494507	12.554695	-131.686824
06502		-0.423332	12.463051	-131.304516
06503		-0.388158	12.361985	-130.923154
06504		-0.404391	12.257174	-130.540922
06505		-0.449764	12.175277	-130.151711
06506		-0.489387	12.110352	-129.749436
06507		-0.477840	12.075078	-129.341165
06508		-0.411202	12.041852	-128.926304
06509		-0.263074	12.031488	-128.497431
06510		-0.092780	12.021961	-128.054503
06511		0.078690	12.010198	-127.600453
06512		0.235325	11.972461	-127.127357
06513		0.359270	11.901800	-126.636919
06514		0.432135	11.798285	-126.114904
06515		0.493143	11.678717	-125.560088
06516		0.563060	11.553455	-124.981046
06517		0.657599	11.403420	-124.400421
06518		0.738929	11.241673	-123.816591
06519		0.810427	11.094290	-123.229396
06520		0.869954	10.943948	-122.638772
06521		0.918536	10.811309	-122.048890
06522		0.920000	10.702395	-121.447422
06523		0.896819	10.614130	-120.828220
06524		0.833771	10.537026	-120.195839
06525		0.741507	10.442688	-119.555006
06526		0.653085	10.329232	-118.891321
06527		0.556129	10.196329	-118.226380
06528		0.471725	10.039289	-117.548349
06529		0.431391	9.852004	-116.857782
06530		0.380463	9.671461	-116.151908
06531		0.312485	9.493975	-115.442386
06532		0.237360	9.314857	-114.721920
06533		0.123147	9.147155	-113.999393
06534		-0.030118	8.983558	-113.268822
06535		-0.162341	8.814928	-112.530027
06536		-0.279011	8.626217	-111.773242
06537		-0.408812	8.446535	-111.004155
06538		-0.553612	8.266494	-110.242646
06539		-0.645578	8.092929	-109.491009
06540		-0.723118	7.924576	-108.755428
06541		-0.804846	7.766487	-108.045283
06542		-0.871518	7.614738	-107.344457
06543		-0.882488	7.465510	-106.635186
06544		-0.846242	7.321482	-105.894799
06545		-0.812355	7.196431	-105.133987
06546		-0.815552	7.078198	-104.363743
06547		-0.816861	6.970258	-103.596050
06548		-0.815113	6.870600	-102.832142
06549		-0.755141	6.766744	-102.077652
06550		-0.670790	6.657514	-101.321910
06551		-0.610200	6.549521	-100.579778
06552		-0.564929	6.440699	-99.844671
06553		-0.484679	6.320570	-99.114929
06554		-0.429185	6.208394	-98.382151
06555		-0.394532	6.110072	-97.636291
06556		-0.352771	6.009942	-96.862941
06557		-0.317412	5.908751	-96.083030
06558		-0.358326	5.796736	-95.329972
06559		-0.396156	5.668265	-94.595925
06560		-0.409020	5.538976	-93.859576
06561		-0.400847	5.420631	-93.134379
06562		-0.376023	5.325347	-92.418812
06563		-0.294124	5.261253	-91.706252
06564		-0.191571	5.227109	-90.999767
06565		-0.113241	5.218168	-90.307564
06566		-0.098855	5.213365	-89.618101
06567		-0.158484	5.211911	-88.923904
06568		-0.249553	5.211156	-88.222334
06569		-0.316572	5.199393	-87.518312
06570		-0.330076	5.178275	-86.798674
06571		-0.277963	5.153583	-86.078305
06572		-0.170261	5.112445	-85.363720
06573		-0.012236	5.056498	-84.660344
06574		0.117749	5.003211	-83.971991
06575		0.158327	4.978493	-83.307905
06576		0.099803	4.987422	-82.654826
06577		0.008722	5.019650	-82.013579
06578		-0.063745	5.037649	-81.373882
06579		-0.074782	5.028690	-80.730991
06580		-0.050938	4.990066	-80.087347
06581		0.022477	4.913395	-79.446867
06582		0.117506	4.808571	-78.841736
06583		0.196533	4.701148	-78.271252
06584		0.217840	4.605334	-77.723677
06585		0.182079	4.534342	-77.192186
06586		0.082379	4.503757	-76.668540
06587		-0.061948	4.498926	-76.150221
06588		-0.208839	4.506186	-75.647324
06589		-0.309766	4.507574	-75.149567
06590		-0.387608	4.505152	-74.657624
06591		-0.442375	4.500367	-74.180769
06592		-0.482176	4.483408	-73.717663
06593		-0.500925	4.461324	-73.268363
06594		-0.503353	4.453444	-72.820927
06595		-0.493231	4.454795	-72.377388
06596		-0.526241	4.470290	-71.940706
06597		-0.641395	4.494071	-71.511317
06598		-0.790274	4.517802	-71.080024
06599		-0.915698	4.530601	-70.646998
06600		-0.992754	4.531499	-70.201659
06601		-1.015616	4.532001	-69.756674
06602		-1.042292	4.538700	-69.315518
06603		-1.109873	4.561438	-68.895669
06604		-1.143380	4.585700	-68.480005
06605		-1.082743	4.606072	-68.060411
06606		-1.004754	4.630901	-67.637003
06607		-0.966070	4.663369	-67.206509
06608		-1.000590	4.702648	-66.769360
06609		-1.084500	4.743819	-66.332458
06610		-1.161162	4.790283	-65.889492
06611		-1.215900	4.856009	-65.464840
06612		-1.231922	4.923809	-65.060569
06613		-1.161782	4.969663	-64.670623
06614		-1.045786	4.984721	-64.290466
06615		-0.925723	4.975211	-63.914575
06616		-0.861713	4.956163	-63.538886
06617		-0.878901	4.948211	-63.178335
06618		-0.977458	4.954744	-62.843121
06619		-1.102125	4.985078	-62.518095
06620		-1.182723	5.017494	-62.188808
06621		-1.215021	5.041640	-61.853338
06622		-1.223354	5.058164	-61.519496
06623		-1.237070	5.073650	-61.196767
06624		-1.249765	5.074080	-60.885867
06625		-1.268575	5.081044	-60.588312
06626		-1.318373	5.108511	-60.303902
06627		-1.360208	5.152854	-60.026534
06628		-1.359769	5.191196	-59.732602
06629		-1.349403	5.224414	-59.430175
06630		-1.396466	5.253571	-59.137052
06631		-1.475430	5.284112	-58.844129
06632		-1.548331	5.304044	-58.546792
06633		-1.586837	5.320034	-58.248608
06634		-1.596620	5.333001	-57.945018
06635		-1.610903	5.368040	-57.644929
06636		-1.672855	5.407956	-57.361989
06637		-1.758326	5.453163	-57.087537
06638		-1.854782	5.499639	-56.807606
06639		-1.927090	5.546805	-56.508803
06640		-1.940446	5.593658	-56.177163
06641		-1.929839	5.633247	-55.829178
06642		-1.959116	5.664330	-55.499373
06643		-2.014399	5.691118	-55.191633
06644		-2.104845	5.733184	-54.908365
06645		-2.175645	5.796781	-54.624256
06646		-2.197703	5.868162	-54.324786
06647		-2.203346	5.940023	-54.018284
06648		-2.199057	6.006044	-53.698621
06649		-2.181336	6.052464	-53.376538
06650		-2.163398	6.071174	-53.065581
06651		-2.182135	6.070779	-52.772950
06652		-2.260692	6.080114	-52.500293
06653		-2.357112	6.101923	-52.237656
06654		-2.423749	6.131447	-51.978216
06655		-2.460363	6.153638	-51.721929
06656		-2.474133	6.173910	-51.460054
06657		-2.494202	6.186216	-51.198688
06658		-2.523932	6.199546	-50.948980
06659		-2.507219	6.204081	-50.714981
06660		-2.451388	6.196375	-50.505183
06661		-2.400268	6.190259	-50.310896
06662		-2.354769	6.188575	-50.119222
06663		-2.337600	6.182620	-49.931567
06664		-2.360286	6.175452	-49.752188
06665		-2.390939	6.165986	-49.572660
06666		-2.425760	6.156196	-49.399789
06667		-2.464059	6.157834	-49.231916
06668		-2.468025	6.159505	-49.059855
06669		-2.441927	6.153796	-48.885257
06670		-2.428375	6.126069	-48.718724
06671		-2.462021	6.093833	-48.564433
06672		-2.536969	6.073479	-48.423766
06673		-2.635054	6.072929	-48.298237
06674		-2.746222	6.097127	-48.184228
06675		-2.838872	6.137716	-48.077641
06676		-2.895631	6.182347	-47.969276
06677		-2.925619	6.216803	-47.856606
06678		-2.930603	6.233018	-47.745430
06679		-2.938580	6.236829	-47.643451
06680		-2.974163	6.238269	-47.545512
06681		-3.023276	6.242427	-47.452089
06682		-3.097910	6.261410	-47.364058
06683		-3.196001	6.301821	-47.282995
06684		-3.263119	6.343233	-47.202700
06685		-3.279595	6.378439	-47.125551
06686		-3.276478	6.409535	-47.052659
06687		-3.316420	6.441924	-46.993880
06688		-3.403047	6.475625	-46.942498
06689		-3.462696	6.506219	-46.895554
06690		-3.467770	6.536308	-46.849341
06691		-3.479039	6.570736	-46.807225
06692		-3.512289	6.596757	-46.778150
06693		-3.556173	6.606714	-46.757697
06694		-3.605120	6.616330	-46.742283
06695		-3.666766	6.632842	-46.739055
06696		-3.731531	6.650237	-46.741914
06697		-3.782419	6.676743	-46.747315
06698		-3.794941	6.699504	-46.750640
06699		-3.787105	6.707267	-46.762271
06700		-3.770071	6.703897	-46.786929
06701		-3.800941	6.717170	-46.830431
06702		-3.870776	6.749455	-46.892681
06703		-3.911471	6.786839	-46.962988
06704		-3.921163	6.828198	-47.029910
06705		-3.938395	6.870416	-47.098040
06706		-3.957372	6.906983	-47.173812
06707		-3.950068	6.927809	-47.251012
06708		-3.966673	6.953877	-47.330526
06709		-4.025556	6.982872	-47.420154
06710		-4.077859	7.003946	-47.515519
06711		-4.097369	7.008292	-47.606620
06712		-4.113214	7.016037	-47.706994
06713		-4.158250	7.030388	-47.823031
06714		-4.201505	7.048610	-47.948598
06715		-4.194864	7.056669	-48.071278
06716		-4.172673	7.073980	-48.195702
06717		-4.203220	7.115199	-48.338560
06718		-4.234191	7.165006	-48.490671
06719		-4.208779	7.195239	-48.638089
06720		-4.192210	7.204181	-48.782847
06721		-4.258181	7.213880	-48.939577
06722		-4.331897	7.216288	-49.100642
06723		-4.342870	7.201103	-49.253674
06724		-4.311885	7.179393	-49.404929
06725		-4.322862	7.166516	-49.570860
06726		-4.345122	7.153352	-49.746908
06727		-4.343451	7.135270	-49.919570
06728		-4.341548	7.129129	-50.099011
06729		-4.348154	7.130394	-50.290040
06730		-4.322289	7.130639	-50.482154
06731		-4.298595	7.113507	-50.671809
06732		-4.295271	7.083481	-50.863130
06733		-4.278476	7.042398	-51.057902
06734		-4.241769	7.001123	-51.263910
06735		-4.211436	6.971724	-51.485301
06736		-4.149475	6.944332	-51.721335
06737		-4.089316	6.910467	-51.964215
06738		-4.087246	6.868772	-52.229325
06739		-4.092658	6.832684	-52.506085
06740		-4.076331	6.796872	-52.780068
06741		-4.043027	6.762552	-53.059079
06742		-3.993999	6.725916	-53.347776
06743		-3.966132	6.690508	-53.652778
06744		-3.962711	6.669574	-53.973648
06745		-3.966076	6.651808	-54.310235
06746		-3.943604	6.630498	-54.659520
06747		-3.888957	6.594814	-55.020494
06748		-3.837693	6.551429	-55.388739
06749		-3.833557	6.521338	-55.765198
06750		-3.848554	6.504855	-56.147248
06751		-3.871995	6.504440	-56.529160
06752		-3.888841	6.515455	-56.916180
06753		-3.881741	6.525071	-57.304425
06754		-3.851506	6.527435	-57.695983
06755		-3.852822	6.515468	-58.102481
06756		-3.869685	6.495174	-58.524258
06757		-3.857526	6.472069	-58.949899
06758		-3.785479	6.449031	-59.379214
06759		-3.705718	6.424803	-59.814803
06760		-3.627980	6.400206	-60.258425
06761		-3.573968	6.382466	-60.713128
06762		-3.556216	6.392079	-61.175597
06763		-3.561368	6.419982	-61.646075
06764		-3.535222	6.453341	-62.119544
06765		-3.512834	6.475952	-62.605807
06766		-3.509301	6.490046	-63.112047
06767		-3.503576	6.498234	-63.625354
06768		-3.472497	6.502401	-64.138919
06769		-3.445656	6.507324	-64.665396
06770		-3.425042	6.509198	-65.206849
06771		-3.427495	6.512593	-65.764899
06772		-3.434407	6.521940	-66.349913
06773		-3.441850	6.553958	-66.951425
06774		-3.426593	6.599477	-67.559253
06775		-3.387307	6.649220	-68.158703
06776		-3.323852	6.699408	-68.752723
06777		-3.268512	6.726158	-69.345109
06778		-3.218215	6.722377	-69.941201
06779		-3.177543	6.710691	-70.554795
06780		-3.145146	6.715598	-71.191483
06781		-3.125457	6.743981	-71.842307
06782		-3.116468	6.781422	-72.506709
06783		-3.147995	6.829910	-73.177878
06784		-3.187511	6.876523	-73.856226
06785		-3.203435	6.906584	-74.531483
06786		-3.180075	6.920788	-75.213751
06787		-3.134760	6.924436	-75.896340
06788		-3.065595	6.933226	-76.579389
06789		-2.976418	6.925713	-77.266179
06790		-2.896272	6.898132	-77.978423
06791		-2.876126	6.883122	-78.715952
06792		-2.870628	6.915274	-79.459840
06793		-2.869729	6.978106	-80.190875
06794		-2.889172	7.044625	-80.918736
06795		-2.920034	7.088052	-81.638290
06796		-2.897816	7.099413	-82.346295
06797		-2.831429	7.074148	-83.042909
06798		-2.763582	7.023985	-83.747181
06799		-2.739456	6.960349	-84.456657
06800		-2.828638	6.895937	-85.188151
06801		-3.049670	6.868089	-85.940224
06802		-3.250444	6.852223	-86.688750
06803		-3.413693	6.854881	-87.416606
06804		-3.515778	6.864583	-88.134361
06805		-3.550805	6.872199	-88.834494
06806		-3.516400	6.880392	-89.520525
06807		-3.440040	6.884677	-90.199161
06808		-3.371878	6.878831	-90.884854
06809		-3.314346	6.861726	-91.563975
06810		-3.248186	6.844807	-92.250212
06811		-3.173334	6.829907	-92.934669
06812		-3.094017	6.832804	-93.615832
06813		-3.061620	6.861578	-94.288423
06814		-3.052574	6.902562	-94.957362
06815		-3.039046	6.940687	-95.622932
06816		-3.010708	6.981247	-96.280778
06817		-2.937627	7.040909	-96.923362
06818		-2.830534	7.093763	-97.574874
06819		-2.733485	7.141391	-98.229287
06820		-2.675559	7.186017	-98.885257
06821		-2.692802	7.242486	-99.527522
06822		-2.724472	7.309928	-100.157458
06823		-2.709104	7.365353	-100.774446
06824		-2.652751	7.415623	-101.387682
06825		-2.618747	7.473511	-101.996132
06826		-2.617642	7.540113	-102.606225
06827		-2.607868	7.594194	-103.214520
06828		-2.599278	7.645591	-103.836857
06829		-2.643958	7.705743	-104.470925
06830		-2.722891	7.781897	-105.091668
06831		-2.813477	7.889230	-105.674232
06832		-2.865362	8.021640	-106.223298
06833		-2.868370	8.144059	-106.737871
06834		-2.776136	8.249205	-107.214777
06835		-2.668512	8.331358	-107.680439
06836		-2.614526	8.403551	-108.145446
06837		-2.570971	8.471297	-108.587282
06838		-2.532451	8.523787	-109.024386
06839		-2.507082	8.562624	-109.443072
06840		-2.435315	8.594799	-109.823673
06841		-2.308286	8.632496	-110.142609
06842		-2.136773	8.687926	-110.410743
06843		-1.957229	8.750819	-110.656714
06844		-1.761951	8.811079	-110.900741
06845		-1.536116	8.869013	-111.142059
06846		-1.305428	8.930745	-111.390371
06847		-1.090559	9.000288	-111.640257
06848		-0.876749	9.078545	-111.882045
06849		-0.660489	9.160485	-112.108891
06850		-0.419826	9.223299	-112.325010
06851		-0.135640	9.271110	-112.541684
06852		0.140711	9.310855	-112.766499
06853		0.406696	9.370585	-112.995072
06854		0.621809	9.445948	-113.251862
06855		0.788484	9.522775	-113.538774
06856		0.926345	9.606649	-113.847120
06857		1.004438	9.707404	-114.147909
06858		1.045192	9.840260	-114.428718
06859		1.066593	9.965064	-114.703697
06860		1.087449	10.063818	-114.967578
06861		1.088247	10.144784	-115.221543
06862		1.087581	10.215795	-115.476801
06863		1.116592	10.270958	-115.740242
06864		1.191570	10.316071	-116.007979
06865		1.292708	10.349166	-116.273921
06866		1.400199	10.382770	-116.528263
06867		1.497242	10.427132	-116.773898
06868		1.563128	10.475701	-117.024414
06869		1.606536	10.527289	-117.273878
06870		1.667595	10.594215	-117.504890
06871		1.767644	10.654827	-117.721577
06872		1.885187	10.693524	-117.937714
06873		1.979444	10.729378	-118.149134
06874		2.074237	10.772853	-118.352456
06875		2.181186	10.820161	-118.552727
06876		2.321866	10.857534	-118.741197
06877		2.513809	10.885317	-118.918613
06878		2.753214	10.910061	-119.080760
06879		2.993436	10.936694	-119.240471
06880		3.170897	10.967762	-119.419865
06881		3.242161	11.018980	-119.627612
06882		3.234849	11.091424	-119.858539
06883		3.211692	11.198262	-120.086447
06884		3.227218	11.333157	-120.304735
06885		3.251497	11.466866	-120.514231
06886		3.283493	11.576275	-120.701113
06887		3.292982	11.666772	-120.864738
06888		3.298406	11.725263	-121.031328
06889		3.335929	11.750799	-121.200840
06890		3.419936	11.754274	-121.389503
06891		3.549839	11.750121	-121.576592
06892		3.648362	11.742776	-121.763981
06893		3.703301	11.747842	-121.940518
06894		3.722231	11.778122	-122.100787
06895		3.717197	11.836940	-122.241324
06896		3.749201	11.903572	-122.368069
06897		3.837350	11.962157	-122.488832
06898		3.945348	12.008668	-122.608904
06899		4.064849	12.032052	-122.730163
06900		4.155290	12.041848	-122.857494
06901		4.205492	12.052031	-122.982573
06902		4.225527	12.082461	-123.099087
06903		4.242828	12.121189	-123.210016
06904		4.313295	12.156660	-123.310974
06905		4.422102	12.187257	-123.395854
06906		4.517670	12.224914	-123.470263
06907		4.561192	12.266092	-123.551890
06908		4.520878	12.311800	-123.642985
06909		4.448434	12.359658	-123.723017
06910		4.389140	12.416391	-123.780050
06911		4.342213	12.487330	-123.820376
06912		4.329422	12.554244	-123.854592
06913		4.353032	12.593567	-123.892303
06914		4.368733	12.617027	-123.931208
06915		4.376459	12.632423	-123.964036
06916		4.377986	12.646589	-123.997148
06917		4.374869	12.666438	-124.030675
06918		4.369568	12.684496	-124.054478
06919		4.353839	12.711789	-124.062043
06920		4.324997	12.742938	-124.056808
06921		4.300687	12.767357	-124.049757
06922		4.287363	12.785107	-124.042102
06923		4.282292	12.801822	-124.036853
06924		4.287965	12.819179	-124.020225
06925		4.309405	12.839712	-123.996599
06926		4.329938	12.854913	-123.972571
06927		4.353679	12.860450	-123.945226
06928		4.371843	12.862963	-123.909002
06929		4.357496	12.877409	-123.852123
06930		4.322345	12.886374	-123.780054
06931		4.264217	12.879496	-123.696718
06932		4.198766	12.859493	-123.600901
06933		4.168857	12.829764	-123.488359
06934		4.143819	12.803373	-123.360093
06935		4.118760	12.780848	-123.232612
06936		4.106682	12.747509	-123.097873
06937		4.105402	12.707981	-122.952495
06938		4.093856	12.663499	-122.794345
06939		4.057478	12.627896	-122.629713
06940		4.005067	12.602361	-122.449887
06941		3.961864	12.582236	-122.255560
06942		3.923361	12.551812	-122.045115
06943		3.883043	12.509522	-121.818154
06944		3.829985	12.462664	-121.575904
06945		3.788630	12.413144	-121.324972
06946		3.790072	12.358811	-121.061187
06947		3.804733	12.307585	-120.795850
06948		3.796076	12.253794	-120.524404
06949		3.770010	12.196809	-120.242177
06950		3.732403	12.137567	-119.954325
06951		3.688122	12.075375	-119.664421
06952		3.649430	12.006456	-119.366647
06953		3.628144	11.930248	-119.060057
06954		3.627596	11.846481	-118.735256
06955		3.649584	11.777970	-118.385987
06956		3.656559	11.729065	-118.026598
06957		3.653185	11.677859	-117.662750
06958		3.645572	11.621179	-117.281248
06959		3.646425	11.562157	-116.878899
06960		3.689111	11.498209	-116.457555
06961		3.786838	11.420715	-116.025564
06962		3.888360	11.324212	-115.582702
06963		3.972223	11.227680	-115.120827
06964		4.036653	11.129744	-114.639999
06965		4.107629	11.031983	-114.125499
06966		4.165715	10.957500	-113.568793
06967		4.199583	10.906558	-112.993846
06968		4.223058	10.857307	-112.406080
06969		4.249758	10.814319	-111.809643
06970		4.255633	10.771735	-111.214583
06971		4.271921	10.717641	-110.617593
06972		4.317836	10.668293	-109.999584
06973		4.394024	10.624421	-109.370583
06974		4.507925	10.571428	-108.726509
06975		4.612238	10.517437	-108.080671
06976		4.644398	10.471983	-107.444717
06977		4.652973	10.429400	-106.816181
06978		4.663232	10.391977	-106.179850
06979		4.696578	10.372557	-105.538811
06980		4.782161	10.363551	-104.891056
06981		4.865555	10.344053	-104.261055
06982		4.883435	10.331429	-103.641771
06983		4.869436	10.322779	-103.018026
06984		4.814938	10.319093	-102.393664
06985		4.763908	10.320151	-101.773690
06986		4.742159	10.306800	-101.150035
06987		4.726734	10.293044	-100.524920
06988		4.692136	10.274231	-99.897807
06989		4.618155	10.262711	-99.274765
06990		4.489661	10.270721	-98.669498
06991		4.384103	10.287198	-98.084768
06992		4.326991	10.298157	-97.506625
06993		4.295994	10.296146	-96.938894
06994		4.267416	10.287608	-96.357553
06995		4.224997	10.283393	-95.757987
06996		4.141668	10.284049	-95.141586
06997		4.060978	10.279696	-94.524063
06998		3.938314	10.267884	-93.915600
06999		3.806892	10.249472	-93.312063
07000		3.703984	10.227960	-92.691509
07001		3.624182	10.207897	-92.077568
07002		3.559993	10.186555	-91.472543
07003		3.537689	10.183415	-90.866421
07004		3.525134	10.196984	-90.245332
07005		3.505363	10.216691	-89.611983
07006		3.466404	10.218051	-88.959554
07007		3.394450	10.201962	-88.300728
07008		3.288740	10.176112	-87.632562
07009		3.193849	10.146370	-86.970826
07010		3.099017	10.125156	-86.305792
07011		3.062918	10.101734	-85.643616
07012		3.078876	10.060708	-84.982215
07013		3.144778	9.993344	-84.320633
07014		3.204501	9.890477	-83.640940
07015		3.186693	9.790106	-82.945754
07016		3.006859	9.708223	-82.275550
07017		2.672219	9.653515	-81.631817
07018		2.254996	9.649968	-80.993798
07019		1.883623	9.649101	-80.368221
07020		1.646065	9.603006	-79.739841
07021		1.510002	9.519040	-79.116556
07022		1.399400	9.389360	-78.518843
07023		1.259062	9.240539	-77.943549
07024		1.028148	9.114142	-77.368348
07025		0.769754	9.012256	-76.793578
07026		0.532659	8.913289	-76.215993
07027		0.346559	8.826445	-75.639028
07028		0.212879	8.754149	-75.058232
07029		0.098864	8.709537	-74.480099
07030		-0.010861	8.674022	-73.906263
07031		-0.104979	8.635053	-73.335540
07032		-0.243069	8.582414	-72.783993
07033		-0.408787	8.506752	-72.256851
07034		-0.526471	8.414130	-71.726911
07035		-0.589289	8.340528	-71.187356
07036		-0.644319	8.281501	-70.652929
07037		-0.653733	8.225962	-70.124483
07038		-0.624960	8.164996	-69.602161
07039		-0.576386	8.093604	-69.091785
07040		-0.557401	7.999695	-68.585256
07041		-0.599902	7.908542	-68.081180
07042		-0.677769	7.814902	-67.584686
07043		-0.762077	7.726978	-67.091347
07044		-0.862934	7.664318	-66.593921
07045		-0.938219	7.619311	-66.101003
07046		-0.971874	7.574820	-65.612144
07047		-0.964019	7.521526	-65.132867
07048		-0.954782	7.465689	-64.665124
07049		-1.070837	7.414314	-64.233988
07050		-1.361107	7.360105	-63.840518
07051		-1.774313	7.318794	-63.452438
07052		-2.257826	7.310712	-63.031039
07053		-2.702157	7.353380	-62.550929
07054		-2.982327	7.410945	-62.031552
07055		-3.092668	7.433199	-61.518434
07056		-3.114626	7.407902	-61.027112
07057		-3.051762	7.340511	-60.548574
07058		-3.033571	7.258977	-60.078352
07059		-3.124151	7.184028	-59.608307
07060		-3.258206	7.090583	-59.131245
07061		-3.350345	6.994283	-58.637928
07062		-3.272196	6.890952	-58.100310
07063		-2.936712	6.767961	-57.521275
07064		-2.517332	6.625281	-56.940763
07065		-2.215047	6.493088	-56.391903
07066		-2.057358	6.382971	-55.867563
07067		-1.932372	6.280752	-55.377874
07068		-1.788518	6.180403	-54.914962
07069		-1.633831	6.104459	-54.457302
07070		-1.492635	6.041115	-53.992515
07071		-1.413766	5.996946	-53.530206
07072		-1.386616	5.960865	-53.089553
07073		-1.392265	5.932788	-52.677453
07074		-1.413948	5.921690	-52.293260
07075		-1.453156	5.936480	-51.944805
07076		-1.514498	5.981638	-51.623492
07077		-1.557284	6.038704	-51.315242
07078		-1.584450	6.088867	-51.016016
07079		-1.590910	6.120601	-50.717075
07080		-1.561188	6.129698	-50.412170
07081		-1.528229	6.132320	-50.105958
07082		-1.534380	6.143929	-49.803884
07083		-1.541525	6.179282	-49.494458
07084		-1.520790	6.228110	-49.177350
07085		-1.465160	6.269624	-48.864287
07086		-1.382356	6.307205	-48.557556
07087		-1.320040	6.347455	-48.268490
07088		-1.304791	6.384044	-48.008652
07089		-1.333730	6.416454	-47.761499
07090		-1.406253	6.421827	-47.511800
07091		-1.471411	6.414477	-47.225016
07092		-1.511847	6.399311	-46.911670
07093		-1.578504	6.400869	-46.576200
07094		-1.702970	6.427396	-46.231799
07095		-1.820009	6.443607	-45.886181
07096		-1.925527	6.430893	-45.549619
07097		-2.016961	6.393953	-45.227047
07098		-2.093850	6.343286	-44.923374
07099		-2.185190	6.312157	-44.633777
07100		-2.334787	6.300251	-44.374288
07101		-2.521946	6.299347	-44.148047
07102		-2.730392	6.298084	-43.938667
07103		-2.905934	6.292795	-43.718578
07104		-3.022370	6.273062	-43.480349
07105		-3.089012	6.247659	-43.245650
07106		-3.153039	6.222316	-43.027300
07107		-3.227187	6.210413	-42.833178
07108		-3.318543	6.218164	-42.667835
07109		-3.403600	6.258164	-42.530424
07110		-3.425077	6.315134	-42.406721
07111		-3.384160	6.361151	-42.279416
07112		-3.324427	6.385066	-42.149663
07113		-3.319420	6.403944	-42.032182
07114		-3.432699	6.412762	-41.953784
07115		-3.562387	6.422641	-41.895610
07116		-3.600199	6.438244	-41.836053
07117		-3.512075	6.459428	-41.772752
07118		-3.288358	6.473408	-41.704172
07119		-2.991338	6.467575	-41.641613
07120		-2.755054	6.432060	-41.608313
07121		-2.626014	6.395401	-41.605659
07122		-2.589349	6.372477	-41.636560
07123		-2.608682	6.389480	-41.696470
07124		-2.597636	6.437999	-41.762059
07125		-2.538194	6.496312	-41.808439
07126		-2.446799	6.538015	-41.825656
07127		-2.385819	6.561648	-41.827997
07128		-2.387446	6.568510	-41.836895
07129		-2.415736	6.561926	-41.872961
07130		-2.435811	6.565156	-41.933017
07131		-2.421041	6.592402	-42.007762
07132		-2.401527	6.634389	-42.095743
07133		-2.389338	6.683172	-42.181336
07134		-2.399338	6.719770	-42.256193
07135		-2.413201	6.747095	-42.312400
07136		-2.389802	6.767615	-42.350423
07137		-2.342647	6.774710	-42.390583
07138		-2.306714	6.778422	-42.449608
07139		-2.281206	6.787946	-42.520801
07140		-2.216889	6.790973	-42.595911
07141		-2.123373	6.791174	-42.670339
07142		-2.057288	6.803876	-42.737583
07143		-2.048080	6.836471	-42.802701
07144		-2.070606	6.876002	-42.874206
07145		-2.110277	6.908180	-42.953433
07146		-2.149306	6.944506	-43.038535
07147		-2.172987	6.972177	-43.127805
07148		-2.159288	6.979430	-43.217576
07149		-2.110996	6.973818	-43.300464
07150		-2.045032	6.961444	-43.381721
07151		-1.973110	6.945890	-43.467717
07152		-1.937023	6.936688	-43.560285
07153		-1.952803	6.937332	-43.675629
07154		-2.003856	6.949023	-43.803682
07155		-2.056253	6.970856	-43.936875
07156		-2.053781	7.000530	-44.063391
07157		-1.992680	7.025626	-44.178792
07158		-1.884440	7.039643	-44.287015
07159		-1.764382	7.043558	-44.398591
07160		-1.626739	7.040140	-44.522010
07161		-1.444038	7.038773	-44.663917
07162		-1.197283	7.053029	-44.817342
07163		-0.896145	7.070668	-44.979336
07164		-0.592549	7.081827	-45.152378
07165		-0.359884	7.109356	-45.333982
07166		-0.191210	7.158657	-45.525979
07167		-0.103668	7.224817	-45.738394
07168		-0.101461	7.291155	-45.964879
07169		-0.240101	7.308384	-46.218393
07170		-0.477636	7.299282	-46.484656
07171		-0.664104	7.240999	-46.745503
07172		-0.787471	7.186397	-46.997456
07173		-0.865795	7.132042	-47.258554
07174		-0.894107	7.093724	-47.522528
07175		-0.879381	7.070055	-47.787155
07176		-0.832233	7.061323	-48.051174
07177		-0.750655	7.053898	-48.313669
07178		-0.633598	7.039084	-48.568842
07179		-0.509928	7.009639	-48.831521
07180		-0.379640	6.957721	-49.105002
07181		-0.315905	6.898177	-49.400274
07182		-0.330732	6.855008	-49.714168
07183		-0.343493	6.815774	-50.029484
07184		-0.295648	6.771905	-50.341162
07185		-0.194292	6.717353	-50.650430
07186		-0.063020	6.660112	-50.957695
07187		0.025460	6.604228	-51.284299
07188		0.056405	6.557995	-51.644851
07189		0.091640	6.510558	-52.023553
07190		0.162136	6.456161	-52.411125
07191		0.241814	6.402613	-52.802487
07192		0.315505	6.348157	-53.191190
07193		0.390837	6.298279	-53.567597
07194		0.481520	6.246544	-53.947176
07195		0.551183	6.190187	-54.349974
07196		0.611529	6.130649	-54.781281
07197		0.684911	6.074383	-55.219148
07198		0.760001	6.036029	-55.663289
07199		0.846195	6.020180	-56.118992
07200		0.983105	6.003177	-56.580237
07201		1.143800	5.979230	-57.037652
07202		1.308266	5.956821	-57.494694
07203		1.462545	5.920782	-57.952226
07204		1.585332	5.875085	-58.422833
07205		1.664499	5.833663	-58.907222
07206		1.762495	5.795501	-59.409848
07207		1.920394	5.751988	-59.932350
07208		2.129039	5.697874	-60.489665
07209		2.342888	5.632290	-61.078699
07210		2.509298	5.565129	-61.710327
07211		2.613702	5.529753	-62.368155
07212		2.736169	5.515997	-63.053151
07213		2.869921	5.517691	-63.767041
07214		3.001809	5.523272	-64.506376
07215		3.126066	5.523485	-65.253733
07216		3.240867	5.525140	-66.008220
07217		3.341009	5.551257	-66.768891
07218		3.421778	5.607788	-67.551889
07219		3.475733	5.691792	-68.351312
07220		3.533002	5.790218	-69.161792
07221		3.594747	5.896651	-69.976815
07222		3.673668	6.014332	-70.814694
07223		3.743593	6.143715	-71.673551
07224		3.799886	6.268800	-72.537247
07225		3.817106	6.381158	-73.376982
07226		3.804745	6.472949	-74.198244
07227		3.795194	6.534851	-74.998754
07228		3.805015	6.594720	-75.785138
07229		3.828071	6.656337	-76.561323
07230		3.869548	6.715054	-77.341554
07231		3.904995	6.774670	-78.122226
07232		3.927326	6.844402	-78.906447
07233		3.943106	6.932610	-79.673124
07234		4.002999	7.028612	-80.431560
07235		4.077394	7.106644	-81.191695
07236		4.129196	7.169592	-81.944106
07237		4.128237	7.216701	-82.671694
07238		4.108634	7.250190	-83.383600
07239		4.094478	7.274657	-84.090979
07240		4.119168	7.304529	-84.808162
07241		4.144481	7.355990	-85.546762
07242		4.123494	7.434439	-86.298722
07243		4.043563	7.534419	-87.037497
07244		3.891626	7.636517	-87.762760
07245		3.722777	7.720825	-88.459244
07246		3.582961	7.777995	-89.133351
07247		3.450301	7.814446	-89.794934
07248		3.369343	7.846263	-90.444380
07249		3.400668	7.901629	-91.066250
07250		3.550918	7.965982	-91.697047
07251		3.660063	8.080939	-92.345454
07252		3.636740	8.262378	-93.011047
07253		3.424138	8.501931	-93.678927
07254		3.039340	8.763200	-94.353221
07255		2.628549	9.019968	-95.017788
07256		2.350680	9.211012	-95.659944
07257		2.174661	9.318234	-96.279583
07258		2.022852	9.358676	-96.889380
07259		1.870964	9.361781	-97.478211
07260		1.733998	9.363997	-98.049353
07261		1.608066	9.382094	-98.613730
07262		1.482155	9.429906	-99.186859
07263		1.319219	9.516006	-99.765258
07264		1.133028	9.631986	-100.328760
07265		0.964044	9.768648	-100.871929
07266		0.848114	9.889360	-101.415723
07267		0.772243	9.987573	-101.953734
07268		0.696015	10.065307	-102.492404
07269		0.576502	10.112353	-103.047778
07270		0.435821	10.133161	-103.624419
07271		0.298372	10.144831	-104.204278
07272		0.180821	10.156835	-104.772781
07273		0.079371	10.167824	-105.325180
07274		0.021081	10.170437	-105.861785
07275		0.014235	10.154744	-106.384814
07276		0.020290	10.124926	-106.917137
07277		-0.006438	10.091678	-107.472082
07278		-0.042285	10.068121	-108.036415
07279		-0.091530	10.073094	-108.597740
07280		-0.187468	10.091765	-109.160803
07281		-0.299614	10.107887	-109.721251
07282		-0.325045	10.107794	-110.270136
07283		-0.240200	10.080656	-110.812547
07284		-0.054358	10.037078	-111.366396
07285		0.188059	9.975439	-111.937993
07286		0.477467	9.942648	-112.517581
07287		0.724017	9.942766	-113.108773
07288		0.911215	9.972665	-113.700600
07289		1.053331	10.019723	-114.290695
07290		1.208168	10.068087	-114.868883
07291		1.412246	10.144990	-115.422279
07292		1.717283	10.233958	-115.957770
07293		2.182093	10.308434	-116.486445
07294		2.748755	10.345550	-117.032028
07295		3.232635	10.362957	-117.592563
07296		3.556742	10.395671	-118.156682
07297		3.736824	10.460144	-118.706798
07298		3.841595	10.555783	-119.224345
07299		3.934568	10.665576	-119.702179
07300		4.039361	10.775829	-120.153881
07301		4.188329	10.863362	-120.578651
07302		4.416718	10.899942	-120.985594
07303		4.689243	10.879946	-121.395627
07304		4.945505	10.804796	-121.842530
07305		5.057962	10.700764	-122.315143
07306		5.059727	10.615536	-122.768670
07307		5.024190	10.566416	-123.194414
07308		5.016441	10.548769	-123.591605
07309		5.077263	10.541119	-123.966274
07310		5.164104	10.527902	-124.337895
07311		5.281236	10.508978	-124.700203
07312		5.468325	10.470737	-125.062617
07313		5.681536	10.418742	-125.436628
07314		5.890363	10.372321	-125.823923
07315		6.105616	10.345376	-126.217953
07316		6.327715	10.347873	-126.604656
07317		6.477946	10.390280	-126.988735
07318		6.509507	10.469261	-127.376392
07319		6.468396	10.550388	-127.769257
07320		6.421867	10.618321	-128.156893
07321		6.398429	10.671040	-128.539647
07322		6.402022	10.702519	-128.917435
07323		6.408451	10.721030	-129.284421
07324		6.396788	10.740780	-129.640389
07325		6.384025	10.771055	-129.992150
07326		6.417687	10.809328	-130.341837
07327		6.547800	10.865991	-130.671599
07328		6.665968	10.936409	-130.984804
07329		6.670119	11.009946	-131.283100
07330		6.556257	11.077629	-131.557558
07331		6.328781	11.165315	-131.813637
07332		6.078588	11.265310	-132.060101
07333		5.894472	11.364742	-132.292921
07334		5.779172	11.457386	-132.506515
07335		5.750081	11.532837	-132.705417
07336		5.786333	11.569833	-132.893317
07337		5.862179	11.576098	-133.077712
07338		5.938178	11.587934	-133.249683
07339		5.968492	11.625844	-133.418660
07340		5.974864	11.680564	-133.580851
07341		5.958196	11.752370	-133.734290
07342		5.918184	11.834249	-133.877197
07343		5.903613	11.925823	-134.006750
07344		5.936271	12.015688	-134.139357
07345		5.988490	12.087033	-134.279392
07346		6.050838	12.160334	-134.408246
07347		6.072117	12.244240	-134.533016
07348		6.068314	12.334945	-134.655223
07349		6.074406	12.432719	-134.772781
07350		6.083749	12.532755	-134.882369
07351		6.111495	12.626310	-134.986008
07352		6.156875	12.708261	-135.075813
07353		6.186120	12.803198	-135.152222
07354		6.195974	12.906234	-135.225577
07355		6.208955	13.005666	-135.300136
07356		6.224878	13.101935	-135.367344
07357		6.232736	13.206580	-135.422822
07358		6.237173	13.312512	-135.461998
07359		6.254692	13.417526	-135.490059
07360		6.270465	13.500444	-135.509999
07361		6.301848	13.563833	-135.519496
07362		6.343420	13.623298	-135.510384
07363		6.387831	13.682300	-135.495034
07364		6.426453	13.736414	-135.479667
07365		6.459728	13.781950	-135.463910
07366		6.475423	13.823379	-135.437741
07367		6.460829	13.864691	-135.402034
07368		6.434812	13.902271	-135.356068
07369		6.430068	13.931961	-135.298289
07370		6.453419	13.947502	-135.227933
07371		6.491732	13.951422	-135.152847
07372		6.516264	13.953860	-135.076843
07373		6.516720	13.970126	-135.006329
07374		6.488952	13.997134	-134.936786
07375		6.457992	14.029252	-134.858241
07376		6.415414	14.071064	-134.765623
07377		6.334825	14.125173	-134.666777
07378		6.221032	14.182560	-134.568051
07379		6.064860	14.239482	-134.473105
07380		5.878160	14.293791	-134.375123
07381		5.706405	14.343904	-134.274835
07382		5.587929	14.376224	-134.168774
07383		5.545420	14.381034	-134.055415
07384		5.535055	14.369938	-133.926968
07385		5.554796	14.341925	-133.776513
07386		5.656238	14.303448	-133.593765
07387		5.887944	14.271434	-133.379135
07388		6.151363	14.239838	-133.157798
07389		6.354440	14.203329	-132.947695
07390		6.486913	14.132949	-132.748789
07391		6.542494	14.049037	-132.546395
07392		6.531138	13.961964	-132.340684
07393		6.500367	13.880805	-132.136735
07394		6.472730	13.803962	-131.938416
07395		6.469562	13.737190	-131.736408
07396		6.487113	13.681527	-131.527877
07397		6.538335	13.625640	-131.313081
07398		6.617869	13.559227	-131.081963
07399		6.713681	13.490327	-130.831149
07400		6.790458	13.421580	-130.566495
07401		6.859997	13.350295	-130.295015
07402		6.920075	13.279119	-130.017812
07403		6.969196	13.214840	-129.734853
07404		6.969564	13.162124	-129.444285
07405		6.965411	13.116659	-129.151273
07406		6.977121	13.078527	-128.850508
07407		7.078545	13.055013	-128.534741
07408		7.246294	13.033062	-128.212719
07409		7.380038	13.019692	-127.902382
07410		7.458617	13.010928	-127.577842
07411		7.505057	13.026050	-127.219310
07412		7.546973	13.070230	-126.817462
07413		7.615276	13.152460	-126.379796
07414		7.673397	13.269532	-125.921843
07415		7.709106	13.397614	-125.456041
07416		7.708305	13.504977	-124.977786
07417		7.664528	13.568009	-124.486462
07418		7.598425	13.576029	-123.970623
07419		7.564614	13.527795	-123.433993
07420		7.560443	13.440002	-122.876325
07421		7.593213	13.339306	-122.301504
07422		7.574625	13.252016	-121.715427
07423		7.487413	13.191624	-121.128688
07424		7.346231	13.143744	-120.533040
07425		7.169603	13.119409	-119.931397
07426		6.983734	13.118649	-119.320399
07427		6.816785	13.122589	-118.719372
07428		6.641208	13.112591	-118.130701
07429		6.465821	13.087543	-117.555332
07430		6.286901	13.057124	-116.990206
07431		6.152155	13.023979	-116.438938
07432		6.043254	12.999320	-115.889760
07433		5.938382	12.989409	-115.343705
07434		5.819560	12.993152	-114.780412
07435		5.691004	13.008239	-114.201452
07436		5.555602	13.023229	-113.616340
07437		5.472393	13.037139	-113.028232
07438		5.461634	13.050396	-112.439461
07439		5.529756	13.059988	-111.858380
07440		5.656221	13.066844	-111.288704
07441		5.815901	13.062850	-110.731822
07442		5.983861	13.057829	-110.168639
07443		6.163218	13.052944	-109.574205
07444		6.302296	13.061982	-108.927503
07445		6.328453	13.117837	-108.262481
07446		6.289124	13.150777	-107.613121
07447		6.246870	13.156806	-106.970994
07448		6.163703	13.119346	-106.329695
07449		6.129546	13.011577	-105.680797
07450		6.147393	12.823826	-105.019778
07451		6.157612	12.589471	-104.356557
07452		6.154597	12.300431	-103.678165
07453		6.182333	11.939577	-102.969568
07454		6.107436	11.577016	-102.247205
07455		5.889622	11.266309	-101.544567
07456		5.630044	11.014256	-100.858093
07457		5.374066	10.824048	-100.195672
07458		5.117049	10.654463	-99.564849
07459		4.860016	10.477746	-98.963323
07460		4.590130	10.409357	-98.385746
07461		4.453225	10.338386	-97.815772
07462		4.381742	10.306872	-97.259591
07463		4.369145	10.302864	-96.733294
07464		4.366095	10.290498	-96.216925
07465		4.306657	10.274665	-95.709258
07466		4.168740	10.246523	-95.195314
07467		4.034542	10.209665	-94.656549
07468		3.903866	10.162908	-94.093583
07469		3.806150	10.115472	-93.511509
07470		3.744779	10.075190	-92.914570
07471		3.685972	10.034010	-92.334636
07472		3.634890	9.975537	-91.766001
07473		3.621721	9.912107	-91.206908
07474		3.649480	9.851597	-90.656667
07475		3.724106	9.790379	-90.114135
07476		3.789195	9.723607	-89.562555
07477		3.780016	9.672910	-88.998370
07478		3.686059	9.634731	-88.419271
07479		3.587126	9.606416	-87.816477
07480		3.505098	9.570690	-87.205611
07481		3.469292	9.519952	-86.610571
07482		3.506020	9.449649	-86.036146
07483		3.590029	9.369881	-85.483898
07484		3.678808	9.281155	-84.957198
07485		3.735985	9.198968	-84.444710
07486		3.759848	9.147169	-83.926787
07487		3.762952	9.114222	-83.406894
07488		3.708325	9.102645	-82.880048
07489		3.583509	9.106143	-82.362759
07490		3.419423	9.125688	-81.852636
07491		3.308895	9.148953	-81.360328
07492		3.261410	9.173277	-80.890122
07493		3.248368	9.183192	-80.457631
07494		3.208329	9.187968	-80.052740
07495		3.100569	9.190585	-79.679849
07496		2.936578	9.191271	-79.324603
07497		2.749924	9.207003	-78.965850
07498		2.558872	9.226562	-78.590100
07499		2.391960	9.230358	-78.189587
07500		2.252566	9.203715	-77.757281
07501		2.112833	9.139871	-77.303464
07502		2.017866	9.023395	-76.824125
07503		2.006640	8.864216	-76.321912
07504		1.992227	8.684271	-75.813737
07505		1.915097	8.498578	-75.320047
07506		1.761391	8.307703	-74.843877
07507		1.598784	8.129124	-74.377636
07508		1.471274	7.978947	-73.910446
07509		1.392024	7.889901	-73.444555
07510		1.293981	7.803553	-72.975553
07511		1.182419	7.723358	-72.512497
07512		1.104974	7.630748	-72.047096
07513		1.086097	7.500076	-71.567788
07514		1.160240	7.352301	-71.078363
07515		1.263094	7.195821	-70.591092
07516		1.384295	7.046295	-70.107990
07517		1.502460	6.905819	-69.634968
07518		1.630295	6.781183	-69.155553
07519		1.829602	6.660338	-68.642933
07520		2.033020	6.580617	-68.094496
07521		2.173314	6.556189	-67.546172
07522		2.301660	6.559904	-67.029410
07523		2.463078	6.573976	-66.544282
07524		2.683800	6.545417	-66.086620
07525		2.905776	6.473015	-65.641190
07526		3.022501	6.400030	-65.195489
07527		3.047112	6.348069	-64.761815
07528		3.051537	6.309604	-64.345778
07529		3.058492	6.301257	-63.948801
07530		3.090713	6.316697	-63.558172
07531		3.165181	6.327082	-63.175367
07532		3.213338	6.327623	-62.805181
07533		3.227423	6.332036	-62.439891
07534		3.282408	6.339894	-62.065875
07535		3.377446	6.361085	-61.691495
07536		3.442993	6.380243	-61.335674
07537		3.444634	6.404529	-60.992354
07538		3.391131	6.420704	-60.657821
07539		3.336486	6.418401	-60.325702
07540		3.305924	6.418454	-59.997346
07541		3.295654	6.437347	-59.669648
07542		3.305523	6.466169	-59.338080
07543		3.353323	6.510799	-58.996354
07544		3.403801	6.561167	-58.653356
07545		3.457876	6.598488	-58.309306
07546		3.476821	6.621615	-57.968008
07547		3.433225	6.629285	-57.641126
07548		3.360285	6.627151	-57.328017
07549		3.292719	6.615035	-57.020199
07550		3.261855	6.601972	-56.705579
07551		3.302043	6.582287	-56.375967
07552		3.401838	6.537501	-56.036864
07553		3.527751	6.450683	-55.695851
07554		3.601184	6.316275	-55.375151
07555		3.553828	6.155553	-55.076215
07556		3.364298	6.003094	-54.788417
07557		3.090334	5.869203	-54.499779
07558		2.829389	5.750211	-54.192190
07559		2.657657	5.650617	-53.844428
07560		2.618923	5.554614	-53.459013
07561		2.748509	5.465796	-53.060628
07562		2.871414	5.346362	-52.688608
07563		2.862310	5.280128	-52.363217
07564		2.650837	5.267964	-52.095594
07565		2.372638	5.312378	-51.863638
07566		2.137354	5.405662	-51.629543
07567		2.009694	5.511416	-51.373467
07568		1.998227	5.597859	-51.090119
07569		2.070370	5.621947	-50.785875
07570		2.212057	5.571055	-50.466124
07571		2.299623	5.461229	-50.153150
07572		2.231350	5.362870	-49.861579
07573		2.032098	5.313303	-49.590775
07574		1.834366	5.303997	-49.330954
07575		1.725754	5.308506	-49.061169
07576		1.777434	5.322480	-48.768091
07577		1.928086	5.326941	-48.453563
07578		2.085358	5.332073	-48.139027
07579		2.125660	5.340185	-47.848519
07580		2.003187	5.358474	-47.599284
07581		1.801113	5.395416	-47.374937
07582		1.627933	5.436829	-47.159506
07583		1.534362	5.473960	-46.932551
07584		1.527803	5.482108	-46.679230
07585		1.584986	5.483473	-46.398967
07586		1.614393	5.504283	-46.120124
07587		1.623365	5.528147	-45.863322
07588		1.642480	5.538706	-45.628819
07589		1.632815	5.541690	-45.415086
07590		1.570682	5.568842	-45.220670
07591		1.436215	5.613556	-45.049133
07592		1.290196	5.665181	-44.885970
07593		1.202872	5.699564	-44.709651
07594		1.209935	5.699354	-44.508790
07595		1.278542	5.668763	-44.297108
07596		1.335189	5.614285	-44.086929
07597		1.293264	5.559850	-43.903582
07598		1.123866	5.542328	-43.761101
07599		0.863647	5.569108	-43.652280
07600		0.627736	5.624828	-43.542118
07601		0.486848	5.698606	-43.399210
07602		0.417561	5.760003	-43.239637
07603		0.422488	5.792434	-43.064540
07604		0.496037	5.793196	-42.878202
07605		0.549314	5.783334	-42.711279
07606		0.530555	5.776290	-42.589084
07607		0.441957	5.788399	-42.511357
07608		0.328605	5.831312	-42.457226
07609		0.217953	5.892551	-42.413101
07610		0.122064	5.965359	-42.357645
07611		0.034846	6.044302	-42.276613
07612		-0.042811	6.105140	-42.187789
07613		-0.101940	6.130761	-42.098697
07614		-0.146809	6.139640	-42.016788
07615		-0.191412	6.140874	-41.956593
07616		-0.225212	6.138193	-41.925543
07617		-0.243380	6.143493	-41.904246
07618		-0.261682	6.174002	-41.891548
07619		-0.277262	6.222129	-41.883694
07620		-0.276571	6.275804	-41.877236
07621		-0.310287	6.336655	-41.880556
07622		-0.432381	6.407422	-41.902916
07623		-0.577269	6.461140	-41.937213
07624		-0.654789	6.472154	-41.964770
07625		-0.631584	6.418905	-41.973986
07626		-0.542138	6.313248	-41.969762
07627		-0.453761	6.170560	-41.972606
07628		-0.466642	6.036015	-41.991504
07629		-0.585160	5.959590	-42.027627
07630		-0.720233	5.925364	-42.076899
07631		-0.830201	5.917274	-42.144148
07632		-0.905764	5.914993	-42.219898
07633		-0.957492	5.889699	-42.290456
07634		-1.006485	5.844499	-42.366555
07635		-1.000449	5.778553	-42.452821
07636		-0.966348	5.722913	-42.557887
07637		-0.983330	5.712023	-42.677250
07638		-1.029564	5.736026	-42.809967
07639		-1.045556	5.755869	-42.944448
07640		-1.032655	5.767580	-43.082418
07641		-1.018318	5.780055	-43.214914
07642		-1.000705	5.783795	-43.345603
07643		-1.000674	5.785830	-43.482184
07644		-1.001493	5.785504	-43.633737
07645		-1.018489	5.787281	-43.802800
07646		-1.090150	5.791743	-43.991743
07647		-1.196165	5.819842	-44.196578
07648		-1.314518	5.853986	-44.425843
07649		-1.444358	5.898716	-44.671548
07650		-1.560695	5.944860	-44.927378
07651		-1.678626	5.980087	-45.190071
07652		-1.794792	5.996468	-45.452034
07653		-1.932046	6.005782	-45.707174
07654		-2.085754	5.999673	-45.961074
07655		-2.244344	5.982009	-46.212567
07656		-2.384035	5.959908	-46.468141
07657		-2.474499	5.937108	-46.720368
07658		-2.520623	5.921234	-46.973684
07659		-2.546717	5.925327	-47.228180
07660		-2.560667	5.942802	-47.494538
07661		-2.536788	5.952006	-47.771501
07662		-2.453981	5.945591	-48.053917
07663		-2.355819	5.935665	-48.335343
07664		-2.271602	5.929488	-48.620872
07665		-2.234424	5.933406	-48.914388
07666		-2.228433	5.953873	-49.213632
07667		-2.226043	5.979220	-49.519462
07668		-2.200410	5.998345	-49.827688
07669		-2.138484	6.003647	-50.133189
07670		-2.069616	5.996749	-50.444462
07671		-2.024010	5.993836	-50.769158
07672		-1.978437	5.993039	-51.115197
07673		-1.909224	6.006424	-51.475505
07674		-1.806829	6.039864	-51.844843
07675		-1.731794	6.087678	-52.229392
07676		-1.698477	6.144560	-52.618493
07677		-1.632907	6.191728	-53.008518
07678		-1.578819	6.229728	-53.394700
07679		-1.511749	6.265825	-53.764357
07680		-1.397310	6.295661	-54.109951
07681		-1.249128	6.329323	-54.449466
07682		-1.096463	6.356236	-54.788007
07683		-0.989838	6.383084	-55.127830
07684		-0.934800	6.399975	-55.480160
07685		-0.913821	6.412598	-55.841368
07686		-0.897611	6.423669	-56.210063
07687		-0.888937	6.422378	-56.586998
07688		-0.961361	6.385442	-56.980905
07689		-1.104459	6.336327	-57.384642
07690		-1.244915	6.259088	-57.796357
07691		-1.385121	6.190028	-58.208978
07692		-1.506598	6.138356	-58.620150
07693		-1.563754	6.112490	-59.019864
07694		-1.548865	6.107286	-59.412183
07695		-1.493696	6.117057	-59.793783
07696		-1.400294	6.119829	-60.165682
07697		-1.312268	6.104557	-60.543140
07698		-1.253217	6.067083	-60.948018
07699		-1.192649	6.019349	-61.374566
07700		-1.073769	5.968470	-61.813020
07701		-0.932907	5.923760	-62.267854
07702		-0.813184	5.899144	-62.742289
07703		-0.730274	5.897612	-63.225924
07704		-0.679330	5.916231	-63.721092
07705		-0.656422	5.940198	-64.218945
07706		-0.632195	5.970479	-64.719033
07707		-0.607348	5.998092	-65.228628
07708		-0.579946	6.009581	-65.755759
07709		-0.559573	5.999075	-66.299587
07710		-0.556605	5.982363	-66.865939
07711		-0.571442	5.977131	-67.446157
07712		-0.575074	5.990205	-68.043796
07713		-0.559436	6.008959	-68.644479
07714		-0.546662	6.027436	-69.257556
07715		-0.578253	6.037711	-69.870657
07716		-0.646601	6.045946	-70.483156
07717		-0.728252	6.055773	-71.081683
07718		-0.780337	6.064674	-71.698935
07719		-0.797663	6.068899	-72.321704
07720		-0.799307	6.063895	-72.968898
07721		-0.820945	6.050275	-73.624081
07722		-0.855056	6.028749	-74.292427
07723		-0.917172	6.001003	-74.965253
07724		-0.986754	5.989387	-75.662746
07725		-1.043071	6.006235	-76.347432
07726		-1.054459	6.042091	-77.038228
07727		-1.035189	6.072027	-77.715364
07728		-1.014460	6.095498	-78.408396
07729		-1.028810	6.121471	-79.092922
07730		-1.014898	6.151128	-79.770867
07731		-1.014732	6.187325	-80.437162
07732		-1.057861	6.242351	-81.143038
07733		-1.081446	6.311557	-81.843351
07734		-1.029444	6.379768	-82.532650
07735		-0.944445	6.421162	-83.202909
07736		-0.886153	6.449616	-83.893572
07737		-0.830324	6.469706	-84.560659
07738		-0.720452	6.494378	-85.239683
07739		-0.604473	6.531214	-85.934090
07740		-0.480897	6.584708	-86.639726
07741		-0.377574	6.652631	-87.338765
07742		-0.323913	6.732825	-88.055147
07743		-0.283669	6.833484	-88.766621
07744		-0.220076	6.942595	-89.479103
07745		-0.151447	7.048204	-90.190002
07746		-0.112806	7.126693	-90.914235
07747		-0.129370	7.162616	-91.643193
07748		-0.152387	7.183546	-92.373743
07749		-0.148484	7.230186	-93.104218
07750		-0.123311	7.317789	-93.848683
07751		-0.066641	7.452652	-94.581321
07752		0.022379	7.595952	-95.300902
07753		0.089607	7.738627	-95.994774
07754		0.151076	7.863968	-96.677960
07755		0.175588	7.962754	-97.354911
07756		0.204426	8.017855	-98.021831
07757		0.194262	8.042948	-98.681698
07758		0.163036	8.047237	-99.343990
07759		0.171676	8.025512	-100.000280
07760		0.220668	7.999111	-100.645644
07761		0.230520	7.988906	-101.286552
07762		0.202628	7.972225	-101.937630
07763		0.172336	7.946387	-102.594761
07764		0.130904	7.932218	-103.263858
07765		0.134244	7.949057	-103.924811
07766		0.237822	7.974547	-104.572806
07767		0.390838	7.992039	-105.231258
07768		0.540858	7.989344	-105.902900
07769		0.705216	7.971338	-106.562495
07770		0.874887	7.941761	-107.217355
07771		0.961381	7.906982	-107.884285
07772		0.955654	7.894529	-108.565340
07773		0.903861	7.919501	-109.248168
07774		0.868817	7.988463	-109.926762
07775		0.868965	8.079531	-110.596830
07776		0.913515	8.189757	-111.264146
07777		0.975421	8.282077	-111.941916
07778		1.073782	8.349860	-112.621790
07779		1.180635	8.389604	-113.300566
07780		1.302621	8.424257	-113.977606
07781		1.369304	8.477012	-114.671737
07782		1.369466	8.563897	-115.373033
07783		1.351610	8.659550	-116.063750
07784		1.299145	8.773957	-116.738195
07785		1.201480	8.898545	-117.393579
07786		1.108675	9.040568	-118.022845
07787		1.108694	9.175489	-118.626233
07788		1.208950	9.293843	-119.228883
07789		1.387449	9.392451	-119.825328
07790		1.590367	9.480092	-120.413736
07791		1.738772	9.562594	-120.999801
07792		1.833002	9.648985	-121.581625
07793		1.881449	9.748105	-122.149224
07794		1.884211	9.870438	-122.711594
07795		1.873839	9.997179	-123.263272
07796		1.902457	10.105261	-123.792530
07797		1.964983	10.192283	-124.285210
07798		2.029188	10.273438	-124.759234
07799		2.079717	10.334657	-125.230566
07800		2.188582	10.373876	-125.689181
07801		2.308630	10.448739	-126.128237
07802		2.428015	10.544515	-126.571573
07803		2.571425	10.625063	-127.017547
07804		2.730075	10.666187	-127.461213
07805		2.866901	10.712874	-127.878344
07806		2.972373	10.781512	-128.274876
07807		3.031042	10.864441	-128.667047
07808		3.128146	10.931272	-129.051285
07809		3.293765	10.982212	-129.432616
07810		3.453033	11.047073	-129.812836
07811		3.599984	11.126899	-130.189450
07812		3.734355	11.198965	-130.577879
07813		3.829451	11.270962	-130.972488
07814		3.854840	11.367648	-131.357766
07815		3.826113	11.486804	-131.738722
07816		3.788142	11.601806	-132.115277
07817		3.785878	11.691514	-132.489016
07818		3.831710	11.760288	-132.848280
07819		3.899975	11.807269	-133.202122
07820		4.030600	11.847863	-133.530641
07821		4.213187	11.903194	-133.834102
07822		4.343331	11.999524	-134.135916
07823		4.397541	12.118581	-134.442875
07824		4.447205	12.224617	-134.735196
07825		4.528160	12.344869	-134.995195
07826		4.576318	12.487438	-135.251349
07827		4.614146	12.628880	-135.521667
07828		4.679158	12.735844	-135.790266
07829		4.796184	12.824965	-136.034626
07830		4.927852	12.926255	-136.248094
07831		5.041968	13.022557	-136.454003
07832		5.146500	13.105336	-136.662149
07833		5.267214	13.156069	-136.858253
07834		5.393536	13.221187	-137.027111
07835		5.423782	13.346459	-137.179094
07836		5.351226	13.508495	-137.335935
07837		5.257646	13.665250	-137.501778
07838		5.200897	13.789453	-137.662490
07839		5.250836	13.914002	-137.788927
07840		5.382989	14.034271	-137.886877
07841		5.534150	14.127768	-137.993773
07842		5.664275	14.178541	-138.118175
07843		5.774793	14.187490	-138.246361
07844		5.877984	14.200975	-138.351449
07845		5.909166	14.274007	-138.441028
07846		5.872667	14.388344	-138.536236
07847		5.826412	14.501454	-138.641709
07848		5.802029	14.584294	-138.738871
07849		5.822423	14.663569	-138.811419
07850		5.841166	14.749444	-138.864868
07851		5.840930	14.827573	-138.923988
07852		5.836097	14.884657	-138.982576
07853		5.852639	14.903687	-139.029702
07854		5.916915	14.915475	-139.029709
07855		5.963423	14.967206	-139.006099
07856		5.951310	15.043894	-138.990041
07857		5.936434	15.121765	-138.985195
07858		5.910574	15.189477	-138.982864
07859		5.907555	15.260160	-138.954334
07860		5.919245	15.351993	-138.904778
07861		5.922072	15.445396	-138.853578
07862		5.929918	15.515293	-138.806370
07863		5.926690	15.546103	-138.756810
07864		5.890426	15.556055	-138.696020
07865		5.826410	15.566481	-138.616055
07866		5.763651	15.578066	-138.522467
07867		5.726585	15.593860	-138.427924
