// General information: 
//  MT Manager version: 2022.2.0 
//  XDA version: 2022.2.0 build 7381 rev 124627 built on 2023-07-19
// Device information: 
//  DeviceId: 00B44804
//  ProductCode: MTW2-3A7G6
//  Firmware Version: 4.3.5
//  Hardware Version: 2.0.0
// Device settings: 
//  Filter Profile: human(46.1)
//  Option Flags: Orientation Smoother Disabled, Position/Velocity Smoother Disabled, Continuous Zero Rotation Update Disabled, AHS Disabled, ICC Disabled
// Coordinate system: ENU
PacketCounter	SampleTimeFine	Roll	Pitch	Yaw
17214		-24.240292	13.839968	-132.540143
17215		-24.242227	13.837294	-132.535194
17216		-24.238175	13.832600	-132.544571
17217		-24.230019	13.831587	-132.541044
17218		-24.230366	13.830697	-132.542318
17219		-24.230112	13.830579	-132.539298
17220		-24.231491	13.833462	-132.544159
17221		-24.233309	13.834712	-132.542704
17222		-24.236626	13.840016	-132.544064
17223		-24.235864	13.838925	-132.544868
17224		-24.232209	13.838838	-132.544443
17225		-24.229179	13.836734	-132.547685
17226		-24.228671	13.835777	-132.563726
17227		-24.230462	13.837494	-132.569056
17228		-24.233825	13.838860	-132.573099
17229		-24.232315	13.839041	-132.577043
17230		-24.233147	13.838059	-132.592369
17231		-24.229204	13.837117	-132.595973
17232		-24.224710	13.836724	-132.599747
17233		-24.217631	13.834360	-132.604751
17234		-24.210918	13.829495	-132.613137
17235		-24.200511	13.826069	-132.623541
17236		-24.190442	13.824224	-132.632852
17237		-24.186749	13.819951	-132.642537
17238		-24.186100	13.817850	-132.651152
17239		-24.179439	13.812590	-132.658933
17240		-24.171576	13.811680	-132.669154
17241		-24.164721	13.807098	-132.674855
17242		-24.161077	13.806958	-132.675667
17243		-24.157989	13.806138	-132.686406
17244		-24.149301	13.806671	-132.695941
17245		-24.146762	13.804941	-132.707547
17246		-24.146638	13.805094	-132.730892
17247		-24.135791	13.804623	-132.738545
17248		-24.126833	13.801717	-132.737590
17249		-24.112783	13.802197	-132.748742
17250		-24.092843	13.800872	-132.765107
17251		-24.085910	13.798675	-132.772914
17252		-24.081746	13.793139	-132.786036
17253		-24.067178	13.786276	-132.792662
17254		-24.049217	13.774168	-132.785762
17255		-24.042736	13.761108	-132.786590
17256		-24.044925	13.751098	-132.788670
17257		-24.043531	13.739122	-132.785469
17258		-24.053427	13.723013	-132.798811
17259		-24.069167	13.702301	-132.790613
17260		-24.095005	13.683780	-132.791008
17261		-24.100543	13.661702	-132.791576
17262		-24.098717	13.643611	-132.781004
17263		-24.072688	13.623230	-132.780604
17264		-24.053399	13.595814	-132.774383
17265		-24.059537	13.564100	-132.765368
17266		-24.060046	13.528210	-132.740322
17267		-24.060614	13.489008	-132.712572
17268		-24.059292	13.451291	-132.689664
17269		-24.049696	13.425499	-132.663791
17270		-23.993188	13.407721	-132.642005
17271		-23.860634	13.386090	-132.607767
17272		-23.759172	13.357554	-132.572618
17273		-23.738894	13.306190	-132.528263
17274		-23.809891	13.229678	-132.477841
17275		-23.914816	13.139536	-132.423105
17276		-23.964624	13.042905	-132.366930
17277		-23.975745	12.939981	-132.318316
17278		-23.997804	12.833181	-132.271401
17279		-24.010147	12.720408	-132.220947
17280		-24.062952	12.617237	-132.166136
17281		-24.004458	12.551512	-132.112764
17282		-24.016810	12.452975	-132.068381
17283		-24.101451	12.372508	-132.042863
17284		-24.176270	12.278160	-132.007611
17285		-24.177660	12.181275	-131.975809
17286		-24.115281	12.078966	-131.962305
17287		-24.171359	11.975211	-131.935762
17288		-24.251523	11.872797	-131.929757
17289		-24.403590	11.782737	-131.913109
17290		-24.500295	11.692526	-131.916070
17291		-24.542584	11.604072	-131.908222
17292		-24.578020	11.510460	-131.895909
17293		-24.608429	11.415436	-131.881933
17294		-24.649995	11.319004	-131.875315
17295		-24.665458	11.227340	-131.868644
17296		-24.690454	11.140279	-131.879469
17297		-24.700052	11.055706	-131.876254
17298		-24.702915	10.977722	-131.886034
17299		-24.743573	10.903346	-131.880606
17300		-24.817585	10.831562	-131.873995
17301		-24.895505	10.756336	-131.855321
17302		-25.012608	10.668631	-131.832341
17303		-25.171396	10.558847	-131.797192
17304		-25.321842	10.418192	-131.765142
17305		-25.497698	10.255253	-131.713758
17306		-25.658761	10.073523	-131.673337
17307		-25.725077	9.862909	-131.620385
17308		-25.709712	9.624942	-131.602785
17309		-25.578335	9.350005	-131.579707
17310		-24.943048	8.946807	-131.561896
17311		-24.073896	8.596280	-131.516537
17312		-24.103777	8.258649	-131.486880
17313		-24.397346	7.896125	-131.442427
17314		-24.355810	7.528578	-131.419727
17315		-24.214082	7.146396	-131.366742
17316		-24.069539	6.758383	-131.335973
17317		-23.929304	6.342612	-131.275171
17318		-23.909725	5.902482	-131.249718
17319		-23.938379	5.452842	-131.228572
17320		-23.881125	4.988625	-131.236175
17321		-23.750219	4.522121	-131.249311
17322		-23.578774	4.059303	-131.279968
17323		-23.386501	3.601259	-131.321907
17324		-23.155123	3.159715	-131.378016
17325		-22.995481	2.733030	-131.434701
17326		-22.816113	2.327515	-131.494748
17327		-22.705178	1.946280	-131.557538
17328		-22.625808	1.554310	-131.636569
17329		-22.434926	1.145071	-131.764750
17330		-22.303412	0.740135	-131.940405
17331		-22.166728	0.336807	-132.140447
17332		-21.996392	-0.058912	-132.360645
17333		-21.833384	-0.427729	-132.582582
17334		-21.728319	-0.757352	-132.811654
17335		-21.587872	-1.056403	-133.040282
17336		-21.415701	-1.333784	-133.268002
17337		-21.261514	-1.598425	-133.506797
17338		-21.210384	-1.844421	-133.771512
17339		-21.338768	-2.084637	-134.017106
17340		-21.404935	-2.300100	-134.279709
17341		-21.450753	-2.501032	-134.562640
17342		-21.510191	-2.697282	-134.855396
17343		-21.500847	-2.878142	-135.156271
17344		-21.466834	-3.056105	-135.464711
17345		-21.452782	-3.240699	-135.760672
17346		-21.434022	-3.414915	-136.058888
17347		-21.383535	-3.576406	-136.352443
17348		-21.340173	-3.724729	-136.639571
17349		-21.300424	-3.849146	-136.929315
17350		-21.267529	-3.972614	-137.221631
17351		-21.180950	-4.090130	-137.521699
17352		-21.077228	-4.211186	-137.839061
17353		-20.967125	-4.358016	-138.157665
17354		-20.841738	-4.505872	-138.484872
17355		-20.702434	-4.659200	-138.803077
17356		-20.530155	-4.825961	-139.124123
17357		-20.357490	-5.009328	-139.444343
17358		-20.192943	-5.201844	-139.766194
17359		-20.043720	-5.393540	-140.088033
17360		-19.837581	-5.579258	-140.422843
17361		-19.615856	-5.768958	-140.766023
17362		-19.370102	-5.954185	-141.116529
17363		-19.120700	-6.132268	-141.472888
17364		-18.918946	-6.313445	-141.834101
17365		-18.772077	-6.490082	-142.203611
17366		-18.673787	-6.661004	-142.569667
17367		-18.563400	-6.835079	-142.921194
17368		-18.395792	-6.995913	-143.271682
17369		-18.221226	-7.147127	-143.607847
17370		-18.105309	-7.284400	-143.937966
17371		-18.076947	-7.407441	-144.257669
17372		-18.087871	-7.523149	-144.576911
17373		-18.098557	-7.635700	-144.896565
17374		-18.108509	-7.735464	-145.213221
17375		-18.039115	-7.829896	-145.507366
17376		-17.903550	-7.910346	-145.783346
17377		-17.738371	-7.978637	-146.037302
17378		-17.550752	-8.040330	-146.290753
17379		-17.424157	-8.095031	-146.538261
17380		-17.376156	-8.143125	-146.782826
17381		-17.309817	-8.198186	-147.015989
17382		-17.254475	-8.257789	-147.239195
17383		-17.225351	-8.312411	-147.441580
17384		-17.175704	-8.360603	-147.632138
17385		-17.100869	-8.406256	-147.813493
17386		-17.044158	-8.437986	-147.996857
17387		-17.010354	-8.461730	-148.174580
17388		-16.948545	-8.484257	-148.347548
17389		-16.872174	-8.510715	-148.506631
17390		-16.809349	-8.529936	-148.661747
17391		-16.762347	-8.546956	-148.795237
17392		-16.719232	-8.559688	-148.927987
17393		-16.699968	-8.564850	-149.047966
17394		-16.728677	-8.554700	-149.162754
17395		-16.794706	-8.525891	-149.256757
17396		-16.823302	-8.491731	-149.328250
17397		-16.820813	-8.460447	-149.370430
17398		-16.770520	-8.433966	-149.386966
17399		-16.629927	-8.415360	-149.384468
17400		-16.488939	-8.406475	-149.373373
17401		-16.431850	-8.392216	-149.355838
17402		-16.403968	-8.385251	-149.338506
17403		-16.383324	-8.374243	-149.310664
17404		-16.471291	-8.358456	-149.274778
17405		-16.662590	-8.340205	-149.230880
17406		-16.878361	-8.319391	-149.178408
17407		-17.053049	-8.307462	-149.116890
17408		-17.205153	-8.301130	-149.056866
17409		-17.394807	-8.292379	-148.999978
17410		-17.593712	-8.283667	-148.952076
17411		-17.755020	-8.286062	-148.905843
17412		-17.818341	-8.301627	-148.859865
17413		-17.827813	-8.327626	-148.803433
17414		-17.824777	-8.359150	-148.743548
17415		-17.717580	-8.415748	-148.685729
17416		-17.582929	-8.494993	-148.631003
17417		-17.539375	-8.570645	-148.588135
17418		-17.496368	-8.637358	-148.555278
17419		-17.342410	-8.696963	-148.517500
17420		-17.220382	-8.738070	-148.475823
17421		-17.087739	-8.776406	-148.431989
17422		-16.945571	-8.794110	-148.384515
17423		-16.756652	-8.814634	-148.334527
17424		-16.418520	-8.837355	-148.300332
17425		-16.158366	-8.846645	-148.272270
17426		-16.148445	-8.841301	-148.260502
17427		-16.218331	-8.830258	-148.253768
17428		-16.221006	-8.821242	-148.254193
17429		-16.214493	-8.815547	-148.259999
17430		-16.266073	-8.803898	-148.274821
17431		-16.371769	-8.792216	-148.288311
17432		-16.433062	-8.783070	-148.308459
17433		-16.446623	-8.771552	-148.326854
17434		-16.519426	-8.763941	-148.350198
17435		-16.613401	-8.766962	-148.378896
17436		-16.683644	-8.775900	-148.417029
17437		-16.808025	-8.785370	-148.447876
17438		-16.900026	-8.809391	-148.490378
17439		-16.982906	-8.816608	-148.523298
17440		-17.197236	-8.834973	-148.554366
17441		-17.318102	-8.866377	-148.580886
17442		-17.093675	-8.892008	-148.600503
17443		-16.809118	-8.934061	-148.611016
17444		-16.677082	-8.981825	-148.634543
17445		-16.573403	-9.021297	-148.651058
17446		-16.559350	-9.056508	-148.672139
17447		-16.570649	-9.095155	-148.693017
17448		-16.605818	-9.137422	-148.702603
17449		-16.565175	-9.198593	-148.702205
17450		-16.386265	-9.256857	-148.707191
17451		-16.281992	-9.306992	-148.703938
17452		-16.249043	-9.356062	-148.711551
17453		-16.202885	-9.389867	-148.716360
17454		-16.179606	-9.411315	-148.727520
17455		-16.138621	-9.426961	-148.730698
17456		-16.026501	-9.437989	-148.742492
17457		-15.885233	-9.445870	-148.755664
17458		-15.812691	-9.445820	-148.771543
17459		-15.729117	-9.442308	-148.782512
17460		-15.567679	-9.425812	-148.798158
17461		-15.347117	-9.398832	-148.807137
17462		-15.135334	-9.364639	-148.815200
17463		-14.889135	-9.321305	-148.820892
17464		-14.653782	-9.267436	-148.835322
17465		-14.453757	-9.217761	-148.851444
17466		-14.299563	-9.162275	-148.872711
17467		-14.192799	-9.116700	-148.898782
17468		-14.116275	-9.059435	-148.931506
17469		-14.104432	-8.992923	-148.947199
17470		-14.096538	-8.926816	-148.962166
17471		-14.069924	-8.858494	-148.971223
17472		-14.075202	-8.791466	-148.979788
17473		-14.137182	-8.731514	-148.982853
17474		-14.236255	-8.673515	-148.988734
17475		-14.301521	-8.623209	-148.989888
17476		-14.344095	-8.575051	-148.994577
17477		-14.401664	-8.532447	-148.989962
17478		-14.420663	-8.498128	-148.985284
17479		-14.427200	-8.469996	-148.974220
17480		-14.466071	-8.446967	-148.964284
17481		-14.508105	-8.436146	-148.946508
17482		-14.540320	-8.434942	-148.928962
17483		-14.544406	-8.435439	-148.905454
17484		-14.535686	-8.447853	-148.878388
17485		-14.561618	-8.439609	-148.838434
17486		-14.547557	-8.440509	-148.796876
17487		-14.582085	-8.435012	-148.744343
17488		-14.629919	-8.431916	-148.699370
17489		-14.708155	-8.430658	-148.648995
17490		-14.791790	-8.436207	-148.594262
17491		-14.859583	-8.440495	-148.533303
17492		-14.898628	-8.437872	-148.471714
17493		-14.967558	-8.437819	-148.399480
17494		-14.980968	-8.424051	-148.329590
17495		-15.032973	-8.411765	-148.253025
17496		-15.104645	-8.389279	-148.170702
17497		-15.168676	-8.370902	-148.076878
17498		-15.217706	-8.341044	-147.979373
17499		-15.273837	-8.306063	-147.867606
17500		-15.311048	-8.269160	-147.753557
17501		-15.326950	-8.229353	-147.630405
17502		-15.325823	-8.179328	-147.504601
17503		-15.337906	-8.123264	-147.365170
17504		-15.341368	-8.064551	-147.236109
17505		-15.360621	-8.012068	-147.104989
17506		-15.408343	-7.959873	-146.983498
17507		-15.456068	-7.914661	-146.860539
17508		-15.500962	-7.869533	-146.747815
17509		-15.545455	-7.823547	-146.635848
17510		-15.580591	-7.784727	-146.524223
17511		-15.599850	-7.742413	-146.409441
17512		-15.643333	-7.702511	-146.289782
17513		-15.639112	-7.652360	-146.157647
17514		-15.658076	-7.612627	-146.022138
17515		-15.674498	-7.575121	-145.874274
17516		-15.694853	-7.525706	-145.734184
17517		-15.730673	-7.474194	-145.590825
17518		-15.768059	-7.411066	-145.453856
17519		-15.837910	-7.349428	-145.307180
17520		-15.897779	-7.292763	-145.158687
17521		-15.954374	-7.243352	-144.998635
17522		-16.002158	-7.189730	-144.843756
17523		-16.025160	-7.136303	-144.684117
17524		-16.059985	-7.077585	-144.518671
17525		-16.111608	-7.007030	-144.339731
17526		-16.145197	-6.938310	-144.154510
17527		-16.205253	-6.888679	-143.960927
17528		-16.320531	-6.823079	-143.760832
17529		-16.414791	-6.770885	-143.551045
17530		-16.513385	-6.710188	-143.346545
17531		-16.602815	-6.639673	-143.136289
17532		-16.716740	-6.570220	-142.922610
17533		-16.853286	-6.504610	-142.703181
17534		-16.931555	-6.441066	-142.487617
17535		-16.982660	-6.386033	-142.257893
17536		-17.041771	-6.329584	-142.023665
17537		-17.055397	-6.263622	-141.792608
17538		-17.114024	-6.208760	-141.568202
17539		-17.214141	-6.148238	-141.339453
17540		-17.278442	-6.085526	-141.120394
17541		-17.349371	-6.032068	-140.889221
17542		-17.415438	-5.982374	-140.663560
17543		-17.490217	-5.931718	-140.423419
17544		-17.549184	-5.869041	-140.181087
17545		-17.569636	-5.795574	-139.931855
17546		-17.594280	-5.711214	-139.683930
17547		-17.586880	-5.619025	-139.428473
17548		-17.612112	-5.533899	-139.175756
17549		-17.648423	-5.461239	-138.905567
17550		-17.701362	-5.398341	-138.630274
17551		-17.776245	-5.324764	-138.349404
17552		-17.843324	-5.255525	-138.065163
17553		-17.860863	-5.183277	-137.764571
17554		-17.866744	-5.109988	-137.453451
17555		-17.849877	-5.020626	-137.136463
17556		-17.821383	-4.921348	-136.820922
17557		-17.743556	-4.825305	-136.508907
17558		-17.714480	-4.724313	-136.202694
17559		-17.749926	-4.596392	-135.894102
17560		-17.779847	-4.447229	-135.590095
17561		-17.815397	-4.307917	-135.274122
17562		-17.868615	-4.143069	-134.958931
17563		-17.910247	-3.955352	-134.626518
17564		-17.929042	-3.747885	-134.284443
17565		-17.923127	-3.543409	-133.933164
17566		-17.891829	-3.317737	-133.584278
17567		-17.851963	-3.041913	-133.247178
17568		-17.858392	-2.690831	-132.931504
17569		-17.939468	-2.357048	-132.609906
17570		-17.924105	-2.032495	-132.311866
17571		-17.886787	-1.662524	-132.035710
17572		-17.966594	-1.260975	-131.774995
17573		-18.001171	-0.879925	-131.520283
17574		-17.892774	-0.501846	-131.291608
17575		-17.772860	-0.144781	-131.071739
17576		-17.712774	0.202251	-130.886760
17577		-17.801530	0.564073	-130.723672
17578		-17.970861	0.934462	-130.589040
17579		-18.110713	1.277902	-130.456231
17580		-18.403460	1.591245	-130.336853
17581		-18.641357	1.856648	-130.209379
17582		-18.656161	2.078291	-130.097321
17583		-18.576636	2.254020	-129.992159
17584		-18.492379	2.397153	-129.913598
17585		-18.450156	2.507036	-129.853822
17586		-18.454345	2.591743	-129.823215
17587		-18.523840	2.653454	-129.810040
17588		-18.631714	2.684282	-129.812976
17589		-18.730949	2.699125	-129.830064
17590		-18.825489	2.695976	-129.859676
17591		-18.912580	2.673110	-129.888368
17592		-18.985478	2.641303	-129.912150
17593		-18.976421	2.598424	-129.920837
17594		-18.858195	2.559119	-129.931626
17595		-18.696706	2.518761	-129.935314
17596		-18.572850	2.474100	-129.943229
17597		-18.480764	2.425855	-129.951002
17598		-18.384002	2.382887	-129.966170
17599		-18.291582	2.344151	-129.978376
17600		-18.214189	2.318393	-129.999270
17601		-18.151437	2.287917	-130.019637
17602		-18.101017	2.272599	-130.053884
17603		-18.084950	2.248649	-130.081351
17604		-18.112876	2.214306	-130.116510
17605		-18.140920	2.184458	-130.156493
17606		-18.165063	2.160737	-130.202424
17607		-18.171291	2.140257	-130.254713
17608		-18.203894	2.132930	-130.319050
17609		-18.178796	2.144254	-130.398435
17610		-18.077355	2.181362	-130.491943
17611		-18.123273	2.228962	-130.578797
17612		-18.291413	2.286726	-130.676042
17613		-18.440673	2.387146	-130.763927
17614		-18.413802	2.477358	-130.841013
17615		-18.298880	2.557286	-130.912255
17616		-18.265798	2.649122	-130.979945
17617		-18.338719	2.738563	-131.030161
17618		-18.384157	2.808414	-131.069084
17619		-18.390331	2.868204	-131.090356
17620		-18.249164	2.941066	-131.105271
17621		-18.029767	3.010310	-131.101703
17622		-17.847508	3.083045	-131.098754
17623		-17.715467	3.160179	-131.082765
17624		-17.640965	3.239425	-131.066345
17625		-17.654218	3.312602	-131.041072
17626		-17.736743	3.382902	-131.025100
17627		-17.870368	3.433560	-131.012201
17628		-18.091916	3.484057	-131.011618
17629		-18.406542	3.529429	-131.020920
17630		-18.753160	3.580412	-131.045918
17631		-19.087337	3.626788	-131.074794
17632		-19.464890	3.682487	-131.115067
17633		-19.802016	3.758742	-131.149136
17634		-20.062300	3.848808	-131.176419
17635		-20.298435	3.928713	-131.185758
17636		-20.524262	3.984953	-131.189225
17637		-20.742842	4.023236	-131.187640
17638		-20.958931	4.040341	-131.183554
17639		-21.169916	4.039235	-131.173903
17640		-21.376275	4.018562	-131.160019
17641		-21.619909	3.988996	-131.144844
17642		-21.935072	3.969402	-131.136807
17643		-22.257377	3.961777	-131.133078
17644		-22.503208	3.960802	-131.139262
17645		-22.724224	3.966725	-131.157334
17646		-22.964080	3.987656	-131.188773
17647		-23.182221	4.018303	-131.219199
17648		-23.346157	4.057677	-131.259266
17649		-23.440591	4.104924	-131.305982
17650		-23.530887	4.164628	-131.359531
17651		-23.624955	4.219899	-131.413842
17652		-23.784646	4.278159	-131.469569
17653		-23.991180	4.334110	-131.512229
17654		-24.009930	4.387834	-131.566611
17655		-23.958375	4.434227	-131.617408
17656		-23.945404	4.479383	-131.676284
17657		-23.888474	4.520898	-131.737085
17658		-23.843127	4.570487	-131.804565
17659		-23.804380	4.631297	-131.874769
17660		-23.772034	4.697448	-131.948724
17661		-23.757633	4.761994	-132.019275
17662		-23.723917	4.830913	-132.091069
17663		-23.670169	4.884674	-132.145146
17664		-23.597358	4.936279	-132.197569
17665		-23.541529	4.978622	-132.236656
17666		-23.510936	5.019976	-132.274998
17667		-23.509420	5.061820	-132.310407
17668		-23.515361	5.102640	-132.347797
17669		-23.528619	5.138611	-132.378763
17670		-23.556534	5.168252	-132.410699
17671		-23.584038	5.191481	-132.435741
17672		-23.605345	5.211980	-132.462581
17673		-23.612878	5.219277	-132.485137
17674		-23.613353	5.224224	-132.509318
17675		-23.593221	5.227201	-132.525664
17676		-23.569291	5.229155	-132.541554
17677		-23.540629	5.234910	-132.551923
17678		-23.538093	5.237716	-132.564111
17679		-23.540230	5.238861	-132.567971
17680		-23.536032	5.240842	-132.574423
17681		-23.517491	5.239656	-132.574854
17682		-23.499930	5.241724	-132.577014
17683		-23.489156	5.241943	-132.574972
17684		-23.497462	5.249534	-132.578212
17685		-23.500687	5.260455	-132.576197
17686		-23.510700	5.274344	-132.579921
17687		-23.527062	5.288719	-132.579765
17688		-23.546709	5.302684	-132.586664
17689		-23.553761	5.314361	-132.591959
17690		-23.554999	5.323948	-132.600724
17691		-23.544980	5.328360	-132.605738
17692		-23.519210	5.330099	-132.615761
17693		-23.494060	5.328320	-132.616286
17694		-23.478983	5.327856	-132.618664
17695		-23.478169	5.327151	-132.614816
17696		-23.483334	5.335883	-132.613276
17697		-23.506110	5.344428	-132.608214
17698		-23.526426	5.349817	-132.603909
17699		-23.571216	5.346366	-132.592469
17700		-23.620907	5.341846	-132.588489
17701		-23.656518	5.331285	-132.578445
17702		-23.660375	5.310978	-132.568382
17703		-23.719204	5.277858	-132.545472
17704		-23.799330	5.238278	-132.504585
17705		-23.919700	5.182217	-132.434340
17706		-24.144269	5.124379	-132.374364
17707		-24.295680	5.052978	-132.311882
17708		-24.354388	4.953540	-132.254892
17709		-24.439072	4.836792	-132.198954
17710		-24.577151	4.712776	-132.139056
17711		-24.676825	4.588162	-132.089322
17712		-24.764809	4.462991	-132.052688
17713		-24.913628	4.330433	-132.004780
17714		-24.978415	4.207326	-131.970948
17715		-25.027079	4.074937	-131.937227
17716		-25.079703	3.940306	-131.915578
17717		-25.099330	3.788111	-131.897196
17718		-25.107920	3.627376	-131.887179
17719		-25.095636	3.442393	-131.872613
17720		-25.116864	3.254060	-131.858181
17721		-25.165802	3.052976	-131.833798
17722		-25.260807	2.860261	-131.817295
17723		-25.373757	2.671058	-131.814216
17724		-25.408917	2.454786	-131.851236
17725		-24.865905	2.138018	-131.864297
17726		-24.558775	1.884163	-131.902801
17727		-24.783685	1.621530	-131.939901
17728		-24.850120	1.380142	-131.985342
17729		-24.677454	1.144785	-132.027067
17730		-24.545989	0.903800	-132.075949
17731		-24.467905	0.644035	-132.119917
17732		-24.422133	0.367864	-132.173406
17733		-24.399217	0.101068	-132.232256
17734		-24.389246	-0.158038	-132.306597
17735		-24.326491	-0.419086	-132.388724
17736		-24.234881	-0.675079	-132.485406
17737		-24.128805	-0.926093	-132.582339
17738		-24.016534	-1.165879	-132.686436
17739		-23.913419	-1.404057	-132.781409
17740		-23.805584	-1.638531	-132.883878
17741		-23.688950	-1.871700	-132.992487
17742		-23.562560	-2.114668	-133.114206
17743		-23.457570	-2.359944	-133.231340
17744		-23.326364	-2.614277	-133.347389
17745		-23.144314	-2.866103	-133.469525
17746		-23.054604	-3.085104	-133.583830
17747		-22.914856	-3.317132	-133.702227
17748		-22.706881	-3.556299	-133.840737
17749		-22.545568	-3.783875	-133.986738
17750		-22.383567	-4.007282	-134.134996
17751		-22.181037	-4.222096	-134.280339
17752		-21.987677	-4.416953	-134.429907
17753		-21.769532	-4.607823	-134.583777
17754		-21.562022	-4.785563	-134.740347
17755		-21.411460	-4.954638	-134.904787
17756		-21.267047	-5.118944	-135.077404
17757		-21.119575	-5.280154	-135.253647
17758		-20.995245	-5.422833	-135.440982
17759		-20.889942	-5.560099	-135.633133
17760		-20.797819	-5.682302	-135.826512
17761		-20.708834	-5.794692	-136.022519
17762		-20.638147	-5.897614	-136.228768
17763		-20.590897	-6.004478	-136.436892
17764		-20.561968	-6.102930	-136.650178
17765		-20.543434	-6.198197	-136.859307
17766		-20.516960	-6.290132	-137.072552
17767		-20.509248	-6.378886	-137.277434
17768		-20.529955	-6.450510	-137.482603
17769		-20.524168	-6.519570	-137.682352
17770		-20.495682	-6.584700	-137.876927
17771		-20.474955	-6.658052	-138.066278
17772		-20.428918	-6.726264	-138.264969
17773		-20.386515	-6.799110	-138.463155
17774		-20.340191	-6.873092	-138.666616
17775		-20.298435	-6.949717	-138.860962
17776		-20.234503	-7.020905	-139.050121
17777		-20.146622	-7.092922	-139.236440
17778		-20.052696	-7.166070	-139.432073
17779		-19.941800	-7.240401	-139.629187
17780		-19.881726	-7.305702	-139.836641
17781		-19.840605	-7.365195	-140.042406
17782		-19.777848	-7.416939	-140.247898
17783		-19.711244	-7.469481	-140.454230
17784		-19.660594	-7.523888	-140.667228
17785		-19.601452	-7.596668	-140.877927
17786		-19.587713	-7.673114	-141.081645
17787		-19.554285	-7.752868	-141.272062
17788		-19.495209	-7.824123	-141.458678
17789		-19.430387	-7.891302	-141.639314
17790		-19.350416	-7.946687	-141.818996
17791		-19.252179	-8.003908	-141.995724
17792		-19.141823	-8.058796	-142.182012
17793		-18.991935	-8.124779	-142.377885
17794		-18.895820	-8.184894	-142.584982
17795		-18.755342	-8.254892	-142.799533
17796		-18.592902	-8.332845	-143.019160
17797		-18.432385	-8.410266	-143.235099
17798		-18.292644	-8.484428	-143.458574
17799		-18.114405	-8.561857	-143.675430
17800		-17.901433	-8.647780	-143.887180
17801		-17.676628	-8.746891	-144.095171
17802		-17.509344	-8.838869	-144.306995
17803		-17.339197	-8.938835	-144.508960
17804		-17.238309	-9.030873	-144.702531
17805		-17.152967	-9.114564	-144.900977
17806		-17.064410	-9.196762	-145.103247
17807		-17.010513	-9.269853	-145.322798
17808		-16.981514	-9.329039	-145.552034
17809		-16.932171	-9.386002	-145.778734
17810		-16.891711	-9.435114	-146.004787
17811		-16.899652	-9.481218	-146.211535
17812		-16.915306	-9.516360	-146.404023
17813		-16.882063	-9.545445	-146.573914
17814		-16.864964	-9.578769	-146.727342
17815		-16.843242	-9.615268	-146.874094
17816		-16.848141	-9.649638	-147.008546
17817		-16.896811	-9.681407	-147.135117
17818		-16.942705	-9.702319	-147.255853
17819		-16.942655	-9.720774	-147.362112
17820		-16.942711	-9.726705	-147.457446
17821		-16.901031	-9.720346	-147.533221
17822		-16.819198	-9.710035	-147.594055
17823		-16.752227	-9.698742	-147.637444
17824		-16.664417	-9.685713	-147.673580
17825		-16.574398	-9.669653	-147.691736
17826		-16.477228	-9.660259	-147.699979
17827		-16.386515	-9.643872	-147.695256
17828		-16.345848	-9.622510	-147.686287
17829		-16.379633	-9.600148	-147.664865
17830		-16.444331	-9.577888	-147.634410
17831		-16.459331	-9.570359	-147.586567
17832		-16.474875	-9.577059	-147.529558
17833		-16.512453	-9.591537	-147.472841
17834		-16.596763	-9.608168	-147.426235
17835		-16.688024	-9.622485	-147.395850
17836		-16.804475	-9.634604	-147.380900
17837		-16.920523	-9.650853	-147.374800
17838		-17.021249	-9.669672	-147.370299
17839		-17.000856	-9.702756	-147.359610
17840		-16.880835	-9.767912	-147.344250
17841		-16.782041	-9.850754	-147.327944
17842		-16.725092	-9.939089	-147.325676
17843		-16.704135	-10.029713	-147.333706
17844		-16.719161	-10.119694	-147.352125
17845		-16.706907	-10.215765	-147.377611
17846		-16.611089	-10.293961	-147.413702
17847		-16.538520	-10.361026	-147.439279
17848		-16.392871	-10.421639	-147.460943
17849		-16.231802	-10.486489	-147.479845
17850		-16.070470	-10.542510	-147.506211
17851		-15.869187	-10.619507	-147.532321
17852		-15.620548	-10.704316	-147.575724
17853		-15.400284	-10.763914	-147.633198
17854		-15.237961	-10.819105	-147.697566
17855		-14.996228	-10.874611	-147.761185
17856		-14.748958	-10.921388	-147.824218
17857		-14.532594	-10.974714	-147.887717
17858		-14.295237	-11.039356	-147.951458
17859		-14.045339	-11.105660	-148.018288
17860		-13.817264	-11.180297	-148.102610
17861		-13.715237	-11.233920	-148.200547
17862		-13.711506	-11.283224	-148.317529
17863		-13.662395	-11.326084	-148.439771
17864		-13.605020	-11.365503	-148.550828
17865		-13.596949	-11.406809	-148.654273
17866		-13.524811	-11.448342	-148.755399
17867		-13.480006	-11.487586	-148.845679
17868		-13.449055	-11.535653	-148.930444
17869		-13.450578	-11.585382	-148.996393
17870		-13.424863	-11.642482	-149.073902
17871		-13.363080	-11.699418	-149.146952
17872		-13.409248	-11.743396	-149.210985
17873		-13.532431	-11.774838	-149.258746
17874		-13.586907	-11.803669	-149.301697
17875		-13.514149	-11.832332	-149.333538
17876		-13.379043	-11.869505	-149.360956
17877		-13.217494	-11.910809	-149.392885
17878		-13.117932	-11.952369	-149.432897
17879		-13.114814	-11.994515	-149.477966
17880		-13.184278	-12.010777	-149.541890
17881		-13.249295	-12.037126	-149.605165
17882		-13.369262	-12.046111	-149.679102
17883		-13.604247	-12.050568	-149.748068
17884		-13.865701	-12.048422	-149.819272
17885		-14.102024	-12.040476	-149.892403
17886		-14.372695	-12.021553	-149.963851
17887		-14.740274	-11.976043	-150.038898
17888		-15.109286	-11.928159	-150.102338
17889		-15.266679	-11.883933	-150.146675
17890		-15.164804	-11.816140	-150.174653
17891		-14.986375	-11.762702	-150.186471
17892		-14.786546	-11.701923	-150.195008
17893		-14.606338	-11.650773	-150.189395
17894		-14.485459	-11.604112	-150.180538
17895		-14.465522	-11.565054	-150.168540
17896		-14.484721	-11.528742	-150.157676
17897		-14.509685	-11.502618	-150.148522
17898		-14.536533	-11.475014	-150.153477
17899		-14.577535	-11.448476	-150.162957
17900		-14.620997	-11.426354	-150.182447
17901		-14.627428	-11.410210	-150.209950
17902		-14.585497	-11.396915	-150.250354
17903		-14.525374	-11.384852	-150.291147
17904		-14.436802	-11.372967	-150.346486
17905		-14.349499	-11.371541	-150.401580
17906		-14.277388	-11.374083	-150.458923
17907		-14.178347	-11.379148	-150.515178
17908		-14.100195	-11.377698	-150.564199
17909		-14.023812	-11.382424	-150.606552
17910		-13.949955	-11.382676	-150.648760
17911		-13.914600	-11.379504	-150.692765
17912		-13.937375	-11.372549	-150.730611
17913		-13.956676	-11.361552	-150.755836
17914		-13.946416	-11.349850	-150.771424
17915		-13.907079	-11.336758	-150.780231
17916		-13.875120	-11.324157	-150.785667
17917		-13.857546	-11.313082	-150.783909
17918		-13.855408	-11.302939	-150.781198
17919		-13.883484	-11.297735	-150.778330
17920		-13.930667	-11.292667	-150.776148
17921		-13.990253	-11.286127	-150.769171
17922		-14.042515	-11.274851	-150.763849
17923		-14.085397	-11.264589	-150.755186
17924		-14.127648	-11.255279	-150.748592
17925		-14.146051	-11.245458	-150.736813
17926		-14.177578	-11.235808	-150.715949
17927		-14.186451	-11.230649	-150.692632
17928		-14.208984	-11.220134	-150.667575
17929		-14.268927	-11.211029	-150.631541
17930		-14.351854	-11.199443	-150.593915
17931		-14.433245	-11.190021	-150.553139
17932		-14.565816	-11.177333	-150.509660
17933		-14.697565	-11.166183	-150.456897
17934		-14.857817	-11.146643	-150.398206
17935		-15.030846	-11.120030	-150.329103
17936		-15.183703	-11.089125	-150.248310
17937		-15.325256	-11.053661	-150.149852
17938		-15.435424	-11.012748	-150.041508
17939		-15.466291	-10.979946	-149.915052
17940		-15.445117	-10.939056	-149.785026
17941		-15.428171	-10.898958	-149.648233
17942		-15.487582	-10.847931	-149.519815
17943		-15.608223	-10.800854	-149.393354
17944		-15.745243	-10.751893	-149.278938
17945		-15.871548	-10.702596	-149.164077
17946		-15.993612	-10.652760	-149.053179
17947		-16.061551	-10.609819	-148.934217
17948		-16.118149	-10.567388	-148.818306
17949		-16.168740	-10.513815	-148.698715
17950		-16.245543	-10.458868	-148.577884
17951		-16.346131	-10.405489	-148.454743
17952		-16.433266	-10.354468	-148.321445
17953		-16.496900	-10.308335	-148.171446
17954		-16.565417	-10.271086	-148.013300
17955		-16.636122	-10.235431	-147.843044
17956		-16.710874	-10.202804	-147.667469
17957		-16.779890	-10.171419	-147.478640
17958		-16.872486	-10.137256	-147.281478
17959		-16.958561	-10.090410	-147.085855
17960		-17.058682	-10.040710	-146.896546
17961		-17.167049	-9.977859	-146.715302
17962		-17.306169	-9.909847	-146.546901
17963		-17.473948	-9.840968	-146.388967
17964		-17.637703	-9.768401	-146.257241
17965		-17.784655	-9.693599	-146.132786
17966		-17.845561	-9.632563	-146.022082
17967		-17.830263	-9.590112	-145.914390
17968		-17.790913	-9.558106	-145.811526
17969		-17.737010	-9.538952	-145.709389
17970		-17.678123	-9.531217	-145.617515
17971		-17.647994	-9.528882	-145.523563
17972		-17.698390	-9.522362	-145.439199
17973		-17.731886	-9.529594	-145.366408
17974		-17.743977	-9.539024	-145.302343
17975		-17.766648	-9.551762	-145.238769
17976		-17.776863	-9.571481	-145.188709
17977		-17.783286	-9.594906	-145.141910
17978		-17.822844	-9.614758	-145.100400
17979		-17.823727	-9.637095	-145.054957
17980		-17.858316	-9.656226	-145.013353
17981		-17.908810	-9.664323	-144.960919
17982		-17.956155	-9.664021	-144.904477
17983		-17.981395	-9.669635	-144.834251
17984		-18.024479	-9.658735	-144.755552
17985		-18.084756	-9.643968	-144.665193
17986		-18.174165	-9.619619	-144.566801
17987		-18.231789	-9.588170	-144.461841
17988		-18.335134	-9.541817	-144.351841
17989		-18.412448	-9.503331	-144.229442
17990		-18.477021	-9.467197	-144.097711
17991		-18.554460	-9.430148	-143.957393
17992		-18.635565	-9.388806	-143.820107
17993		-18.699638	-9.341212	-143.681332
17994		-18.760209	-9.275430	-143.547103
17995		-18.855197	-9.189156	-143.415637
17996		-18.944395	-9.102821	-143.287437
17997		-19.031797	-9.016230	-143.161505
17998		-19.094638	-8.930653	-143.043663
17999		-19.128884	-8.855664	-142.922022
18000		-19.122467	-8.772524	-142.806967
18001		-19.094606	-8.682845	-142.699127
18002		-19.036922	-8.591381	-142.589874
18003		-18.971393	-8.491514	-142.473254
18004		-18.928905	-8.402303	-142.346095
18005		-18.896383	-8.304850	-142.213455
18006		-18.938721	-8.201208	-142.075642
18007		-19.003036	-8.092742	-141.930424
18008		-19.110155	-7.975496	-141.784964
18009		-19.261971	-7.855150	-141.633128
18010		-19.446025	-7.705234	-141.484052
18011		-19.614015	-7.546175	-141.316306
18012		-19.807716	-7.352016	-141.120582
18013		-19.989615	-7.144931	-140.880676
18014		-20.199579	-6.902041	-140.604846
18015		-20.461741	-6.616714	-140.285782
18016		-20.704906	-6.297596	-139.921792
18017		-20.800921	-5.953764	-139.516605
18018		-20.790975	-5.599220	-139.101686
18019		-20.711619	-5.239669	-138.673926
18020		-20.602425	-4.873875	-138.249695
18021		-20.475564	-4.526678	-137.826683
18022		-20.504794	-4.203223	-137.399925
18023		-20.587276	-3.867224	-136.960802
18024		-20.679998	-3.528956	-136.503884
18025		-20.785922	-3.210380	-136.023542
18026		-20.787282	-2.881845	-135.547837
18027		-20.730209	-2.558934	-135.069467
18028		-20.654048	-2.256121	-134.606985
18029		-20.561852	-1.968174	-134.165306
18030		-20.425349	-1.713417	-133.748445
18031		-20.160389	-1.435973	-133.380410
18032		-20.194745	-1.187854	-133.042864
18033		-20.473501	-0.951929	-132.748527
18034		-20.546259	-0.712136	-132.495961
18035		-20.526524	-0.428418	-132.262005
18036		-20.481654	-0.175457	-132.038380
18037		-20.374144	0.052953	-131.822687
18038		-20.125668	0.248759	-131.630251
18039		-19.938473	0.422298	-131.451794
18040		-19.931604	0.582954	-131.295503
18041		-19.989886	0.744278	-131.171990
18042		-19.968755	0.923378	-131.084422
18043		-19.991853	1.137101	-131.034369
18044		-20.127802	1.375359	-131.017961
18045		-20.371509	1.649747	-131.018551
18046		-20.632541	1.931820	-131.043826
18047		-20.897329	2.225897	-131.068919
18048		-21.138175	2.521681	-131.104761
18049		-21.231573	2.812559	-131.141510
18050		-21.194084	3.110461	-131.182205
18051		-21.089737	3.399288	-131.229721
18052		-20.951659	3.680368	-131.294101
18053		-20.805166	3.944081	-131.364264
18054		-20.682810	4.199101	-131.453073
18055		-20.651053	4.422480	-131.552112
18056		-20.759192	4.637421	-131.669356
18057		-20.918735	4.845735	-131.804339
18058		-21.113264	5.044852	-131.946618
18059		-21.375263	5.231861	-132.081813
18060		-21.677582	5.398331	-132.207970
18061		-21.910478	5.535554	-132.317831
18062		-21.979787	5.645997	-132.407490
18063		-21.853818	5.721548	-132.467158
18064		-21.586227	5.777841	-132.503139
18065		-21.252881	5.811281	-132.511664
18066		-21.038798	5.829047	-132.510131
18067		-20.917793	5.842385	-132.500411
18068		-20.744151	5.845137	-132.481187
18069		-20.626155	5.842593	-132.454450
18070		-20.584534	5.836502	-132.424434
18071		-20.605722	5.819431	-132.388899
18072		-20.705041	5.796115	-132.351053
18073		-20.851164	5.764227	-132.307035
18074		-20.993658	5.730730	-132.263485
18075		-21.075929	5.697827	-132.215088
18076		-21.099270	5.665245	-132.157881
18077		-21.069367	5.631753	-132.089763
18078		-21.033826	5.606437	-132.004609
18079		-21.080993	5.574571	-131.897337
18080		-21.078835	5.567878	-131.800574
18081		-21.002274	5.561385	-131.708808
18082		-20.928337	5.560191	-131.630949
18083		-20.858378	5.577053	-131.568143
18084		-20.825640	5.611262	-131.510010
18085		-20.842464	5.625067	-131.456851
18086		-20.896921	5.661501	-131.405714
18087		-20.863322	5.731804	-131.361634
18088		-20.762629	5.808290	-131.319143
18089		-20.637036	5.884588	-131.278741
18090		-20.523025	5.964711	-131.246286
18091		-20.424335	6.036958	-131.215570
18092		-20.318531	6.100433	-131.183150
18093		-20.209946	6.168800	-131.155291
18094		-20.070768	6.259025	-131.132171
18095		-19.918202	6.351743	-131.110168
18096		-19.798108	6.462192	-131.103782
18097		-19.780069	6.571088	-131.100520
18098		-19.858155	6.676285	-131.105322
18099		-20.039049	6.788317	-131.115922
18100		-20.227767	6.911958	-131.140922
18101		-20.424213	7.047732	-131.174327
18102		-20.643213	7.215971	-131.232078
18103		-20.930420	7.395113	-131.299321
18104		-21.299718	7.590532	-131.374741
18105		-21.679649	7.808685	-131.467832
18106		-22.105217	8.050811	-131.570359
18107		-22.639785	8.316597	-131.689858
18108		-23.190048	8.601420	-131.821856
18109		-23.703357	8.892147	-131.945290
18110		-24.137195	9.200172	-132.062988
18111		-24.421755	9.519204	-132.170231
18112		-24.566746	9.844862	-132.281084
18113		-24.646204	10.186777	-132.397634
18114		-24.722064	10.537269	-132.527809
18115		-24.792402	10.885733	-132.679163
18116		-24.840827	11.217047	-132.846862
18117		-24.911483	11.532219	-133.024090
18118		-24.962787	11.832852	-133.208428
18119		-24.940888	12.111820	-133.401429
18120		-24.843022	12.379290	-133.578677
18121		-24.785352	12.629702	-133.737762
18122		-24.718065	12.861356	-133.903672
18123		-24.714543	13.085458	-134.053570
18124		-24.749633	13.295754	-134.196565
18125		-24.754984	13.496061	-134.339690
18126		-24.779517	13.700209	-134.481440
18127		-24.807540	13.897297	-134.608771
18128		-24.826074	14.096584	-134.732982
18129		-24.824333	14.287896	-134.848416
18130		-24.815240	14.484212	-134.963704
18131		-24.799423	14.685153	-135.072171
18132		-24.789856	14.883631	-135.177592
18133		-24.765920	15.071320	-135.280295
18134		-24.706225	15.248227	-135.377774
18135		-24.654582	15.419120	-135.468258
18136		-24.584328	15.585071	-135.550322
18137		-24.503702	15.741787	-135.627362
18138		-24.438785	15.898697	-135.701583
18139		-24.374351	16.050148	-135.769041
18140		-24.334992	16.204569	-135.835852
18141		-24.320077	16.347141	-135.898035
18142		-24.290357	16.477877	-135.960753
18143		-24.256878	16.585857	-136.026740
18144		-24.236136	16.677609	-136.097604
18145		-24.233277	16.761951	-136.168951
18146		-24.237710	16.847949	-136.238508
18147		-24.210293	16.918786	-136.300614
18148		-24.195274	16.982372	-136.355438
18149		-24.182345	17.032539	-136.398808
18150		-24.177210	17.073976	-136.441342
18151		-24.178129	17.107096	-136.477486
18152		-24.164190	17.134752	-136.513478
18153		-24.134352	17.150844	-136.541336
18154		-24.113341	17.163517	-136.567034
18155		-24.105651	17.171735	-136.589615
18156		-24.119496	17.181007	-136.610419
18157		-24.149239	17.187492	-136.633458
18158		-24.175484	17.198145	-136.655791
18159		-24.197338	17.206119	-136.676736
18160		-24.226138	17.217571	-136.699779
18161		-24.243035	17.228119	-136.721777
18162		-24.243133	17.238786	-136.745494
18163		-24.245561	17.249707	-136.771860
18164		-24.245268	17.263988	-136.801533
18165		-24.262840	17.275790	-136.831359
18166		-24.287807	17.294148	-136.865924
18167		-24.311664	17.305627	-136.901447
18168		-24.337841	17.321406	-136.944529
18169		-24.349995	17.329056	-136.985272
18170		-24.353001	17.331743	-137.030535
18171		-24.355696	17.330494	-137.073690
18172		-24.355116	17.325543	-137.113372
18173		-24.358805	17.316287	-137.141537
18174		-24.397558	17.304714	-137.167801
18175		-24.457572	17.291046	-137.193570
18176		-24.513647	17.271394	-137.219740
18177		-24.559110	17.238555	-137.231276
18178		-24.584129	17.191531	-137.225933
18179		-24.593150	17.132833	-137.194525
18180		-24.647548	17.072142	-137.142475
18181		-24.749041	17.016314	-137.069861
18182		-24.923830	16.978371	-136.990511
18183		-25.176426	16.947017	-136.907079
18184		-25.449868	16.915538	-136.823296
18185		-25.711666	16.874151	-136.729453
18186		-25.892381	16.812617	-136.618064
18187		-25.958984	16.721847	-136.479327
18188		-25.971040	16.601522	-136.316678
18189		-25.915077	16.477191	-136.137822
18190		-25.878799	16.323899	-135.957098
18191		-25.902651	16.197489	-135.781939
18192		-25.871907	16.076780	-135.630228
18193		-25.955572	15.952137	-135.496975
18194		-26.153625	15.844328	-135.396629
18195		-26.480654	15.727074	-135.300733
18196		-26.760557	15.618085	-135.242428
18197		-26.822121	15.508332	-135.187902
18198		-26.866627	15.387920	-135.139090
18199		-26.908201	15.263355	-135.095032
18200		-26.998267	15.135829	-135.057236
18201		-27.023864	14.987105	-135.020541
18202		-27.092373	14.817522	-134.986623
18203		-27.257680	14.624172	-134.949997
18204		-27.465308	14.439488	-134.910553
18205		-27.852337	14.279499	-134.901640
18206		-27.705290	14.038125	-134.878016
18207		-27.300955	13.832934	-134.857515
18208		-27.110401	13.644018	-134.840144
18209		-26.905353	13.468099	-134.827553
18210		-26.743315	13.310462	-134.824822
18211		-26.650817	13.162238	-134.825219
18212		-26.590733	13.021538	-134.833308
18213		-26.628637	12.881362	-134.841669
18214		-26.789181	12.759555	-134.851839
18215		-27.068799	12.650826	-134.855996
18216		-27.269140	12.525343	-134.859351
18217		-27.448616	12.390853	-134.885425
18218		-27.650082	12.252912	-134.932316
18219		-27.811157	12.093471	-134.989551
18220		-27.899079	11.934059	-135.051696
18221		-28.004830	11.755066	-135.109369
18222		-28.126614	11.573987	-135.169128
18223		-28.317362	11.397534	-135.224929
18224		-28.479053	11.211046	-135.275509
18225		-28.487515	10.999824	-135.333808
18226		-28.409997	10.781084	-135.388320
18227		-28.308234	10.555267	-135.419026
18228		-28.117734	10.275313	-135.448060
18229		-27.779630	9.908831	-135.542885
18230		-27.575265	9.462889	-135.681069
18231		-27.579392	8.968710	-135.849313
18232		-27.588292	8.432885	-136.039208
18233		-27.439563	7.856934	-136.238089
18234		-27.088225	7.244760	-136.431465
18235		-26.663062	6.585634	-136.603218
18236		-26.162810	5.917924	-136.782884
18237		-25.699341	5.220597	-136.965734
18238		-25.196880	4.502242	-137.144292
18239		-24.635319	3.801827	-137.279106
18240		-24.205174	3.148214	-137.423071
18241		-24.026753	2.527109	-137.605299
18242		-23.901425	1.946415	-137.817970
18243		-23.769404	1.395602	-138.076469
18244		-23.692832	0.902566	-138.370017
18245		-23.712412	0.415561	-138.705281
18246		-23.519153	-0.093224	-139.097586
18247		-23.147874	-0.654981	-139.520043
18248		-22.764706	-1.278970	-139.974871
18249		-22.379160	-1.955326	-140.455964
18250		-21.926197	-2.668288	-140.933860
18251		-21.335503	-3.398091	-141.411485
18252		-20.675677	-4.098484	-141.900376
18253		-20.095212	-4.753199	-142.418814
18254		-19.417072	-5.345506	-142.941496
18255		-18.686000	-5.893459	-143.459198
18256		-18.166067	-6.365824	-143.951454
18257		-17.986264	-6.767044	-144.390311
18258		-18.261337	-7.088362	-144.799523
18259		-18.718384	-7.359836	-145.196610
18260		-18.930930	-7.611202	-145.572810
18261		-18.752768	-7.844944	-145.928960
18262		-18.528865	-8.070002	-146.270156
18263		-18.348333	-8.270109	-146.606975
18264		-18.216264	-8.443944	-146.942083
18265		-18.102138	-8.611659	-147.261907
18266		-18.010186	-8.764397	-147.563410
18267		-17.937719	-8.903715	-147.846760
18268		-17.818738	-9.028744	-148.110467
18269		-17.607625	-9.134420	-148.342024
18270		-17.341043	-9.212379	-148.544066
18271		-17.020928	-9.273379	-148.729388
18272		-16.723847	-9.307392	-148.910288
18273		-16.645709	-9.336653	-149.092461
18274		-16.711845	-9.361132	-149.278296
18275		-16.737302	-9.395575	-149.466861
18276		-16.748877	-9.432033	-149.657589
18277		-16.756313	-9.470962	-149.846431
18278		-16.772840	-9.511610	-150.035278
18279		-16.759435	-9.557235	-150.229179
18280		-16.749431	-9.605142	-150.429111
18281		-16.789509	-9.652225	-150.629790
18282		-16.844430	-9.690966	-150.829850
18283		-16.900538	-9.725128	-151.027049
18284		-16.967419	-9.748754	-151.219700
18285		-17.077761	-9.764404	-151.397534
18286		-17.225924	-9.757026	-151.564238
18287		-17.309551	-9.737345	-151.701646
18288		-17.315098	-9.719307	-151.803578
18289		-17.276566	-9.684102	-151.880793
18290		-17.235964	-9.635189	-151.933902
18291		-17.174610	-9.578293	-151.960053
18292		-17.095581	-9.514643	-151.965738
18293		-17.000092	-9.453339	-151.953726
18294		-16.925404	-9.392283	-151.933256
18295		-16.912931	-9.332836	-151.907357
18296		-16.922327	-9.271880	-151.876622
18297		-16.989176	-9.214523	-151.841353
18298		-17.097300	-9.164044	-151.797172
18299		-17.229754	-9.125591	-151.737012
18300		-17.383170	-9.100881	-151.668023
18301		-17.508835	-9.098179	-151.586527
18302		-17.550986	-9.115877	-151.503445
18303		-17.561180	-9.140461	-151.426642
18304		-17.586887	-9.165996	-151.375530
18305		-17.573144	-9.199530	-151.353169
18306		-17.590291	-9.233912	-151.350397
18307		-17.623442	-9.274766	-151.354126
18308		-17.580460	-9.329895	-151.365158
18309		-17.452963	-9.412137	-151.381116
18310		-17.307566	-9.508744	-151.403209
18311		-17.167180	-9.596779	-151.440506
18312		-16.991669	-9.681412	-151.492988
18313		-16.754563	-9.761487	-151.560713
18314		-16.513683	-9.840820	-151.635192
18315		-16.308451	-9.917795	-151.704393
18316		-16.038901	-9.981901	-151.760313
18317		-15.730737	-10.037114	-151.788484
18318		-15.435806	-10.084441	-151.808015
18319		-15.187184	-10.135340	-151.819369
18320		-14.970409	-10.171396	-151.844221
18321		-14.726099	-10.208540	-151.879578
18322		-14.422465	-10.254118	-151.933329
18323		-14.127758	-10.292293	-151.995197
18324		-13.904495	-10.319383	-152.047534
18325		-13.698021	-10.363255	-152.090984
18326		-13.443880	-10.417947	-152.128364
18327		-13.199724	-10.473535	-152.173953
18328		-13.048068	-10.526257	-152.223216
18329		-12.996121	-10.595427	-152.278692
18330		-13.071179	-10.675669	-152.344818
18331		-13.234380	-10.749568	-152.413112
18332		-13.448696	-10.795330	-152.485053
18333		-13.544017	-10.851774	-152.562993
18334		-13.484459	-10.889644	-152.644364
18335		-13.372098	-10.945334	-152.724431
18336		-13.284343	-10.982327	-152.807368
18337		-13.137813	-11.032233	-152.883052
18338		-13.023308	-11.084493	-152.944505
18339		-12.983792	-11.129553	-152.999795
18340		-12.963993	-11.170104	-153.051428
18341		-12.935967	-11.210351	-153.095395
18342		-12.855643	-11.243103	-153.131824
18343		-12.702864	-11.264513	-153.174935
18344		-12.555828	-11.291177	-153.212320
18345		-12.410749	-11.306816	-153.249366
18346		-12.344048	-11.309071	-153.292764
18347		-12.428082	-11.308123	-153.329266
18348		-12.568348	-11.285585	-153.368910
18349		-12.653067	-11.257223	-153.411289
18350		-12.744700	-11.229405	-153.445074
18351		-12.852288	-11.185322	-153.473210
18352		-13.014285	-11.133016	-153.497146
18353		-13.246482	-11.062602	-153.511294
18354		-13.445201	-10.980090	-153.531571
18355		-13.572136	-10.893404	-153.556365
18356		-13.766053	-10.811216	-153.588329
18357		-14.096796	-10.766349	-153.635645
18358		-14.905394	-10.666246	-153.603375
18359		-15.413631	-10.598315	-153.574804
18360		-14.933928	-10.505565	-153.528068
18361		-14.208534	-10.455503	-153.480333
18362		-13.558484	-10.431293	-153.463512
18363		-13.207411	-10.403327	-153.458473
18364		-13.343462	-10.375065	-153.457758
18365		-13.695088	-10.342431	-153.460945
18366		-13.948280	-10.306394	-153.468940
18367		-13.964251	-10.279417	-153.472124
18368		-13.908483	-10.253737	-153.475823
18369		-13.887638	-10.241039	-153.482999
18370		-13.814383	-10.235278	-153.495688
18371		-13.744857	-10.232885	-153.504444
18372		-13.704005	-10.229870	-153.517577
18373		-13.664360	-10.229976	-153.535123
18374		-13.626127	-10.234219	-153.546200
18375		-13.585483	-10.238232	-153.556039
18376		-13.538490	-10.241036	-153.560875
18377		-13.519295	-10.247299	-153.564026
18378		-13.496231	-10.255342	-153.564543
18379		-13.448487	-10.266851	-153.558586
18380		-13.393105	-10.282232	-153.548747
18381		-13.346417	-10.300678	-153.534401
18382		-13.333001	-10.312833	-153.514547
18383		-13.335423	-10.323732	-153.489696
18384		-13.384061	-10.336889	-153.453696
18385		-13.451449	-10.341390	-153.407074
18386		-13.528049	-10.344772	-153.353273
18387		-13.681045	-10.342209	-153.283847
18388		-13.795773	-10.336668	-153.203759
18389		-13.878231	-10.320974	-153.108498
18390		-13.981100	-10.297145	-152.998960
18391		-14.046044	-10.263332	-152.882410
18392		-14.109661	-10.223924	-152.756107
18393		-14.202496	-10.179624	-152.625432
18394		-14.292361	-10.122887	-152.490601
18395		-14.399409	-10.065009	-152.353029
18396		-14.543332	-9.996711	-152.205248
18397		-14.699846	-9.926206	-152.047609
18398		-14.872863	-9.852660	-151.873593
18399		-15.012023	-9.763547	-151.683446
18400		-15.107517	-9.683933	-151.470395
18401		-15.192906	-9.603665	-151.240849
18402		-15.261219	-9.508915	-150.998812
18403		-15.348191	-9.410860	-150.744028
18404		-15.486159	-9.311043	-150.486668
18405		-15.664259	-9.218626	-150.220020
18406		-15.843364	-9.118905	-149.953789
18407		-15.954715	-9.037690	-149.669755
18408		-15.995302	-8.965767	-149.372692
18409		-16.002151	-8.897044	-149.060691
18410		-16.065774	-8.826251	-148.736335
18411		-16.161075	-8.754591	-148.404461
18412		-16.286161	-8.674858	-148.077143
18413		-16.472100	-8.587110	-147.750448
18414		-16.722342	-8.493514	-147.423096
18415		-17.034052	-8.392996	-147.084500
18416		-17.388235	-8.277002	-146.744907
18417		-17.663213	-8.154468	-146.389765
18418		-17.769374	-8.057444	-146.009532
18419		-17.814417	-7.968931	-145.616631
18420		-17.801110	-7.899782	-145.213074
18421		-17.751466	-7.823989	-144.806002
18422		-17.712335	-7.745044	-144.414776
18423		-17.759707	-7.650534	-144.048623
18424		-17.914809	-7.546938	-143.718573
18425		-18.093783	-7.454010	-143.412336
18426		-18.292674	-7.370229	-143.135322
18427		-18.512585	-7.291737	-142.872238
18428		-18.716121	-7.217631	-142.613733
18429		-18.893517	-7.129460	-142.350049
18430		-18.984899	-7.019076	-142.081956
18431		-19.037105	-6.896639	-141.789755
18432		-19.103337	-6.768700	-141.481085
18433		-19.128052	-6.642106	-141.157701
18434		-19.179543	-6.519037	-140.826486
18435		-19.249778	-6.397484	-140.487998
18436		-19.284673	-6.277308	-140.151124
18437		-19.296226	-6.152397	-139.820242
18438		-19.333336	-6.027063	-139.485409
18439		-19.392549	-5.912975	-139.135631
18440		-19.444430	-5.796855	-138.781952
18441		-19.501460	-5.697781	-138.415459
18442		-19.559952	-5.596738	-138.046237
18443		-19.592225	-5.493439	-137.668601
18444		-19.663146	-5.387145	-137.284634
18445		-19.760099	-5.264035	-136.897195
18446		-19.908929	-5.127798	-136.514531
18447		-20.011080	-4.975898	-136.136581
18448		-20.063329	-4.841299	-135.767803
18449		-20.126980	-4.713498	-135.405118
18450		-20.173506	-4.578512	-135.053507
18451		-20.198247	-4.444184	-134.704664
18452		-20.251236	-4.295281	-134.358670
18453		-20.326055	-4.135639	-134.009681
18454		-20.427991	-3.965001	-133.657135
18455		-20.563984	-3.765067	-133.294735
18456		-20.694329	-3.548912	-132.926851
18457		-20.783899	-3.326113	-132.555161
18458		-20.930923	-3.057931	-132.170656
18459		-21.060017	-2.757240	-131.792662
18460		-21.056551	-2.423360	-131.408752
18461		-21.111745	-2.065738	-131.011054
18462		-21.229967	-1.685180	-130.606233
18463		-21.304393	-1.293917	-130.192865
18464		-21.308427	-0.935671	-129.769335
18465		-21.215821	-0.577919	-129.354431
18466		-21.112728	-0.193796	-128.950246
18467		-21.121957	0.179275	-128.555825
18468		-21.202419	0.576440	-128.193507
18469		-21.287247	0.997047	-127.857037
18470		-21.299520	1.416839	-127.584648
18471		-21.310196	1.865965	-127.357474
18472		-21.529734	2.196941	-127.149627
18473		-21.606781	2.446042	-126.969189
18474		-21.373655	2.696870	-126.832162
18475		-20.800325	2.920976	-126.730552
18476		-20.182582	3.170531	-126.674759
18477		-19.493685	3.390539	-126.640667
18478		-18.913027	3.600069	-126.635881
18479		-18.665251	3.785549	-126.652985
18480		-18.818206	3.963389	-126.694462
18481		-19.078485	4.130645	-126.759120
18482		-19.218626	4.278478	-126.844121
18483		-19.270100	4.399945	-126.941923
18484		-19.386246	4.497417	-127.042367
18485		-19.514431	4.582125	-127.135341
18486		-19.656457	4.632527	-127.217226
18487		-19.836547	4.660183	-127.289002
18488		-20.012218	4.701257	-127.354757
18489		-20.027259	4.726648	-127.397873
18490		-19.877057	4.731598	-127.426624
18491		-19.780683	4.735416	-127.443905
18492		-19.740568	4.734919	-127.447684
18493		-19.670966	4.727866	-127.435797
18494		-19.592773	4.716346	-127.418359
18495		-19.556644	4.692377	-127.387064
18496		-19.566713	4.657970	-127.345477
18497		-19.630342	4.621727	-127.289959
18498		-19.701323	4.574380	-127.224535
18499		-19.749879	4.510839	-127.148965
18500		-19.817319	4.444359	-127.066381
18501		-19.890805	4.372503	-126.979728
18502		-19.933748	4.306811	-126.893711
18503		-19.980643	4.236401	-126.800638
18504		-20.071110	4.161471	-126.700446
18505		-20.170752	4.098442	-126.594075
18506		-20.352708	4.045623	-126.488173
18507		-20.575543	3.990512	-126.380027
18508		-20.772816	3.956993	-126.275699
18509		-20.939125	3.968975	-126.186539
18510		-21.072748	4.017295	-126.099700
18511		-21.048342	4.086466	-126.006297
18512		-20.964746	4.190281	-125.915255
18513		-20.846512	4.291269	-125.829974
18514		-20.804019	4.404578	-125.737137
18515		-20.760993	4.536639	-125.647474
18516		-20.643658	4.691892	-125.579184
18517		-20.430056	4.893962	-125.517665
18518		-20.158201	5.120816	-125.473029
18519		-19.779429	5.348890	-125.441760
18520		-19.462780	5.605193	-125.423338
18521		-19.460432	5.909725	-125.405265
18522		-19.544085	6.236794	-125.385231
18523		-19.569762	6.598487	-125.348254
18524		-19.657113	7.018605	-125.316124
18525		-19.821784	7.473536	-125.308175
18526		-19.922405	7.945485	-125.318659
18527		-19.910973	8.423041	-125.331072
18528		-19.817895	8.893537	-125.348026
18529		-19.768233	9.367743	-125.368353
18530		-19.907931	9.859645	-125.418040
18531		-20.189020	10.370134	-125.499177
18532		-20.351735	10.909796	-125.608164
18533		-20.383007	11.492080	-125.771773
18534		-20.450011	12.110758	-125.997880
18535		-20.826726	12.760022	-126.296120
18536		-21.632046	13.406383	-126.657381
18537		-22.610291	14.059626	-127.070309
18538		-23.420219	14.698964	-127.520329
18539		-24.016312	15.325129	-128.005960
18540		-24.645905	15.924804	-128.532120
18541		-25.294938	16.503674	-129.087544
18542		-25.956205	17.065351	-129.657872
18543		-26.598606	17.591782	-130.228440
18544		-27.167906	18.103184	-130.787000
18545		-27.618509	18.609609	-131.320776
18546		-27.864148	19.102790	-131.837563
18547		-27.925113	19.583144	-132.322341
18548		-27.927442	20.041794	-132.778035
18549		-27.862763	20.467046	-133.218570
18550		-27.797021	20.868174	-133.649800
18551		-27.750892	21.240635	-134.070111
18552		-27.741635	21.590899	-134.474546
18553		-27.766396	21.919267	-134.862769
18554		-27.841475	22.240264	-135.226736
18555		-27.981682	22.532073	-135.539500
18556		-27.965992	22.800685	-135.811068
18557		-27.893810	23.037927	-136.048850
18558		-27.816994	23.242937	-136.280874
18559		-27.783731	23.424953	-136.474521
18560		-27.721434	23.585022	-136.638523
18561		-27.633467	23.711055	-136.781406
18562		-27.588687	23.816343	-136.904770
18563		-27.565346	23.901406	-136.999577
18564		-27.536478	23.962862	-137.074337
18565		-27.530178	24.002297	-137.131075
18566		-27.545570	24.033340	-137.168198
18567		-27.544448	24.053768	-137.180968
18568		-27.531345	24.059163	-137.176501
18569		-27.530925	24.050863	-137.157684
18570		-27.538680	24.044137	-137.127649
18571		-27.524972	24.035820	-137.083730
18572		-27.512040	24.019743	-137.031682
18573		-27.514334	23.999265	-136.971940
18574		-27.510178	23.981057	-136.901348
18575		-27.483473	23.956418	-136.827721
18576		-27.468762	23.928878	-136.759024
18577		-27.468222	23.901976	-136.694962
18578		-27.462249	23.880151	-136.635692
18579		-27.451974	23.859696	-136.584727
18580		-27.438447	23.845012	-136.548521
18581		-27.410377	23.836727	-136.525658
18582		-27.388998	23.832949	-136.516339
18583		-27.373739	23.833105	-136.512209
18584		-27.354830	23.840751	-136.522659
18585		-27.344616	23.852540	-136.543994
18586		-27.361043	23.872485	-136.575660
18587		-27.390997	23.898112	-136.613353
18588		-27.413747	23.925667	-136.660373
18589		-27.440970	23.957008	-136.715932
18590		-27.468203	23.994024	-136.779808
18591		-27.505232	24.036556	-136.851881
18592		-27.548807	24.082537	-136.929427
18593		-27.602507	24.131622	-137.014275
18594		-27.658788	24.185320	-137.103744
18595		-27.711088	24.237911	-137.193296
18596		-27.760094	24.293137	-137.283611
18597		-27.809013	24.346323	-137.376144
18598		-27.842165	24.404579	-137.468100
18599		-27.871598	24.459341	-137.559282
18600		-27.898741	24.515070	-137.648169
18601		-27.923987	24.567346	-137.731412
18602		-27.963515	24.614867	-137.816315
18603		-28.004974	24.659111	-137.901367
18604		-28.034080	24.699934	-137.985670
18605		-28.052811	24.743805	-138.069853
18606		-28.081435	24.785589	-138.153434
18607		-28.111078	24.827585	-138.237157
18608		-28.142735	24.866586	-138.317095
18609		-28.158692	24.901592	-138.389900
18610		-28.173182	24.931862	-138.460681
18611		-28.188687	24.959165	-138.523703
18612		-28.191957	24.986080	-138.586082
18613		-28.202757	25.020913	-138.647268
18614		-28.237421	25.053602	-138.706601
18615		-28.293679	25.080066	-138.764246
18616		-28.359900	25.096493	-138.814472
18617		-28.391576	25.098044	-138.853546
18618		-28.405186	25.086131	-138.877914
18619		-28.402877	25.060825	-138.885374
18620		-28.386955	25.032698	-138.868097
18621		-28.359011	24.995142	-138.826798
18622		-28.332161	24.949903	-138.765728
18623		-28.386034	24.900553	-138.688503
18624		-28.471212	24.843699	-138.596834
18625		-28.632113	24.748977	-138.482374
18626		-28.825836	24.634776	-138.354158
18627		-28.871602	24.491828	-138.187674
18628		-28.856263	24.337127	-138.019765
18629		-28.768157	24.169773	-137.851663
18630		-28.765079	23.982094	-137.671772
18631		-28.812665	23.788784	-137.512902
18632		-28.924647	23.593523	-137.317795
18633		-29.034634	23.397743	-137.128225
18634		-28.929288	23.203165	-136.931117
18635		-28.847883	23.001510	-136.734032
18636		-28.758227	22.789842	-136.539991
18637		-28.700733	22.571676	-136.338949
18638		-28.646652	22.317474	-136.139680
18639		-28.480855	22.019879	-135.952336
18640		-28.286694	21.714567	-135.749376
18641		-28.070385	21.406270	-135.536994
18642		-27.800372	21.067841	-135.328042
18643		-27.762163	20.715247	-135.152908
18644		-28.246772	20.381434	-134.978913
18645		-28.838116	20.036243	-134.807570
18646		-29.022248	19.718763	-134.638465
18647		-28.950213	19.414550	-134.478510
18648		-28.863444	19.134454	-134.336805
18649		-28.817291	18.876417	-134.214675
18650		-28.187569	18.482860	-134.115302
18651		-27.302851	18.146594	-134.045249
18652		-27.278458	17.760361	-134.026489
18653		-27.845024	17.358797	-134.087847
18654		-28.023385	16.951597	-134.177301
18655		-27.788481	16.526208	-134.286007
18656		-27.805300	16.148832	-134.419618
18657		-28.105723	15.807979	-134.544350
18658		-28.287993	15.488282	-134.646269
18659		-28.246349	15.153716	-134.730261
18660		-28.122676	14.796435	-134.809826
18661		-28.015144	14.395842	-134.897991
18662		-27.956643	13.966083	-134.988397
18663		-27.927207	13.542450	-135.043233
18664		-27.917927	13.084680	-135.076902
18665		-27.928312	12.586334	-135.132928
18666		-27.875987	12.044769	-135.239563
18667		-27.810871	11.477827	-135.380466
18668		-27.644272	10.903570	-135.550793
18669		-27.387231	10.310237	-135.744785
18670		-27.122547	9.710634	-135.956758
18671		-26.982618	9.122099	-136.177302
18672		-26.957216	8.572658	-136.399440
18673		-26.884023	8.058930	-136.616109
18674		-26.668790	7.577293	-136.826624
18675		-26.402709	7.112324	-137.037168
18676		-26.267988	6.658003	-137.243401
18677		-26.165218	6.204584	-137.448171
18678		-26.106900	5.746127	-137.642598
18679		-26.087204	5.299442	-137.859001
18680		-26.029028	4.837671	-138.047191
18681		-25.732530	4.427791	-138.247970
18682		-25.378197	4.029625	-138.465222
18683		-24.979827	3.660152	-138.694819
18684		-24.635153	3.320826	-138.944748
18685		-24.401292	2.969926	-139.230793
18686		-24.207387	2.583225	-139.526921
18687		-23.878269	2.186458	-139.840589
18688		-23.557536	1.763457	-140.184646
18689		-23.149699	1.305254	-140.556591
18690		-22.651953	0.842639	-140.928698
18691		-22.168396	0.402129	-141.293130
18692		-21.770736	0.000954	-141.636345
18693		-21.564712	-0.329066	-141.959793
18694		-21.517349	-0.594855	-142.271602
18695		-21.473712	-0.820817	-142.569290
18696		-21.315737	-1.019372	-142.851859
18697		-21.057984	-1.226842	-143.141354
18698		-20.730470	-1.455069	-143.445967
18699		-20.433077	-1.698101	-143.767389
18700		-20.192559	-1.966347	-144.106164
18701		-19.963878	-2.225314	-144.478197
18702		-19.948113	-2.455649	-144.856837
18703		-20.120476	-2.638048	-145.234307
18704		-20.251218	-2.815378	-145.557827
18705		-20.004903	-2.991766	-145.862869
18706		-19.539522	-3.203319	-146.152683
18707		-19.112895	-3.430171	-146.430481
18708		-18.714290	-3.659240	-146.704761
18709		-18.340545	-3.891239	-146.971849
18710		-18.032963	-4.121382	-147.235542
18711		-17.764181	-4.344307	-147.502292
18712		-17.542923	-4.547131	-147.761729
18713		-17.339096	-4.747435	-148.026063
18714		-17.227274	-4.945276	-148.276568
18715		-17.196630	-5.128835	-148.512663
18716		-17.086674	-5.306405	-148.736341
18717		-16.814293	-5.485649	-148.958562
18718		-16.541782	-5.655847	-149.174342
18719		-16.385724	-5.807828	-149.393453
18720		-16.284643	-5.940269	-149.606913
18721		-16.134956	-6.060750	-149.821668
18722		-15.970667	-6.180074	-150.034454
18723		-15.939493	-6.294156	-150.250600
18724		-16.112421	-6.390916	-150.462739
18725		-16.285439	-6.493470	-150.667613
18726		-16.338773	-6.598034	-150.860960
18727		-16.276378	-6.707689	-151.050838
18728		-16.179119	-6.811997	-151.240861
18729		-16.120791	-6.903675	-151.427316
18730		-16.081766	-6.986773	-151.604318
18731		-16.042267	-7.062443	-151.767899
18732		-16.011392	-7.125944	-151.925722
18733		-16.002537	-7.190087	-152.077713
18734		-16.083718	-7.244702	-152.221860
18735		-16.151260	-7.296262	-152.356634
18736		-16.150882	-7.338020	-152.480241
18737		-16.164499	-7.370297	-152.593099
18738		-16.199744	-7.397297	-152.689874
18739		-16.195806	-7.420856	-152.765396
18740		-16.141147	-7.437061	-152.820104
18741		-16.023246	-7.463900	-152.858406
18742		-15.932529	-7.485627	-152.878740
18743		-15.864442	-7.507007	-152.891187
18744		-15.824548	-7.520341	-152.899622
18745		-15.824005	-7.524401	-152.905617
18746		-15.857019	-7.516744	-152.905664
18747		-15.882115	-7.503077	-152.899161
18748		-15.899959	-7.489185	-152.882326
18749		-15.894714	-7.475351	-152.862207
18750		-15.905580	-7.466936	-152.842162
18751		-15.941001	-7.462871	-152.824410
18752		-15.933455	-7.462725	-152.809353
18753		-15.900001	-7.465573	-152.795188
18754		-15.869570	-7.466607	-152.780366
18755		-15.834097	-7.466158	-152.763134
18756		-15.784564	-7.464061	-152.741798
18757		-15.743391	-7.463301	-152.712617
18758		-15.730017	-7.459849	-152.676454
18759		-15.712039	-7.457370	-152.632361
18760		-15.691692	-7.466795	-152.580817
18761		-15.801818	-7.485027	-152.524710
18762		-15.956741	-7.527049	-152.467205
18763		-16.113233	-7.577062	-152.407428
18764		-16.366736	-7.614750	-152.361316
18765		-16.585816	-7.647921	-152.325842
18766		-16.709965	-7.685636	-152.294798
18767		-16.773386	-7.735952	-152.277117
18768		-16.793807	-7.804040	-152.268446
18769		-16.891127	-7.878369	-152.258321
18770		-17.078267	-7.952638	-152.257672
18771		-17.225888	-8.012617	-152.259028
18772		-17.383961	-8.066338	-152.253937
18773		-17.467685	-8.110806	-152.238785
18774		-17.620719	-8.141873	-152.202465
18775		-17.826725	-8.178338	-152.143223
18776		-17.769378	-8.242266	-152.083628
18777		-17.514087	-8.320717	-152.041223
18778		-17.426609	-8.375891	-152.012115
18779		-17.425824	-8.413897	-151.996095
18780		-17.396959	-8.447263	-151.981137
18781		-17.292673	-8.478711	-151.963289
18782		-17.019978	-8.515001	-151.947838
18783		-16.653653	-8.550449	-151.943422
18784		-16.261229	-8.604458	-151.954843
18785		-15.937058	-8.666461	-151.971773
18786		-15.753161	-8.728859	-151.991308
18787		-15.622505	-8.791819	-152.022419
18788		-15.566246	-8.838561	-152.065895
18789		-15.603550	-8.886914	-152.114452
18790		-15.688013	-8.934393	-152.158452
18791		-15.853969	-8.977059	-152.191676
18792		-16.068418	-9.003885	-152.221462
18793		-16.102289	-9.041057	-152.246810
18794		-16.010989	-9.077717	-152.263757
18795		-15.978818	-9.105900	-152.278566
18796		-16.114629	-9.124693	-152.295415
18797		-16.415978	-9.127057	-152.314561
18798		-16.694751	-9.123806	-152.337446
18799		-16.852766	-9.113252	-152.355546
18800		-16.947449	-9.101612	-152.366852
18801		-17.027696	-9.087977	-152.371783
18802		-17.102247	-9.075326	-152.370744
18803		-17.134302	-9.066209	-152.370826
18804		-17.141894	-9.058883	-152.376932
18805		-17.179796	-9.050229	-152.382059
18806		-17.230295	-9.041019	-152.392005
18807		-17.257630	-9.027924	-152.411833
18808		-17.276079	-9.001410	-152.437393
18809		-17.332528	-8.958495	-152.470144
18810		-17.486407	-8.917112	-152.491522
18811		-17.611119	-8.880969	-152.490703
18812		-17.444875	-8.833159	-152.478784
18813		-17.220423	-8.780535	-152.452381
18814		-17.055487	-8.737692	-152.427952
18815		-16.794788	-8.700242	-152.409510
18816		-16.509225	-8.661959	-152.404566
18817		-16.421058	-8.617177	-152.405416
18818		-16.480489	-8.575655	-152.413331
18819		-16.491788	-8.536412	-152.419289
18820		-16.374639	-8.508511	-152.424731
18821		-16.233180	-8.482408	-152.433181
18822		-16.116084	-8.455845	-152.446870
18823		-16.000963	-8.432637	-152.458201
18824		-15.887476	-8.406896	-152.472305
18825		-15.807410	-8.376964	-152.482680
18826		-15.740855	-8.351065	-152.492913
18827		-15.641371	-8.327670	-152.503597
18828		-15.559207	-8.310088	-152.515940
18829		-15.482673	-8.295296	-152.525771
18830		-15.395722	-8.294051	-152.531467
18831		-15.303882	-8.298946	-152.536166
18832		-15.249753	-8.299442	-152.540649
18833		-15.246163	-8.295874	-152.541932
18834		-15.244940	-8.291851	-152.538507
18835		-15.258153	-8.282923	-152.532604
18836		-15.299749	-8.274396	-152.521790
18837		-15.324713	-8.265022	-152.508713
18838		-15.337550	-8.257727	-152.490762
18839		-15.359522	-8.254061	-152.468727
18840		-15.398197	-8.250267	-152.437695
18841		-15.422973	-8.243725	-152.402945
18842		-15.456319	-8.232289	-152.363327
18843		-15.482717	-8.223413	-152.317471
18844		-15.574634	-8.205590	-152.260404
18845		-15.608930	-8.189637	-152.194430
18846		-15.599811	-8.173454	-152.118823
18847		-15.640290	-8.150244	-152.023450
18848		-15.709461	-8.117518	-151.918973
18849		-15.784795	-8.076835	-151.806926
18850		-15.908081	-8.028863	-151.691778
18851		-16.100397	-7.966986	-151.568909
18852		-16.318219	-7.889752	-151.432674
18853		-16.537261	-7.799747	-151.286826
18854		-16.747570	-7.699796	-151.125726
18855		-16.940944	-7.590455	-150.943791
18856		-17.149487	-7.469200	-150.742309
18857		-17.402036	-7.335918	-150.522142
18858		-17.662115	-7.201492	-150.295371
18859		-17.916723	-7.061370	-150.069700
18860		-18.184111	-6.914100	-149.843856
18861		-18.412971	-6.781049	-149.606913
18862		-18.610085	-6.665816	-149.361471
18863		-18.821124	-6.559734	-149.103652
18864		-19.090749	-6.471912	-148.829081
18865		-19.341941	-6.392831	-148.523148
18866		-19.548574	-6.316845	-148.188272
18867		-19.690152	-6.233368	-147.846851
18868		-19.824964	-6.138100	-147.496456
18869		-19.920429	-6.050329	-147.136073
18870		-19.982989	-5.961793	-146.765118
18871		-20.111393	-5.873336	-146.384154
18872		-20.280259	-5.795988	-146.006281
18873		-20.470193	-5.727318	-145.608651
18874		-20.651376	-5.668141	-145.197327
18875		-20.810098	-5.622217	-144.767747
18876		-20.929786	-5.569871	-144.348163
18877		-21.003314	-5.535364	-143.942660
18878		-21.096810	-5.510143	-143.555236
18879		-21.212492	-5.500084	-143.174045
18880		-21.390791	-5.494305	-142.789739
18881		-21.602177	-5.478748	-142.389669
18882		-21.778841	-5.463845	-141.974448
18883		-21.805946	-5.452688	-141.542651
18884		-21.724025	-5.435358	-141.106111
18885		-21.614901	-5.427529	-140.675327
18886		-21.588059	-5.433940	-140.261040
18887		-21.575308	-5.434008	-139.860862
18888		-21.533063	-5.436355	-139.466647
18889		-21.547065	-5.425870	-139.073944
18890		-21.645216	-5.396433	-138.697204
18891		-21.687979	-5.338982	-138.334872
18892		-21.718962	-5.268950	-137.983091
18893		-21.769299	-5.165322	-137.639808
18894		-21.811627	-5.040228	-137.303891
18895		-21.817210	-4.905744	-136.987391
18896		-21.778743	-4.764734	-136.675408
18897		-21.751558	-4.627364	-136.361767
18898		-21.631730	-4.500776	-136.064507
18899		-21.575444	-4.363931	-135.759694
18900		-21.671018	-4.210831	-135.437059
18901		-21.805294	-4.031017	-135.107042
18902		-21.914829	-3.842840	-134.779818
18903		-22.057088	-3.631783	-134.461279
18904		-22.183095	-3.408036	-134.149118
18905		-22.174649	-3.200133	-133.833809
18906		-22.122513	-2.984186	-133.514755
18907		-22.057788	-2.764576	-133.192652
18908		-21.989227	-2.541713	-132.863861
18909		-21.959783	-2.311366	-132.539257
18910		-21.951722	-2.050431	-132.222699
18911		-22.073740	-1.754154	-131.905784
18912		-22.250464	-1.434606	-131.602700
18913		-22.387390	-1.078666	-131.319364
18914		-22.452679	-0.725782	-131.040216
18915		-22.493873	-0.370665	-130.763784
18916		-22.513394	-0.022198	-130.490798
18917		-22.510699	0.345570	-130.230265
18918		-22.546271	0.750521	-129.973394
18919		-22.579597	1.183316	-129.715768
18920		-22.725941	1.659831	-129.462286
18921		-23.001085	2.185513	-129.213967
18922		-23.307148	2.745346	-128.969397
18923		-23.566075	3.325987	-128.719351
18924		-23.649217	3.903862	-128.483062
18925		-23.348832	4.427793	-128.276504
18926		-23.111496	4.960693	-128.066131
18927		-23.222895	5.356069	-127.842704
18928		-23.119191	5.698075	-127.624114
18929		-22.517997	6.041535	-127.442339
18930		-21.699925	6.382433	-127.300302
18931		-20.875465	6.706844	-127.198956
18932		-20.178103	7.091994	-127.152236
18933		-19.950529	7.476556	-127.144515
18934		-20.087172	7.834175	-127.181557
18935		-20.307255	8.174928	-127.264822
18936		-20.363507	8.461604	-127.381977
18937		-20.373501	8.715687	-127.522962
18938		-20.358075	8.945931	-127.682357
18939		-20.271870	9.154828	-127.856100
18940		-20.308088	9.341473	-128.034956
18941		-20.486647	9.482347	-128.205385
18942		-20.760265	9.614113	-128.355033
18943		-21.134915	9.702045	-128.483096
18944		-21.516068	9.774041	-128.586215
18945		-21.695731	9.823043	-128.661710
18946		-21.712092	9.841618	-128.711862
18947		-21.706951	9.849140	-128.744812
18948		-21.598286	9.842730	-128.759555
18949		-21.409542	9.831512	-128.760461
18950		-21.242672	9.808780	-128.751994
18951		-21.096676	9.775770	-128.733547
18952		-20.972705	9.745128	-128.713400
18953		-20.848437	9.709937	-128.688901
18954		-20.758278	9.685421	-128.667120
18955		-20.725911	9.669516	-128.651718
18956		-20.708334	9.661232	-128.646411
18957		-20.736058	9.656937	-128.648979
18958		-20.792453	9.658717	-128.658075
18959		-20.860878	9.666711	-128.672867
18960		-20.919087	9.691276	-128.695272
18961		-20.946322	9.725421	-128.723394
18962		-20.946641	9.774534	-128.757483
18963		-20.920945	9.843935	-128.798628
18964		-20.901899	9.941095	-128.844987
18965		-20.971853	10.060620	-128.889964
18966		-21.098112	10.200741	-128.937574
18967		-21.221403	10.361600	-128.981735
18968		-21.354788	10.526810	-129.016403
18969		-21.496712	10.697264	-129.048998
18970		-21.656390	10.884734	-129.071572
18971		-21.836707	11.088775	-129.098660
18972		-21.891108	11.314224	-129.142672
18973		-21.759233	11.566806	-129.189567
18974		-21.555251	11.819724	-129.234093
18975		-21.366716	12.065836	-129.289825
18976		-21.242907	12.294843	-129.359867
18977		-21.313899	12.533911	-129.432577
18978		-21.660285	12.794517	-129.477199
18979		-22.009549	13.060648	-129.501715
18980		-22.398207	13.331731	-129.510611
18981		-22.989071	13.614090	-129.525598
18982		-23.688853	13.900200	-129.569683
18983		-24.265984	14.176433	-129.624018
18984		-24.533111	14.444882	-129.681982
18985		-24.558443	14.703941	-129.733314
18986		-24.565582	14.946105	-129.799765
18987		-24.578645	15.173380	-129.875011
18988		-24.615831	15.393643	-129.966712
18989		-24.611384	15.612001	-130.054645
18990		-24.572039	15.818582	-130.141241
18991		-24.558868	16.012675	-130.229689
18992		-24.741636	16.213816	-130.348468
18993		-25.008876	16.425767	-130.513301
18994		-25.434583	16.662558	-130.731082
18995		-25.834390	16.946098	-130.982095
18996		-26.207535	17.268283	-131.227408
18997		-26.793123	17.656186	-131.489045
18998		-27.350265	18.041441	-131.762565
18999		-27.816973	18.394887	-132.043946
19000		-28.175436	18.728321	-132.311046
19001		-28.491675	19.039451	-132.564311
19002		-28.757467	19.321274	-132.811370
19003		-28.867222	19.595147	-133.048412
19004		-28.863317	19.872702	-133.267965
19005		-28.807740	20.157009	-133.475508
19006		-28.762639	20.434976	-133.673677
19007		-28.691465	20.718522	-133.872885
19008		-28.580553	20.979281	-134.083337
19009		-28.506946	21.236095	-134.315191
19010		-28.572501	21.488677	-134.565252
19011		-28.704182	21.740829	-134.827710
19012		-28.828633	21.985170	-135.092874
19013		-29.027072	22.232707	-135.339489
19014		-29.200216	22.478707	-135.566736
19015		-29.094874	22.705961	-135.780854
19016		-28.879118	22.907293	-136.003937
19017		-28.846430	23.091060	-136.220386
19018		-28.905802	23.261147	-136.425969
19019		-28.873933	23.411328	-136.623931
19020		-28.879382	23.536758	-136.813217
19021		-28.941499	23.651461	-136.997279
19022		-29.010416	23.753912	-137.171489
19023		-29.046177	23.851052	-137.334426
19024		-29.068880	23.940744	-137.480415
19025		-29.100782	24.020033	-137.616566
19026		-29.134183	24.087708	-137.739318
19027		-29.167253	24.142565	-137.847727
19028		-29.196168	24.185382	-137.940513
19029		-29.225834	24.220487	-138.017006
19030		-29.233428	24.246856	-138.078282
19031		-29.247862	24.261937	-138.125839
19032		-29.263170	24.269994	-138.159965
19033		-29.276336	24.273355	-138.184584
19034		-29.277600	24.268400	-138.204674
19035		-29.310248	24.261932	-138.219151
19036		-29.342204	24.257474	-138.227360
19037		-29.349234	24.243914	-138.232887
19038		-29.360191	24.226271	-138.238878
19039		-29.360405	24.209302	-138.242203
19040		-29.348644	24.189194	-138.240797
19041		-29.342312	24.168036	-138.236443
19042		-29.338336	24.149395	-138.231150
19043		-29.330748	24.132030	-138.221878
19044		-29.327257	24.118320	-138.210404
19045		-29.332574	24.105788	-138.204371
19046		-29.327433	24.098360	-138.201094
19047		-29.333406	24.091181	-138.199265
19048		-29.340610	24.082300	-138.200535
19049		-29.334677	24.069140	-138.202637
19050		-29.315894	24.051366	-138.202975
19051		-29.292736	24.030776	-138.211037
19052		-29.278643	24.006041	-138.223566
19053		-29.254285	23.981698	-138.238435
19054		-29.230927	23.958730	-138.250570
19055		-29.215586	23.939437	-138.253451
19056		-29.207798	23.923429	-138.241393
19057		-29.207037	23.902184	-138.216445
19058		-29.197317	23.872492	-138.180271
19059		-29.176503	23.829272	-138.132073
19060		-29.145741	23.773180	-138.075719
19061		-29.104289	23.705473	-138.011527
19062		-29.034850	23.633058	-137.941510
19063		-28.977326	23.558501	-137.867557
19064		-28.937836	23.485012	-137.787304
19065		-28.911958	23.414111	-137.706234
19066		-28.921835	23.346609	-137.628375
19067		-28.945356	23.279804	-137.551378
19068		-28.974780	23.216870	-137.476158
19069		-28.991471	23.154798	-137.408142
19070		-28.992910	23.093558	-137.350441
19071		-28.995770	23.036417	-137.295064
19072		-29.006969	22.986040	-137.239909
19073		-29.006595	22.928079	-137.181287
19074		-29.000377	22.873731	-137.129170
19075		-29.017107	22.820473	-137.084039
19076		-29.019521	22.762886	-137.041757
19077		-28.993267	22.701370	-137.003824
19078		-28.967800	22.637852	-136.972270
19079		-28.943668	22.573110	-136.934244
19080		-28.928143	22.506467	-136.892132
19081		-28.945383	22.429463	-136.837760
19082		-28.980803	22.351960	-136.769691
19083		-29.081794	22.245347	-136.691913
19084		-29.108403	22.122629	-136.599134
19085		-29.064898	21.969400	-136.493095
19086		-28.946458	21.797927	-136.393495
19087		-28.757184	21.612320	-136.307897
19088		-28.672833	21.419227	-136.215071
19089		-28.936976	21.212457	-136.133849
19090		-29.103739	20.998640	-136.046707
19091		-29.344033	20.759021	-135.953981
19092		-29.594953	20.510635	-135.852414
19093		-29.976134	20.242693	-135.741106
19094		-30.331721	19.938441	-135.609082
19095		-30.778265	19.625820	-135.459444
19096		-31.385562	19.382440	-135.284135
19097		-32.127739	19.140863	-135.082431
19098		-32.636198	18.898622	-134.852697
19099		-32.519952	18.655994	-134.594928
19100		-32.291090	18.415218	-134.316830
19101		-31.995996	18.153319	-134.049264
19102		-31.497302	17.864209	-133.785277
19103		-31.183843	17.525483	-133.569132
19104		-30.657124	17.082046	-133.377767
19105		-30.140692	16.661768	-133.189947
19106		-30.520649	16.252759	-133.027291
19107		-31.230258	15.848554	-132.879709
19108		-31.431444	15.449353	-132.747436
19109		-31.216520	15.045286	-132.608787
19110		-31.012602	14.631801	-132.470198
19111		-30.824161	14.219173	-132.325003
19112		-30.670274	13.821999	-132.179323
19113		-30.490016	13.444943	-132.034528
19114		-30.309365	13.087719	-131.895791
19115		-30.173522	12.741203	-131.769150
19116		-30.071484	12.395175	-131.654774
19117		-30.037529	12.042404	-131.549641
19118		-30.075136	11.673982	-131.456640
19119		-30.152763	11.309636	-131.391480
19120		-30.180779	10.946365	-131.346772
19121		-30.102283	10.579838	-131.312211
19122		-29.999516	10.210122	-131.293463
19123		-29.889919	9.838570	-131.287329
19124		-29.771766	9.464068	-131.300346
19125		-29.597636	9.082601	-131.324520
19126		-29.451778	8.705556	-131.354162
19127		-29.346719	8.334982	-131.396382
19128		-29.259652	7.973311	-131.450357
19129		-29.172200	7.616887	-131.510237
19130		-29.123426	7.276753	-131.578122
19131		-29.088581	6.957714	-131.659403
19132		-28.955018	6.641539	-131.747401
19133		-28.787058	6.319957	-131.842746
19134		-28.601870	5.986662	-131.939071
19135		-28.413310	5.637184	-132.040350
19136		-28.204901	5.282468	-132.154191
19137		-28.003704	4.921884	-132.289918
19138		-27.795776	4.559473	-132.441928
19139		-27.594534	4.193473	-132.615213
19140		-27.380020	3.826645	-132.805822
19141		-27.177931	3.466981	-133.025030
19142		-26.950640	3.117131	-133.269771
19143		-26.680086	2.761399	-133.524577
19144		-26.358384	2.396570	-133.774267
19145		-26.007529	2.030859	-134.029514
19146		-25.650550	1.680969	-134.288445
19147		-25.296288	1.361790	-134.567149
19148		-25.045574	1.070308	-134.875510
19149		-24.958789	0.791794	-135.193286
19150		-24.837425	0.527637	-135.529403
19151		-24.674041	0.268441	-135.870497
19152		-24.528105	0.005235	-136.212690
19153		-24.413596	-0.246697	-136.547539
19154		-24.281323	-0.486934	-136.873821
19155		-24.108570	-0.732243	-137.187436
19156		-23.907861	-0.950862	-137.487695
19157		-23.721963	-1.171112	-137.787683
19158		-23.571854	-1.399159	-138.092369
19159		-23.408833	-1.638994	-138.395078
19160		-23.238910	-1.885885	-138.694892
19161		-23.037709	-2.139432	-138.989089
19162		-22.764937	-2.384761	-139.265668
19163		-22.475094	-2.618140	-139.514940
19164		-22.159480	-2.846497	-139.743441
19165		-21.887672	-3.042442	-139.950657
19166		-21.727415	-3.203555	-140.143236
19167		-21.586987	-3.358974	-140.325569
19168		-21.431807	-3.517944	-140.508306
19169		-21.285917	-3.688937	-140.703425
19170		-21.142796	-3.879011	-140.901745
19171		-21.030043	-4.079644	-141.105162
19172		-20.876976	-4.288323	-141.301029
19173		-20.650465	-4.501097	-141.488580
19174		-20.334116	-4.717733	-141.671321
19175		-19.965523	-4.950018	-141.866987
19176		-19.605839	-5.189900	-142.077927
19177		-19.242601	-5.442076	-142.283088
19178		-18.800460	-5.692838	-142.506640
19179		-18.345940	-5.959531	-142.747805
19180		-18.020251	-6.209599	-142.999000
19181		-17.779560	-6.442995	-143.256082
19182		-17.460969	-6.668683	-143.522365
19183		-17.108226	-6.883190	-143.804031
19184		-16.745585	-7.082351	-144.097373
19185		-16.442506	-7.264524	-144.399793
19186		-16.184212	-7.431539	-144.710992
19187		-15.965857	-7.583963	-145.028240
19188		-15.774052	-7.731319	-145.346379
19189		-15.603682	-7.863198	-145.668429
19190		-15.454096	-7.986600	-145.994643
19191		-15.346850	-8.092917	-146.321481
19192		-15.238993	-8.188442	-146.644270
19193		-15.092200	-8.279192	-146.962628
19194		-14.982942	-8.367934	-147.273415
19195		-14.873487	-8.450208	-147.581793
19196		-14.724625	-8.530193	-147.877187
19197		-14.548968	-8.614538	-148.168136
19198		-14.376324	-8.688843	-148.458916
19199		-14.257263	-8.754383	-148.742048
19200		-14.215613	-8.810760	-149.015108
19201		-14.232203	-8.864794	-149.282783
19202		-14.283394	-8.907920	-149.539890
19203		-14.378626	-8.946610	-149.779428
19204		-14.476331	-8.979017	-149.998245
19205		-14.554545	-9.004685	-150.187699
19206		-14.637612	-9.002674	-150.352558
19207		-14.690557	-8.984712	-150.485071
19208		-14.770932	-8.938160	-150.597497
19209		-14.858889	-8.870365	-150.695851
19210		-15.026079	-8.787579	-150.775563
19211		-15.297772	-8.690350	-150.845227
19212		-15.641398	-8.585043	-150.918469
19213		-16.036348	-8.463385	-150.991716
19214		-16.410401	-8.350186	-151.053391
19215		-16.518180	-8.256004	-151.091893
19216		-16.350644	-8.177834	-151.118067
19217		-16.122192	-8.112118	-151.139068
19218		-15.934617	-8.055394	-151.152996
19219		-15.852042	-8.004241	-151.162208
19220		-15.879361	-7.952159	-151.165473
19221		-15.962691	-7.904586	-151.167315
19222		-16.062191	-7.858897	-151.163195
19223		-16.137311	-7.827312	-151.153722
19224		-16.197066	-7.801617	-151.137405
19225		-16.218678	-7.780517	-151.112649
19226		-16.224254	-7.763701	-151.077627
19227		-16.245508	-7.746932	-151.037018
19228		-16.262475	-7.733543	-150.990099
19229		-16.284575	-7.724651	-150.935888
19230		-16.294502	-7.731546	-150.879013
19231		-16.327986	-7.756416	-150.808102
19232		-16.353673	-7.804057	-150.737502
19233		-16.404047	-7.870691	-150.672020
19234		-16.537274	-7.949518	-150.608087
19235		-16.672628	-8.028617	-150.550310
19236		-16.767174	-8.105925	-150.500115
19237		-16.879997	-8.185213	-150.463634
19238		-16.963616	-8.275675	-150.433657
19239		-17.081684	-8.358747	-150.415333
19240		-17.125375	-8.443433	-150.400561
19241		-17.058260	-8.529902	-150.385591
19242		-17.034206	-8.604433	-150.368045
19243		-16.940039	-8.677486	-150.357768
19244		-16.764040	-8.756257	-150.344015
19245		-16.592313	-8.831728	-150.338494
19246		-16.517761	-8.898232	-150.329607
19247		-16.452336	-8.954509	-150.316018
19248		-16.352539	-9.014489	-150.306476
19249		-16.347173	-9.065671	-150.300638
19250		-16.363643	-9.122608	-150.290229
19251		-16.378736	-9.181410	-150.280181
19252		-16.370709	-9.231715	-150.283255
19253		-16.311844	-9.272037	-150.304163
19254		-16.195471	-9.306790	-150.331673
19255		-16.137849	-9.332386	-150.367269
19256		-16.010628	-9.381199	-150.400029
19257		-15.840814	-9.418618	-150.441736
19258		-15.726300	-9.473479	-150.480917
19259		-15.690834	-9.515498	-150.533421
19260		-15.580678	-9.569345	-150.588768
19261		-15.500554	-9.620577	-150.647748
19262		-15.461532	-9.671739	-150.713859
19263		-15.353272	-9.722481	-150.781334
19264		-15.283574	-9.776889	-150.854424
19265		-15.319650	-9.821582	-150.936402
19266		-15.373027	-9.862154	-151.016865
19267		-15.378779	-9.910617	-151.080650
19268		-15.388662	-9.956329	-151.139284
19269		-15.311945	-10.007467	-151.190059
19270		-15.202824	-10.058187	-151.234067
19271		-15.113605	-10.108017	-151.282645
19272		-15.089746	-10.144788	-151.335937
19273		-15.060246	-10.170202	-151.398258
19274		-15.011561	-10.193060	-151.464769
19275		-15.006399	-10.204510	-151.533946
19276		-15.002367	-10.216893	-151.593423
19277		-14.996210	-10.217707	-151.648843
19278		-14.965825	-10.218601	-151.685206
19279		-14.965182	-10.201586	-151.705284
19280		-14.935878	-10.203805	-151.712207
19281		-15.001065	-10.177495	-151.719114
19282		-15.044779	-10.154351	-151.726094
19283		-15.155664	-10.119360	-151.739397
19284		-15.336878	-10.080363	-151.757142
19285		-15.487654	-10.040253	-151.771139
19286		-15.593076	-9.999321	-151.787389
19287		-15.602940	-9.977265	-151.808034
19288		-15.638947	-9.964972	-151.830856
19289		-15.804865	-9.939272	-151.865268
19290		-15.987223	-9.890862	-151.907348
19291		-16.365955	-9.813889	-151.929323
19292		-16.451541	-9.762788	-151.947616
19293		-15.889772	-9.683629	-151.959655
19294		-15.321506	-9.612324	-151.958477
19295		-14.863796	-9.547006	-151.971776
19296		-14.352243	-9.479638	-151.988841
19297		-13.851410	-9.407056	-152.013924
19298		-13.528760	-9.335714	-152.043911
19299		-13.409665	-9.266852	-152.075119
19300		-13.322764	-9.204704	-152.102949
19301		-13.180245	-9.153623	-152.130783
19302		-13.032818	-9.107698	-152.156099
19303		-12.947193	-9.070285	-152.179671
19304		-12.903398	-9.038724	-152.199561
19305		-12.878836	-9.010962	-152.220140
19306		-12.867853	-8.990019	-152.241360
19307		-12.862980	-8.971139	-152.260743
19308		-12.853188	-8.957871	-152.281532
19309		-12.822726	-8.946760	-152.300708
19310		-12.786918	-8.936443	-152.314726
19311		-12.742236	-8.925449	-152.322565
19312		-12.706349	-8.915722	-152.325376
19313		-12.649524	-8.905593	-152.321270
19314		-12.589702	-8.895234	-152.308539
19315		-12.563557	-8.883429	-152.289842
19316		-12.535509	-8.871022	-152.271650
19317		-12.536478	-8.865942	-152.254984
19318		-12.587851	-8.864134	-152.236527
19319		-12.627080	-8.869759	-152.225784
19320		-12.684606	-8.884756	-152.220586
19321		-12.753138	-8.905406	-152.223811
19322		-12.796990	-8.933278	-152.230325
19323		-12.857827	-8.956704	-152.236598
19324		-12.886525	-8.981330	-152.242141
19325		-12.877158	-9.003352	-152.244305
19326		-12.870338	-9.020094	-152.235347
19327		-12.846669	-9.024283	-152.223522
19328		-12.817477	-9.028238	-152.201994
19329		-12.838356	-9.025602	-152.169559
19330		-12.879624	-9.022926	-152.126288
19331		-12.909589	-9.014693	-152.071728
19332		-12.948419	-9.003400	-152.003762
19333		-13.017005	-8.983536	-151.921569
19334		-13.090217	-8.959398	-151.831399
19335		-13.204600	-8.931953	-151.732671
19336		-13.355925	-8.902564	-151.635589
19337		-13.537318	-8.869374	-151.545473
19338		-13.753746	-8.833349	-151.458903
19339		-13.978436	-8.798565	-151.379768
19340		-14.169681	-8.764033	-151.301487
19341		-14.332661	-8.733207	-151.221193
19342		-14.522520	-8.697454	-151.135170
19343		-14.678167	-8.664226	-151.035991
19344		-14.745201	-8.636369	-150.930475
19345		-14.755657	-8.605987	-150.821385
19346		-14.785767	-8.576200	-150.711122
19347		-14.848746	-8.552726	-150.606877
19348		-14.938044	-8.530725	-150.509876
19349		-15.042766	-8.514170	-150.418910
19350		-15.111426	-8.513489	-150.334009
19351		-15.147504	-8.515152	-150.247434
19352		-15.160437	-8.520408	-150.156658
19353		-15.169449	-8.523298	-150.061206
19354		-15.161255	-8.523914	-149.958826
19355		-15.151136	-8.519540	-149.857342
19356		-15.139462	-8.510674	-149.746562
19357		-15.134611	-8.485276	-149.629586
19358		-15.137436	-8.442482	-149.520836
19359		-15.173057	-8.393483	-149.415294
19360		-15.221414	-8.344204	-149.322440
19361		-15.292233	-8.293895	-149.230726
19362		-15.377142	-8.252714	-149.145198
19363		-15.474065	-8.213490	-149.055542
19364		-15.563163	-8.175820	-148.963111
19365		-15.619995	-8.148373	-148.856172
19366		-15.648350	-8.120293	-148.734495
19367		-15.667298	-8.089571	-148.591470
19368		-15.685857	-8.071148	-148.429333
19369		-15.715562	-8.048593	-148.243455
19370		-15.767543	-8.018430	-148.045106
19371		-15.862884	-7.984126	-147.830788
19372		-15.981840	-7.940838	-147.603553
19373		-16.149652	-7.869481	-147.376948
19374		-16.352602	-7.784854	-147.152704
19375		-16.499200	-7.707867	-146.924020
19376		-16.628607	-7.638445	-146.691363
19377		-16.706520	-7.575515	-146.454609
19378		-16.772931	-7.500210	-146.215552
19379		-16.846519	-7.413797	-145.973357
19380		-16.912608	-7.314893	-145.734590
19381		-17.017304	-7.210854	-145.488435
19382		-17.120227	-7.086481	-145.241620
19383		-17.241960	-6.955244	-144.995127
19384		-17.308931	-6.840351	-144.744417
19385		-17.328943	-6.738356	-144.491996
19386		-17.373620	-6.624575	-144.246260
19387		-17.387998	-6.520078	-144.004422
19388		-17.457329	-6.408635	-143.771936
19389		-17.543974	-6.299527	-143.539711
19390		-17.655745	-6.172441	-143.309887
19391		-17.730979	-6.053580	-143.087842
19392		-17.744333	-5.942110	-142.876271
19393		-17.774315	-5.846148	-142.674023
19394		-17.809946	-5.769208	-142.489621
19395		-17.867705	-5.687151	-142.321724
19396		-17.940518	-5.620374	-142.166428
19397		-18.011069	-5.548295	-142.020677
19398		-18.182616	-5.469929	-141.878581
19399		-18.294095	-5.398792	-141.724965
19400		-18.392596	-5.329062	-141.555385
19401		-18.482922	-5.252592	-141.374818
19402		-18.508218	-5.180885	-141.180929
19403		-18.444528	-5.104700	-140.970391
19404		-18.382345	-5.014921	-140.752453
19405		-18.355378	-4.919345	-140.528823
19406		-18.361811	-4.821039	-140.296228
19407		-18.362551	-4.716133	-140.055712
19408		-18.326533	-4.622416	-139.807726
19409		-18.311205	-4.527970	-139.557700
19410		-18.376282	-4.430905	-139.303260
19411		-18.418083	-4.329682	-139.042482
19412		-18.484966	-4.215685	-138.774991
19413		-18.543211	-4.091792	-138.502129
19414		-18.646824	-3.954901	-138.223436
19415		-18.712047	-3.820557	-137.941962
19416		-18.722751	-3.684192	-137.649350
19417		-18.686111	-3.540073	-137.362934
19418		-18.672456	-3.387980	-137.076852
19419		-18.644149	-3.232704	-136.792700
19420		-18.638537	-3.062190	-136.509495
19421		-18.607987	-2.887593	-136.228729
19422		-18.678739	-2.701866	-135.931901
19423		-18.779926	-2.486215	-135.607232
19424		-18.749781	-2.273964	-135.278843
19425		-18.606166	-2.077009	-134.938554
19426		-18.472230	-1.881243	-134.606354
19427		-18.367295	-1.694074	-134.286974
19428		-18.300607	-1.510374	-133.980548
19429		-18.250885	-1.313986	-133.706439
19430		-18.316857	-1.126079	-133.448875
19431		-18.429403	-0.925601	-133.215770
19432		-18.587279	-0.692678	-132.989287
19433		-18.740023	-0.460787	-132.751420
19434		-18.790868	-0.223953	-132.514305
19435		-18.830844	0.026310	-132.272164
19436		-18.901196	0.293995	-132.024720
19437		-18.870298	0.595284	-131.785385
19438		-18.861672	0.941909	-131.553583
19439		-18.903181	1.316687	-131.324373
19440		-18.938364	1.732194	-131.104799
19441		-18.848128	2.157831	-130.907102
19442		-18.890916	2.626345	-130.713071
19443		-19.087810	3.039413	-130.514668
19444		-18.987305	3.414127	-130.330815
19445		-18.669613	3.820196	-130.170018
19446		-18.287155	4.244321	-130.029494
19447		-17.959751	4.673949	-129.912226
19448		-17.687734	5.062662	-129.809015
19449		-17.532751	5.444952	-129.748153
19450		-17.793589	5.785598	-129.719331
19451		-18.255126	6.129255	-129.749155
19452		-18.356577	6.475042	-129.817085
19453		-18.226431	6.793004	-129.907012
19454		-18.294311	7.090560	-130.018695
19455		-18.647279	7.376795	-130.150268
19456		-19.084879	7.630756	-130.287783
19457		-19.447976	7.862314	-130.430844
19458		-19.621189	8.057427	-130.565953
19459		-19.699909	8.222129	-130.693764
19460		-19.786154	8.372450	-130.823402
19461		-19.801881	8.503315	-130.948002
19462		-19.791793	8.607343	-131.062288
19463		-19.775338	8.698237	-131.161153
19464		-19.718358	8.769622	-131.237472
19465		-19.627482	8.826345	-131.291621
19466		-19.537919	8.881745	-131.329038
19467		-19.467733	8.923946	-131.352379
19468		-19.406429	8.956004	-131.367328
19469		-19.337068	8.982142	-131.375411
19470		-19.302012	9.001650	-131.379801
19471		-19.274122	9.013735	-131.377799
19472		-19.241883	9.016742	-131.371416
19473		-19.226732	9.006862	-131.362117
19474		-19.219830	8.984841	-131.348353
19475		-19.190943	8.954577	-131.330345
19476		-19.146060	8.918621	-131.309082
19477		-19.111580	8.881185	-131.290567
19478		-19.084351	8.837435	-131.271878
19479		-19.072126	8.786571	-131.254780
19480		-19.089145	8.736184	-131.239381
19481		-19.120918	8.692420	-131.229607
19482		-19.169893	8.663798	-131.223300
19483		-19.256553	8.663417	-131.225279
19484		-19.356473	8.686647	-131.229569
19485		-19.382488	8.723156	-131.228275
19486		-19.353275	8.790042	-131.227193
19487		-19.306595	8.888044	-131.226420
19488		-19.244741	9.011811	-131.213693
19489		-19.254643	9.165866	-131.195274
19490		-19.307077	9.335333	-131.177008
19491		-19.350979	9.508989	-131.173499
19492		-19.295479	9.706745	-131.173622
19493		-19.110595	9.946760	-131.198324
19494		-18.759062	10.213481	-131.243788
19495		-18.408072	10.485839	-131.307120
19496		-18.130251	10.777690	-131.399091
19497		-18.050348	11.099928	-131.507302
19498		-18.297197	11.456571	-131.628830
19499		-18.647076	11.825737	-131.761948
19500		-18.893594	12.214135	-131.908260
19501		-19.034784	12.623529	-132.045864
19502		-19.248689	13.083870	-132.185407
19503		-19.490271	13.571759	-132.343531
19504		-19.706409	14.092744	-132.515661
19505		-19.806736	14.649244	-132.697243
19506		-19.872460	15.240011	-132.884587
19507		-20.044608	15.868898	-133.074455
19508		-20.277621	16.521604	-133.276132
19509		-20.532480	17.162876	-133.484090
19510		-20.875754	17.796084	-133.705230
19511		-21.293358	18.434227	-133.950569
19512		-21.818308	19.035438	-134.251727
19513		-22.398048	19.666734	-134.608203
19514		-22.727122	20.318141	-134.993046
19515		-23.093176	20.959957	-135.403799
19516		-23.732197	21.596585	-135.840141
19517		-24.490280	22.228315	-136.299419
19518		-25.212324	22.813320	-136.773409
19519		-25.765814	23.331378	-137.255736
19520		-26.179179	23.757927	-137.740689
19521		-26.580354	24.129767	-138.210571
19522		-26.914912	24.457758	-138.649550
19523		-27.153413	24.750157	-139.067722
19524		-27.315097	25.012215	-139.453987
19525		-27.442786	25.238456	-139.803490
19526		-27.570787	25.429066	-140.125445
19527		-27.699727	25.590737	-140.409764
19528		-27.795169	25.725241	-140.655469
19529		-27.851716	25.833291	-140.866655
19530		-27.886496	25.931641	-141.040026
19531		-27.924560	26.025611	-141.157273
19532		-27.883585	26.098725	-141.222862
19533		-27.753336	26.159611	-141.252845
19534		-27.646221	26.212366	-141.242958
19535		-27.609419	26.241744	-141.217736
19536		-27.580167	26.258057	-141.179168
19537		-27.514424	26.265332	-141.125470
19538		-27.444091	26.261841	-141.067099
19539		-27.398031	26.263913	-141.009354
19540		-27.354878	26.261994	-140.950185
19541		-27.328764	26.256612	-140.902393
19542		-27.327999	26.252645	-140.863026
19543		-27.316960	26.244621	-140.828102
19544		-27.303528	26.234641	-140.799181
19545		-27.295172	26.221240	-140.772508
19546		-27.272388	26.208999	-140.747906
19547		-27.254423	26.200218	-140.725316
19548		-27.229192	26.190081	-140.700776
19549		-27.200493	26.182490	-140.675942
19550		-27.183669	26.171063	-140.654245
19551		-27.185106	26.160079	-140.634779
19552		-27.177816	26.147408	-140.615673
19553		-27.148771	26.149338	-140.592967
19554		-27.104409	26.149899	-140.568322
19555		-27.070006	26.153121	-140.548791
19556		-27.041077	26.155045	-140.526090
19557		-27.035324	26.153404	-140.507019
19558		-27.026133	26.152147	-140.491681
19559		-27.017067	26.146944	-140.480319
19560		-27.012586	26.142359	-140.474006
19561		-26.990219	26.140153	-140.475867
19562		-26.956617	26.133419	-140.479870
19563		-26.938822	26.129370	-140.486002
19564		-26.901383	26.122775	-140.495737
19565		-26.872132	26.124302	-140.505395
19566		-26.861807	26.121596	-140.513647
19567		-26.856649	26.120589	-140.522329
19568		-26.853413	26.110777	-140.529481
19569		-26.849343	26.096112	-140.531791
19570		-26.820076	26.067799	-140.528390
19571		-26.772011	26.032707	-140.519444
19572		-26.719167	25.991104	-140.504816
19573		-26.655197	25.943188	-140.477479
19574		-26.595920	25.895780	-140.438584
19575		-26.554400	25.845037	-140.385791
19576		-26.530910	25.792938	-140.315292
19577		-26.517164	25.730763	-140.221269
19578		-26.503949	25.642738	-140.103516
19579		-26.490147	25.517277	-139.968336
19580		-26.460284	25.348945	-139.824824
19581		-26.577833	25.137493	-139.660760
19582		-26.636607	24.892034	-139.515910
19583		-26.873848	24.642961	-139.326984
19584		-27.403751	24.407249	-139.143706
19585		-27.776695	24.181909	-138.947016
19586		-28.031256	23.960764	-138.737199
19587		-28.228566	23.749573	-138.511660
19588		-28.373976	23.542343	-138.268380
19589		-28.461970	23.338042	-138.011799
19590		-28.477386	23.130406	-137.759604
19591		-28.427906	22.917359	-137.513110
19592		-28.322366	22.702194	-137.276463
19593		-28.205360	22.500539	-137.048666
19594		-28.058154	22.298232	-136.834752
19595		-27.888623	22.095941	-136.637662
19596		-27.761193	21.897833	-136.454276
19597		-27.702119	21.706287	-136.292718
19598		-27.711045	21.517856	-136.159253
19599		-27.675538	21.345558	-136.051722
19600		-27.591838	21.150518	-135.964794
19601		-27.554414	20.964430	-135.904022
19602		-27.503483	20.740653	-135.857529
19603		-27.468231	20.509318	-135.809271
19604		-27.529625	20.288519	-135.760229
19605		-27.568970	20.066028	-135.697983
19606		-27.587482	19.859742	-135.629060
19607		-27.643874	19.661036	-135.549297
19608		-27.704943	19.475727	-135.458586
19609		-27.835623	19.300070	-135.357772
19610		-27.978425	19.124813	-135.252638
19611		-28.111678	18.940950	-135.143691
19612		-28.163087	18.737390	-135.030506
19613		-28.125521	18.513519	-134.922002
19614		-28.168495	18.287547	-134.805223
19615		-28.465560	18.076439	-134.717502
19616		-28.464434	17.835190	-134.632164
19617		-28.279006	17.556235	-134.592799
19618		-27.984954	17.275976	-134.506275
19619		-28.196848	17.015302	-134.468849
19620		-28.538777	16.726570	-134.438199
19621		-28.578174	16.431059	-134.400946
19622		-28.552161	16.115944	-134.351126
19623		-28.594537	15.777658	-134.309861
19624		-28.796350	15.413304	-134.287790
19625		-29.096525	15.039334	-134.273105
19626		-29.264387	14.651974	-134.259561
19627		-29.242270	14.246162	-134.235585
19628		-29.171386	13.829731	-134.217090
19629		-29.023786	13.393417	-134.204838
19630		-28.870786	12.942229	-134.203133
19631		-28.720375	12.469904	-134.212834
19632		-28.622237	11.984020	-134.226503
19633		-28.639007	11.485385	-134.243231
19634		-28.720003	10.981042	-134.267447
19635		-28.793727	10.479187	-134.306866
19636		-28.731296	9.975275	-134.361430
19637		-28.436922	9.461740	-134.433605
19638		-27.992665	8.934934	-134.521504
19639		-27.502627	8.388834	-134.625513
19640		-27.086561	7.831029	-134.747740
19641		-26.815735	7.265068	-134.891489
19642		-26.635251	6.693662	-135.051700
19643		-26.468429	6.111537	-135.225360
19644		-26.329776	5.521217	-135.420541
19645		-26.090789	4.919953	-135.627359
19646		-25.692088	4.307767	-135.843399
19647		-25.184897	3.679088	-136.062329
19648		-24.628614	3.045258	-136.297047
19649		-24.114991	2.428690	-136.559255
19650		-23.668539	1.836929	-136.861756
19651		-23.305024	1.277008	-137.201053
19652		-23.065505	0.749827	-137.565987
19653		-22.844109	0.238816	-137.958593
19654		-22.512981	-0.255636	-138.355895
19655		-22.071041	-0.740402	-138.759076
19656		-21.636422	-1.225845	-139.177329
19657		-21.247485	-1.717598	-139.607461
19658		-20.923204	-2.214169	-140.049043
19659		-20.615123	-2.714888	-140.487379
19660		-20.250078	-3.216434	-140.907180
19661		-19.751729	-3.700404	-141.302663
19662		-19.166051	-4.170660	-141.694164
19663		-18.463865	-4.637197	-142.083896
19664		-17.715580	-5.076925	-142.451896
19665		-17.077034	-5.448042	-142.776055
19666		-16.803388	-5.715877	-143.066100
19667		-16.728415	-5.917714	-143.337165
19668		-16.591008	-6.111235	-143.610785
19669		-16.397607	-6.324709	-143.889101
19670		-16.214415	-6.546036	-144.178877
19671		-16.054924	-6.765376	-144.470081
19672		-15.802224	-6.980970	-144.753528
19673		-15.520062	-7.184718	-145.017101
19674		-15.222378	-7.359761	-145.257883
19675		-14.929840	-7.502048	-145.483134
19676		-14.637943	-7.630372	-145.710487
19677		-14.390845	-7.762717	-145.943970
19678		-14.176256	-7.902573	-146.168956
19679		-14.001214	-8.036873	-146.370971
19680		-13.814113	-8.170767	-146.554283
19681		-13.602846	-8.311517	-146.728729
19682		-13.402198	-8.447820	-146.899475
19683		-13.174800	-8.589764	-147.075523
19684		-12.889373	-8.731386	-147.264496
19685		-12.633029	-8.873774	-147.465378
19686		-12.473488	-9.007278	-147.676185
19687		-12.326066	-9.125763	-147.889974
19688		-12.127277	-9.235658	-148.107255
19689		-11.896530	-9.345462	-148.328471
19690		-11.690564	-9.449728	-148.543075
19691		-11.550067	-9.539598	-148.755747
19692		-11.411646	-9.623388	-148.971973
19693		-11.264912	-9.702097	-149.189765
19694		-11.187343	-9.771470	-149.410257
19695		-11.213476	-9.826531	-149.621874
19696		-11.282323	-9.880193	-149.827623
19697		-11.347440	-9.933562	-150.032514
19698		-11.352813	-9.985617	-150.249695
19699		-11.335659	-10.038390	-150.471226
19700		-11.321110	-10.082771	-150.694113
19701		-11.295784	-10.120224	-150.911420
19702		-11.273841	-10.157012	-151.132823
19703		-11.310670	-10.186937	-151.348804
19704		-11.381106	-10.211143	-151.561571
19705		-11.438681	-10.236984	-151.762664
19706		-11.473869	-10.258035	-151.956445
19707		-11.511912	-10.267941	-152.140500
19708		-11.601043	-10.276325	-152.306549
19709		-11.748555	-10.279100	-152.447500
19710		-11.870954	-10.275781	-152.570998
19711		-11.931237	-10.265317	-152.681175
19712		-11.951322	-10.250636	-152.777093
19713		-11.948270	-10.231476	-152.860562
19714		-11.963161	-10.207149	-152.926044
19715		-12.028212	-10.178982	-152.967497
19716		-12.122246	-10.152633	-152.991444
19717		-12.237319	-10.126697	-153.010480
19718		-12.325257	-10.086946	-153.034591
19719		-12.357368	-10.041299	-153.053027
19720		-12.296471	-10.008849	-153.060925
19721		-12.176671	-9.969671	-153.069894
19722		-12.168696	-9.947258	-153.063945
19723		-12.267160	-9.923159	-153.045202
19724		-12.337657	-9.914707	-153.007283
19725		-12.336994	-9.917280	-152.957108
19726		-12.392154	-9.924431	-152.905565
19727		-12.487792	-9.932566	-152.858188
19728		-12.572477	-9.929011	-152.820762
19729		-12.708976	-9.915063	-152.788111
19730		-12.911265	-9.898995	-152.757612
19731		-13.120721	-9.881856	-152.729136
19732		-13.276606	-9.864168	-152.699685
19733		-13.334147	-9.851123	-152.676760
19734		-13.275112	-9.843455	-152.663437
19735		-13.242222	-9.837934	-152.652447
19736		-13.235872	-9.836627	-152.645545
19737		-13.210283	-9.838308	-152.642081
19738		-13.174725	-9.851865	-152.637318
19739		-13.170256	-9.868232	-152.626288
19740		-13.199840	-9.890946	-152.612720
19741		-13.270217	-9.916674	-152.595328
19742		-13.371218	-9.940544	-152.585989
19743		-13.455379	-9.961893	-152.575301
19744		-13.519549	-9.982873	-152.563207
19745		-13.528925	-10.006855	-152.554807
19746		-13.525289	-10.029802	-152.545084
19747		-13.554100	-10.060612	-152.533443
19748		-13.518708	-10.104455	-152.519122
19749		-13.553215	-10.152684	-152.502894
19750		-13.681854	-10.194633	-152.499188
19751		-13.800886	-10.238320	-152.501138
19752		-13.878959	-10.274952	-152.501123
19753		-13.942523	-10.305080	-152.495892
19754		-13.921407	-10.340520	-152.485754
19755		-13.772419	-10.383695	-152.476039
19756		-13.610563	-10.423953	-152.469710
19757		-13.578615	-10.455786	-152.465625
19758		-13.573110	-10.485012	-152.463101
19759		-13.505885	-10.517243	-152.465082
19760		-13.452831	-10.549819	-152.476342
19761		-13.425069	-10.576641	-152.494799
19762		-13.396812	-10.600883	-152.513269
19763		-13.363165	-10.625883	-152.532466
19764		-13.317535	-10.654443	-152.549043
19765		-13.258891	-10.684285	-152.563357
19766		-13.193879	-10.704926	-152.573646
19767		-13.030386	-10.733079	-152.582810
19768		-12.771204	-10.766646	-152.593035
19769		-12.526512	-10.796175	-152.611784
19770		-12.323717	-10.835669	-152.640743
19771		-12.180910	-10.872243	-152.678969
19772		-12.088852	-10.909036	-152.717341
19773		-11.993041	-10.955144	-152.753512
19774		-11.865887	-11.010494	-152.783884
19775		-11.719170	-11.067231	-152.817066
19776		-11.628823	-11.127644	-152.848224
19777		-11.651044	-11.161993	-152.891410
19778		-11.690550	-11.184592	-152.939390
19779		-11.763150	-11.213059	-152.982526
19780		-11.860107	-11.228177	-153.027553
19781		-11.881801	-11.269788	-153.060337
19782		-11.861338	-11.309626	-153.088541
19783		-11.788089	-11.366563	-153.107382
19784		-11.691934	-11.434372	-153.126940
19785		-11.728578	-11.484534	-153.150039
19786		-11.998206	-11.539230	-153.172890
19787		-12.408041	-11.572989	-153.198450
19788		-12.752079	-11.589863	-153.229748
19789		-12.858934	-11.593108	-153.269265
19790		-12.679053	-11.590451	-153.322514
19791		-12.419248	-11.591272	-153.370420
19792		-12.204136	-11.599152	-153.411223
19793		-11.976023	-11.621104	-153.452184
19794		-11.810462	-11.635714	-153.490761
19795		-11.711195	-11.649098	-153.527050
19796		-11.659384	-11.660123	-153.567161
19797		-11.629938	-11.666464	-153.610527
19798		-11.671725	-11.677633	-153.648474
19799		-11.726883	-11.692112	-153.686087
19800		-11.761109	-11.702804	-153.727857
19801		-11.834792	-11.720410	-153.770990
19802		-11.949599	-11.737948	-153.804619
19803		-12.133017	-11.742702	-153.836687
19804		-12.410220	-11.730081	-153.872645
19805		-12.751981	-11.695694	-153.903209
19806		-13.078558	-11.646358	-153.938530
19807		-13.250415	-11.585937	-153.988705
19808		-13.326644	-11.523227	-154.053405
19809		-13.520002	-11.496305	-154.130595
19810		-14.117803	-11.450143	-154.159549
19811		-14.736309	-11.393429	-154.161774
19812		-14.499842	-11.306165	-154.148167
19813		-13.737675	-11.240196	-154.122018
19814		-12.915237	-11.209859	-154.111536
19815		-12.365833	-11.173909	-154.122187
19816		-12.385921	-11.145013	-154.136285
19817		-12.831059	-11.110989	-154.149586
19818		-13.353294	-11.070813	-154.160966
19819		-13.608056	-11.047569	-154.165378
19820		-13.483332	-11.024024	-154.163030
19821		-13.273182	-11.007466	-154.155492
19822		-13.173826	-10.992954	-154.144979
19823		-13.178686	-10.974837	-154.134882
19824		-13.185942	-10.959510	-154.121252
19825		-13.207287	-10.943515	-154.106621
19826		-13.202623	-10.936867	-154.099562
19827		-13.247190	-10.928962	-154.097000
19828		-13.292756	-10.926810	-154.096232
19829		-13.284980	-10.926979	-154.098716
19830		-13.248411	-10.924510	-154.100446
19831		-13.181619	-10.925955	-154.098967
19832		-13.087758	-10.926483	-154.096328
19833		-12.992524	-10.926589	-154.086560
19834		-12.896478	-10.924075	-154.066960
19835		-12.803002	-10.917712	-154.037604
19836		-12.791639	-10.907035	-153.990488
19837		-12.782111	-10.895097	-153.927748
19838		-12.785068	-10.870002	-153.859572
19839		-12.879941	-10.840208	-153.791528
19840		-13.062501	-10.809357	-153.709924
19841		-13.226061	-10.768577	-153.631493
19842		-13.344901	-10.729572	-153.544361
19843		-13.450820	-10.686528	-153.447493
19844		-13.528969	-10.641930	-153.342353
19845		-13.583375	-10.595044	-153.219040
19846		-13.628814	-10.546449	-153.090800
19847		-13.681656	-10.494633	-152.953625
19848		-13.761459	-10.443940	-152.820251
19849		-13.856731	-10.391275	-152.698359
19850		-13.999957	-10.329965	-152.584409
19851		-14.150467	-10.273304	-152.480382
19852		-14.304131	-10.211831	-152.383360
19853		-14.402384	-10.144586	-152.283733
19854		-14.480002	-10.076557	-152.180720
19855		-14.540682	-10.004563	-152.063432
19856		-14.571331	-9.923982	-151.935534
19857		-14.592298	-9.842574	-151.797211
19858		-14.653337	-9.749883	-151.650443
19859		-14.755567	-9.650466	-151.499787
19860		-14.864061	-9.551118	-151.337880
19861		-14.987962	-9.453485	-151.171570
19862		-15.082084	-9.354310	-150.997044
19863		-15.183120	-9.254940	-150.808905
19864		-15.282800	-9.156235	-150.612497
19865		-15.407651	-9.052311	-150.409130
19866		-15.554291	-8.958884	-150.205780
19867		-15.672769	-8.866204	-149.995834
19868		-15.832126	-8.774609	-149.782045
19869		-16.002648	-8.678933	-149.563582
19870		-16.200428	-8.583462	-149.334561
19871		-16.438834	-8.483085	-149.094734
19872		-16.630214	-8.391385	-148.834236
19873		-16.748848	-8.298621	-148.542813
19874		-16.804142	-8.217367	-148.229783
19875		-16.861594	-8.128373	-147.902593
19876		-16.903312	-8.033221	-147.569786
19877		-16.948134	-7.936163	-147.245936
19878		-17.092355	-7.830632	-146.945339
19879		-17.382333	-7.724311	-146.661328
19880		-17.717758	-7.610909	-146.394909
19881		-18.050581	-7.487570	-146.144926
19882		-18.390682	-7.365270	-145.892294
19883		-18.667738	-7.251842	-145.621487
19884		-18.785290	-7.163121	-145.322868
19885		-18.811077	-7.098616	-144.994499
19886		-18.833449	-7.038325	-144.639931
19887		-18.892317	-6.979694	-144.260658
19888		-19.133074	-6.904184	-143.876233
19889		-19.525562	-6.799949	-143.498129
19890		-19.868655	-6.693221	-143.115679
19891		-20.107189	-6.569188	-142.734982
19892		-20.252003	-6.443832	-142.342788
19893		-20.341896	-6.310632	-141.948230
19894		-20.405235	-6.166697	-141.550494
19895		-20.476912	-6.011934	-141.147274
19896		-20.671672	-5.846259	-140.744025
19897		-20.943204	-5.661440	-140.345242
19898		-21.211226	-5.473738	-139.940276
19899		-21.437823	-5.284267	-139.525241
19900		-21.579680	-5.098255	-139.106163
19901		-21.588649	-4.911413	-138.675963
19902		-21.527231	-4.723511	-138.241819
19903		-21.471566	-4.526544	-137.810991
19904		-21.499063	-4.332422	-137.388571
19905		-21.588730	-4.143422	-136.986289
19906		-21.683112	-3.960283	-136.598480
19907		-21.779227	-3.782678	-136.227638
19908		-21.860386	-3.615988	-135.865774
19909		-21.943549	-3.436725	-135.504851
19910		-22.017136	-3.252776	-135.138909
19911		-22.110491	-3.058185	-134.761978
19912		-22.172353	-2.866823	-134.383137
19913		-22.196997	-2.689157	-134.004889
19914		-22.182996	-2.509591	-133.637165
19915		-22.191261	-2.326166	-133.281167
19916		-22.247149	-2.128145	-132.940367
19917		-22.336423	-1.905275	-132.606352
19918		-22.473362	-1.668161	-132.274530
19919		-22.684964	-1.417309	-131.934985
19920		-22.926837	-1.166741	-131.566628
19921		-23.038579	-0.940476	-131.168185
19922		-23.180878	-0.723034	-130.729730
19923		-23.323502	-0.481888	-130.281558
19924		-23.421113	-0.221845	-129.842036
19925		-23.480124	0.070079	-129.414643
19926		-23.537044	0.369724	-129.007292
19927		-23.638902	0.684684	-128.629225
19928		-23.884145	1.017804	-128.286122
19929		-24.219858	1.350075	-127.952532
19930		-24.493759	1.695539	-127.621578
19931		-24.735180	2.033768	-127.286690
19932		-24.898479	2.366149	-126.944240
19933		-24.773467	2.676344	-126.617356
19934		-24.350706	3.007736	-126.324832
19935		-24.178593	3.306950	-126.050358
19936		-24.120266	3.536910	-125.809382
19937		-23.691902	3.760956	-125.618393
19938		-23.038933	4.016392	-125.495438
19939		-22.404717	4.275694	-125.428860
19940		-22.121361	4.539120	-125.412097
19941		-22.246917	4.805365	-125.447584
19942		-22.494500	5.068558	-125.527684
19943		-22.777389	5.323824	-125.636041
19944		-23.023093	5.557020	-125.761754
19945		-23.213594	5.785654	-125.903301
19946		-23.380605	6.015940	-126.053621
19947		-23.442583	6.223010	-126.199490
19948		-23.518498	6.413886	-126.334724
19949		-23.454171	6.583525	-126.450240
19950		-23.353984	6.744953	-126.565429
19951		-23.258108	6.901915	-126.681480
19952		-23.156392	7.057747	-126.805114
19953		-23.059836	7.211014	-126.935071
19954		-23.026232	7.351408	-127.056219
19955		-23.071660	7.474691	-127.168194
19956		-23.087952	7.579139	-127.258600
19957		-23.046682	7.660564	-127.332826
19958		-22.976961	7.731400	-127.396693
19959		-22.911769	7.791918	-127.450083
19960		-22.844175	7.847136	-127.494571
19961		-22.774391	7.892655	-127.532446
19962		-22.763838	7.941637	-127.568900
19963		-22.812081	7.982880	-127.603914
19964		-22.847710	8.016715	-127.637207
19965		-22.846614	8.046583	-127.669990
19966		-22.868690	8.070597	-127.703255
19967		-22.864950	8.088388	-127.732792
19968		-22.833648	8.100725	-127.761995
19969		-22.815901	8.109144	-127.794487
19970		-22.809647	8.121819	-127.832892
19971		-22.839308	8.142309	-127.880790
19972		-22.873646	8.169591	-127.938038
19973		-22.916523	8.208254	-128.000012
19974		-22.948789	8.274558	-128.078757
19975		-22.885014	8.349614	-128.166717
19976		-22.696810	8.427900	-128.260614
19977		-22.510231	8.532412	-128.350646
19978		-22.339723	8.654026	-128.429110
19979		-22.216521	8.801329	-128.517354
19980		-22.066398	8.980855	-128.613640
19981		-21.983857	9.180485	-128.710986
19982		-22.017207	9.404562	-128.807552
19983		-22.099711	9.648494	-128.919363
19984		-22.210639	9.914348	-129.040423
19985		-22.286911	10.188402	-129.168247
19986		-22.333976	10.477207	-129.290367
19987		-22.420635	10.804297	-129.409363
19988		-22.445980	11.158983	-129.528365
19989		-22.400604	11.526702	-129.645396
19990		-22.350887	11.898060	-129.761708
19991		-22.270920	12.249715	-129.884996
19992		-22.174925	12.601838	-130.027476
19993		-22.102673	12.962656	-130.172451
19994		-22.127715	13.325643	-130.313236
19995		-22.257473	13.708259	-130.462297
19996		-22.351229	14.115234	-130.602084
19997		-22.510637	14.549450	-130.740858
19998		-22.744362	14.993228	-130.896209
19999		-22.887553	15.397604	-131.086065
20000		-22.879266	15.766681	-131.314263
20001		-22.720826	16.101057	-131.542485
20002		-22.590289	16.416161	-131.772842
20003		-22.591703	16.729591	-132.007273
20004		-22.790960	17.044975	-132.252480
20005		-23.090933	17.346036	-132.516363
20006		-23.531318	17.654993	-132.794010
20007		-23.841498	17.964828	-133.085700
20008		-24.103185	18.270115	-133.406865
20009		-24.400014	18.589467	-133.757679
20010		-24.823115	18.920696	-134.124885
20011		-25.355224	19.256557	-134.500860
20012		-25.932525	19.598802	-134.873752
20013		-26.577973	19.947603	-135.223274
20014		-27.221548	20.268251	-135.572494
20015		-27.850073	20.536461	-135.934362
20016		-28.507047	20.765690	-136.273657
20017		-29.175463	20.967288	-136.597466
20018		-29.711065	21.148212	-136.889788
20019		-29.997154	21.316960	-137.160027
20020		-30.106634	21.466715	-137.394314
20021		-30.195236	21.608771	-137.607174
20022		-30.095261	21.734461	-137.823264
20023		-29.977845	21.845963	-138.022128
20024		-29.910021	21.950865	-138.231009
20025		-29.805755	22.051382	-138.433197
20026		-29.719283	22.159071	-138.626753
20027		-29.641853	22.269639	-138.821888
20028		-29.576465	22.380228	-139.015185
20029		-29.580731	22.497636	-139.203150
20030		-29.608248	22.619371	-139.388165
20031		-29.595413	22.734173	-139.574870
20032		-29.591336	22.844304	-139.763355
20033		-29.606357	22.949164	-139.947506
20034		-29.627933	23.053159	-140.126798
20035		-29.668827	23.156743	-140.301533
20036		-29.742584	23.261889	-140.479695
20037		-29.832965	23.365716	-140.658118
20038		-29.923873	23.460638	-140.831356
20039		-30.020085	23.548991	-141.001706
20040		-30.100447	23.635741	-141.163954
20041		-30.154750	23.715265	-141.317618
20042		-30.196675	23.785153	-141.466836
20043		-30.240183	23.854597	-141.609508
20044		-30.276017	23.916879	-141.742183
20045		-30.323676	23.976451	-141.862771
20046		-30.371955	24.027763	-141.973680
20047		-30.407375	24.065233	-142.072148
20048		-30.436394	24.092129	-142.163352
20049		-30.461907	24.115212	-142.246023
20050		-30.488112	24.134432	-142.314505
20051		-30.516503	24.150061	-142.372458
20052		-30.551667	24.165214	-142.417603
20053		-30.577129	24.177397	-142.450078
20054		-30.601003	24.188218	-142.471283
20055		-30.619036	24.199598	-142.483518
20056		-30.621629	24.207344	-142.490606
20057		-30.607804	24.208414	-142.493908
20058		-30.589588	24.207811	-142.493654
20059		-30.571469	24.202167	-142.489936
20060		-30.563790	24.193307	-142.484745
20061		-30.559371	24.185432	-142.474412
20062		-30.565118	24.173958	-142.464870
20063		-30.557121	24.152646	-142.455640
20064		-30.546575	24.131340	-142.447440
20065		-30.528987	24.104439	-142.438233
20066		-30.503953	24.072367	-142.429484
20067		-30.487769	24.037349	-142.421376
20068		-30.460597	24.000953	-142.411247
20069		-30.434653	23.965715	-142.392990
20070		-30.406948	23.927503	-142.373329
20071		-30.380243	23.892115	-142.345609
20072		-30.343774	23.862029	-142.315379
20073		-30.310353	23.830358	-142.281013
20074		-30.286902	23.807666	-142.246431
20075		-30.262982	23.787299	-142.204729
20076		-30.244538	23.764146	-142.150974
20077		-30.233299	23.735566	-142.082517
20078		-30.212804	23.694587	-141.999288
20079		-30.172203	23.634882	-141.911168
20080		-30.106343	23.558372	-141.817726
20081		-30.015581	23.473338	-141.723656
20082		-29.933897	23.384447	-141.629279
20083		-29.900970	23.293012	-141.525574
20084		-29.933140	23.200885	-141.399504
20085		-30.007223	23.096373	-141.251127
20086		-30.076189	22.983573	-141.090448
20087		-30.153146	22.857709	-140.915079
20088		-30.186381	22.719394	-140.729177
20089		-30.128772	22.566517	-140.532446
20090		-30.055333	22.408941	-140.321265
20091		-29.947378	22.262614	-140.096565
20092		-29.866288	22.098103	-139.868814
20093		-29.769897	21.921225	-139.652699
20094		-29.967045	21.721527	-139.415429
20095		-30.098715	21.527561	-139.215684
20096		-30.231358	21.331221	-139.004921
20097		-30.327282	21.137002	-138.800187
20098		-30.299431	20.947179	-138.585889
20099		-30.317305	20.759591	-138.389676
20100		-30.290987	20.558261	-138.206045
20101		-30.266095	20.349065	-138.030653
20102		-30.273786	20.142157	-137.866121
20103		-30.340595	19.943708	-137.713863
20104		-30.410931	19.750116	-137.566218
20105		-30.470256	19.568338	-137.421049
20106		-30.407170	19.363604	-137.308268
20107		-30.564978	19.152333	-137.240393
20108		-30.862716	18.949586	-137.212127
20109		-31.067377	18.742836	-137.195282
20110		-31.233994	18.542113	-137.193663
20111		-31.387541	18.336583	-137.202414
20112		-31.502158	18.120290	-137.222769
20113		-31.600543	17.892311	-137.237315
20114		-31.685853	17.654108	-137.250866
20115		-31.695376	17.401124	-137.254590
20116		-31.654150	17.137998	-137.251467
20117		-31.630786	16.871899	-137.241826
20118		-31.612343	16.607047	-137.234298
20119		-31.595901	16.339494	-137.219499
20120		-31.555648	16.070582	-137.207119
20121		-31.467928	15.801500	-137.189829
20122		-31.357084	15.523240	-137.161536
20123		-31.294695	15.227363	-137.135698
20124		-31.298316	14.915144	-137.113891
20125		-31.385514	14.586149	-137.096857
20126		-31.476461	14.256390	-137.087057
20127		-31.514324	13.920921	-137.084315
20128		-31.464223	13.582704	-137.087004
20129		-31.320319	13.235294	-137.093437
20130		-31.139423	12.877000	-137.107881
20131		-30.980910	12.502661	-137.129167
20132		-30.886894	12.117412	-137.160220
20133		-30.832655	11.723415	-137.194024
20134		-30.809075	11.323297	-137.230290
20135		-30.797740	10.922795	-137.269467
20136		-30.715050	10.513169	-137.315302
20137		-30.593884	10.092657	-137.364390
20138		-30.318972	9.660443	-137.415071
20139		-30.008964	9.218137	-137.469904
20140		-29.690114	8.766779	-137.530619
20141		-29.364255	8.307717	-137.594373
20142		-29.114963	7.854916	-137.672841
20143		-28.870010	7.399285	-137.760404
20144		-28.622858	6.944196	-137.861712
20145		-28.331458	6.486989	-137.971352
20146		-28.017610	6.018452	-138.092649
20147		-27.674530	5.528188	-138.222517
20148		-27.314430	5.014292	-138.366405
20149		-26.900774	4.482418	-138.516814
20150		-26.391273	3.947295	-138.670724
20151		-25.870236	3.406303	-138.843406
20152		-25.435720	2.882827	-139.040711
20153		-25.077299	2.375956	-139.238397
20154		-24.707630	1.883272	-139.457042
20155		-24.342246	1.398553	-139.695991
20156		-23.969777	0.916323	-139.950747
20157		-23.598514	0.436345	-140.212542
20158		-23.290246	-0.032954	-140.472938
20159		-22.933036	-0.492240	-140.750774
20160		-22.583274	-0.937372	-141.041312
20161		-22.302789	-1.356289	-141.351973
20162		-22.031162	-1.771229	-141.677309
20163		-21.804332	-2.175273	-142.021647
20164		-21.564904	-2.582419	-142.375875
20165		-21.250208	-2.995395	-142.746397
20166		-20.926709	-3.389133	-143.130558
20167		-20.665057	-3.747947	-143.503823
20168		-20.560501	-4.029926	-143.852250
20169		-20.575146	-4.244451	-144.168027
20170		-20.603394	-4.432616	-144.460728
20171		-20.608687	-4.618920	-144.736298
20172		-20.533268	-4.831762	-145.011214
20173		-20.474695	-5.064887	-145.285872
20174		-20.625376	-5.224060	-145.520394
20175		-20.829785	-5.345746	-145.718597
20176		-20.645578	-5.493612	-145.909384
20177		-20.382275	-5.631473	-146.101835
20178		-20.219286	-5.754736	-146.306626
20179		-20.040851	-5.883465	-146.524580
20180		-19.858825	-6.027649	-146.760531
20181		-19.767185	-6.183185	-146.999893
20182		-19.683660	-6.351330	-147.226951
20183		-19.484497	-6.530175	-147.430002
20184		-19.185149	-6.731087	-147.622136
20185		-18.873568	-6.938121	-147.806965
20186		-18.634229	-7.139689	-147.989098
20187		-18.370286	-7.344553	-148.167321
20188		-18.064706	-7.551617	-148.341412
20189		-17.709938	-7.761395	-148.522243
20190		-17.343004	-7.962185	-148.717585
20191		-17.022649	-8.147368	-148.934013
20192		-16.786120	-8.322456	-149.170227
20193		-16.651001	-8.485119	-149.419801
20194		-16.544816	-8.638590	-149.679498
20195		-16.408033	-8.782007	-149.945557
20196		-16.196195	-8.915638	-150.215751
20197		-15.981900	-9.040774	-150.484641
20198		-15.801779	-9.153703	-150.743352
20199		-15.641674	-9.254677	-150.997558
20200		-15.503871	-9.345267	-151.244866
20201		-15.383099	-9.428146	-151.486468
20202		-15.249264	-9.502742	-151.719092
20203		-15.098216	-9.570490	-151.940467
20204		-14.904761	-9.629275	-152.148146
20205		-14.759613	-9.685778	-152.349548
