// General information: 
//  MT Manager version: 2022.2.0 
//  XDA version: 2022.2.0 build 7381 rev 124627 built on 2023-07-19
// Device information: 
//  DeviceId: 00B44846
//  ProductCode: MTW2-3A7G6
//  Firmware Version: 4.3.5
//  Hardware Version: 2.0.0
// Device settings: 
//  Filter Profile: human(46.1)
//  Option Flags: Orientation Smoother Disabled, Position/Velocity Smoother Disabled, Continuous Zero Rotation Update Disabled, AHS Disabled, ICC Disabled
// Coordinate system: ENU
PacketCounter	SampleTimeFine	Roll	Pitch	Yaw
17214		19.285379	-48.309269	130.668903
17215		19.288082	-48.303388	130.657570
17216		19.290322	-48.298794	130.655198
17217		19.292355	-48.295708	130.655014
17218		19.293438	-48.294261	130.655251
17219		19.294601	-48.294843	130.660605
17220		19.293775	-48.296113	130.660423
17221		19.290658	-48.298181	130.653551
17222		19.288912	-48.301102	130.652515
17223		19.280774	-48.304003	130.649280
17224		19.272725	-48.310544	130.647498
17225		19.261572	-48.314165	130.635032
17226		19.249678	-48.315173	130.636151
17227		19.238909	-48.316397	130.634859
17228		19.229089	-48.319718	130.632155
17229		19.216866	-48.323206	130.661585
17230		19.214937	-48.328209	130.662742
17231		19.218191	-48.332967	130.661074
17232		19.230109	-48.344237	130.659747
17233		19.236300	-48.350259	130.665052
17234		19.238561	-48.352586	130.670391
17235		19.236285	-48.352631	130.674280
17236		19.229774	-48.351665	130.675303
17237		19.219161	-48.351034	130.668559
17238		19.211049	-48.349861	130.670134
17239		19.196232	-48.348692	130.675886
17240		19.179059	-48.346956	130.681948
17241		19.168294	-48.347989	130.674726
17242		19.161078	-48.354302	130.669385
17243		19.154134	-48.355568	130.646680
17244		19.144422	-48.356211	130.643085
17245		19.129193	-48.353665	130.644937
17246		19.114174	-48.358688	130.644232
17247		19.101335	-48.364079	130.636537
17248		19.086974	-48.365081	130.641812
17249		19.076131	-48.363514	130.663636
17250		19.063612	-48.357351	130.672262
17251		19.048513	-48.346602	130.688316
17252		19.039988	-48.340044	130.693530
17253		19.028999	-48.331477	130.699347
17254		19.026728	-48.322743	130.700854
17255		19.018131	-48.315212	130.674055
17256		19.007591	-48.303266	130.673657
17257		18.994124	-48.288870	130.679505
17258		18.975663	-48.276465	130.680574
17259		18.962223	-48.272628	130.688140
17260		18.960450	-48.277375	130.691211
17261		18.964553	-48.295376	130.688102
17262		18.948614	-48.315227	130.695476
17263		18.920135	-48.313095	130.724330
17264		18.901213	-48.295489	130.755193
17265		18.872042	-48.264956	130.780229
17266		18.849252	-48.225575	130.803447
17267		18.824067	-48.182529	130.807603
17268		18.792481	-48.137850	130.804057
17269		18.776399	-48.087645	130.796574
17270		18.776936	-48.037998	130.781935
17271		18.786186	-47.985080	130.786204
17272		18.811682	-47.940326	130.774353
17273		18.845572	-47.892219	130.771878
17274		18.895785	-47.830606	130.776220
17275		18.974628	-47.764139	130.784059
17276		19.027507	-47.693362	130.802633
17277		19.033191	-47.604720	130.822506
17278		19.037300	-47.494787	130.867427
17279		19.049349	-47.372951	130.909402
17280		19.044133	-47.252586	130.955491
17281		19.026513	-47.135742	130.992939
17282		19.000430	-47.022791	131.040834
17283		18.970857	-46.916986	131.084738
17284		18.930387	-46.812903	131.123118
17285		18.899039	-46.701043	131.128812
17286		18.872926	-46.585219	131.147725
17287		18.848511	-46.471793	131.166050
17288		18.839164	-46.365081	131.184630
17289		18.835543	-46.265632	131.201556
17290		18.831280	-46.171864	131.238320
17291		18.825131	-46.080147	131.282421
17292		18.808008	-45.992249	131.332951
17293		18.799504	-45.913162	131.386930
17294		18.803337	-45.841369	131.450004
17295		18.810763	-45.761267	131.518628
17296		18.810102	-45.677787	131.592696
17297		18.811942	-45.584625	131.659562
17298		18.786592	-45.485585	131.735855
17299		18.746141	-45.381516	131.805389
17300		18.685011	-45.270509	131.901792
17301		18.561477	-45.160440	132.013514
17302		18.460160	-45.055565	132.168833
17303		18.418537	-44.929571	132.325109
17304		18.392967	-44.768459	132.533511
17305		18.347973	-44.578227	132.738908
17306		18.281750	-44.363606	132.953389
17307		18.195033	-44.122625	133.144977
17308		18.076835	-43.846855	133.353952
17309		17.988244	-43.536342	133.558900
17310		17.926796	-43.203723	133.769158
17311		17.879401	-42.852398	133.987059
17312		17.865403	-42.476491	134.213293
17313		17.894723	-42.086781	134.426822
17314		17.959992	-41.688128	134.656225
17315		18.045368	-41.277483	134.879804
17316		18.143873	-40.870347	135.097810
17317		18.254615	-40.465154	135.305056
17318		18.358494	-40.058068	135.528282
17319		18.449295	-39.641866	135.779022
17320		18.547895	-39.227580	136.057483
17321		18.667786	-38.818168	136.346976
17322		18.760488	-38.429109	136.638408
17323		18.783285	-38.049400	136.954845
17324		18.865744	-37.678683	137.285490
17325		18.999359	-37.311203	137.624399
17326		19.104661	-36.965343	137.961895
17327		19.176905	-36.658600	138.287298
17328		19.219091	-36.365503	138.603723
17329		19.198392	-36.082608	138.926441
17330		19.111874	-35.813069	139.263331
17331		19.022699	-35.573074	139.614583
17332		18.965411	-35.327255	139.984461
17333		18.910397	-35.083154	140.371677
17334		18.833725	-34.864720	140.754238
17335		18.718385	-34.662167	141.137911
17336		18.571777	-34.482655	141.523543
17337		18.447674	-34.310991	141.908644
17338		18.314355	-34.146178	142.299175
17339		18.143759	-33.986378	142.702024
17340		17.989717	-33.830933	143.107429
17341		17.837890	-33.684005	143.510425
17342		17.664158	-33.543716	143.915938
17343		17.490922	-33.410627	144.323936
17344		17.331097	-33.281565	144.739317
17345		17.191828	-33.171246	145.160871
17346		17.086422	-33.081357	145.574081
17347		17.011551	-32.993774	145.977513
17348		16.966477	-32.907379	146.371196
17349		16.945889	-32.819487	146.756000
17350		16.948840	-32.729581	147.125789
17351		16.954394	-32.628105	147.479853
17352		16.892259	-32.513288	147.843853
17353		16.821967	-32.411728	148.224636
17354		16.774577	-32.366075	148.594471
17355		16.759959	-32.306723	148.968016
17356		16.774416	-32.192140	149.349995
17357		16.790517	-32.032478	149.736285
17358		16.806622	-31.876859	150.117526
17359		16.821542	-31.735030	150.483078
17360		16.833874	-31.606241	150.830055
17361		16.814790	-31.462015	151.172357
17362		16.764757	-31.298002	151.518443
17363		16.724632	-31.136188	151.845553
17364		16.673288	-30.999648	152.152340
17365		16.588146	-30.876839	152.459583
17366		16.459548	-30.773529	152.784596
17367		16.342525	-30.683804	153.131888
17368		16.239510	-30.618266	153.482326
17369		16.156003	-30.562290	153.825907
17370		16.080861	-30.499277	154.163033
17371		15.985294	-30.430344	154.492600
17372		15.885090	-30.360132	154.827660
17373		15.800814	-30.306299	155.154298
17374		15.737320	-30.283709	155.453545
17375		15.673211	-30.274425	155.736052
17376		15.610489	-30.269225	155.997782
17377		15.523519	-30.256397	156.243298
17378		15.430617	-30.253308	156.470632
17379		15.307753	-30.245125	156.703819
17380		15.173097	-30.239308	156.952977
17381		15.063428	-30.262003	157.191211
17382		14.966414	-30.281408	157.426171
17383		14.864931	-30.288156	157.650829
17384		14.751931	-30.288993	157.854952
17385		14.640748	-30.277824	158.043818
17386		14.523532	-30.270223	158.216584
17387		14.408459	-30.265038	158.380919
17388		14.308605	-30.259533	158.545783
17389		14.227073	-30.247184	158.714116
17390		14.173487	-30.251438	158.873557
17391		14.145762	-30.287154	159.009319
17392		14.142308	-30.301727	159.142277
17393		14.185422	-30.316640	159.269915
17394		14.250435	-30.342618	159.385841
17395		14.321856	-30.392762	159.474702
17396		14.388867	-30.434229	159.551374
17397		14.459179	-30.468026	159.615813
17398		14.534952	-30.508373	159.657409
17399		14.592855	-30.558774	159.677243
17400		14.628087	-30.615147	159.668708
17401		14.638065	-30.672210	159.643346
17402		14.633605	-30.717593	159.609561
17403		14.636029	-30.750342	159.567377
17404		14.624222	-30.775004	159.521933
17405		14.595839	-30.803344	159.469079
17406		14.560171	-30.840794	159.409576
17407		14.522503	-30.869641	159.344154
17408		14.490426	-30.888382	159.282237
17409		14.476108	-30.896410	159.225181
17410		14.479417	-30.891686	159.176183
17411		14.510499	-30.877661	159.133087
17412		14.555197	-30.863071	159.094975
17413		14.601759	-30.848847	159.064863
17414		14.658164	-30.844718	159.042299
17415		14.716545	-30.842502	159.027906
17416		14.779264	-30.833997	159.021039
17417		14.841400	-30.821229	159.018191
17418		14.893515	-30.803701	159.023550
17419		14.945329	-30.785974	159.028705
17420		14.986406	-30.766181	159.034196
17421		15.032933	-30.746518	159.038146
17422		15.081391	-30.733948	159.033694
17423		15.127809	-30.730245	159.020742
17424		15.167984	-30.732747	159.000729
17425		15.190111	-30.736130	158.981775
17426		15.206159	-30.739573	158.966783
17427		15.217319	-30.742725	158.956951
17428		15.215405	-30.740745	158.957770
17429		15.221404	-30.747143	158.960202
17430		15.227141	-30.757535	158.960416
17431		15.243900	-30.767279	158.952310
17432		15.258812	-30.777773	158.945769
17433		15.273101	-30.790606	158.936913
17434		15.275947	-30.808776	158.929308
17435		15.270634	-30.828806	158.923105
17436		15.265630	-30.854880	158.921362
17437		15.257219	-30.873553	158.922136
17438		15.236337	-30.883922	158.936755
17439		15.212459	-30.890435	158.954857
17440		15.189760	-30.892450	158.977971
17441		15.174639	-30.886861	159.003751
17442		15.160991	-30.880821	159.030303
17443		15.146244	-30.876203	159.057344
17444		15.136027	-30.874104	159.082470
17445		15.133505	-30.869989	159.100338
17446		15.133671	-30.863684	159.124016
17447		15.135904	-30.856535	159.141942
17448		15.139332	-30.858297	159.158239
17449		15.135469	-30.858595	159.174895
17450		15.114892	-30.856537	159.197444
17451		15.099067	-30.846421	159.220895
17452		15.079111	-30.833421	159.247394
17453		15.054955	-30.821909	159.271529
17454		15.033283	-30.814350	159.290513
17455		15.009178	-30.800668	159.305568
17456		14.979761	-30.791563	159.322861
17457		14.955391	-30.789779	159.335244
17458		14.928087	-30.785389	159.350683
17459		14.914846	-30.779337	159.369195
17460		14.900522	-30.773945	159.392855
17461		14.896509	-30.769152	159.414139
17462		14.906429	-30.765076	159.437716
17463		14.926150	-30.767878	159.456190
17464		14.949976	-30.774890	159.471266
17465		14.958872	-30.793694	159.478572
17466		14.962934	-30.818008	159.485299
17467		14.971855	-30.841969	159.492046
17468		14.973591	-30.870425	159.503462
17469		14.985752	-30.901011	159.512652
17470		14.994614	-30.935800	159.522825
17471		15.003733	-30.968016	159.529368
17472		15.001710	-31.003327	159.530020
17473		14.997631	-31.039043	159.522192
17474		14.980478	-31.075631	159.505957
17475		14.959198	-31.107899	159.483072
17476		14.934291	-31.137213	159.460957
17477		14.912061	-31.166102	159.439450
17478		14.888879	-31.189448	159.420066
17479		14.874899	-31.208497	159.403483
17480		14.867368	-31.224599	159.384371
17481		14.858440	-31.239525	159.364142
17482		14.850826	-31.254100	159.344841
17483		14.851042	-31.263061	159.322917
17484		14.862646	-31.267061	159.303912
17485		14.875738	-31.267238	159.280972
17486		14.889739	-31.279465	159.251130
17487		14.901374	-31.297957	159.215194
17488		14.890486	-31.323891	159.171527
17489		14.867016	-31.341668	159.126219
17490		14.850349	-31.353795	159.080474
17491		14.839429	-31.361314	159.028069
17492		14.834615	-31.368953	158.971882
17493		14.840272	-31.372604	158.908323
17494		14.856218	-31.377495	158.833322
17495		14.877105	-31.391418	158.741498
17496		14.886974	-31.423391	158.633491
17497		14.882681	-31.455514	158.515928
17498		14.884729	-31.486659	158.390938
17499		14.898387	-31.519376	158.251966
17500		14.922445	-31.561143	158.100705
17501		14.943716	-31.611217	157.939669
17502		14.939993	-31.671232	157.770776
17503		14.927748	-31.723773	157.601054
17504		14.936616	-31.771675	157.429978
17505		14.949975	-31.812864	157.261167
17506		14.960079	-31.858216	157.099555
17507		14.980923	-31.903701	156.944318
17508		15.024851	-31.950028	156.789462
17509		15.046072	-31.981069	156.632902
17510		15.056903	-32.012164	156.475753
17511		15.079230	-32.047939	156.317155
17512		15.110828	-32.085587	156.152546
17513		15.155394	-32.132843	155.981031
17514		15.221055	-32.188620	155.799425
17515		15.308038	-32.245908	155.596481
17516		15.400580	-32.301289	155.372859
17517		15.434809	-32.342903	155.143281
17518		15.399036	-32.351671	154.931501
17519		15.372165	-32.344489	154.719186
17520		15.360142	-32.332592	154.501802
17521		15.354594	-32.324526	154.267969
17522		15.338821	-32.325215	154.018469
17523		15.319118	-32.332055	153.754222
17524		15.277987	-32.346175	153.474564
17525		15.227812	-32.352180	153.184986
17526		15.184717	-32.340559	152.904428
17527		15.208814	-32.330299	152.627784
17528		15.264158	-32.330107	152.356732
17529		15.321097	-32.340685	152.085568
17530		15.395984	-32.348827	151.810691
17531		15.489802	-32.336746	151.525509
17532		15.573673	-32.344656	151.214776
17533		15.642624	-32.382877	150.883693
17534		15.705184	-32.441628	150.552018
17535		15.784593	-32.514568	150.217175
17536		15.889665	-32.589874	149.884110
17537		15.995039	-32.642819	149.550332
17538		16.057612	-32.675127	149.213875
17539		16.080915	-32.710446	148.866594
17540		16.107742	-32.749081	148.513744
17541		16.121978	-32.810193	148.153352
17542		16.106006	-32.893840	147.794794
17543		16.143644	-32.968646	147.436079
17544		16.208032	-33.017444	147.087678
17545		16.280676	-33.044987	146.739083
17546		16.350623	-33.076036	146.384524
17547		16.430368	-33.113877	146.016265
17548		16.508887	-33.168759	145.623911
17549		16.546774	-33.248911	145.204022
17550		16.550489	-33.351943	144.772430
17551		16.605329	-33.441898	144.319281
17552		16.692425	-33.485347	143.848814
17553		16.745259	-33.505267	143.357534
17554		16.780646	-33.525305	142.861909
17555		16.776570	-33.565314	142.366807
17556		16.737084	-33.640473	141.869033
17557		16.681443	-33.734678	141.367170
17558		16.618075	-33.834758	140.871262
17559		16.549340	-33.943496	140.372535
17560		16.490675	-34.041910	139.902582
17561		16.538415	-34.114491	139.449425
17562		16.592868	-34.172913	139.006953
17563		16.602164	-34.231113	138.572360
17564		16.642403	-34.300567	138.135527
17565		16.700004	-34.389635	137.689978
17566		16.778697	-34.485239	137.251053
17567		16.877915	-34.614654	136.796413
17568		16.924281	-34.771510	136.344941
17569		16.959882	-34.949042	135.890482
17570		16.987206	-35.153269	135.442228
17571		16.978386	-35.365176	135.013808
17572		16.938834	-35.553599	134.633206
17573		16.949123	-35.712736	134.278974
17574		16.967454	-35.892463	133.930140
17575		16.935474	-36.112284	133.576409
17576		16.895136	-36.388984	133.213637
17577		16.853502	-36.676677	132.868604
17578		16.871751	-36.910013	132.580132
17579		16.993874	-37.106450	132.314256
17580		17.050690	-37.259957	132.069013
17581		17.051260	-37.402962	131.834096
17582		17.020929	-37.563433	131.626706
17583		16.968289	-37.740338	131.443150
17584		16.830544	-37.915278	131.305798
17585		16.624703	-38.039107	131.225152
17586		16.409270	-38.107139	131.195932
17587		16.212098	-38.119110	131.200482
17588		16.050697	-38.098042	131.224947
17589		15.903871	-38.049256	131.274185
17590		15.777254	-37.988005	131.352575
17591		15.692421	-37.924444	131.453685
17592		15.636506	-37.868596	131.562447
17593		15.604202	-37.804096	131.677650
17594		15.614192	-37.719009	131.791383
17595		15.677825	-37.624504	131.886963
17596		15.769082	-37.540568	131.958020
17597		15.865337	-37.474663	132.004910
17598		15.938883	-37.441862	132.030397
17599		15.989826	-37.426220	132.042221
17600		16.024113	-37.425919	132.052586
17601		16.054372	-37.426229	132.058319
17602		16.075775	-37.431680	132.059375
17603		16.091009	-37.444811	132.053632
17604		16.116096	-37.475002	132.035349
17605		16.128979	-37.522533	132.005354
17606		16.118737	-37.578330	131.964649
17607		16.107270	-37.632814	131.921688
17608		16.089966	-37.686440	131.878030
17609		16.069723	-37.747881	131.828759
17610		16.047609	-37.814907	131.779657
17611		16.009878	-37.883915	131.737021
17612		15.980770	-37.962352	131.707690
17613		15.961370	-38.046311	131.681748
17614		15.928691	-38.135504	131.665671
17615		15.880195	-38.220677	131.653865
17616		15.835943	-38.298967	131.646231
17617		15.781635	-38.363255	131.647089
17618		15.726882	-38.412339	131.661428
17619		15.691889	-38.455196	131.670705
17620		15.660646	-38.501192	131.673513
17621		15.638342	-38.539393	131.669241
17622		15.630043	-38.576402	131.655610
17623		15.637693	-38.607684	131.632068
17624		15.649474	-38.642466	131.602546
17625		15.675057	-38.676887	131.568535
17626		15.711222	-38.708391	131.540428
17627		15.752216	-38.736300	131.520590
17628		15.786022	-38.762918	131.511105
17629		15.811387	-38.791817	131.509798
17630		15.830372	-38.815955	131.521563
17631		15.836928	-38.835974	131.540686
17632		15.832152	-38.854157	131.566055
17633		15.816717	-38.865289	131.593639
17634		15.798134	-38.874442	131.621640
17635		15.778379	-38.879489	131.646587
17636		15.753784	-38.881934	131.671670
17637		15.729579	-38.883688	131.694884
17638		15.712025	-38.888911	131.721692
17639		15.700143	-38.891820	131.747762
17640		15.690262	-38.898396	131.775383
17641		15.689856	-38.905945	131.801628
17642		15.694508	-38.915895	131.821531
17643		15.702658	-38.921565	131.840420
17644		15.718534	-38.932980	131.853244
17645		15.728183	-38.947484	131.860389
17646		15.742925	-38.962033	131.869932
17647		15.765631	-38.974179	131.876881
17648		15.778875	-38.993625	131.884663
17649		15.785941	-39.013832	131.895505
17650		15.790166	-39.040664	131.906790
17651		15.782494	-39.075418	131.916125
17652		15.760346	-39.113509	131.923363
17653		15.735334	-39.149768	131.933924
17654		15.707693	-39.187752	131.941919
17655		15.678758	-39.223754	131.943217
17656		15.636886	-39.265789	131.944904
17657		15.593798	-39.313454	131.940584
17658		15.553642	-39.369845	131.934933
17659		15.531208	-39.433068	131.924465
17660		15.510373	-39.504044	131.914173
17661		15.473621	-39.570326	131.909616
17662		15.418198	-39.645276	131.907252
17663		15.353430	-39.712491	131.919033
17664		15.322981	-39.781137	131.930504
17665		15.292345	-39.845373	131.943169
17666		15.268332	-39.899538	131.956206
17667		15.255574	-39.943296	131.968189
17668		15.240829	-39.976683	131.980072
17669		15.235597	-40.003523	131.983950
17670		15.222225	-40.028150	131.979832
17671		15.212218	-40.043764	131.969034
17672		15.203376	-40.053701	131.958424
17673		15.192667	-40.059361	131.947446
17674		15.180291	-40.066358	131.938095
17675		15.184110	-40.067613	131.929394
17676		15.197783	-40.067290	131.921611
17677		15.214203	-40.066273	131.910103
17678		15.228284	-40.064196	131.900756
17679		15.244584	-40.061483	131.896822
17680		15.258020	-40.060833	131.894226
17681		15.260447	-40.061826	131.891656
17682		15.263236	-40.060620	131.892383
17683		15.273154	-40.058185	131.890794
17684		15.279446	-40.063682	131.884859
17685		15.283268	-40.068708	131.876526
17686		15.291168	-40.079271	131.864246
17687		15.301476	-40.085689	131.846053
17688		15.309359	-40.100014	131.828354
17689		15.307931	-40.120374	131.811345
17690		15.307191	-40.145753	131.794390
17691		15.307898	-40.165002	131.781930
17692		15.312320	-40.172640	131.776678
17693		15.312533	-40.179170	131.762983
17694		15.302688	-40.187777	131.755701
17695		15.288100	-40.187792	131.754213
17696		15.277459	-40.188571	131.760524
17697		15.283063	-40.179167	131.780002
17698		15.332788	-40.171123	131.803420
17699		15.377962	-40.177487	131.818219
17700		15.405147	-40.164549	131.837308
17701		15.444632	-40.119861	131.855504
17702		15.448348	-40.050095	131.876896
17703		15.426935	-39.958861	131.902273
17704		15.386709	-39.865152	131.938241
17705		15.368779	-39.770253	131.993285
17706		15.410685	-39.685198	132.059061
17707		15.465398	-39.606939	132.129125
17708		15.505076	-39.521124	132.198205
17709		15.518066	-39.406901	132.273517
17710		15.509071	-39.265971	132.350674
17711		15.496536	-39.096814	132.436033
17712		15.474839	-38.917522	132.533869
17713		15.428046	-38.739560	132.656143
17714		15.422385	-38.546615	132.808719
17715		15.477432	-38.356724	132.973477
17716		15.520491	-38.188318	133.141197
17717		15.561747	-38.026145	133.305472
17718		15.571079	-37.858101	133.476941
17719		15.510723	-37.680008	133.675208
17720		15.504456	-37.478654	133.900061
17721		15.566485	-37.260676	134.130114
17722		15.602733	-37.055615	134.355442
17723		15.637356	-36.872125	134.569527
17724		15.690637	-36.687977	134.779620
17725		15.704638	-36.495778	134.997219
17726		15.687555	-36.293637	135.224892
17727		15.681981	-36.086886	135.459519
17728		15.694012	-35.872717	135.702401
17729		15.708070	-35.654247	135.950883
17730		15.741756	-35.438822	136.195105
17731		15.786698	-35.222475	136.437089
17732		15.806252	-35.013425	136.675032
17733		15.813843	-34.804845	136.916534
17734		15.852008	-34.602388	137.161961
17735		15.881939	-34.396142	137.422686
17736		15.924360	-34.195209	137.690496
17737		15.987423	-33.993778	137.953607
17738		16.034290	-33.799804	138.211855
17739		16.093846	-33.614772	138.455399
17740		16.125199	-33.440489	138.695491
17741		16.121115	-33.269565	138.937800
17742		16.107094	-33.108852	139.190575
17743		16.079528	-32.944654	139.464824
17744		16.120343	-32.783076	139.744489
17745		16.157277	-32.611985	140.036202
17746		16.227638	-32.446942	140.324848
17747		16.312274	-32.280951	140.602729
17748		16.370532	-32.125444	140.868904
17749		16.410146	-31.990124	141.124449
17750		16.448298	-31.847912	141.381267
17751		16.476102	-31.699890	141.641520
17752		16.491142	-31.563301	141.901487
17753		16.500383	-31.440329	142.161368
17754		16.485113	-31.332882	142.425047
17755		16.483698	-31.237913	142.684773
17756		16.488150	-31.146382	142.955184
17757		16.491089	-31.052979	143.235112
17758		16.504627	-30.976230	143.516081
17759		16.500433	-30.898490	143.805638
17760		16.471271	-30.821687	144.103701
17761		16.453999	-30.749762	144.401827
17762		16.428127	-30.702521	144.698883
17763		16.388349	-30.686673	144.993358
17764		16.384402	-30.684760	145.291781
17765		16.405705	-30.672504	145.597196
17766		16.437669	-30.641608	145.907043
17767		16.483689	-30.609824	146.204205
17768		16.528515	-30.587655	146.494694
17769		16.560951	-30.564892	146.778330
17770		16.563230	-30.540063	147.067506
17771		16.553805	-30.525649	147.359000
17772		16.543811	-30.536460	147.642795
17773		16.536491	-30.552687	147.918357
17774		16.543922	-30.559469	148.181061
17775		16.555535	-30.542530	148.433214
17776		16.545608	-30.507725	148.680692
17777		16.538838	-30.472209	148.923526
17778		16.525531	-30.442479	149.169268
17779		16.518246	-30.423874	149.406599
17780		16.507571	-30.408582	149.646641
17781		16.496239	-30.386553	149.888750
17782		16.496677	-30.363350	150.133493
17783		16.509056	-30.343474	150.373233
17784		16.488106	-30.332424	150.619123
17785		16.454761	-30.323982	150.882303
17786		16.449399	-30.324906	151.151194
17787		16.454779	-30.325258	151.421879
17788		16.454579	-30.318228	151.691982
17789		16.459330	-30.297250	151.955560
17790		16.460337	-30.265320	152.216932
17791		16.473427	-30.232825	152.475232
17792		16.469390	-30.212649	152.722777
17793		16.436390	-30.192857	152.970574
17794		16.394055	-30.177483	153.212644
17795		16.358167	-30.159995	153.453411
17796		16.331471	-30.134013	153.694338
17797		16.297596	-30.085845	153.932567
17798		16.259174	-30.028068	154.177472
17799		16.216393	-29.969145	154.419457
17800		16.155474	-29.917230	154.666733
17801		16.100468	-29.870718	154.921596
17802		16.034064	-29.848073	155.172573
17803		15.978070	-29.843610	155.414567
17804		15.938823	-29.844446	155.646566
17805		15.911554	-29.831532	155.868056
17806		15.884426	-29.808896	156.086784
17807		15.854519	-29.789229	156.294384
17808		15.820639	-29.796608	156.487067
17809		15.765806	-29.794527	156.678587
17810		15.717776	-29.782941	156.879577
17811		15.686518	-29.782593	157.084741
17812		15.683893	-29.794638	157.280172
17813		15.714785	-29.792544	157.464342
17814		15.759864	-29.777059	157.635612
17815		15.798054	-29.768111	157.778808
17816		15.834805	-29.766432	157.901813
17817		15.863616	-29.778595	158.005920
17818		15.881987	-29.804928	158.091675
17819		15.876080	-29.831200	158.169876
17820		15.856497	-29.844949	158.247266
17821		15.846359	-29.849120	158.324289
17822		15.859503	-29.847598	158.391190
17823		15.890153	-29.839073	158.446742
17824		15.886729	-29.837537	158.484871
17825		15.874243	-29.851624	158.493823
17826		15.848821	-29.872194	158.484818
17827		15.826375	-29.889492	158.457698
17828		15.804286	-29.906208	158.418907
17829		15.784394	-29.912117	158.378464
17830		15.767845	-29.908121	158.338986
17831		15.753640	-29.901057	158.303011
17832		15.743136	-29.897640	158.264041
17833		15.735854	-29.897063	158.227046
17834		15.724894	-29.903474	158.190617
17835		15.726453	-29.906570	158.155670
17836		15.725200	-29.907458	158.125234
17837		15.733182	-29.898469	158.097807
17838		15.750104	-29.881981	158.084369
17839		15.784269	-29.854885	158.077757
17840		15.822271	-29.827231	158.083301
17841		15.864684	-29.798274	158.096119
17842		15.903882	-29.776317	158.111197
17843		15.928559	-29.753011	158.128729
17844		15.941919	-29.718888	158.154995
17845		15.969976	-29.681002	158.177446
17846		15.980510	-29.639748	158.202208
17847		15.983717	-29.598358	158.224737
17848		15.981577	-29.564685	158.245562
17849		15.980915	-29.537079	158.265986
17850		15.966752	-29.507003	158.290455
17851		15.961001	-29.465921	158.324241
17852		15.963344	-29.419469	158.363527
17853		15.978148	-29.378893	158.403927
17854		16.000225	-29.343003	158.441347
17855		16.042173	-29.315257	158.476601
17856		16.094861	-29.285128	158.508988
17857		16.143791	-29.253226	158.539480
17858		16.185287	-29.231994	158.569259
17859		16.221805	-29.214331	158.601386
17860		16.245125	-29.200313	158.638317
17861		16.260466	-29.181955	158.684686
17862		16.274697	-29.160045	158.742178
17863		16.281724	-29.134137	158.807382
17864		16.284742	-29.110935	158.876483
17865		16.295538	-29.090658	158.942362
17866		16.303483	-29.072057	159.002686
17867		16.308452	-29.050379	159.059153
17868		16.315978	-29.031180	159.112986
17869		16.316489	-29.013616	159.165434
17870		16.319098	-28.995180	159.218275
17871		16.324784	-28.977621	159.263059
17872		16.329456	-28.965572	159.305142
17873		16.337905	-28.953894	159.341993
17874		16.341083	-28.943876	159.377996
17875		16.346166	-28.927722	159.415414
17876		16.351648	-28.913580	159.455997
17877		16.359957	-28.902208	159.496921
17878		16.366027	-28.895991	159.535130
17879		16.378627	-28.889330	159.569679
17880		16.380511	-28.888160	159.605194
17881		16.393625	-28.892642	159.641903
17882		16.411093	-28.901706	159.683819
17883		16.423637	-28.909401	159.732569
17884		16.433134	-28.918611	159.785069
17885		16.442323	-28.928117	159.839336
17886		16.447150	-28.943088	159.892164
17887		16.454645	-28.967694	159.939932
17888		16.462865	-28.992891	159.983161
17889		16.478824	-29.012509	160.022514
17890		16.485090	-29.033385	160.052983
17891		16.492680	-29.052993	160.067554
17892		16.478539	-29.074847	160.071903
17893		16.462640	-29.103973	160.062226
17894		16.452675	-29.135119	160.040594
17895		16.446728	-29.160822	160.018623
17896		16.439605	-29.184638	159.998764
17897		16.435897	-29.203197	159.980928
17898		16.434108	-29.214270	159.973029
17899		16.428561	-29.215702	159.971321
17900		16.417369	-29.219628	159.977669
17901		16.408511	-29.223237	159.991413
17902		16.404291	-29.227411	160.012160
17903		16.400771	-29.234942	160.038580
17904		16.393245	-29.242823	160.075031
17905		16.381746	-29.245336	160.121769
17906		16.371044	-29.251901	160.174348
17907		16.364694	-29.261168	160.228364
17908		16.355499	-29.272185	160.282736
17909		16.354492	-29.280199	160.334737
17910		16.352148	-29.283530	160.383176
17911		16.340201	-29.290918	160.423698
17912		16.308313	-29.302581	160.461860
17913		16.283276	-29.317691	160.492228
17914		16.253279	-29.329537	160.518790
17915		16.228624	-29.340413	160.535774
17916		16.206661	-29.349962	160.546728
17917		16.190802	-29.350280	160.545658
17918		16.176334	-29.356996	160.538597
17919		16.163159	-29.364906	160.524688
17920		16.150152	-29.372540	160.509024
17921		16.138592	-29.378588	160.491920
17922		16.131427	-29.382715	160.470940
17923		16.119763	-29.382700	160.452888
17924		16.099923	-29.391776	160.438183
17925		16.083395	-29.407744	160.425591
17926		16.071186	-29.429617	160.414412
17927		16.056926	-29.450354	160.402025
17928		16.029810	-29.475014	160.387563
17929		15.998594	-29.497335	160.372790
17930		15.968387	-29.522508	160.360242
17931		15.940502	-29.554307	160.340497
17932		15.910450	-29.591513	160.314701
17933		15.879077	-29.630490	160.285703
17934		15.850776	-29.671547	160.247672
17935		15.830225	-29.707885	160.199398
17936		15.812954	-29.741235	160.142415
17937		15.804046	-29.777103	160.068042
17938		15.789346	-29.814593	159.981884
17939		15.783917	-29.850630	159.881858
17940		15.784417	-29.888760	159.769675
17941		15.776459	-29.933975	159.643466
17942		15.758303	-29.980266	159.511917
17943		15.746543	-30.020679	159.383933
17944		15.747444	-30.059398	159.262257
17945		15.762932	-30.101128	159.143918
17946		15.801329	-30.141861	159.025469
17947		15.850837	-30.176416	158.910341
17948		15.918989	-30.209981	158.796847
17949		16.016293	-30.245913	158.672449
17950		16.115100	-30.291122	158.542651
17951		16.142531	-30.336678	158.417017
17952		16.161342	-30.373198	158.298020
17953		16.212305	-30.399691	158.176642
17954		16.260835	-30.424540	158.052640
17955		16.296200	-30.451989	157.919312
17956		16.332551	-30.473602	157.778128
17957		16.378552	-30.495520	157.628898
17958		16.429727	-30.513855	157.469730
17959		16.471968	-30.532835	157.304628
17960		16.533410	-30.557765	157.127777
17961		16.620532	-30.589385	156.934281
17962		16.686157	-30.631862	156.732477
17963		16.744032	-30.681106	156.522249
17964		16.808144	-30.728355	156.311986
17965		16.801495	-30.753724	156.122836
17966		16.809550	-30.766412	155.945421
17967		16.837570	-30.758402	155.786168
17968		16.867679	-30.748773	155.640463
17969		16.897000	-30.736149	155.509440
17970		16.927751	-30.723990	155.392795
17971		16.968414	-30.704042	155.285435
17972		17.049658	-30.655192	155.188191
17973		17.139242	-30.592862	155.084984
17974		17.260374	-30.558549	154.949930
17975		17.350630	-30.543655	154.797871
17976		17.421573	-30.545227	154.640335
17977		17.495152	-30.564089	154.475538
17978		17.557356	-30.579987	154.318044
17979		17.594427	-30.593327	154.166877
17980		17.587896	-30.612413	154.023799
17981		17.570696	-30.630266	153.896180
17982		17.566911	-30.620846	153.781526
17983		17.565857	-30.622284	153.672888
17984		17.569667	-30.648058	153.556587
17985		17.600379	-30.678911	153.433314
17986		17.649317	-30.701121	153.302388
17987		17.708452	-30.719991	153.146590
17988		17.717784	-30.749799	152.966751
17989		17.713425	-30.778633	152.771237
17990		17.721881	-30.811449	152.571489
17991		17.729254	-30.857064	152.369304
17992		17.740272	-30.920844	152.164701
17993		17.744117	-30.995142	151.962555
17994		17.758586	-31.059908	151.765216
17995		17.800972	-31.100396	151.568328
17996		17.815859	-31.124097	151.370744
17997		17.806969	-31.165538	151.159085
17998		17.792752	-31.225691	150.935943
17999		17.805352	-31.289751	150.707892
18000		17.804362	-31.360908	150.479025
18001		17.804407	-31.432139	150.253326
18002		17.812257	-31.489038	150.040212
18003		17.864871	-31.524435	149.835043
18004		17.903124	-31.558107	149.626912
18005		17.921390	-31.612767	149.417082
18006		17.945358	-31.682242	149.197227
18007		17.987308	-31.764692	148.960582
18008		18.062068	-31.858704	148.711361
18009		18.150520	-31.950860	148.443468
18010		18.248938	-32.049329	148.149270
18011		18.333149	-32.162089	147.823173
18012		18.373342	-32.288676	147.476686
18013		18.414361	-32.425721	147.115968
18014		18.455799	-32.580999	146.745151
18015		18.526545	-32.746502	146.370648
18016		18.677388	-32.903359	145.964651
18017		18.899352	-33.042659	145.528506
18018		19.181813	-33.228596	145.019572
18019		19.360211	-33.489023	144.446718
18020		19.407482	-33.824341	143.854812
18021		19.439633	-34.183087	143.259303
18022		19.443645	-34.527537	142.685643
18023		19.446248	-34.816747	142.152135
18024		19.475489	-35.042498	141.669263
18025		19.612032	-35.216428	141.218373
18026		19.773954	-35.411920	140.740325
18027		19.824411	-35.633582	140.243256
18028		19.908476	-35.868912	139.732587
18029		20.001392	-36.096762	139.225427
18030		20.041854	-36.326141	138.736802
18031		20.059613	-36.525301	138.295422
18032		20.120981	-36.667248	137.899442
18033		20.174034	-36.783297	137.523967
18034		20.170534	-36.913139	137.167065
18035		20.220452	-37.045081	136.826656
18036		20.275184	-37.197471	136.492036
18037		20.284288	-37.384897	136.169385
18038		20.324867	-37.557325	135.876892
18039		20.417604	-37.708387	135.599091
18040		20.498630	-37.855404	135.342606
18041		20.567594	-38.006070	135.103914
18042		20.606446	-38.169443	134.876304
18043		20.614482	-38.348570	134.654792
18044		20.583517	-38.536633	134.446776
18045		20.588257	-38.710344	134.268255
18046		20.648025	-38.905803	134.070569
18047		20.649015	-39.083680	133.885606
18048		20.666567	-39.288669	133.691942
18049		20.661117	-39.528264	133.487887
18050		20.640632	-39.748229	133.319298
18051		20.670396	-39.956562	133.167384
18052		20.636707	-40.160186	133.028240
18053		20.533092	-40.346868	132.916406
18054		20.459793	-40.552226	132.812894
18055		20.399798	-40.779196	132.718225
18056		20.288912	-41.016964	132.640110
18057		20.144605	-41.237300	132.589890
18058		19.981624	-41.426284	132.574541
18059		19.812723	-41.581679	132.589720
18060		19.641418	-41.705970	132.638509
18061		19.487929	-41.804979	132.703898
18062		19.357540	-41.901235	132.776868
18063		19.262921	-41.970239	132.860958
18064		19.204477	-42.005178	132.956222
18065		19.195035	-42.008605	133.041711
18066		19.221608	-41.989178	133.107398
18067		19.280170	-41.955726	133.144636
18068		19.352004	-41.914979	133.161612
18069		19.426256	-41.865521	133.152948
18070		19.499210	-41.822679	133.126144
18071		19.588409	-41.802369	133.072899
18072		19.650498	-41.806698	133.009172
18073		19.689606	-41.800886	132.949289
18074		19.722993	-41.787706	132.894635
18075		19.737837	-41.779088	132.834697
18076		19.727943	-41.774358	132.768460
18077		19.690451	-41.769605	132.700655
18078		19.654535	-41.760305	132.643459
18079		19.648845	-41.754714	132.586622
18080		19.661435	-41.760144	132.528455
18081		19.687268	-41.769524	132.467116
18082		19.704566	-41.784134	132.410761
18083		19.721144	-41.791428	132.362905
18084		19.731115	-41.802498	132.318088
18085		19.727451	-41.823403	132.278230
18086		19.712463	-41.849776	132.242664
18087		19.708722	-41.872295	132.207057
18088		19.714300	-41.904092	132.168569
18089		19.738431	-41.937850	132.121400
18090		19.787028	-41.978461	132.067545
18091		19.844269	-42.027498	132.006523
18092		19.900674	-42.082659	131.944617
18093		19.946248	-42.134377	131.889179
18094		19.971409	-42.182710	131.833887
18095		19.973213	-42.222898	131.778141
18096		19.943040	-42.280141	131.720421
18097		19.906407	-42.352515	131.667265
18098		19.872626	-42.439189	131.619328
18099		19.831278	-42.538498	131.582861
18100		19.776911	-42.642515	131.559357
18101		19.718861	-42.748669	131.542818
18102		19.645112	-42.856289	131.539019
18103		19.575022	-42.953663	131.536544
18104		19.494975	-43.058400	131.536530
18105		19.407633	-43.170530	131.528741
18106		19.311441	-43.296471	131.517817
18107		19.210981	-43.425917	131.508997
18108		19.106562	-43.560520	131.502528
18109		19.002307	-43.691866	131.496396
18110		18.900203	-43.820298	131.486097
18111		18.794911	-43.943467	131.485605
18112		18.691599	-44.072599	131.479228
18113		18.560584	-44.206625	131.476712
18114		18.384135	-44.372271	131.466454
18115		18.179625	-44.649074	131.432226
18116		17.953029	-45.005275	131.414887
18117		17.714497	-45.392533	131.438750
18118		17.505117	-45.768197	131.490968
18119		17.326490	-46.067246	131.560169
18120		17.220014	-46.289733	131.634241
18121		17.160860	-46.456451	131.699132
18122		17.108974	-46.608025	131.747995
18123		17.065891	-46.746979	131.774467
18124		17.031651	-46.871232	131.781454
18125		16.996586	-46.969939	131.775696
18126		16.963126	-47.055543	131.756847
18127		16.927713	-47.129277	131.728242
18128		16.895068	-47.188156	131.699667
18129		16.861205	-47.241062	131.664039
18130		16.820685	-47.293355	131.623845
18131		16.768464	-47.346023	131.582896
18132		16.694218	-47.421498	131.534120
18133		16.616168	-47.546185	131.476165
18134		16.527631	-47.696745	131.451112
18135		16.421430	-47.814611	131.475525
18136		16.348320	-47.915279	131.514318
18137		16.293286	-47.994727	131.549311
18138		16.244419	-48.056901	131.581354
18139		16.196792	-48.106136	131.607133
18140		16.129964	-48.159668	131.623611
18141		16.018010	-48.232390	131.638233
18142		15.880472	-48.348459	131.645647
18143		15.717760	-48.481361	131.667830
18144		15.552055	-48.596426	131.702747
18145		15.416720	-48.671781	131.742281
18146		15.322079	-48.709338	131.776740
18147		15.263860	-48.715852	131.802289
18148		15.237014	-48.722253	131.813608
18149		15.234172	-48.729708	131.809887
18150		15.230217	-48.735394	131.813493
18151		15.241943	-48.739072	131.816053
18152		15.250069	-48.750499	131.819478
18153		15.254936	-48.764088	131.829596
18154		15.251908	-48.767954	131.846459
18155		15.249115	-48.758024	131.861082
18156		15.265058	-48.749717	131.863880
18157		15.281516	-48.742741	131.855298
18158		15.283479	-48.740524	131.851342
18159		15.283046	-48.735781	131.846680
18160		15.280361	-48.736929	131.846267
18161		15.276177	-48.743356	131.846973
18162		15.266168	-48.755315	131.847488
18163		15.249381	-48.761118	131.843917
18164		15.227630	-48.761021	131.836388
18165		15.201507	-48.761048	131.830687
18166		15.180836	-48.765944	131.820248
18167		15.161301	-48.778503	131.815371
18168		15.143073	-48.799076	131.814665
18169		15.129764	-48.830472	131.818861
18170		15.101978	-48.864350	131.834256
18171		15.077753	-48.886947	131.857884
18172		15.091971	-48.916489	131.871737
18173		15.108977	-48.945588	131.886335
18174		15.123364	-48.998915	131.896234
18175		15.124962	-49.062262	131.916851
18176		15.132205	-49.108798	131.948819
18177		15.154923	-49.132571	131.975888
18178		15.164883	-49.131431	131.987538
18179		15.165303	-49.099888	131.990054
18180		15.164121	-49.035940	131.988749
18181		15.217830	-48.955567	131.971351
18182		15.319122	-48.902294	131.936019
18183		15.421949	-48.871806	131.887498
18184		15.497509	-48.853657	131.843734
18185		15.555957	-48.832150	131.805431
18186		15.585453	-48.790045	131.786564
18187		15.572828	-48.711022	131.795496
18188		15.574420	-48.577731	131.826527
18189		15.652471	-48.433430	131.840248
18190		15.734652	-48.296372	131.832365
18191		15.794859	-48.155309	131.816286
18192		15.814037	-48.020288	131.814311
18193		15.798698	-47.906540	131.835845
18194		15.793981	-47.798006	131.894859
18195		15.829077	-47.677395	131.972971
18196		15.861137	-47.530723	132.070923
18197		15.897261	-47.348911	132.188518
18198		15.926314	-47.136963	132.334920
18199		15.924641	-46.914740	132.502033
18200		15.886801	-46.692580	132.683223
18201		15.801552	-46.464819	132.872990
18202		15.688192	-46.226169	133.076140
18203		15.572638	-45.967789	133.290939
18204		15.472058	-45.706946	133.508347
18205		15.402808	-45.448064	133.721811
18206		15.355938	-45.195638	133.936987
18207		15.319274	-44.952951	134.140818
18208		15.263247	-44.715223	134.356670
18209		15.226580	-44.464045	134.585117
18210		15.240509	-44.211229	134.822567
18211		15.283273	-43.971154	135.051657
18212		15.307977	-43.750627	135.261896
18213		15.249595	-43.535696	135.472608
18214		15.117004	-43.292023	135.707767
18215		15.009592	-43.007284	135.972665
18216		14.967609	-42.701794	136.235180
18217		14.947696	-42.414997	136.466543
18218		14.914808	-42.166925	136.652142
18219		14.848890	-41.943529	136.810591
18220		14.746894	-41.718557	136.966315
18221		14.643864	-41.490385	137.130804
18222		14.502776	-41.261442	137.293150
18223		14.252560	-41.019100	137.493448
18224		14.013438	-40.732967	137.754730
18225		13.917876	-40.431174	138.038058
18226		13.836225	-40.143160	138.332875
18227		13.726339	-39.855251	138.630997
18228		13.584778	-39.547633	138.938609
18229		13.452998	-39.218683	139.253739
18230		13.351891	-38.844218	139.588477
18231		13.275333	-38.437262	139.937564
18232		13.174425	-38.002525	140.308684
18233		13.071855	-37.542615	140.709407
18234		12.990590	-37.059643	141.139699
18235		12.913132	-36.571117	141.583223
18236		12.910870	-36.074293	142.023782
18237		12.968421	-35.572052	142.458292
18238		13.026178	-35.086635	142.873573
18239		13.051689	-34.618959	143.266221
18240		13.081324	-34.138256	143.661673
18241		13.175803	-33.646316	144.062738
18242		13.322605	-33.146081	144.476467
18243		13.461898	-32.658388	144.898765
18244		13.538035	-32.191007	145.333619
18245		13.569039	-31.750046	145.774154
18246		13.521709	-31.324527	146.259438
18247		13.444803	-30.948764	146.804044
18248		13.433028	-30.674343	147.345001
18249		13.444959	-30.422149	147.895416
18250		13.452858	-30.128308	148.457616
18251		13.468727	-29.743102	149.048592
18252		13.507332	-29.313099	149.655415
18253		13.563680	-28.912538	150.244470
18254		13.609731	-28.584872	150.786600
18255		13.617496	-28.354423	151.279406
18256		13.613633	-28.193698	151.730033
18257		13.589080	-28.091941	152.130358
18258		13.504826	-28.022178	152.506508
18259		13.401073	-27.953939	152.884415
18260		13.287157	-27.925203	153.254836
18261		13.182436	-27.933208	153.616734
18262		13.068123	-27.937876	153.977624
18263		12.937643	-27.914951	154.341362
18264		12.777838	-27.879164	154.693899
18265		12.570419	-27.838139	155.034241
18266		12.331584	-27.814505	155.347435
18267		12.064640	-27.807638	155.644786
18268		11.793420	-27.827341	155.933185
18269		11.566768	-27.888153	156.203356
18270		11.399166	-27.971301	156.453947
18271		11.266323	-28.029192	156.693728
18272		11.172217	-28.056855	156.938809
18273		11.106390	-28.050229	157.184631
18274		11.029184	-28.029723	157.428269
18275		10.939590	-28.031169	157.656479
18276		10.838983	-28.089935	157.863664
18277		10.732840	-28.177938	158.044582
18278		10.619489	-28.247692	158.221464
18279		10.502437	-28.281685	158.404381
18280		10.370975	-28.289906	158.588368
18281		10.235678	-28.289196	158.774227
18282		10.121584	-28.305566	158.946719
18283		10.015380	-28.352692	159.100418
18284		9.905170	-28.387844	159.248866
18285		9.823380	-28.418076	159.392896
18286		9.789034	-28.477273	159.515756
18287		9.789691	-28.538500	159.619841
18288		9.813470	-28.569268	159.720854
18289		9.838644	-28.576495	159.824092
18290		9.878189	-28.598699	159.904680
18291		9.911881	-28.652647	159.948594
18292		9.895201	-28.719890	159.958968
18293		9.862235	-28.776612	159.940850
18294		9.802989	-28.812028	159.907663
18295		9.749627	-28.841724	159.866836
18296		9.681543	-28.876753	159.816051
18297		9.601676	-28.913058	159.755404
18298		9.513016	-28.935560	159.692417
18299		9.434508	-28.934859	159.632720
18300		9.368855	-28.922006	159.583144
18301		9.317786	-28.896560	159.539969
18302		9.278155	-28.882453	159.500343
18303		9.255401	-28.874115	159.469281
18304		9.242254	-28.871385	159.441577
18305		9.237288	-28.855213	159.427829
18306		9.234204	-28.822300	159.425561
18307		9.243144	-28.785409	159.432476
18308		9.244345	-28.754582	159.444217
18309		9.226402	-28.731585	159.467757
18310		9.204585	-28.726446	159.497216
18311		9.188715	-28.731007	159.535789
18312		9.168781	-28.734554	159.586806
18313		9.150014	-28.729744	159.644279
18314		9.135037	-28.709642	159.706430
18315		9.126638	-28.671601	159.773739
18316		9.106531	-28.642794	159.840187
18317		9.089107	-28.632854	159.901031
18318		9.076210	-28.634410	159.956172
18319		9.076466	-28.637043	160.007660
18320		9.081136	-28.639377	160.052835
18321		9.076104	-28.628685	160.091014
18322		9.055585	-28.611939	160.125718
18323		9.021086	-28.593543	160.155150
18324		8.985820	-28.580863	160.183935
18325		8.949770	-28.566517	160.218506
18326		8.919271	-28.555455	160.258231
18327		8.902872	-28.544688	160.302943
18328		8.885048	-28.538635	160.353824
18329		8.871927	-28.529728	160.408387
18330		8.864981	-28.524115	160.465748
18331		8.866638	-28.517660	160.524331
18332		8.867027	-28.514058	160.583897
18333		8.867150	-28.510410	160.637326
18334		8.853639	-28.501866	160.690439
18335		8.833206	-28.482120	160.748706
18336		8.809393	-28.463496	160.808103
18337		8.772427	-28.446358	160.867164
18338		8.742309	-28.430106	160.920733
18339		8.726390	-28.414869	160.970088
18340		8.714463	-28.398414	161.015781
18341		8.708288	-28.383642	161.051637
18342		8.698340	-28.372161	161.078022
18343		8.692021	-28.375434	161.092153
18344		8.679267	-28.379755	161.104479
18345		8.669558	-28.386930	161.116143
18346		8.662577	-28.403308	161.129241
18347		8.674478	-28.429908	161.142890
18348		8.690923	-28.461558	161.158617
18349		8.708841	-28.496728	161.177391
18350		8.721809	-28.530232	161.199506
18351		8.711274	-28.564887	161.227254
18352		8.676286	-28.592356	161.257716
18353		8.656604	-28.614357	161.285209
18354		8.654380	-28.637021	161.302302
18355		8.647535	-28.661671	161.310355
18356		8.640213	-28.686238	161.306235
18357		8.628903	-28.713657	161.296242
18358		8.627070	-28.749053	161.280793
18359		8.612983	-28.803683	161.252727
18360		8.615105	-28.847704	161.223000
18361		8.641228	-28.858972	161.197621
18362		8.655375	-28.855584	161.174013
18363		8.681388	-28.866384	161.147915
18364		8.722586	-28.886762	161.126692
18365		8.754321	-28.907001	161.115371
18366		8.778446	-28.926267	161.111739
18367		8.806324	-28.936450	161.114305
18368		8.806875	-28.931717	161.128832
18369		8.800212	-28.926184	161.147185
18370		8.781426	-28.926189	161.167354
18371		8.765843	-28.927646	161.186500
18372		8.748249	-28.927083	161.201198
18373		8.728190	-28.919196	161.221477
18374		8.706533	-28.909220	161.239039
18375		8.695523	-28.900691	161.262554
18376		8.698171	-28.890227	161.283185
18377		8.704651	-28.881180	161.300427
18378		8.713843	-28.872013	161.314237
18379		8.727856	-28.857247	161.325145
18380		8.752727	-28.843363	161.332778
18381		8.791251	-28.824299	161.340458
18382		8.839909	-28.799277	161.348376
18383		8.885538	-28.773039	161.357628
18384		8.926212	-28.746061	161.365752
18385		8.958606	-28.731920	161.359553
18386		8.981310	-28.728953	161.343053
18387		9.002268	-28.739044	161.309841
18388		9.003705	-28.757491	161.268032
18389		9.021839	-28.780881	161.218908
18390		9.035571	-28.816269	161.162530
18391		9.057414	-28.853238	161.095093
18392		9.069891	-28.892456	161.019050
18393		9.087832	-28.934604	160.931134
18394		9.113865	-28.984909	160.826473
18395		9.136584	-29.037797	160.706971
18396		9.165784	-29.098464	160.578848
18397		9.232856	-29.171937	160.440848
18398		9.303777	-29.257902	160.294759
18399		9.383621	-29.326993	160.146189
18400		9.458885	-29.376794	159.999283
18401		9.541290	-29.415760	159.856378
18402		9.660513	-29.462330	159.708338
18403		9.802944	-29.521356	159.552127
18404		9.958377	-29.580517	159.390952
18405		10.143611	-29.653916	159.203444
18406		10.257387	-29.718730	158.997798
18407		10.302315	-29.761016	158.788699
18408		10.349744	-29.783487	158.583774
18409		10.395505	-29.790432	158.384986
18410		10.467244	-29.806590	158.186357
18411		10.574819	-29.840894	157.979435
18412		10.708397	-29.872969	157.756787
18413		10.883144	-29.898915	157.514009
18414		11.064461	-29.930330	157.245317
18415		11.317937	-30.014508	156.933782
18416		11.559815	-30.125195	156.591673
18417		11.689629	-30.206471	156.253178
18418		11.843524	-30.254209	155.924090
18419		12.014178	-30.287298	155.596061
18420		12.170882	-30.327191	155.266089
18421		12.303830	-30.397269	154.922552
18422		12.410814	-30.475310	154.564383
18423		12.532146	-30.527215	154.200182
18424		12.613340	-30.546658	153.838540
18425		12.668298	-30.579999	153.486529
18426		12.696392	-30.652987	153.146287
18427		12.740534	-30.766792	152.824017
18428		12.797330	-30.899903	152.521011
18429		12.885015	-31.006347	152.239385
18430		13.012526	-31.054742	151.968533
18431		13.119848	-31.036567	151.712062
18432		13.244420	-31.011236	151.455374
18433		13.415357	-31.021631	151.176804
18434		13.616519	-31.080689	150.877408
18435		13.831285	-31.175536	150.558650
18436		14.075011	-31.260443	150.229549
18437		14.378129	-31.307756	149.884992
18438		14.589917	-31.364853	149.512800
18439		14.568767	-31.441444	149.158162
18440		14.540657	-31.509423	148.843329
18441		14.602048	-31.563075	148.550550
18442		14.634073	-31.623249	148.263877
18443		14.642039	-31.704788	147.975011
18444		14.642599	-31.793689	147.677397
18445		14.661313	-31.875001	147.369416
18446		14.778923	-31.895272	147.069172
18447		15.066221	-31.887064	146.720548
18448		15.331853	-31.950669	146.301308
18449		15.469553	-32.084301	145.855474
18450		15.624775	-32.235447	145.400599
18451		15.802248	-32.385322	144.951466
18452		15.925411	-32.533220	144.523783
18453		16.014365	-32.681396	144.119903
18454		16.083737	-32.831841	143.736287
18455		16.160652	-32.966917	143.377676
18456		16.297445	-33.091084	143.022100
18457		16.439197	-33.238436	142.648180
18458		16.521766	-33.423883	142.259590
18459		16.569855	-33.649228	141.854209
18460		16.603901	-33.898416	141.428405
18461		16.624104	-34.143069	140.999633
18462		16.677485	-34.326602	140.592260
18463		16.867832	-34.481909	140.161825
18464		17.056836	-34.683352	139.686999
18465		17.154372	-34.910923	139.192040
18466		17.196814	-35.175716	138.688499
18467		17.226071	-35.471925	138.182609
18468		17.207929	-35.780921	137.701389
18469		17.159111	-36.086632	137.275423
18470		17.127113	-36.334134	136.922432
18471		17.207378	-36.545758	136.581489
18472		17.281234	-36.777330	136.217464
18473		17.248465	-37.028199	135.844308
18474		17.158066	-37.297129	135.482847
18475		17.047507	-37.528994	135.177310
18476		16.967369	-37.698313	134.935894
18477		16.933249	-37.834913	134.733829
18478		16.940014	-37.952025	134.562700
18479		16.978815	-38.068407	134.409256
18480		17.003867	-38.193865	134.278505
18481		17.010439	-38.306926	134.186791
18482		17.009292	-38.408881	134.141086
18483		16.987560	-38.502977	134.134123
18484		16.935947	-38.573479	134.162044
18485		16.865868	-38.608418	134.219377
18486		16.786110	-38.608899	134.300212
18487		16.690241	-38.591190	134.401116
18488		16.591309	-38.570935	134.507683
18489		16.501266	-38.544153	134.607703
18490		16.374891	-38.506970	134.710909
18491		16.228085	-38.440576	134.828497
18492		16.160479	-38.349335	134.949735
18493		16.133783	-38.264654	135.060896
18494		16.072619	-38.224769	135.177619
18495		16.040562	-38.204078	135.305628
18496		16.126448	-38.169347	135.420338
18497		16.249025	-38.109582	135.512783
18498		16.370358	-38.034636	135.579354
18499		16.507907	-37.956331	135.616025
18500		16.632492	-37.889326	135.625621
18501		16.727045	-37.820844	135.624062
18502		16.797567	-37.764399	135.610375
18503		16.837446	-37.715800	135.598443
18504		16.869930	-37.669597	135.583891
18505		16.922246	-37.627826	135.563242
18506		17.000314	-37.599758	135.526747
18507		17.109089	-37.581429	135.468502
18508		17.238450	-37.567601	135.390688
18509		17.391070	-37.556712	135.292985
18510		17.560950	-37.559970	135.174055
18511		17.720762	-37.567861	135.045885
18512		17.867059	-37.588697	134.903455
18513		17.987462	-37.619162	134.749361
18514		18.083841	-37.670356	134.589740
18515		18.158780	-37.760288	134.425790
18516		18.202314	-37.892105	134.264679
18517		18.219045	-38.058115	134.101755
18518		18.201425	-38.237127	133.941210
18519		18.159776	-38.422556	133.788052
18520		18.135301	-38.603852	133.631406
18521		18.100601	-38.803062	133.472176
18522		18.064471	-39.027293	133.310653
18523		18.055261	-39.276620	133.139318
18524		18.046705	-39.543870	132.955429
18525		18.031917	-39.826786	132.754340
18526		18.018107	-40.127588	132.548313
18527		18.002877	-40.433246	132.344404
18528		17.980852	-40.739791	132.146161
18529		17.954266	-41.034591	131.957725
18530		17.910953	-41.319482	131.782723
18531		17.842330	-41.596721	131.626820
18532		17.766242	-41.848664	131.505619
18533		17.681901	-42.127425	131.408049
18534		17.536256	-42.463455	131.334017
18535		17.319504	-42.866061	131.275293
18536		17.062182	-43.370986	131.237417
18537		16.785653	-43.913059	131.265634
18538		16.544348	-44.404723	131.365053
18539		16.334734	-44.824045	131.487071
18540		16.140440	-45.203544	131.578352
18541		15.991676	-45.552603	131.632630
18542		15.879768	-45.889597	131.654620
18543		15.765210	-46.226949	131.653122
18544		15.612984	-46.572046	131.648821
18545		15.400780	-46.929488	131.659990
18546		15.144087	-47.276115	131.686663
18547		14.771964	-47.606718	131.763644
18548		14.396624	-47.939109	131.857211
18549		14.034557	-48.268308	131.961838
18550		13.673425	-48.577454	132.069072
18551		13.349950	-48.867960	132.180431
18552		13.103770	-49.135227	132.290515
18553		12.922195	-49.377341	132.405952
18554		12.792056	-49.595161	132.523483
18555		12.705384	-49.789345	132.636458
18556		12.664513	-49.968957	132.732456
18557		12.662164	-50.129169	132.812036
18558		12.696895	-50.260622	132.880591
18559		12.771183	-50.368194	132.927810
18560		12.835273	-50.456341	132.955462
18561		12.892681	-50.531802	132.968645
18562		12.927849	-50.596398	132.982227
18563		12.940622	-50.645005	133.003265
18564		12.924976	-50.678138	133.037293
18565		12.884516	-50.702617	133.064827
18566		12.817313	-50.709851	133.087666
18567		12.781297	-50.710333	133.085872
18568		12.748553	-50.708364	133.061889
18569		12.727878	-50.699672	133.016965
18570		12.728485	-50.686156	132.961164
18571		12.745675	-50.661288	132.901258
18572		12.769356	-50.629287	132.840841
18573		12.796226	-50.591139	132.787361
18574		12.823085	-50.549229	132.739387
18575		12.858858	-50.502085	132.692293
18576		12.895813	-50.449440	132.651337
18577		12.941192	-50.395465	132.616770
18578		12.990566	-50.352354	132.583519
18579		13.041156	-50.317540	132.554253
18580		13.081654	-50.288206	132.529718
18581		13.113523	-50.260242	132.514356
18582		13.133643	-50.236911	132.502592
18583		13.142211	-50.215100	132.499542
18584		13.143905	-50.199678	132.501009
18585		13.140700	-50.190361	132.508599
18586		13.130298	-50.193786	132.519477
18587		13.104083	-50.207025	132.540351
18588		13.064393	-50.229502	132.570141
18589		13.014084	-50.259129	132.607579
18590		12.956054	-50.291208	132.648939
18591		12.894219	-50.320925	132.694049
18592		12.828142	-50.347609	132.744174
18593		12.763512	-50.378925	132.790063
18594		12.682231	-50.414219	132.835415
18595		12.595715	-50.448315	132.882439
18596		12.511318	-50.482156	132.933779
18597		12.443650	-50.514470	132.982778
18598		12.382567	-50.547705	133.031943
18599		12.336293	-50.585004	133.080101
18600		12.299579	-50.623604	133.126764
18601		12.264330	-50.666681	133.172044
18602		12.228267	-50.711823	133.213816
18603		12.193906	-50.753813	133.255020
18604		12.162688	-50.785565	133.293160
18605		12.140971	-50.810112	133.321084
18606		12.127150	-50.826907	133.341995
18607		12.121590	-50.837495	133.353335
18608		12.127197	-50.850702	133.358539
18609		12.137142	-50.869532	133.355765
18610		12.136513	-50.892302	133.354062
18611		12.135704	-50.917038	133.355158
18612		12.129927	-50.942691	133.360398
18613		12.113076	-50.955371	133.378439
18614		12.119182	-50.986313	133.396253
18615		12.118095	-51.049969	133.416681
18616		12.078538	-51.119045	133.444831
18617		12.054154	-51.173041	133.482642
18618		12.073158	-51.213206	133.524788
18619		12.062501	-51.221069	133.568631
18620		12.023770	-51.216426	133.614602
18621		12.001678	-51.195319	133.671365
18622		12.030774	-51.173623	133.723853
18623		12.110435	-51.170262	133.759935
18624		12.128931	-51.163613	133.791117
18625		12.114535	-51.108837	133.834536
18626		12.110225	-51.023498	133.890978
18627		12.132061	-50.910519	133.942426
18628		12.192626	-50.785521	133.958371
18629		12.262945	-50.631400	133.951597
18630		12.344942	-50.450645	133.929864
18631		12.396893	-50.243536	133.915456
18632		12.394103	-50.025877	133.918757
18633		12.312897	-49.773931	133.962637
18634		12.229887	-49.477004	134.043308
18635		12.214088	-49.154575	134.140147
18636		12.236377	-48.837810	134.232421
18637		12.244640	-48.544130	134.328955
18638		12.208030	-48.286580	134.447903
18639		12.144024	-48.045123	134.606111
18640		12.114305	-47.790341	134.780611
18641		12.110624	-47.511624	134.962568
18642		12.121402	-47.217071	135.135779
18643		12.147118	-46.895545	135.295704
18644		12.147651	-46.556360	135.451407
18645		12.089692	-46.205272	135.611144
18646		11.983028	-45.864270	135.778102
18647		11.853484	-45.522964	135.955284
18648		11.705781	-45.179153	136.145060
18649		11.510296	-44.828049	136.369064
18650		11.334587	-44.491632	136.608395
18651		11.209722	-44.167326	136.853625
18652		11.086412	-43.852890	137.109423
18653		10.933750	-43.545427	137.372224
18654		10.792673	-43.220927	137.637558
18655		10.705616	-42.856949	137.905790
18656		10.638947	-42.480302	138.179031
18657		10.568807	-42.101906	138.464712
18658		10.538766	-41.753775	138.754645
18659		10.506234	-41.452044	139.056785
18660		10.455969	-41.167634	139.362751
18661		10.402283	-40.855181	139.670262
18662		10.358327	-40.513817	139.982290
18663		10.311059	-40.145122	140.300402
18664		10.252007	-39.761836	140.618691
18665		10.165007	-39.364745	140.933989
18666		10.059852	-38.971372	141.248262
18667		9.950556	-38.580417	141.561806
18668		9.841022	-38.208267	141.868882
18669		9.711648	-37.868676	142.167740
18670		9.544997	-37.524807	142.474221
18671		9.467165	-37.164831	142.791901
18672		9.459648	-36.822728	143.098260
18673		9.446411	-36.509364	143.398334
18674		9.408189	-36.211271	143.703047
18675		9.386568	-35.928359	144.009374
18676		9.375409	-35.651721	144.317097
18677		9.339865	-35.377061	144.643325
18678		9.325430	-35.061475	144.977188
18679		9.315752	-34.742939	145.311498
18680		9.314755	-34.436411	145.637853
18681		9.295034	-34.143968	145.946879
18682		9.222786	-33.858884	146.250914
18683		9.125895	-33.578729	146.555496
18684		9.013021	-33.308499	146.852489
18685		8.864693	-33.040178	147.155636
18686		8.645354	-32.803203	147.474066
18687		8.370471	-32.646992	147.807510
18688		8.097953	-32.504141	148.165423
18689		7.880813	-32.330006	148.536316
18690		7.708824	-32.104762	148.910577
18691		7.553725	-31.839215	149.288168
18692		7.392024	-31.575492	149.660172
18693		7.222151	-31.341408	150.023136
18694		7.055602	-31.154229	150.362525
18695		6.899768	-31.008955	150.678061
18696		6.736945	-30.908090	150.972380
18697		6.587447	-30.841699	151.257621
18698		6.444422	-30.790815	151.539455
18699		6.294937	-30.726800	151.833860
18700		6.148503	-30.665764	152.137887
18701		6.001640	-30.610300	152.444968
18702		5.851108	-30.565162	152.756587
18703		5.731505	-30.516546	153.069222
18704		5.647947	-30.452601	153.371005
18705		5.579472	-30.360053	153.655017
18706		5.537921	-30.254687	153.919091
18707		5.494672	-30.165057	154.174646
18708		5.471941	-30.105859	154.414011
18709		5.461450	-30.049934	154.649201
18710		5.432468	-29.983706	154.887918
18711		5.414589	-29.917679	155.126374
18712		5.400700	-29.857397	155.359715
18713		5.376897	-29.803862	155.587694
18714		5.329236	-29.765236	155.808731
18715		5.260994	-29.727808	156.032537
18716		5.184404	-29.683886	156.259128
18717		5.132709	-29.644703	156.486292
18718		5.120007	-29.612824	156.702121
18719		5.142305	-29.581274	156.908080
18720		5.185199	-29.547263	157.105217
18721		5.238908	-29.517543	157.293257
18722		5.297836	-29.500134	157.471782
18723		5.343415	-29.494326	157.644296
18724		5.370522	-29.506269	157.811646
18725		5.357523	-29.512575	157.991343
18726		5.322365	-29.515347	158.178569
18727		5.271825	-29.518611	158.370305
18728		5.211797	-29.521438	158.559052
18729		5.144804	-29.526056	158.742480
18730		5.068854	-29.525044	158.915862
18731		5.008901	-29.505533	159.075330
18732		4.941916	-29.467434	159.222847
18733		4.860607	-29.435263	159.360379
18734		4.796235	-29.424588	159.485476
18735		4.749495	-29.431998	159.599483
18736		4.725613	-29.464103	159.693123
18737		4.687490	-29.484240	159.780060
18738		4.658458	-29.479097	159.857969
18739		4.661548	-29.479922	159.927205
18740		4.659133	-29.477443	159.987013
18741		4.672674	-29.463148	160.042078
18742		4.678558	-29.439790	160.089439
18743		4.691452	-29.420050	160.130684
18744		4.696486	-29.407158	160.159892
18745		4.696489	-29.396315	160.174841
18746		4.703978	-29.381044	160.179210
18747		4.720666	-29.373500	160.168623
18748		4.718986	-29.357749	160.156747
18749		4.731918	-29.339923	160.136204
18750		4.751849	-29.329527	160.113238
18751		4.765072	-29.322495	160.092083
18752		4.774800	-29.307878	160.079259
18753		4.788558	-29.279703	160.076919
18754		4.795993	-29.242502	160.079464
18755		4.808804	-29.203972	160.080924
18756		4.814495	-29.173506	160.080926
18757		4.843941	-29.158662	160.069073
18758		4.858684	-29.159075	160.048012
18759		4.876154	-29.164183	160.018305
18760		4.894663	-29.167775	159.983864
18761		4.911318	-29.167241	159.951112
18762		4.928566	-29.165726	159.923401
18763		4.953132	-29.154314	159.902592
18764		4.973353	-29.135218	159.885871
18765		4.987815	-29.117706	159.873966
18766		4.988025	-29.094689	159.865753
18767		4.977486	-29.066123	159.860641
18768		4.982960	-29.040692	159.858782
18769		4.999944	-29.020608	159.862816
18770		5.030096	-29.010020	159.867435
18771		5.064190	-29.008856	159.873355
18772		5.101277	-29.007472	159.873752
18773		5.135572	-29.001381	159.870866
18774		5.152155	-28.985936	159.868625
18775		5.171052	-28.970283	159.868737
18776		5.190404	-28.960143	159.861633
18777		5.199592	-28.957250	159.854033
18778		5.200529	-28.956193	159.845254
18779		5.209904	-28.943304	159.841578
18780		5.212134	-28.920547	159.843658
18781		5.212596	-28.894134	159.848201
18782		5.218388	-28.878022	159.856024
18783		5.221757	-28.870260	159.861861
18784		5.239967	-28.865359	159.870875
18785		5.267098	-28.854843	159.887019
18786		5.308794	-28.843985	159.913683
18787		5.355569	-28.832069	159.944198
18788		5.397388	-28.823834	159.979489
18789		5.441018	-28.812758	160.012687
18790		5.480298	-28.800243	160.043599
18791		5.491297	-28.780721	160.076650
18792		5.498901	-28.767675	160.101606
18793		5.504690	-28.760165	160.119474
18794		5.508188	-28.762541	160.126162
18795		5.504879	-28.771022	160.124795
18796		5.492583	-28.781557	160.118697
18797		5.476080	-28.796913	160.116083
18798		5.469112	-28.817586	160.110276
18799		5.462813	-28.836166	160.108657
18800		5.464330	-28.855416	160.102926
18801		5.469332	-28.869360	160.100906
18802		5.474744	-28.882234	160.097246
18803		5.469619	-28.893410	160.094991
18804		5.463477	-28.900642	160.093161
18805		5.456105	-28.908034	160.093878
18806		5.446780	-28.915533	160.093956
18807		5.443737	-28.919945	160.096062
18808		5.441154	-28.926076	160.099235
18809		5.426703	-28.937035	160.102977
18810		5.423749	-28.953872	160.107875
18811		5.440424	-28.973656	160.110679
18812		5.449976	-29.001046	160.111154
18813		5.477342	-29.020406	160.108331
18814		5.503778	-29.025701	160.103191
18815		5.532239	-29.029681	160.092301
18816		5.559178	-29.042615	160.078871
18817		5.585693	-29.056612	160.067080
18818		5.606273	-29.067004	160.060648
18819		5.616916	-29.074539	160.057652
18820		5.621473	-29.077561	160.058529
18821		5.620050	-29.074877	160.062485
18822		5.625603	-29.074297	160.065171
18823		5.627270	-29.076338	160.065277
18824		5.625929	-29.078568	160.065348
18825		5.627515	-29.079455	160.069860
18826		5.635608	-29.081403	160.075747
18827		5.642632	-29.078991	160.086906
18828		5.646480	-29.078228	160.098532
18829		5.651073	-29.076570	160.109959
18830		5.653748	-29.069575	160.121948
18831		5.651694	-29.059109	160.127547
18832		5.641022	-29.049808	160.135297
18833		5.644357	-29.047588	160.139969
18834		5.649619	-29.045241	160.139680
18835		5.658820	-29.038657	160.140486
18836		5.678393	-29.032928	160.138369
18837		5.693848	-29.022582	160.131893
18838		5.699604	-29.019618	160.121816
18839		5.703615	-29.019083	160.107871
18840		5.700761	-29.016600	160.096226
18841		5.708200	-29.019979	160.085411
18842		5.729374	-29.027652	160.073909
18843		5.749414	-29.036627	160.060549
18844		5.775180	-29.041734	160.040374
18845		5.817694	-29.042043	160.014476
18846		5.873685	-29.040117	159.980983
18847		5.950632	-29.043912	159.936734
18848		6.062359	-29.055213	159.877176
18849		6.189674	-29.083958	159.795735
18850		6.292183	-29.135052	159.688524
18851		6.325117	-29.201888	159.570268
18852		6.328340	-29.264480	159.437421
18853		6.325262	-29.308265	159.299980
18854		6.345430	-29.357884	159.157883
18855		6.382759	-29.440818	159.001080
18856		6.431878	-29.549692	158.832840
18857		6.501618	-29.667679	158.657559
18858		6.587426	-29.782047	158.473242
18859		6.665219	-29.897404	158.272379
18860		6.686231	-30.011577	158.058654
18861		6.696863	-30.105786	157.848412
18862		6.719310	-30.176537	157.635154
18863		6.761120	-30.241914	157.433195
18864		6.850253	-30.324471	157.236129
18865		6.984309	-30.429291	157.037922
18866		7.179659	-30.530591	156.820247
18867		7.364841	-30.604364	156.578778
18868		7.498454	-30.649998	156.309845
18869		7.560390	-30.690744	156.021963
18870		7.667938	-30.730853	155.705100
18871		7.807994	-30.779958	155.373718
18872		7.972688	-30.818523	155.051730
18873		8.182930	-30.839912	154.743578
18874		8.428037	-30.826295	154.448826
18875		8.735684	-30.764989	154.152513
18876		9.055331	-30.682939	153.833583
18877		9.296948	-30.622099	153.494716
18878		9.504755	-30.612759	153.140899
18879		9.690265	-30.652818	152.781337
18880		9.871730	-30.703014	152.426135
18881		10.119767	-30.711204	152.078425
18882		10.418686	-30.669304	151.729865
18883		10.691092	-30.616146	151.375231
18884		10.899428	-30.574917	151.011124
18885		11.101699	-30.573182	150.642966
18886		11.293851	-30.607099	150.277457
18887		11.444950	-30.644089	149.925573
18888		11.616208	-30.642927	149.595397
18889		11.817473	-30.596488	149.283818
18890		12.015228	-30.531072	148.977574
18891		12.200168	-30.491267	148.673729
18892		12.395694	-30.503866	148.356320
18893		12.631233	-30.558755	148.009791
18894		12.796028	-30.622451	147.651227
18895		12.882101	-30.706462	147.296385
18896		12.953239	-30.814179	146.959827
18897		13.051199	-30.910896	146.655738
18898		13.189576	-30.990594	146.372983
18899		13.335240	-31.065234	146.102918
18900		13.465511	-31.140365	145.838987
18901		13.584206	-31.219080	145.575521
18902		13.702824	-31.300919	145.306555
18903		13.922029	-31.364739	145.014604
18904		14.179802	-31.470154	144.662387
18905		14.246744	-31.620262	144.292294
18906		14.225151	-31.779632	143.930236
18907		14.260086	-31.926709	143.567726
18908		14.261188	-32.064388	143.215516
18909		14.218390	-32.209266	142.877080
18910		14.160917	-32.373550	142.548757
18911		14.091177	-32.553787	142.241579
18912		14.017971	-32.764463	141.948623
18913		14.023277	-32.987138	141.646961
18914		14.066538	-33.205549	141.329891
18915		14.125615	-33.418072	141.005225
18916		14.238968	-33.660100	140.663925
18917		14.344228	-33.940033	140.318128
18918		14.423187	-34.230496	139.985766
18919		14.461877	-34.510979	139.674397
18920		14.460862	-34.778433	139.386014
18921		14.454675	-35.050208	139.115500
18922		14.490016	-35.329465	138.849499
18923		14.623829	-35.613627	138.575912
18924		14.885846	-35.919625	138.259135
18925		15.134942	-36.271220	137.892098
18926		15.249778	-36.636334	137.507125
18927		15.319180	-37.009352	137.101613
18928		15.321812	-37.377211	136.710851
18929		15.275397	-37.719088	136.350342
18930		15.219172	-38.043139	136.022728
18931		15.136436	-38.347773	135.737636
18932		15.078543	-38.647422	135.475887
18933		15.059135	-38.985493	135.216846
18934		15.003519	-39.347249	134.977105
18935		14.938170	-39.700668	134.771071
18936		14.842331	-40.036523	134.612471
18937		14.712536	-40.327316	134.520088
18938		14.577808	-40.551374	134.500221
18939		14.438877	-40.711188	134.537608
18940		14.281374	-40.813336	134.614674
18941		14.105495	-40.872496	134.725070
18942		13.943011	-40.916966	134.841636
18943		13.775097	-40.957454	134.967654
18944		13.601291	-40.997325	135.095659
18945		13.434232	-41.019769	135.230011
18946		13.294451	-41.013461	135.367265
18947		13.181542	-40.985751	135.496906
18948		13.099970	-40.938555	135.609374
18949		13.057389	-40.873335	135.703639
18950		13.059796	-40.812109	135.764965
18951		13.093713	-40.753162	135.803970
18952		13.171902	-40.699674	135.824412
18953		13.275240	-40.659613	135.824902
18954		13.386390	-40.632940	135.808684
18955		13.493559	-40.616755	135.789200
18956		13.582471	-40.604385	135.769052
18957		13.658415	-40.596177	135.741653
18958		13.724024	-40.586846	135.709477
18959		13.771407	-40.590274	135.670634
18960		13.801323	-40.610865	135.624149
18961		13.813524	-40.648982	135.569678
18962		13.808112	-40.698041	135.512077
18963		13.797983	-40.747896	135.452845
18964		13.794657	-40.807330	135.390485
18965		13.803608	-40.887591	135.317869
18966		13.818026	-40.990644	135.237848
18967		13.847258	-41.124446	135.145458
18968		13.894210	-41.277119	135.041586
18969		13.957431	-41.437511	134.926666
18970		14.028914	-41.606138	134.795485
18971		14.100885	-41.785925	134.656350
18972		14.162442	-41.970865	134.509923
18973		14.217685	-42.161890	134.358112
18974		14.265107	-42.366280	134.199513
18975		14.311338	-42.571048	134.040566
18976		14.369447	-42.775356	133.879332
18977		14.421721	-42.980257	133.710796
18978		14.433938	-43.188956	133.543629
18979		14.436814	-43.403095	133.380624
18980		14.439137	-43.617840	133.222823
18981		14.423906	-43.816195	133.089110
18982		14.413540	-44.034488	132.946799
18983		14.407460	-44.259920	132.797342
18984		14.418467	-44.463829	132.650783
18985		14.451029	-44.651807	132.503828
18986		14.478901	-44.833723	132.359349
18987		14.516567	-45.019721	132.211978
18988		14.560320	-45.210467	132.060896
18989		14.597764	-45.391327	131.919489
18990		14.643660	-45.563947	131.780442
18991		14.678953	-45.737059	131.645664
18992		14.685805	-45.916560	131.517040
18993		14.666586	-46.105664	131.405402
18994		14.628062	-46.323145	131.320158
18995		14.577665	-46.552144	131.279708
18996		14.492794	-46.780927	131.291061
18997		14.358366	-47.004973	131.341335
18998		14.177011	-47.227707	131.425630
18999		13.967166	-47.444496	131.530637
19000		13.728322	-47.660238	131.659009
19001		13.479299	-47.866441	131.807026
19002		13.225492	-48.062569	131.968958
19003		12.974216	-48.244120	132.141131
19004		12.740964	-48.411135	132.313267
19005		12.532812	-48.563989	132.485571
19006		12.361990	-48.709591	132.642244
19007		12.226802	-48.846755	132.782630
19008		12.128213	-48.987404	132.907648
19009		12.060243	-49.129753	133.023075
19010		12.017063	-49.276580	133.134133
19011		11.977326	-49.418047	133.246940
19012		11.941973	-49.560017	133.350774
19013		11.894170	-49.696340	133.447687
19014		11.828782	-49.826385	133.539020
19015		11.760049	-49.943022	133.619017
19016		11.674659	-50.060945	133.694566
19017		11.572131	-50.181339	133.764049
19018		11.518068	-50.285488	133.812049
19019		11.407600	-50.409257	133.874706
19020		11.292967	-50.533463	133.925058
19021		11.176876	-50.657091	133.978528
19022		11.060083	-50.769441	134.031521
19023		10.950047	-50.860247	134.085860
19024		10.854608	-50.930537	134.139093
19025		10.778230	-50.985388	134.185101
19026		10.719353	-51.034900	134.219223
19027		10.680429	-51.078030	134.240151
19028		10.664607	-51.110876	134.253946
19029		10.681655	-51.134142	134.257371
19030		10.706347	-51.150484	134.262161
19031		10.743221	-51.168672	134.262588
19032		10.779341	-51.183645	134.262353
19033		10.808323	-51.193569	134.266582
19034		10.833024	-51.193143	134.269080
19035		10.855923	-51.183834	134.264699
19036		10.872088	-51.169766	134.256657
19037		10.893509	-51.161328	134.244728
19038		10.910568	-51.157882	134.236743
19039		10.921307	-51.159670	134.227839
19040		10.922981	-51.162354	134.221641
19041		10.927571	-51.159634	134.215625
19042		10.929515	-51.148967	134.206626
19043		10.933289	-51.137236	134.198018
19044		10.950029	-51.131371	134.181819
19045		10.967347	-51.126684	134.167128
19046		10.977042	-51.122071	134.158987
19047		10.987346	-51.118567	134.156091
19048		11.000658	-51.121154	134.157358
19049		11.022133	-51.145403	134.163288
19050		11.040933	-51.176693	134.174830
19051		11.049866	-51.205496	134.190172
19052		11.062761	-51.236050	134.197397
19053		11.064595	-51.250775	134.203063
19054		11.063765	-51.240613	134.198939
19055		11.051111	-51.222270	134.196663
19056		11.040480	-51.215997	134.192490
19057		11.011163	-51.222197	134.197477
19058		11.007546	-51.245181	134.216197
19059		11.036299	-51.286391	134.241784
19060		11.055691	-51.324521	134.269066
19061		11.083514	-51.338109	134.291515
19062		11.140104	-51.321445	134.291973
19063		11.199574	-51.267236	134.280047
19064		11.273702	-51.189407	134.248636
19065		11.353781	-51.113210	134.201969
19066		11.420340	-51.039692	134.141432
19067		11.484237	-50.967035	134.080396
19068		11.555543	-50.903710	134.018867
19069		11.613671	-50.850100	133.966736
19070		11.660263	-50.801786	133.915919
19071		11.692870	-50.753392	133.873156
19072		11.707260	-50.699609	133.833564
19073		11.693887	-50.664946	133.806936
19074		11.673925	-50.638991	133.792268
19075		11.646202	-50.629935	133.793978
19076		11.616952	-50.652100	133.808310
19077		11.583400	-50.666776	133.847178
19078		11.569512	-50.666357	133.883774
19079		11.577078	-50.647850	133.908278
19080		11.602918	-50.600089	133.922888
19081		11.638692	-50.548822	133.932126
19082		11.643907	-50.524726	133.954609
19083		11.619774	-50.501394	133.996194
19084		11.631771	-50.483330	134.049449
19085		11.664475	-50.469142	134.103689
19086		11.684063	-50.409434	134.153244
19087		11.720800	-50.302228	134.185477
19088		11.770882	-50.144249	134.207849
19089		11.812451	-49.954085	134.229835
19090		11.835000	-49.761136	134.258551
19091		11.828543	-49.568305	134.304310
19092		11.812952	-49.365858	134.363541
19093		11.791785	-49.136583	134.439556
19094		11.785418	-48.881350	134.520709
19095		11.797006	-48.617288	134.599697
19096		11.817850	-48.344607	134.685726
19097		11.839176	-48.068427	134.778794
19098		11.834972	-47.808368	134.887791
19099		11.836853	-47.537065	135.012593
19100		11.917701	-47.224859	135.127251
19101		12.061281	-46.885165	135.201739
19102		12.234896	-46.536104	135.238918
19103		12.396727	-46.234218	135.256838
19104		12.542107	-45.978887	135.269354
19105		12.675017	-45.692570	135.290919
19106		12.836224	-45.348381	135.310502
19107		13.038467	-44.965022	135.318680
19108		13.223419	-44.573760	135.314345
19109		13.354119	-44.212277	135.297724
19110		13.414136	-43.904424	135.291549
19111		13.436911	-43.599507	135.313454
19112		13.410183	-43.271477	135.383603
19113		13.375355	-42.909942	135.491653
19114		13.367811	-42.508447	135.631414
19115		13.407751	-42.098949	135.785495
19116		13.443037	-41.705462	135.937725
19117		13.459996	-41.347774	136.083116
19118		13.468087	-41.035909	136.242366
19119		13.502670	-40.718373	136.415856
19120		13.599158	-40.357597	136.610897
19121		13.723184	-39.972757	136.815034
19122		13.841481	-39.596613	137.015266
19123		13.954416	-39.246341	137.201554
19124		14.042890	-38.930229	137.377579
19125		14.096061	-38.635735	137.552579
19126		14.111945	-38.334203	137.738360
19127		14.133367	-38.012882	137.941169
19128		14.169327	-37.679454	138.158790
19129		14.205506	-37.354032	138.382279
19130		14.216115	-37.043924	138.617625
19131		14.174667	-36.745594	138.867352
19132		14.110808	-36.470458	139.125651
19133		14.015295	-36.220980	139.393494
19134		13.903148	-35.986527	139.678406
19135		13.854397	-35.753089	139.967355
19136		13.809707	-35.505818	140.277475
19137		13.760337	-35.253575	140.587528
19138		13.678076	-35.013067	140.904570
19139		13.604537	-34.771879	141.234173
19140		13.540691	-34.537107	141.566709
19141		13.450281	-34.313492	141.906773
19142		13.332993	-34.097961	142.267041
19143		13.185342	-33.869612	142.650090
19144		13.064254	-33.627203	143.038452
19145		12.973793	-33.383698	143.426255
19146		12.876336	-33.134590	143.817310
19147		12.764859	-32.891706	144.203900
19148		12.613147	-32.667624	144.591598
19149		12.440966	-32.486172	144.991691
19150		12.305066	-32.354737	145.383190
19151		12.194402	-32.231259	145.765702
19152		12.105839	-32.096602	146.134733
19153		12.025623	-31.936931	146.490299
19154		11.973064	-31.765765	146.835831
19155		11.973364	-31.608117	147.159731
19156		11.966240	-31.472166	147.462124
19157		11.912309	-31.354037	147.757560
19158		11.826741	-31.252409	148.052432
19159		11.735893	-31.171425	148.339248
19160		11.629298	-31.112221	148.607529
19161		11.503781	-31.060226	148.874677
19162		11.394632	-30.963693	149.153417
19163		11.305307	-30.825247	149.441738
19164		11.249423	-30.681269	149.722799
19165		11.233233	-30.553981	149.988387
19166		11.239396	-30.453959	150.231619
19167		11.229888	-30.382976	150.449631
19168		11.188970	-30.320187	150.650461
19169		11.093160	-30.239324	150.858941
19170		10.991985	-30.142065	151.104010
19171		10.968167	-30.070446	151.368964
19172		10.989003	-29.995802	151.635519
19173		11.005835	-29.880617	151.904859
19174		11.037530	-29.721366	152.181826
19175		11.123242	-29.532430	152.454087
19176		11.226646	-29.341878	152.719320
19177		11.322964	-29.155742	152.983234
19178		11.397093	-28.984621	153.237737
19179		11.451208	-28.823318	153.485694
19180		11.488528	-28.675453	153.716124
19181		11.509729	-28.533628	153.929007
19182		11.516334	-28.398180	154.126725
19183		11.486633	-28.272149	154.315943
19184		11.402644	-28.169307	154.505204
19185		11.294087	-28.088665	154.706172
19186		11.161527	-28.019180	154.922758
19187		11.026062	-27.951287	155.152429
19188		10.864297	-27.879539	155.406630
19189		10.703957	-27.818101	155.672253
19190		10.535335	-27.775836	155.941896
19191		10.357598	-27.747099	156.219256
19192		10.181062	-27.740515	156.495426
19193		10.027616	-27.757940	156.767678
19194		9.889839	-27.783985	157.035872
19195		9.753774	-27.807843	157.307165
19196		9.627897	-27.829718	157.579515
19197		9.532268	-27.832605	157.859544
19198		9.454653	-27.816853	158.131307
19199		9.369279	-27.829338	158.386008
19200		9.280583	-27.857296	158.626750
19201		9.170592	-27.891984	158.852296
19202		9.059672	-27.929336	159.060038
19203		8.961856	-27.962647	159.255980
19204		8.886048	-27.990143	159.438586
19205		8.827330	-28.033281	159.599475
19206		8.782439	-28.082252	159.738136
19207		8.781495	-28.119567	159.862374
19208		8.820094	-28.157245	159.973827
19209		8.889977	-28.207779	160.068994
19210		8.988516	-28.274813	160.145096
19211		9.109308	-28.349889	160.193692
19212		9.226206	-28.434198	160.218394
19213		9.264880	-28.546825	160.229493
19214		9.251149	-28.667288	160.232052
19215		9.181415	-28.757244	160.247242
19216		9.080219	-28.827580	160.273867
19217		8.971807	-28.899606	160.305974
19218		8.859593	-28.980668	160.335924
19219		8.757107	-29.052018	160.363957
19220		8.653873	-29.104608	160.383112
19221		8.565621	-29.134644	160.388748
19222		8.510084	-29.138091	160.383049
19223		8.477141	-29.124957	160.367352
19224		8.478989	-29.122420	160.333961
19225		8.512580	-29.127087	160.290534
19226		8.565820	-29.129925	160.241058
19227		8.629592	-29.128308	160.185701
19228		8.694408	-29.120368	160.124840
19229		8.757476	-29.103209	160.068656
19230		8.822632	-29.081631	160.015408
19231		8.872704	-29.071319	159.965254
19232		8.912797	-29.070758	159.923277
19233		8.937258	-29.068418	159.893315
19234		8.948186	-29.045522	159.877867
19235		8.948643	-29.000309	159.882100
19236		8.943030	-28.947769	159.898464
19237		8.926771	-28.897148	159.926141
19238		8.923915	-28.854706	159.949306
19239		8.930268	-28.804056	159.975006
19240		8.941839	-28.750851	159.996981
19241		8.953433	-28.708707	160.015839
19242		8.942964	-28.671505	160.033531
19243		8.932789	-28.636158	160.052880
19244		8.939078	-28.597287	160.072930
19245		8.955273	-28.550196	160.093132
19246		8.993730	-28.505167	160.114077
19247		9.044808	-28.469673	160.130803
19248		9.102934	-28.441212	160.138617
19249		9.143657	-28.424923	160.136579
19250		9.172259	-28.411623	160.129104
19251		9.188862	-28.383801	160.127011
19252		9.192358	-28.352347	160.132817
19253		9.182325	-28.329595	160.146721
19254		9.172558	-28.316593	160.161462
19255		9.174612	-28.300612	160.179923
19256		9.175254	-28.277150	160.203787
19257		9.166466	-28.257801	160.228304
19258		9.163028	-28.237891	160.252114
19259		9.175485	-28.217741	160.279936
19260		9.198436	-28.203645	160.310979
19261		9.230312	-28.201149	160.345107
19262		9.261285	-28.198441	160.382206
19263		9.278703	-28.193165	160.415433
19264		9.291963	-28.177227	160.454204
19265		9.301269	-28.156010	160.495370
19266		9.302471	-28.140584	160.537273
19267		9.297244	-28.131473	160.579977
19268		9.286953	-28.124673	160.624068
19269		9.281944	-28.120869	160.667309
19270		9.279957	-28.113759	160.706532
19271		9.280767	-28.096796	160.749064
19272		9.283379	-28.084778	160.789660
19273		9.292235	-28.078661	160.831555
19274		9.311834	-28.077699	160.870982
19275		9.339134	-28.080203	160.910922
19276		9.372134	-28.098075	160.943968
19277		9.410804	-28.116095	160.975241
19278		9.449740	-28.137138	161.000358
19279		9.486721	-28.165120	161.013420
19280		9.517239	-28.202922	161.015379
19281		9.523935	-28.242544	161.010824
19282		9.516861	-28.273534	161.004660
19283		9.500624	-28.296961	161.000270
19284		9.463679	-28.318177	160.994582
19285		9.392020	-28.337916	160.994535
19286		9.301443	-28.351649	160.999701
19287		9.211661	-28.354739	161.007998
19288		9.154426	-28.353199	161.017619
19289		9.113962	-28.357768	161.023275
19290		9.095477	-28.379540	161.020208
19291		9.102713	-28.417212	161.010415
19292		9.117907	-28.459565	160.994936
19293		9.137841	-28.504446	160.974321
19294		9.169023	-28.546270	160.951390
19295		9.189718	-28.581002	160.929758
19296		9.218730	-28.623483	160.914764
19297		9.248309	-28.671173	160.906873
19298		9.267593	-28.711328	160.912623
19299		9.283193	-28.744385	160.933403
19300		9.281660	-28.773433	160.965495
19301		9.281782	-28.801891	161.004602
19302		9.270649	-28.824607	161.047248
19303		9.262832	-28.838282	161.082752
19304		9.254549	-28.850567	161.109391
19305		9.242374	-28.860255	161.127488
19306		9.224020	-28.870646	161.139235
19307		9.204301	-28.890969	161.145367
19308		9.170540	-28.913689	161.148192
19309		9.137872	-28.927039	161.150363
19310		9.121426	-28.925653	161.152213
19311		9.120161	-28.917916	161.152467
19312		9.122113	-28.913620	161.151396
19313		9.127221	-28.920139	161.145582
19314		9.134102	-28.930008	161.129440
19315		9.135514	-28.933060	161.110543
19316		9.137188	-28.937698	161.090901
19317		9.142187	-28.947844	161.067736
19318		9.138504	-28.950192	161.047373
19319		9.137091	-28.934992	161.030205
19320		9.116008	-28.914273	161.021447
19321		9.091737	-28.893679	161.025423
19322		9.059865	-28.874456	161.036387
19323		9.019401	-28.853965	161.053040
19324		8.985279	-28.839621	161.063234
19325		8.966858	-28.821269	161.063658
19326		8.959619	-28.804569	161.053701
19327		8.963027	-28.790317	161.039104
19328		8.966355	-28.779980	161.018046
19329		8.978051	-28.774592	160.995723
19330		8.993673	-28.772562	160.969600
19331		9.014628	-28.771675	160.939794
19332		9.043586	-28.769669	160.904628
19333		9.066344	-28.772940	160.863016
19334		9.084837	-28.782603	160.813262
19335		9.100638	-28.802223	160.748924
19336		9.117492	-28.834259	160.667706
19337		9.131726	-28.878656	160.568048
19338		9.125010	-28.929958	160.456169
19339		9.105653	-28.984559	160.343859
19340		9.088390	-29.042690	160.230613
19341		9.094817	-29.104894	160.116212
19342		9.110309	-29.171322	160.002355
19343		9.135329	-29.224905	159.899253
19344		9.150833	-29.280877	159.799787
19345		9.161623	-29.330745	159.701979
19346		9.161268	-29.383549	159.605681
19347		9.146789	-29.434059	159.514359
19348		9.110361	-29.469099	159.428059
19349		9.081063	-29.469090	159.347762
19350		9.076529	-29.447792	159.272063
19351		9.076239	-29.408925	159.198096
19352		9.090916	-29.372349	159.125088
19353		9.121270	-29.346229	159.052244
19354		9.164420	-29.332617	158.977653
19355		9.238791	-29.319510	158.902642
19356		9.345599	-29.302031	158.822332
19357		9.468078	-29.286644	158.732783
19358		9.594781	-29.293692	158.620842
19359		9.688013	-29.333984	158.490474
19360		9.724174	-29.407374	158.356892
19361		9.752692	-29.497608	158.231981
19362		9.788362	-29.601231	158.111313
19363		9.827932	-29.709032	157.992280
19364		9.850098	-29.805237	157.876220
19365		9.805717	-29.877780	157.770915
19366		9.712070	-29.904472	157.685452
19367		9.625022	-29.899008	157.616769
19368		9.559915	-29.887094	157.547071
19369		9.528013	-29.900283	157.464146
19370		9.509686	-29.941585	157.356735
19371		9.521844	-30.003785	157.221072
19372		9.571407	-30.071889	157.048520
19373		9.653538	-30.120719	156.853503
19374		9.747559	-30.152787	156.640078
19375		9.847981	-30.189047	156.401070
19376		9.917194	-30.229335	156.147434
19377		9.953797	-30.285787	155.887562
19378		9.979590	-30.362828	155.618046
19379		10.011981	-30.467216	155.344202
19380		10.034159	-30.584449	155.069977
19381		10.072867	-30.694443	154.798129
19382		10.174144	-30.770092	154.529931
19383		10.288138	-30.800485	154.268408
19384		10.390751	-30.820382	154.010010
19385		10.464069	-30.860578	153.753289
19386		10.505115	-30.931637	153.495589
19387		10.533497	-31.032197	153.239569
19388		10.555468	-31.153615	152.990503
19389		10.601091	-31.255167	152.751831
19390		10.648444	-31.313159	152.523164
19391		10.670361	-31.328793	152.309264
19392		10.699708	-31.343754	152.095681
19393		10.719662	-31.366154	151.889266
19394		10.716393	-31.414657	151.689479
19395		10.696628	-31.480233	151.501502
19396		10.677875	-31.543266	151.321428
19397		10.642474	-31.603726	151.153778
19398		10.592056	-31.676402	151.005030
19399		10.585553	-31.750557	150.858909
19400		10.679845	-31.770448	150.718307
19401		10.833261	-31.749835	150.556203
19402		10.945964	-31.741749	150.369470
19403		11.038541	-31.779940	150.159120
19404		11.138474	-31.859371	149.918584
19405		11.232593	-31.954700	149.657754
19406		11.288416	-32.012489	149.408201
19407		11.359635	-32.028197	149.171067
19408		11.465651	-32.035571	148.927181
19409		11.551268	-32.062944	148.684639
19410		11.611589	-32.120311	148.437972
19411		11.677598	-32.196620	148.185603
19412		11.743097	-32.275543	147.925480
19413		11.826535	-32.342388	147.657798
19414		11.941949	-32.394983	147.383345
19415		12.072753	-32.454273	147.085204
19416		12.199294	-32.537022	146.769034
19417		12.309165	-32.629515	146.438559
19418		12.408012	-32.722619	146.105119
19419		12.505496	-32.812808	145.776848
19420		12.607579	-32.894676	145.454469
19421		12.704684	-32.964799	145.143355
19422		12.755392	-33.016095	144.855550
19423		12.824324	-33.052337	144.594866
19424		12.949850	-33.099480	144.333853
19425		13.138614	-33.160491	144.054237
19426		13.290485	-33.270389	143.736894
19427		13.352738	-33.416848	143.400061
19428		13.400616	-33.571014	143.058993
19429		13.449401	-33.722445	142.728474
19430		13.475859	-33.873534	142.411326
19431		13.486607	-34.017484	142.105427
19432		13.481283	-34.150559	141.810318
19433		13.500588	-34.253614	141.540093
19434		13.618394	-34.356331	141.256915
19435		13.727201	-34.492938	140.955158
19436		13.797922	-34.675833	140.633274
19437		13.870017	-34.887012	140.294000
19438		13.943580	-35.109268	139.947038
19439		14.009338	-35.338420	139.602852
19440		14.078255	-35.555063	139.259614
19441		14.204836	-35.766345	138.929077
19442		14.362730	-36.008652	138.578538
19443		14.473173	-36.270677	138.212861
19444		14.580481	-36.574429	137.818376
19445		14.642660	-36.909339	137.406929
19446		14.634064	-37.239196	137.014874
19447		14.613757	-37.550136	136.652417
19448		14.573844	-37.826361	136.329320
19449		14.548381	-38.109840	136.022359
19450		14.509989	-38.418224	135.726504
19451		14.461856	-38.738457	135.457712
19452		14.417869	-39.049552	135.214875
19453		14.343410	-39.335136	135.003540
19454		14.222082	-39.591688	134.841706
19455		14.082219	-39.816012	134.724408
19456		13.924615	-40.019960	134.652646
19457		13.753642	-40.203522	134.624230
19458		13.595086	-40.356570	134.630473
19459		13.449911	-40.480855	134.667938
19460		13.304464	-40.582291	134.730931
19461		13.155929	-40.659745	134.818982
19462		13.010009	-40.713155	134.922216
19463		12.876019	-40.742005	135.034651
19464		12.788539	-40.755630	135.136731
19465		12.754283	-40.775771	135.220483
19466		12.765801	-40.800423	135.283973
19467		12.800443	-40.829735	135.332183
19468		12.858869	-40.838143	135.371142
19469		12.937337	-40.833396	135.401187
19470		13.017572	-40.820881	135.419903
19471		13.081096	-40.808062	135.431912
19472		13.110205	-40.815687	135.442563
19473		13.113847	-40.829280	135.468559
19474		13.135797	-40.823874	135.505766
19475		13.180938	-40.806294	135.539939
19476		13.217349	-40.780660	135.558281
19477		13.238920	-40.746807	135.567832
19478		13.266909	-40.706334	135.574498
19479		13.303099	-40.665360	135.571343
19480		13.332101	-40.628102	135.560819
19481		13.363799	-40.600905	135.541323
19482		13.404276	-40.590151	135.514758
19483		13.451648	-40.588671	135.484028
19484		13.507136	-40.602584	135.439495
19485		13.557758	-40.634216	135.392307
19486		13.624461	-40.674713	135.339400
19487		13.709281	-40.740599	135.267598
19488		13.774436	-40.832421	135.182066
19489		13.827939	-40.952619	135.089894
19490		13.880578	-41.102430	134.991462
19491		13.919533	-41.279827	134.890174
19492		13.950440	-41.480500	134.790509
19493		13.989611	-41.691074	134.693960
19494		14.040900	-41.911921	134.593892
19495		14.078735	-42.134799	134.501962
19496		14.122361	-42.354766	134.420244
19497		14.170766	-42.577446	134.353664
19498		14.208762	-42.830360	134.283976
19499		14.219784	-43.101885	134.215772
19500		14.202762	-43.370337	134.156831
19501		14.162918	-43.626787	134.111463
19502		14.083577	-43.868092	134.084230
19503		13.969234	-44.108701	134.055689
19504		13.815367	-44.356201	134.025564
19505		13.646018	-44.608690	133.995463
19506		13.476899	-44.857122	133.977770
19507		13.335799	-45.111925	133.969015
19508		13.206892	-45.408285	133.960018
19509		13.064538	-45.743078	133.951928
19510		12.915447	-46.118855	133.946307
19511		12.755011	-46.533067	133.951701
19512		12.587118	-46.965756	133.974700
19513		12.410344	-47.405809	134.023515
19514		12.213084	-47.843206	134.098742
19515		12.034651	-48.276633	134.184395
19516		11.843147	-48.708727	134.293073
19517		11.634109	-49.123650	134.416069
19518		11.437290	-49.504820	134.573126
19519		11.224351	-49.838657	134.757919
19520		10.951042	-50.136987	134.960802
19521		10.628600	-50.424820	135.160628
19522		10.266433	-50.671474	135.370115
19523		9.899432	-50.871831	135.582639
19524		9.554685	-51.037427	135.781501
19525		9.249538	-51.169223	135.961289
19526		9.002469	-51.273763	136.113979
19527		8.844613	-51.358653	136.233163
19528		8.760159	-51.429203	136.321561
19529		8.753044	-51.483582	136.379699
19530		8.802778	-51.517089	136.420423
19531		8.901600	-51.529033	136.445567
19532		9.028969	-51.527027	136.456388
19533		9.178406	-51.514688	136.451220
19534		9.333522	-51.493973	136.436606
19535		9.504782	-51.472977	136.407148
19536		9.677597	-51.454209	136.359312
19537		9.828631	-51.435057	136.301219
19538		9.945785	-51.413972	136.238099
19539		10.032710	-51.390213	136.170325
19540		10.088415	-51.365070	136.100799
19541		10.127888	-51.346464	136.027329
19542		10.142973	-51.335315	135.955713
19543		10.145650	-51.325579	135.893042
19544		10.133365	-51.322824	135.842775
19545		10.111401	-51.326489	135.804070
19546		10.080158	-51.333632	135.775501
19547		10.059026	-51.336560	135.752321
19548		10.055587	-51.333289	135.728075
19549		10.074885	-51.324516	135.707193
19550		10.114778	-51.319087	135.682396
19551		10.164837	-51.315733	135.659690
19552		10.219991	-51.311956	135.637277
19553		10.266862	-51.301694	135.624222
19554		10.297701	-51.286945	135.616452
19555		10.324754	-51.273366	135.609877
19556		10.338670	-51.266359	135.607032
19557		10.343313	-51.266692	135.603723
19558		10.345912	-51.267987	135.605865
19559		10.343152	-51.273705	135.614873
19560		10.334268	-51.277215	135.626193
19561		10.318904	-51.279333	135.636089
19562		10.303142	-51.287147	135.644715
19563		10.289297	-51.295912	135.651019
19564		10.266563	-51.296805	135.659179
19565		10.242850	-51.305440	135.667657
19566		10.214516	-51.315241	135.676094
19567		10.196174	-51.318530	135.689746
19568		10.195726	-51.332147	135.698312
19569		10.178527	-51.360446	135.717094
19570		10.159098	-51.393013	135.745991
19571		10.148377	-51.408652	135.777329
19572		10.155874	-51.423552	135.796060
19573		10.167188	-51.421932	135.800298
19574		10.184267	-51.387771	135.792509
19575		10.200710	-51.342828	135.775415
19576		10.187500	-51.288787	135.757334
19577		10.157380	-51.226100	135.755053
19578		10.188974	-51.199545	135.765969
19579		10.269115	-51.211375	135.788153
19580		10.358632	-51.223694	135.809972
19581		10.464771	-51.218474	135.806653
19582		10.578623	-51.172836	135.771185
19583		10.679446	-51.066217	135.713965
19584		10.759233	-50.913367	135.632506
19585		10.819814	-50.737162	135.532812
19586		10.877224	-50.556052	135.402436
19587		10.935781	-50.366340	135.256000
19588		10.975947	-50.159593	135.112090
19589		11.016098	-49.927692	134.978767
19590		11.132563	-49.697114	134.855695
19591		11.305989	-49.496222	134.738065
19592		11.466904	-49.308155	134.632092
19593		11.625486	-49.124105	134.547719
19594		11.770624	-48.950905	134.482032
19595		11.880255	-48.788223	134.435839
19596		11.964945	-48.638047	134.418403
19597		12.046938	-48.524379	134.407727
19598		12.106581	-48.440905	134.420861
19599		12.168020	-48.363427	134.461769
19600		12.231280	-48.273345	134.518079
19601		12.274472	-48.178460	134.584549
19602		12.283860	-48.084360	134.666282
19603		12.248118	-47.989020	134.763652
19604		12.181922	-47.868009	134.862888
19605		12.117033	-47.726698	134.947274
19606		12.067372	-47.562648	135.014896
19607		12.024024	-47.372410	135.062191
19608		11.993126	-47.166683	135.086654
19609		11.962146	-46.950319	135.098343
19610		11.899896	-46.756795	135.114797
19611		11.799457	-46.570049	135.168301
19612		11.738910	-46.359087	135.255738
19613		11.728866	-46.121948	135.355041
19614		11.734141	-45.854857	135.461632
19615		11.761635	-45.562657	135.565894
19616		11.779793	-45.263452	135.667681
19617		11.738809	-44.972862	135.765603
19618		11.612473	-44.702311	135.881320
19619		11.422302	-44.443985	136.037334
19620		11.222265	-44.140424	136.243232
19621		11.040294	-43.748157	136.496390
19622		10.943215	-43.295082	136.756124
19623		10.975093	-42.862709	137.003888
19624		11.000263	-42.499878	137.237278
19625		10.967593	-42.182870	137.470505
19626		10.887758	-41.831582	137.731507
19627		10.868323	-41.408530	138.009392
19628		10.931795	-40.936620	138.276912
19629		11.006731	-40.449955	138.510608
19630		11.073529	-39.973925	138.725420
19631		11.126976	-39.529873	138.930834
19632		11.135297	-39.106027	139.145261
19633		11.111839	-38.686023	139.380126
19634		11.053392	-38.265886	139.661066
19635		11.104218	-37.825806	139.970284
19636		11.213732	-37.377722	140.287579
19637		11.326500	-36.918598	140.586398
19638		11.433217	-36.489396	140.867914
19639		11.518626	-36.073404	141.142946
19640		11.618319	-35.651486	141.425329
19641		11.715583	-35.221374	141.713932
19642		11.786617	-34.799791	142.018454
19643		11.852345	-34.371274	142.339158
19644		11.921584	-33.942601	142.671461
19645		11.989511	-33.527000	143.008270
19646		12.037425	-33.121849	143.348788
19647		12.028663	-32.726938	143.702478
19648		11.996538	-32.343895	144.064542
19649		11.955683	-31.980239	144.433511
19650		11.901745	-31.634243	144.810967
19651		11.862386	-31.310781	145.192201
19652		11.808319	-31.001585	145.579410
19653		11.745507	-30.710701	145.968794
19654		11.684767	-30.438799	146.351133
19655		11.609515	-30.187169	146.731564
19656		11.504166	-29.935064	147.111011
19657		11.360088	-29.678005	147.509215
19658		11.229640	-29.453054	147.929831
19659		11.152371	-29.266499	148.352480
19660		11.086020	-29.086028	148.774636
19661		11.019391	-28.889450	149.199093
19662		10.998378	-28.670205	149.618796
19663		10.987959	-28.461058	150.013568
19664		10.936420	-28.275030	150.385169
19665		10.890064	-28.123083	150.724703
19666		10.839346	-27.990779	151.028292
19667		10.764586	-27.874430	151.297813
19668		10.676689	-27.786341	151.540572
19669		10.572397	-27.716325	151.776835
19670		10.479601	-27.658737	152.022110
19671		10.429218	-27.602929	152.273481
19672		10.374228	-27.517600	152.533210
19673		10.298031	-27.390493	152.791343
19674		10.221426	-27.243374	153.041384
19675		10.129644	-27.106096	153.278786
19676		9.983517	-27.013827	153.487784
19677		9.824321	-26.980072	153.693421
19678		9.671275	-27.021933	153.896168
19679		9.560692	-27.084386	154.106418
19680		9.507597	-27.102128	154.321803
19681		9.491487	-27.033380	154.551220
19682		9.508168	-26.919214	154.779499
19683		9.527417	-26.803995	155.000321
19684		9.531947	-26.697277	155.213442
19685		9.499415	-26.604979	155.417006
19686		9.436470	-26.524902	155.597506
19687		9.337996	-26.439302	155.764988
19688		9.209217	-26.364618	155.915495
19689		9.048702	-26.308959	156.066734
19690		8.888615	-26.287204	156.222423
19691		8.751102	-26.295748	156.384860
19692		8.654078	-26.305885	156.559050
19693		8.580736	-26.301517	156.745602
19694		8.525534	-26.289954	156.940069
19695		8.480881	-26.280344	157.126942
19696		8.442873	-26.276964	157.302130
19697		8.381537	-26.281355	157.467171
19698		8.296130	-26.305560	157.619668
19699		8.188287	-26.346724	157.765521
19700		8.063871	-26.389759	157.916789
19701		7.938695	-26.427631	158.084833
19702		7.834210	-26.445481	158.267601
19703		7.711220	-26.442100	158.467310
19704		7.572875	-26.438038	158.669703
19705		7.443328	-26.449124	158.864051
19706		7.329626	-26.479826	159.040642
19707		7.199177	-26.528678	159.202042
19708		7.084333	-26.599625	159.341955
19709		7.005019	-26.664199	159.472521
19710		6.951454	-26.697652	159.603720
19711		6.917303	-26.717075	159.731045
19712		6.902763	-26.755919	159.835764
19713		6.893551	-26.812361	159.921830
19714		6.904279	-26.869730	159.995650
19715		6.933370	-26.920882	160.055147
19716		6.968111	-26.936629	160.106885
19717		7.004003	-26.926870	160.155255
19718		7.035546	-26.936223	160.191837
19719		7.053178	-26.977069	160.214050
19720		7.068666	-27.024179	160.219585
19721		7.078078	-27.058630	160.215723
19722		7.081053	-27.072733	160.206657
19723		7.079625	-27.076050	160.194338
19724		7.083482	-27.075494	160.176079
19725		7.076240	-27.079836	160.156839
19726		7.050910	-27.103711	160.132391
19727		7.037687	-27.139413	160.107592
19728		7.031571	-27.160340	160.079292
19729		7.025816	-27.163293	160.052931
19730		7.022812	-27.150035	160.029097
19731		7.015789	-27.142558	160.007759
19732		7.014718	-27.152498	159.987996
19733		7.014840	-27.173855	159.969352
19734		7.011299	-27.194208	159.956543
19735		7.011826	-27.203152	159.950638
19736		7.010302	-27.202975	159.955944
19737		7.002978	-27.196217	159.969838
19738		6.998198	-27.184140	159.986827
19739		6.993793	-27.177324	160.004969
19740		6.993689	-27.172814	160.020098
19741		6.997304	-27.172119	160.034081
19742		7.001782	-27.171425	160.041089
19743		6.990225	-27.169456	160.049534
19744		6.974633	-27.162285	160.054959
19745		6.970906	-27.147918	160.066001
19746		6.979803	-27.133924	160.074004
19747		6.995490	-27.122796	160.077538
19748		7.007189	-27.113086	160.081201
19749		7.022296	-27.106263	160.080353
19750		7.035245	-27.098468	160.080554
19751		7.042075	-27.086470	160.083627
19752		7.042075	-27.079210	160.088050
19753		7.031242	-27.071107	160.091739
19754		7.021624	-27.057272	160.096494
19755		7.027737	-27.037683	160.105081
19756		7.042650	-27.020365	160.117946
19757		7.062600	-27.012525	160.132482
19758		7.082171	-27.007998	160.144313
19759		7.098208	-26.997358	160.158317
19760		7.099643	-26.986755	160.174142
19761		7.097250	-26.982823	160.188023
19762		7.098643	-26.979814	160.200734
19763		7.108676	-26.973959	160.212276
19764		7.113961	-26.959116	160.224723
19765		7.119869	-26.943813	160.238589
19766		7.121002	-26.927575	160.251029
19767		7.122176	-26.914668	160.259720
19768		7.114898	-26.899905	160.263534
19769		7.115506	-26.887005	160.268613
19770		7.125982	-26.864618	160.281258
19771		7.139511	-26.836522	160.303014
19772		7.157671	-26.814119	160.329055
19773		7.178187	-26.799756	160.352020
19774		7.197352	-26.786855	160.377520
19775		7.216801	-26.771105	160.398743
19776		7.238801	-26.755416	160.423825
19777		7.259073	-26.743950	160.449747
19778		7.278159	-26.738700	160.472165
19779		7.293384	-26.732934	160.488750
19780		7.288852	-26.719153	160.504425
19781		7.290590	-26.711479	160.517620
19782		7.289319	-26.708105	160.527123
19783		7.298235	-26.710374	160.537070
19784		7.305707	-26.716009	160.544790
19785		7.309212	-26.718735	160.556626
19786		7.307219	-26.717260	160.571665
19787		7.304030	-26.721859	160.586513
19788		7.299642	-26.728408	160.598579
19789		7.300538	-26.737280	160.610341
19790		7.299699	-26.749986	160.618830
19791		7.304659	-26.762186	160.625926
19792		7.314164	-26.774004	160.634866
19793		7.333880	-26.787233	160.645041
19794		7.351130	-26.812822	160.660641
19795		7.367760	-26.841189	160.682041
19796		7.389948	-26.869698	160.705474
19797		7.408383	-26.896711	160.729375
19798		7.429796	-26.919118	160.752831
19799		7.452036	-26.944291	160.769450
19800		7.458329	-26.973207	160.784911
19801		7.462163	-27.004875	160.801338
19802		7.466942	-27.029086	160.821592
19803		7.481058	-27.038681	160.848334
19804		7.497876	-27.045558	160.875938
19805		7.524828	-27.055268	160.891453
19806		7.545282	-27.073452	160.894519
19807		7.545092	-27.102168	160.886825
19808		7.526531	-27.144503	160.878144
19809		7.521296	-27.191648	160.874522
19810		7.535051	-27.236764	160.877038
19811		7.558515	-27.283777	160.877979
19812		7.578725	-27.328028	160.877193
19813		7.590281	-27.350313	160.877401
19814		7.584854	-27.371071	160.876237
19815		7.573827	-27.402598	160.875533
19816		7.576829	-27.433401	160.872327
19817		7.586341	-27.453796	160.870549
19818		7.585384	-27.467042	160.871965
19819		7.577385	-27.480158	160.876297
19820		7.549596	-27.486477	160.881979
19821		7.517975	-27.484605	160.883173
19822		7.488200	-27.482821	160.884472
19823		7.476674	-27.488245	160.874255
19824		7.472434	-27.493334	160.862188
19825		7.479641	-27.488519	160.847629
19826		7.495732	-27.479615	160.835784
19827		7.498315	-27.471960	160.830872
19828		7.499560	-27.471957	160.832614
19829		7.509567	-27.471065	160.836499
19830		7.509578	-27.465385	160.843273
19831		7.508000	-27.458697	160.850311
19832		7.498228	-27.449126	160.860290
19833		7.489161	-27.442826	160.870291
19834		7.478540	-27.439870	160.878000
19835		7.480307	-27.436059	160.881938
19836		7.491445	-27.429536	160.878834
19837		7.508803	-27.419230	160.870739
19838		7.521254	-27.410742	160.849950
19839		7.521715	-27.411494	160.821134
19840		7.513282	-27.422084	160.781520
19841		7.502737	-27.440618	160.729808
19842		7.495193	-27.466804	160.668444
19843		7.492561	-27.498688	160.600995
19844		7.490454	-27.528747	160.529070
19845		7.485133	-27.551660	160.457714
19846		7.484171	-27.572783	160.385920
19847		7.481686	-27.598635	160.308150
19848		7.479894	-27.632134	160.227805
19849		7.478428	-27.671347	160.139913
19850		7.468611	-27.716276	160.045683
19851		7.458618	-27.765536	159.946103
19852		7.441106	-27.811552	159.846067
19853		7.427086	-27.857679	159.750924
19854		7.423643	-27.905776	159.657851
19855		7.432253	-27.955827	159.569951
19856		7.453043	-28.012093	159.478405
19857		7.479197	-28.068912	159.381711
19858		7.513952	-28.133347	159.273907
19859		7.556741	-28.203539	159.156115
19860		7.607672	-28.278982	159.027603
19861		7.646950	-28.355036	158.891843
19862		7.667801	-28.426481	158.747894
19863		7.657616	-28.489700	158.605269
19864		7.628044	-28.541796	158.461191
19865		7.604571	-28.584569	158.316955
19866		7.599823	-28.633500	158.166885
19867		7.622356	-28.699053	158.007907
19868		7.663528	-28.772603	157.836966
19869		7.708180	-28.843016	157.655084
19870		7.755855	-28.920208	157.460291
19871		7.781412	-28.981310	157.261321
19872		7.813379	-29.010326	157.062042
19873		7.895603	-29.023005	156.863122
19874		7.983960	-29.025798	156.664932
19875		8.103858	-29.032182	156.460424
19876		8.241873	-29.047967	156.243330
19877		8.378670	-29.070559	156.014902
19878		8.502523	-29.094216	155.781158
19879		8.616782	-29.130968	155.549735
19880		8.729326	-29.205088	155.304691
19881		8.834269	-29.294484	155.053126
19882		8.929664	-29.370232	154.795812
19883		9.021451	-29.411519	154.550304
19884		9.140996	-29.443185	154.309221
19885		9.277635	-29.467750	154.072971
19886		9.427161	-29.495133	153.839920
19887		9.570200	-29.533361	153.600571
19888		9.700336	-29.576318	153.351829
19889		9.861317	-29.604907	153.091873
19890		10.060402	-29.614031	152.814468
19891		10.237513	-29.605466	152.525803
19892		10.420327	-29.594788	152.226926
19893		10.620166	-29.589094	151.925154
19894		10.799808	-29.613039	151.612311
19895		10.970151	-29.676336	151.292822
19896		11.161794	-29.761688	150.956117
19897		11.345368	-29.849907	150.604992
19898		11.455142	-29.929994	150.249308
19899		11.562930	-30.006485	149.893283
19900		11.692033	-30.079025	149.535566
19901		11.842883	-30.160533	149.173317
19902		11.987753	-30.253991	148.810335
19903		12.143809	-30.342459	148.451252
19904		12.312044	-30.421931	148.092866
19905		12.445849	-30.506071	147.740998
19906		12.533318	-30.595699	147.399734
19907		12.575179	-30.682197	147.076619
19908		12.595711	-30.751186	146.777160
19909		12.643372	-30.813773	146.500682
19910		12.731767	-30.878260	146.236661
19911		12.925306	-30.913870	145.978037
19912		13.263252	-30.917523	145.684598
19913		13.596728	-30.938010	145.349238
19914		13.813907	-31.014111	144.982022
19915		13.949363	-31.122692	144.606453
19916		14.047044	-31.228202	144.240367
19917		14.095466	-31.326461	143.898125
19918		14.114421	-31.434432	143.582252
19919		14.154473	-31.546066	143.297284
19920		14.207331	-31.668482	143.033539
19921		14.278985	-31.813628	142.771385
19922		14.383163	-31.941486	142.509120
19923		14.578839	-32.040620	142.221129
19924		14.789794	-32.168004	141.880505
19925		14.926331	-32.337520	141.502739
19926		15.032212	-32.538951	141.103763
19927		15.125985	-32.758881	140.708773
19928		15.207664	-33.004833	140.316264
19929		15.272850	-33.259079	139.926488
19930		15.370449	-33.477520	139.556582
19931		15.563768	-33.672037	139.182519
19932		15.768462	-33.879586	138.784902
19933		15.833696	-34.115343	138.397622
19934		15.843350	-34.359783	138.024750
19935		15.895496	-34.616857	137.656077
19936		15.926698	-34.888486	137.300338
19937		15.918778	-35.155825	136.979321
19938		15.925994	-35.393194	136.701478
19939		16.002743	-35.606540	136.443385
19940		16.061382	-35.820202	136.205163
19941		16.076139	-36.023670	135.994785
19942		16.047677	-36.229112	135.816413
19943		15.978951	-36.438627	135.679971
19944		15.884112	-36.641131	135.594768
19945		15.750108	-36.823037	135.572678
19946		15.601535	-36.986324	135.601526
19947		15.479868	-37.122230	135.665479
19948		15.392545	-37.229777	135.739585
19949		15.307298	-37.326923	135.814537
19950		15.266215	-37.429444	135.872123
19951		15.238111	-37.541162	135.910061
19952		15.210843	-37.654939	135.936211
19953		15.207567	-37.766907	135.949146
19954		15.197077	-37.868614	135.957092
19955		15.166992	-37.962790	135.972092
19956		15.138280	-38.035820	136.003611
19957		15.131623	-38.103207	136.041048
19958		15.125974	-38.183673	136.076457
19959		15.093586	-38.255810	136.120386
19960		15.048414	-38.315603	136.165075
19961		15.004300	-38.357300	136.211445
19962		14.977883	-38.390575	136.249064
19963		14.975700	-38.423779	136.271476
19964		14.976434	-38.457031	136.275728
19965		14.970802	-38.485970	136.271623
19966		14.987293	-38.501264	136.254902
19967		14.994174	-38.515776	136.232571
19968		14.975309	-38.527977	136.208316
19969		14.952031	-38.535208	136.185161
19970		14.921374	-38.556148	136.159878
19971		14.864610	-38.597479	136.139657
19972		14.794802	-38.653856	136.121740
19973		14.728234	-38.717584	136.107098
19974		14.660035	-38.788698	136.090853
19975		14.602691	-38.864881	136.068686
19976		14.563890	-38.946120	136.042227
19977		14.549030	-39.037959	136.005085
19978		14.563180	-39.144594	135.953262
19979		14.584707	-39.264805	135.890610
19980		14.614303	-39.402646	135.819168
19981		14.648083	-39.559434	135.737926
19982		14.660390	-39.744727	135.650054
19983		14.662011	-39.953589	135.561169
19984		14.677562	-40.191860	135.468973
19985		14.707639	-40.452971	135.368708
19986		14.726968	-40.723288	135.264926
19987		14.732770	-40.994939	135.161700
19988		14.728873	-41.266741	135.059859
19989		14.697577	-41.539744	134.954457
19990		14.620303	-41.798336	134.853960
19991		14.540257	-42.069833	134.750742
19992		14.463776	-42.367906	134.632136
19993		14.392005	-42.674717	134.511916
19994		14.315305	-42.982716	134.402035
19995		14.234714	-43.291060	134.305809
19996		14.135257	-43.603352	134.223365
19997		14.011238	-43.906208	134.163176
19998		13.843709	-44.211890	134.120344
19999		13.663444	-44.562946	134.091089
20000		13.491381	-44.950189	134.084631
20001		13.343513	-45.317810	134.107494
20002		13.213253	-45.649131	134.145202
20003		13.103442	-45.952231	134.176981
20004		13.013492	-46.230099	134.199402
20005		12.957998	-46.492560	134.202113
20006		12.900383	-46.753264	134.188619
20007		12.826144	-47.008098	134.169104
20008		12.730113	-47.259330	134.150798
20009		12.605213	-47.499521	134.141556
20010		12.446050	-47.726191	134.143927
20011		12.276996	-47.955139	134.163642
20012		12.088482	-48.179202	134.209951
20013		11.876206	-48.367888	134.281895
20014		11.653960	-48.534854	134.363362
20015		11.417768	-48.697924	134.450427
20016		11.169005	-48.858073	134.542114
20017		10.911424	-49.014657	134.640112
20018		10.652049	-49.158862	134.740781
20019		10.406192	-49.284698	134.832283
20020		10.186566	-49.394028	134.906533
20021		10.001338	-49.487591	134.964026
20022		9.845659	-49.565936	135.003947
20023		9.736769	-49.630585	135.028964
20024		9.664922	-49.694277	135.046220
20025		9.622772	-49.761614	135.062817
20026		9.596885	-49.836306	135.083554
20027		9.579962	-49.921064	135.112389
20028		9.558919	-50.009868	135.153596
20029		9.534957	-50.103610	135.201535
20030		9.501608	-50.200317	135.258779
20031		9.454621	-50.298670	135.322708
20032		9.386753	-50.393636	135.388223
20033		9.301565	-50.488847	135.453455
20034		9.203633	-50.582298	135.516360
20035		9.096330	-50.680210	135.576179
20036		8.982465	-50.782353	135.636292
20037		8.875536	-50.882517	135.696207
20038		8.772536	-50.984335	135.763346
20039		8.683784	-51.077755	135.828721
20040		8.595809	-51.166886	135.894529
20041		8.511559	-51.248511	135.955028
20042		8.428926	-51.319308	136.011929
20043		8.348556	-51.378834	136.070537
20044		8.273604	-51.426500	136.132314
20045		8.207362	-51.472594	136.192191
20046		8.153448	-51.524532	136.255174
20047		8.107726	-51.578914	136.319006
20048		8.068263	-51.635957	136.379537
20049		8.036621	-51.690293	136.433578
20050		8.010115	-51.732878	136.479765
20051		7.986988	-51.760818	136.520304
20052		7.968640	-51.784809	136.550641
20053		7.950007	-51.801227	136.580403
20054		7.935070	-51.822600	136.604347
20055		7.929544	-51.844597	136.617528
20056		7.924032	-51.869775	136.621774
20057		7.917753	-51.893289	136.625677
20058		7.907167	-51.915362	136.628316
20059		7.897664	-51.932354	136.628462
20060		7.883554	-51.947423	136.631487
20061		7.873519	-51.957696	136.628687
20062		7.867762	-51.964015	136.622647
20063		7.868566	-51.974298	136.620876
20064		7.879094	-51.988699	136.623939
20065		7.909527	-52.008133	136.633752
20066		7.962130	-52.029654	136.648904
20067		8.025389	-52.049515	136.657686
20068		8.086806	-52.063482	136.657405
20069		8.141574	-52.060877	136.644715
20070		8.195155	-52.037322	136.630369
20071		8.266445	-51.990764	136.611441
20072		8.354262	-51.946177	136.582711
20073		8.447852	-51.910828	136.543908
20074		8.524333	-51.866845	136.500342
20075		8.586578	-51.815138	136.458397
20076		8.648061	-51.804393	136.413180
20077		8.682296	-51.832891	136.385020
20078		8.691467	-51.879628	136.391143
20079		8.722642	-51.951832	136.407510
20080		8.720430	-52.008881	136.441312
20081		8.699493	-52.015772	136.473993
20082		8.714706	-51.999750	136.467853
20083		8.733935	-51.960896	136.424447
20084		8.745704	-51.916814	136.372465
20085		8.769034	-51.863478	136.340203
20086		8.870313	-51.795991	136.310146
20087		9.034823	-51.721306	136.261501
20088		9.213368	-51.625477	136.183240
20089		9.380566	-51.499896	136.081992
20090		9.472200	-51.343395	135.990265
20091		9.501108	-51.158828	135.925423
20092		9.546268	-50.950305	135.886614
20093		9.648343	-50.764066	135.856005
20094		9.762204	-50.608240	135.829548
20095		9.883175	-50.438862	135.803606
20096		10.016618	-50.246887	135.775535
20097		10.121195	-50.023932	135.758023
20098		10.186870	-49.776303	135.751786
20099		10.225070	-49.524660	135.762280
20100		10.239934	-49.284113	135.794183
20101		10.239964	-49.039413	135.841585
20102		10.278529	-48.769382	135.904076
20103		10.359921	-48.480864	135.971448
20104		10.444282	-48.209080	136.031120
20105		10.503501	-47.970320	136.093226
20106		10.557860	-47.757359	136.179281
20107		10.605990	-47.551772	136.295649
20108		10.670082	-47.324760	136.434723
20109		10.759450	-47.059115	136.581511
20110		10.876220	-46.763070	136.721842
20111		11.002246	-46.473773	136.837120
20112		11.094754	-46.213950	136.946561
20113		11.159603	-45.973657	137.061794
20114		11.212764	-45.735044	137.196835
20115		11.260198	-45.489762	137.347027
20116		11.326308	-45.230788	137.504542
20117		11.382059	-44.987462	137.655687
20118		11.411036	-44.757241	137.807464
20119		11.418318	-44.545817	137.959235
20120		11.381755	-44.342980	138.124685
20121		11.287875	-44.108936	138.310429
20122		11.185971	-43.841973	138.519853
20123		11.163880	-43.558835	138.731265
20124		11.198211	-43.282744	138.932368
20125		11.241529	-43.012476	139.116307
20126		11.282322	-42.749788	139.293444
20127		11.288973	-42.475516	139.475490
20128		11.240671	-42.181523	139.684927
20129		11.271236	-41.853571	139.905764
20130		11.353810	-41.509410	140.120317
20131		11.421457	-41.159940	140.323965
20132		11.502065	-40.816278	140.508950
20133		11.560040	-40.473167	140.686117
20134		11.578985	-40.133087	140.871613
20135		11.613085	-39.790640	141.071664
20136		11.650757	-39.436165	141.283386
20137		11.652208	-39.081563	141.510534
20138		11.669946	-38.714973	141.754022
20139		11.745026	-38.334548	142.000061
20140		11.858165	-37.960446	142.240508
20141		11.971688	-37.598635	142.471072
20142		12.097040	-37.244830	142.685390
20143		12.175753	-36.908805	142.898528
20144		12.233853	-36.570754	143.120456
20145		12.319424	-36.216838	143.350561
20146		12.364043	-35.861215	143.592968
20147		12.355079	-35.523675	143.862565
20148		12.388983	-35.184831	144.153839
20149		12.435108	-34.824075	144.464149
20150		12.475053	-34.452888	144.790622
20151		12.539667	-34.085569	145.119950
20152		12.587057	-33.743801	145.445253
20153		12.567367	-33.430123	145.772055
20154		12.518939	-33.133644	146.106534
20155		12.444243	-32.827950	146.454628
20156		12.405937	-32.526163	146.809796
20157		12.364588	-32.232502	147.179317
20158		12.303071	-31.941343	147.554876
20159		12.237560	-31.670258	147.918821
20160		12.118181	-31.412140	148.281229
20161		11.946303	-31.165248	148.651194
20162		11.769314	-30.909088	149.063789
20163		11.645738	-30.672231	149.506029
20164		11.584646	-30.448481	149.956077
20165		11.508601	-30.229820	150.404428
20166		11.434737	-30.020321	150.841029
20167		11.414501	-29.836815	151.246943
20168		11.449432	-29.686470	151.602904
20169		11.508288	-29.562373	151.904824
20170		11.549026	-29.472646	152.157086
20171		11.542485	-29.429017	152.376451
20172		11.482412	-29.432142	152.594401
20173		11.391978	-29.471462	152.835524
20174		11.336271	-29.511201	153.100378
20175		11.314772	-29.504822	153.380932
20176		11.266345	-29.441549	153.664893
20177		11.195546	-29.348300	153.936380
20178		11.084117	-29.244314	154.191356
20179		10.920303	-29.149119	154.436350
20180		10.715829	-29.053390	154.689640
20181		10.501688	-28.971202	154.973175
20182		10.326663	-28.917424	155.259155
20183		10.251741	-28.865197	155.539545
20184		10.254577	-28.769436	155.825465
20185		10.293580	-28.634750	156.109706
20186		10.367915	-28.497539	156.375487
20187		10.469060	-28.372238	156.616783
20188		10.560832	-28.253520	156.836393
20189		10.637385	-28.135573	157.031079
20190		10.681334	-28.031947	157.200494
20191		10.703645	-27.943473	157.345981
20192		10.694687	-27.859407	157.486188
20193		10.656062	-27.791008	157.627386
20194		10.597783	-27.729016	157.780579
20195		10.513291	-27.672202	157.952213
20196		10.407843	-27.631481	158.135200
20197		10.280597	-27.604109	158.326614
20198		10.148680	-27.567467	158.534205
20199		10.030228	-27.529896	158.749827
20200		9.916322	-27.493729	158.960985
20201		9.789716	-27.470522	159.174737
20202		9.651682	-27.463780	159.393295
20203		9.516530	-27.477704	159.615609
20204		9.394948	-27.523039	159.828661
20205		9.292566	-27.570552	160.043542
20206		9.231207	-27.598989	160.258753
20207		9.210618	-27.609257	160.470682
20208		9.237625	-27.629166	160.669336
20209		9.305869	-27.650228	160.845381
20210		9.429149	-27.661816	160.989514
20211		9.576745	-27.675821	161.100833
20212		9.727642	-27.692340	161.172265
20213		9.852946	-27.717232	161.213355
20214		9.903913	-27.756522	161.240316
20215		9.902403	-27.791007	161.269228
20216		9.844141	-27.802748	161.311445
20217		9.779951	-27.808873	161.363740
20218		9.725293	-27.820362	161.418129
20219		9.690295	-27.832268	161.459084
20220		9.651184	-27.841561	161.479924
20221		9.607415	-27.852686	161.480952
20222		9.575616	-27.863290	161.462219
20223		9.556770	-27.871631	161.431906
20224		9.545832	-27.887738	161.395482
20225		9.527847	-27.914460	161.348842
20226		9.512901	-27.937565	161.303621
20227		9.519500	-27.958813	161.254963
20228		9.548414	-27.962543	161.207173
20229		9.590765	-27.951768	161.161739
20230		9.642926	-27.940059	161.115904
20231		9.700107	-27.941878	161.065981
20232		9.737888	-27.947240	161.022633
20233		9.768151	-27.944520	160.988336
20234		9.796081	-27.934491	160.967981
20235		9.819319	-27.922252	160.956627
20236		9.841806	-27.920306	160.946770
20237		9.856178	-27.921259	160.937580
20238		9.872283	-27.924260	160.932070
20239		9.885166	-27.925373	160.929642
20240		9.883033	-27.927256	160.926539
20241		9.878656	-27.933099	160.929488
20242		9.875505	-27.937029	160.932064
20243		9.874495	-27.942089	160.933532
20244		9.873027	-27.945940	160.931222
20245		9.860651	-27.946800	160.929701
20246		9.855217	-27.951676	160.924106
20247		9.849324	-27.946587	160.916635
20248		9.831367	-27.932697	160.911926
20249		9.832688	-27.911289	160.909568
20250		9.840055	-27.878405	160.907272
20251		9.850402	-27.833196	160.908265
20252		9.872384	-27.786019	160.913229
20253		9.903185	-27.738343	160.923251
20254		9.948947	-27.685245	160.938981
20255		10.009071	-27.637015	160.953486
20256		10.072775	-27.581901	160.967536
20257		10.131145	-27.531285	160.981158
20258		10.185341	-27.481085	161.001382
20259		10.241460	-27.436718	161.029692
20260		10.293726	-27.410548	161.060687
20261		10.341526	-27.410043	161.090520
20262		10.371240	-27.418625	161.121556
20263		10.366620	-27.420401	161.160616
20264		10.358312	-27.419117	161.211445
20265		10.354565	-27.416544	161.267046
20266		10.336010	-27.412099	161.326795
20267		10.309212	-27.410794	161.386227
20268		10.284098	-27.411704	161.440126
20269		10.259460	-27.409520	161.487740
20270		10.238642	-27.408661	161.527038
20271		10.225324	-27.406587	161.558474
20272		10.210671	-27.393812	161.584592
20273		10.195681	-27.385465	161.605596
20274		10.186048	-27.386803	161.622854
20275		10.186748	-27.391737	161.639695
20276		10.195730	-27.395770	161.652836
20277		10.212343	-27.401331	161.665893
20278		10.226466	-27.404594	161.683660
20279		10.239766	-27.412546	161.702487
20280		10.236826	-27.428989	161.718613
20281		10.227977	-27.445033	161.736755
20282		10.208461	-27.448715	161.760302
20283		10.188094	-27.457587	161.785749
20284		10.154642	-27.470338	161.815818
20285		10.130738	-27.483592	161.850311
20286		10.106357	-27.504272	161.883134
20287		10.092200	-27.529619	161.917196
20288		10.082968	-27.549994	161.947079
20289		10.082229	-27.571900	161.974461
20290		10.081890	-27.593714	161.998963
20291		10.089380	-27.619889	162.022111
20292		10.097168	-27.653975	162.041952
20293		10.126570	-27.689710	162.058274
20294		10.152146	-27.719185	162.077639
20295		10.181578	-27.751789	162.096328
20296		10.208048	-27.799025	162.109480
20297		10.233652	-27.849832	162.120267
20298		10.255018	-27.896315	162.135469
