// General information: 
//  MT Manager version: 2022.2.0 
//  XDA version: 2022.2.0 build 7381 rev 124627 built on 2023-07-19
// Device information: 
//  DeviceId: 00B44856
//  ProductCode: MTW2-3A7G6
//  Firmware Version: 4.3.5
//  Hardware Version: 2.0.0
// Device settings: 
//  Filter Profile: human(46.1)
//  Option Flags: Orientation Smoother Disabled, Position/Velocity Smoother Disabled, Continuous Zero Rotation Update Disabled, AHS Disabled, ICC Disabled
// Coordinate system: ENU
PacketCounter	SampleTimeFine	Roll	Pitch	Yaw
45227		-16.738952	48.838339	-29.787395
45228		-16.740103	48.835367	-29.788569
45229		-16.735106	48.825301	-29.783773
45230		-16.725256	48.818401	-29.778060
45231		-16.708104	48.809650	-29.766573
45232		-16.687475	48.801062	-29.755045
45233		-16.656268	48.790103	-29.735316
45234		-16.614593	48.780674	-29.713003
45235		-16.558630	48.769615	-29.679301
45236		-16.495804	48.757356	-29.641738
45237		-16.425263	48.742139	-29.600075
45238		-16.349000	48.730651	-29.557150
45239		-16.272560	48.715384	-29.512331
45240		-16.197824	48.701761	-29.468346
45241		-16.120049	48.692458	-29.421501
45242		-16.045987	48.687780	-29.378415
45243		-15.974800	48.688380	-29.336434
45244		-15.910503	48.690339	-29.300536
45245		-15.856028	48.693890	-29.270504
45246		-15.812224	48.702841	-29.247778
45247		-15.774144	48.709746	-29.228248
45248		-15.747342	48.717213	-29.213715
45249		-15.728890	48.725500	-29.201070
45250		-15.718932	48.734867	-29.189664
45251		-15.717793	48.743466	-29.181725
45252		-15.727746	48.754574	-29.179793
45253		-15.745911	48.766606	-29.179274
45254		-15.774232	48.777952	-29.181369
45255		-15.808448	48.783947	-29.182864
45256		-15.849422	48.787468	-29.184195
45257		-15.892918	48.786325	-29.185432
45258		-15.934162	48.787344	-29.184236
45259		-15.980837	48.786169	-29.191906
45260		-16.032214	48.792916	-29.206785
45261		-16.076103	48.796857	-29.217611
45262		-16.124781	48.807478	-29.235529
45263		-16.169051	48.815648	-29.254948
45264		-16.211127	48.822963	-29.276135
45265		-16.248142	48.827713	-29.294700
45266		-16.286201	48.835041	-29.319429
45267		-16.314651	48.843686	-29.338254
45268		-16.343752	48.850953	-29.362800
45269		-16.368517	48.858431	-29.385701
45270		-16.395165	48.868355	-29.410803
45271		-16.423635	48.878915	-29.439788
45272		-16.447679	48.891908	-29.467310
45273		-16.471908	48.905056	-29.496450
45274		-16.492082	48.919488	-29.524579
45275		-16.509295	48.930200	-29.551155
45276		-16.524798	48.935521	-29.576284
45277		-16.535338	48.934921	-29.600986
45278		-16.541806	48.933085	-29.618772
45279		-16.543947	48.928490	-29.635994
45280		-16.541125	48.919846	-29.651099
45281		-16.533324	48.908564	-29.666919
45282		-16.524977	48.896838	-29.686806
45283		-16.519309	48.880931	-29.708744
45284		-16.514398	48.852675	-29.732726
45285		-16.509122	48.819258	-29.760716
45286		-16.501688	48.781640	-29.786607
45287		-16.486984	48.743470	-29.809776
45288		-16.466040	48.705829	-29.832043
45289		-16.437250	48.664073	-29.853047
45290		-16.407974	48.623140	-29.881212
45291		-16.376478	48.582530	-29.914697
45292		-16.346440	48.541653	-29.952952
45293		-16.319299	48.491514	-29.993694
45294		-16.290749	48.433585	-30.030308
45295		-16.264401	48.376630	-30.059036
45296		-16.242443	48.328936	-30.085104
45297		-16.227293	48.290248	-30.108580
45298		-16.218698	48.259922	-30.135669
45299		-16.209475	48.237506	-30.156815
45300		-16.202653	48.221517	-30.177798
45301		-16.206413	48.195900	-30.205885
45302		-16.221893	48.155066	-30.231899
45303		-16.241696	48.098310	-30.252504
45304		-16.247646	48.030173	-30.264005
45305		-16.216554	47.955886	-30.279312
45306		-16.157355	47.878325	-30.323556
45307		-16.083922	47.783833	-30.395411
45308		-16.009981	47.685226	-30.491861
45309		-15.911288	47.586738	-30.584366
45310		-15.768518	47.494677	-30.665383
45311		-15.562831	47.402730	-30.715570
45312		-15.321676	47.301181	-30.749097
45313		-15.081035	47.181644	-30.776365
45314		-14.829775	47.060115	-30.804079
45315		-14.578103	46.926326	-30.834255
45316		-14.347066	46.749456	-30.863612
45317		-14.141475	46.540749	-30.898802
45318		-13.964669	46.330659	-30.966580
45319		-13.821499	46.125046	-31.057268
45320		-13.711065	45.920654	-31.146868
45321		-13.613450	45.719328	-31.222018
45322		-13.529957	45.523005	-31.294090
45323		-13.481245	45.333851	-31.360668
45324		-13.464852	45.146833	-31.414583
45325		-13.462653	44.951285	-31.444048
45326		-13.504103	44.775627	-31.479831
45327		-13.589524	44.615546	-31.525224
45328		-13.672930	44.466637	-31.530269
45329		-13.696712	44.308917	-31.478798
45330		-13.669719	44.150348	-31.387851
45331		-13.667267	43.985490	-31.300973
45332		-13.685533	43.816424	-31.213231
45333		-13.724485	43.641309	-31.130080
45334		-13.742392	43.465349	-31.037573
45335		-13.745971	43.306023	-30.950029
45336		-13.732557	43.163424	-30.857114
45337		-13.694393	43.028501	-30.758355
45338		-13.632411	42.882060	-30.647252
45339		-13.547181	42.724436	-30.524847
45340		-13.443670	42.559031	-30.399037
45341		-13.339117	42.393448	-30.264881
45342		-13.245702	42.221511	-30.138710
45343		-13.162268	42.043314	-30.005376
45344		-13.080831	41.858202	-29.866467
45345		-13.002034	41.661406	-29.719823
45346		-12.934572	41.447372	-29.578770
45347		-12.877976	41.213910	-29.435204
45348		-12.864468	40.998620	-29.279015
45349		-12.870219	40.781238	-29.109512
45350		-12.879229	40.556006	-28.921490
45351		-12.890284	40.329370	-28.713310
45352		-12.899885	40.107392	-28.479609
45353		-12.901137	39.883315	-28.221455
45354		-12.916843	39.653675	-27.950894
45355		-12.957802	39.414996	-27.677230
45356		-13.027253	39.177298	-27.399141
45357		-13.121675	38.948396	-27.128332
45358		-13.228469	38.723787	-26.865304
45359		-13.343436	38.505399	-26.606029
45360		-13.458527	38.292935	-26.343789
45361		-13.563339	38.088700	-26.075109
45362		-13.658946	37.892790	-25.801861
45363		-13.753932	37.709102	-25.526391
45364		-13.847867	37.527740	-25.255289
45365		-13.923681	37.356918	-24.984625
45366		-14.003726	37.196969	-24.725713
45367		-14.080760	37.047077	-24.472919
45368		-14.139993	36.902613	-24.220149
45369		-14.178198	36.743483	-23.963114
45370		-14.194653	36.566178	-23.691852
45371		-14.180792	36.373092	-23.410437
45372		-14.146529	36.176132	-23.119800
45373		-14.096200	35.973162	-22.820351
45374		-14.047767	35.773399	-22.516486
45375		-14.020113	35.582590	-22.218444
45376		-14.004624	35.395226	-21.918635
45377		-13.998502	35.216497	-21.620254
45378		-13.995749	35.047998	-21.320289
45379		-13.999349	34.889051	-21.023508
45380		-13.999003	34.745410	-20.728123
45381		-13.987404	34.602404	-20.426262
45382		-13.970282	34.453835	-20.125276
45383		-13.936479	34.301791	-19.825616
45384		-13.884383	34.146818	-19.529405
45385		-13.820841	33.979820	-19.237087
45386		-13.749795	33.807763	-18.950090
45387		-13.670675	33.627606	-18.660037
45388		-13.587628	33.453236	-18.377825
45389		-13.506923	33.277578	-18.098845
45390		-13.430294	33.098624	-17.822860
45391		-13.361026	32.906697	-17.540841
45392		-13.291354	32.713700	-17.257045
45393		-13.210387	32.530104	-16.969625
45394		-13.126805	32.358825	-16.679321
45395		-13.036678	32.200217	-16.382763
45396		-12.938765	32.045943	-16.061367
45397		-12.851004	31.892297	-15.711137
45398		-12.788162	31.749844	-15.337466
45399		-12.736248	31.612363	-14.957139
45400		-12.683768	31.477970	-14.600426
45401		-12.628672	31.343273	-14.269003
45402		-12.593184	31.205673	-13.965099
45403		-12.575911	31.072264	-13.677093
45404		-12.567949	30.948271	-13.397590
45405		-12.554727	30.831082	-13.111815
45406		-12.533504	30.723578	-12.824882
45407		-12.490548	30.612957	-12.534369
45408		-12.429240	30.497547	-12.253869
45409		-12.350593	30.359964	-11.980634
45410		-12.273728	30.209188	-11.721468
45411		-12.208836	30.055806	-11.468119
45412		-12.146795	29.905430	-11.223136
45413		-12.089331	29.756902	-10.983561
45414		-12.032936	29.613574	-10.756779
45415		-11.976725	29.457935	-10.526370
45416		-11.905588	29.286865	-10.296971
45417		-11.829858	29.108690	-10.063324
45418		-11.747813	28.930592	-9.835018
45419		-11.665149	28.755777	-9.612701
45420		-11.571430	28.582102	-9.393255
45421		-11.482176	28.407087	-9.168152
45422		-11.402203	28.232147	-8.941824
45423		-11.325732	28.059572	-8.711744
45424		-11.242060	27.898850	-8.485079
45425		-11.152272	27.743819	-8.260195
45426		-11.059369	27.595364	-8.041873
45427		-10.963560	27.452892	-7.830082
45428		-10.850492	27.307863	-7.622627
45429		-10.745757	27.147710	-7.416750
45430		-10.666044	26.989357	-7.219238
45431		-10.597717	26.828211	-7.021301
45432		-10.535967	26.681382	-6.828434
45433		-10.467124	26.550547	-6.638687
45434		-10.378584	26.433356	-6.459951
45435		-10.286208	26.310137	-6.289975
45436		-10.190253	26.176754	-6.125769
45437		-10.095946	26.023985	-5.963091
45438		-10.008338	25.863050	-5.794296
45439		-9.931596	25.720831	-5.619811
45440		-9.860249	25.599581	-5.452116
45441		-9.779911	25.492821	-5.283064
45442		-9.682284	25.398286	-5.124853
45443		-9.564530	25.305861	-4.972233
45444		-9.428149	25.214178	-4.827954
45445		-9.294927	25.115501	-4.698692
45446		-9.167675	25.013115	-4.600239
45447		-9.061039	24.900644	-4.500056
45448		-8.922831	24.807776	-4.372392
45449		-8.735307	24.754550	-4.199443
45450		-8.546487	24.712887	-4.010310
45451		-8.387119	24.643741	-3.833862
45452		-8.252591	24.571108	-3.700899
45453		-8.129647	24.515771	-3.607540
45454		-7.996165	24.500504	-3.552501
45455		-7.847344	24.523051	-3.517070
45456		-7.685794	24.558351	-3.495179
45457		-7.508066	24.579585	-3.470365
45458		-7.324046	24.599062	-3.446639
45459		-7.185891	24.631230	-3.425801
45460		-7.099789	24.674542	-3.409362
45461		-7.078758	24.715604	-3.404669
45462		-7.116752	24.739967	-3.415365
45463		-7.207072	24.759206	-3.432603
45464		-7.345561	24.779015	-3.453035
45465		-7.510413	24.800236	-3.461333
45466		-7.687068	24.812197	-3.465486
45467		-7.874303	24.807497	-3.473381
45468		-8.051637	24.793013	-3.484260
45469		-8.199641	24.763311	-3.486942
45470		-8.310531	24.726165	-3.483129
45471		-8.395965	24.677637	-3.459190
45472		-8.461928	24.630931	-3.428824
45473		-8.502226	24.579166	-3.392158
45474		-8.532065	24.517104	-3.357520
45475		-8.556880	24.455047	-3.326066
45476		-8.555289	24.399903	-3.304288
45477		-8.539477	24.345191	-3.290411
45478		-8.504094	24.292618	-3.285870
45479		-8.434916	24.247392	-3.277526
45480		-8.330657	24.209518	-3.269570
45481		-8.197170	24.160183	-3.255919
45482		-8.040788	24.103720	-3.243276
45483		-7.872242	24.043885	-3.224589
45484		-7.712043	23.984560	-3.207622
45485		-7.564743	23.923443	-3.183985
45486		-7.431225	23.867369	-3.146255
45487		-7.330477	23.809549	-3.089489
45488		-7.248672	23.754668	-3.027843
45489		-7.182243	23.700189	-2.960681
45490		-7.138575	23.654758	-2.896774
45491		-7.118847	23.611542	-2.836044
45492		-7.130535	23.571833	-2.778307
45493		-7.175102	23.539383	-2.725948
45494		-7.228134	23.511937	-2.682235
45495		-7.298668	23.479976	-2.639939
45496		-7.373455	23.445776	-2.605428
45497		-7.440244	23.410793	-2.571211
45498		-7.491064	23.380689	-2.536739
45499		-7.514406	23.349916	-2.494928
45500		-7.523035	23.326277	-2.451164
45501		-7.520733	23.303702	-2.398852
45502		-7.521167	23.284808	-2.350386
45503		-7.513551	23.259232	-2.296256
45504		-7.500384	23.229171	-2.245676
45505		-7.481119	23.195439	-2.194571
45506		-7.464001	23.168126	-2.153696
45507		-7.464398	23.149237	-2.111190
45508		-7.453172	23.117707	-2.065607
45509		-7.418669	23.074132	-2.006613
45510		-7.371421	23.032584	-1.944525
45511		-7.319140	22.989274	-1.879511
45512		-7.249388	22.945646	-1.815948
45513		-7.161471	22.902421	-1.747241
45514		-7.072831	22.858397	-1.687046
45515		-6.994586	22.822727	-1.629234
45516		-6.929934	22.797343	-1.574108
45517		-6.877017	22.766304	-1.510927
45518		-6.842697	22.733470	-1.446595
45519		-6.837533	22.704281	-1.386981
45520		-6.861919	22.692317	-1.343219
45521		-6.912286	22.710587	-1.305320
45522		-6.994854	22.759338	-1.286431
45523		-7.094288	22.815158	-1.276346
45524		-7.191364	22.871861	-1.272351
45525		-7.282030	22.934910	-1.267259
45526		-7.360504	22.985959	-1.259719
45527		-7.433719	23.014457	-1.232046
45528		-7.504191	23.047941	-1.201652
45529		-7.572843	23.092052	-1.166714
45530		-7.610460	23.158446	-1.140502
45531		-7.625201	23.229626	-1.115697
45532		-7.638435	23.281851	-1.101200
45533		-7.646259	23.316649	-1.088091
45534		-7.656315	23.343890	-1.076299
45535		-7.658806	23.353116	-1.046372
45536		-7.650123	23.348707	-1.005276
45537		-7.629621	23.337670	-0.948190
45538		-7.610094	23.323357	-0.890847
45539		-7.596070	23.325453	-0.842029
45540		-7.582626	23.350780	-0.805380
45541		-7.556045	23.389141	-0.779028
45542		-7.505895	23.431407	-0.760083
45543		-7.435371	23.469764	-0.745662
45544		-7.352327	23.508049	-0.739933
45545		-7.267994	23.547146	-0.728788
45546		-7.182888	23.588378	-0.717982
45547		-7.094120	23.624030	-0.701354
45548		-7.005911	23.645080	-0.682289
45549		-6.941361	23.649074	-0.665397
45550		-6.904110	23.643069	-0.655960
45551		-6.897746	23.643839	-0.647497
45552		-6.913057	23.652712	-0.641999
45553		-6.937751	23.664078	-0.636381
45554		-6.966890	23.680107	-0.639867
45555		-6.997771	23.700087	-0.640236
45556		-7.031369	23.717867	-0.641349
45557		-7.068605	23.734248	-0.640738
45558		-7.117524	23.751837	-0.637479
45559		-7.173520	23.761388	-0.631040
45560		-7.226827	23.769572	-0.629142
45561		-7.271090	23.774974	-0.626918
45562		-7.302923	23.782468	-0.639303
45563		-7.327703	23.790297	-0.658830
45564		-7.346248	23.800405	-0.694883
45565		-7.350062	23.803720	-0.736454
45566		-7.355951	23.802906	-0.791086
45567		-7.369991	23.795616	-0.850503
45568		-7.394889	23.790948	-0.928748
45569		-7.444157	23.788723	-1.021720
45570		-7.512722	23.795437	-1.131938
45571		-7.591155	23.812753	-1.253970
45572		-7.678493	23.840745	-1.403181
45573		-7.787953	23.873748	-1.584338
45574		-7.916945	23.940866	-1.797878
45575		-8.039895	24.048934	-2.036063
45576		-8.143570	24.186290	-2.287724
45577		-8.217659	24.333213	-2.541757
45578		-8.269137	24.495358	-2.804812
45579		-8.298757	24.683431	-3.074764
45580		-8.315726	24.916303	-3.377246
45581		-8.318164	25.171178	-3.690756
45582		-8.302111	25.435843	-4.014478
45583		-8.280413	25.664750	-4.335420
45584		-8.258749	25.853892	-4.645023
45585		-8.216192	26.020569	-4.929576
45586		-8.179162	26.186689	-5.204756
45587		-8.156723	26.348377	-5.470550
45588		-8.163387	26.523130	-5.743811
45589		-8.203390	26.730195	-6.031059
45590		-8.280883	26.975130	-6.350565
45591		-8.380667	27.255709	-6.694283
45592		-8.480945	27.571428	-7.068034
45593		-8.564362	27.910130	-7.451588
45594		-8.627251	28.249721	-7.840387
45595		-8.677835	28.568698	-8.211544
45596		-8.713385	28.844623	-8.561942
45597		-8.747505	29.059170	-8.892595
45598		-8.794732	29.224593	-9.206780
45599		-8.866853	29.368034	-9.501204
45600		-8.971937	29.512392	-9.789984
45601		-9.116837	29.661077	-10.066782
45602		-9.305918	29.820468	-10.354865
45603		-9.534027	29.997382	-10.648824
45604		-9.797103	30.197789	-10.964731
45605		-10.096853	30.415953	-11.293349
45606		-10.421529	30.633235	-11.630290
45607		-10.773100	30.827079	-11.964564
45608		-11.156982	31.001759	-12.295694
45609		-11.558223	31.162678	-12.602829
45610		-11.968008	31.320702	-12.895061
45611		-12.370025	31.475412	-13.160728
45612		-12.761205	31.632104	-13.415878
45613		-13.141796	31.791585	-13.661229
45614		-13.501672	31.951131	-13.902964
45615		-13.845884	32.105260	-14.138440
45616		-14.170600	32.250357	-14.376804
45617		-14.472821	32.379805	-14.613261
45618		-14.750698	32.490809	-14.862661
45619		-14.988066	32.576712	-15.105739
45620		-15.176894	32.663617	-15.351782
45621		-15.333473	32.776785	-15.601965
45622		-15.452066	32.922491	-15.859282
45623		-15.527698	33.082638	-16.112490
45624		-15.555836	33.245184	-16.368750
45625		-15.537291	33.398973	-16.619480
45626		-15.494143	33.540333	-16.883014
45627		-15.436609	33.666378	-17.153677
45628		-15.383198	33.792378	-17.427682
45629		-15.360018	33.931141	-17.710021
45630		-15.362859	34.086465	-17.999313
45631		-15.404478	34.259861	-18.293868
45632		-15.487214	34.447166	-18.592252
45633		-15.614218	34.643321	-18.887993
45634		-15.768561	34.851368	-19.176029
45635		-15.935501	35.055469	-19.448709
45636		-16.102592	35.257062	-19.709349
45637		-16.265147	35.450652	-19.957198
45638		-16.417977	35.638873	-20.202291
45639		-16.573267	35.823603	-20.454405
45640		-16.735017	36.016822	-20.717462
45641		-16.902492	36.220877	-20.984217
45642		-17.075387	36.444068	-21.255002
45643		-17.239017	36.674602	-21.522945
45644		-17.392758	36.912896	-21.790447
45645		-17.528988	37.152027	-22.053895
45646		-17.661087	37.406181	-22.328079
45647		-17.787207	37.668983	-22.613865
45648		-17.917552	37.939418	-22.914231
45649		-18.058498	38.211570	-23.222552
45650		-18.202219	38.484912	-23.534028
45651		-18.341544	38.752383	-23.853488
45652		-18.479702	39.027712	-24.181180
45653		-18.618257	39.321232	-24.522753
45654		-18.737496	39.619706	-24.865801
45655		-18.836803	39.924517	-25.209497
45656		-18.913603	40.232117	-25.549227
45657		-18.970547	40.533323	-25.885133
45658		-19.007850	40.831301	-26.219876
45659		-19.027287	41.126941	-26.546144
45660		-19.037568	41.425588	-26.873724
45661		-19.036742	41.725583	-27.192999
45662		-19.040427	42.029024	-27.517059
45663		-19.056770	42.330372	-27.842382
45664		-19.089783	42.636910	-28.168281
45665		-19.144255	42.947599	-28.501963
45666		-19.209596	43.261840	-28.846281
45667		-19.277434	43.575685	-29.193341
45668		-19.334358	43.881227	-29.533331
45669		-19.370338	44.168978	-29.857549
45670		-19.399129	44.440194	-30.170056
45671		-19.454723	44.721496	-30.492859
45672		-19.527348	45.019636	-30.833870
45673		-19.609843	45.314412	-31.175724
45674		-19.717692	45.613289	-31.521187
45675		-19.829208	45.919758	-31.858380
45676		-19.945750	46.222387	-32.189718
45677		-20.056937	46.521494	-32.513291
45678		-20.155743	46.825861	-32.829279
45679		-20.232516	47.117011	-33.132591
45680		-20.303028	47.397927	-33.437014
45681		-20.377065	47.662681	-33.747331
45682		-20.453130	47.911678	-34.064772
45683		-20.520302	48.147004	-34.374227
45684		-20.575025	48.371243	-34.674056
45685		-20.614110	48.574902	-34.948745
45686		-20.641939	48.755635	-35.203112
45687		-20.658987	48.921546	-35.443208
45688		-20.676688	49.079236	-35.684353
45689		-20.701840	49.234651	-35.936907
45690		-20.729307	49.386400	-36.188416
45691		-20.762468	49.520636	-36.428844
45692		-20.817459	49.657593	-36.660575
45693		-20.915592	49.807891	-36.896993
45694		-21.047843	49.973432	-37.130005
45695		-21.205037	50.143435	-37.355971
45696		-21.363301	50.315431	-37.568184
45697		-21.498971	50.467987	-37.763736
45698		-21.624761	50.605642	-37.945044
45699		-21.756171	50.744126	-38.119713
45700		-21.891059	50.885064	-38.279417
45701		-22.014699	51.018851	-38.415197
45702		-22.123150	51.141870	-38.520143
45703		-22.201449	51.241888	-38.591225
45704		-22.248661	51.316632	-38.623517
45705		-22.268557	51.373344	-38.621467
45706		-22.267066	51.418136	-38.592805
45707		-22.232818	51.449263	-38.526952
45708		-22.188664	51.463127	-38.457057
45709		-22.154358	51.465679	-38.397802
45710		-22.159073	51.469688	-38.369281
45711		-22.205261	51.472654	-38.369375
45712		-22.284180	51.479244	-38.387775
45713		-22.364186	51.483772	-38.407902
45714		-22.439384	51.487477	-38.434244
45715		-22.494915	51.493124	-38.450972
45716		-22.534806	51.507221	-38.464260
45717		-22.544540	51.527821	-38.456505
45718		-22.540173	51.548939	-38.439720
45719		-22.525316	51.565924	-38.410810
45720		-22.500328	51.585218	-38.377842
45721		-22.466753	51.601706	-38.345670
45722		-22.425584	51.613612	-38.318505
45723		-22.386838	51.622566	-38.299830
45724		-22.352718	51.637316	-38.293090
45725		-22.323151	51.654205	-38.292122
45726		-22.279361	51.660173	-38.281571
45727		-22.213654	51.657264	-38.263779
45728		-22.128644	51.655183	-38.240668
45729		-22.035568	51.650196	-38.221854
45730		-21.929502	51.644922	-38.205138
45731		-21.820269	51.638847	-38.195935
45732		-21.718868	51.630674	-38.190379
45733		-21.639090	51.622797	-38.193968
45734		-21.578176	51.618464	-38.209191
45735		-21.531817	51.619751	-38.228441
45736		-21.497777	51.624528	-38.248843
45737		-21.463537	51.632632	-38.264802
45738		-21.432717	51.644527	-38.287478
45739		-21.396543	51.657568	-38.294453
45740		-21.367115	51.667124	-38.303892
45741		-21.353434	51.682662	-38.323705
45742		-21.365299	51.697792	-38.364462
45743		-21.385508	51.698667	-38.412433
45744		-21.404486	51.703401	-38.461952
45745		-21.428881	51.719895	-38.525698
45746		-21.464565	51.738643	-38.601816
45747		-21.500056	51.746934	-38.670607
45748		-21.513694	51.757191	-38.724688
45749		-21.500086	51.781188	-38.771931
45750		-21.462458	51.801481	-38.803354
45751		-21.385682	51.788714	-38.799729
45752		-21.287687	51.750828	-38.778308
45753		-21.193538	51.715325	-38.763567
45754		-21.129699	51.696147	-38.763168
45755		-21.090897	51.672725	-38.761893
45756		-21.057521	51.643640	-38.750229
45757		-21.027063	51.609718	-38.739345
45758		-21.005544	51.574347	-38.722097
45759		-20.979963	51.538161	-38.693058
45760		-20.949931	51.501419	-38.657148
45761		-20.915165	51.462377	-38.611610
45762		-20.882938	51.424467	-38.571944
45763		-20.849020	51.381792	-38.527923
45764		-20.811958	51.328517	-38.478124
45765		-20.775117	51.263224	-38.430288
45766		-20.730482	51.214364	-38.381294
45767		-20.686592	51.172751	-38.336243
45768		-20.642888	51.128399	-38.299280
45769		-20.601829	51.081730	-38.270037
45770		-20.572476	51.046208	-38.249791
45771		-20.553921	51.020482	-38.244548
45772		-20.521148	50.997956	-38.228621
45773		-20.482706	50.960282	-38.201555
45774		-20.444424	50.916756	-38.168551
45775		-20.397741	50.877608	-38.123042
45776		-20.354875	50.851599	-38.076852
45777		-20.307698	50.833999	-38.021129
45778		-20.250790	50.809111	-37.951367
45779		-20.183610	50.778803	-37.866881
45780		-20.104607	50.743484	-37.770049
45781		-20.026418	50.707207	-37.666754
45782		-19.951918	50.668552	-37.557805
45783		-19.880989	50.617323	-37.438746
45784		-19.817438	50.556546	-37.317805
45785		-19.767829	50.495018	-37.206710
45786		-19.751045	50.445284	-37.115317
45787		-19.774046	50.405248	-37.054407
45788		-19.830392	50.379561	-37.005927
45789		-19.904589	50.347409	-36.960683
45790		-19.976354	50.310060	-36.908668
45791		-20.029225	50.273276	-36.850864
45792		-20.081427	50.242770	-36.787279
45793		-20.141307	50.227179	-36.722512
45794		-20.207331	50.236698	-36.663746
45795		-20.275216	50.259342	-36.606025
45796		-20.341261	50.283176	-36.552296
45797		-20.399635	50.306856	-36.500161
45798		-20.449583	50.334221	-36.456642
45799		-20.482222	50.370468	-36.423325
45800		-20.498732	50.413135	-36.400779
45801		-20.505131	50.450210	-36.388019
45802		-20.501889	50.482177	-36.380400
45803		-20.481908	50.507045	-36.361228
45804		-20.441874	50.526911	-36.326486
45805		-20.379541	50.543552	-36.285997
45806		-20.299443	50.558163	-36.240433
45807		-20.220134	50.571054	-36.208952
45808		-20.144531	50.590620	-36.189245
45809		-20.078130	50.612445	-36.183633
45810		-20.030725	50.634699	-36.195274
45811		-19.998062	50.657014	-36.214034
45812		-19.984623	50.679400	-36.237727
45813		-19.982937	50.700047	-36.254090
45814		-19.993040	50.719082	-36.263753
45815		-20.009859	50.727188	-36.273123
45816		-20.031698	50.726104	-36.284222
45817		-20.061191	50.723088	-36.303000
45818		-20.096988	50.721510	-36.333704
45819		-20.131320	50.711595	-36.379178
45820		-20.166244	50.686552	-36.437751
45821		-20.195212	50.641231	-36.506543
45822		-20.208525	50.581933	-36.571563
45823		-20.222064	50.521036	-36.646984
45824		-20.228152	50.467887	-36.725970
45825		-20.211063	50.417052	-36.804153
45826		-20.158280	50.349224	-36.875493
45827		-20.066476	50.257389	-36.941586
45828		-19.939605	50.154071	-36.999839
45829		-19.794248	50.045392	-37.047676
45830		-19.638975	49.957119	-37.097822
45831		-19.465937	49.883421	-37.149655
45832		-19.273451	49.804784	-37.196862
45833		-19.081353	49.709951	-37.236684
45834		-18.900582	49.605008	-37.268997
45835		-18.738524	49.501684	-37.300925
45836		-18.601229	49.408060	-37.311139
45837		-18.455748	49.323973	-37.293817
45838		-18.317819	49.246640	-37.267026
45839		-18.200229	49.181689	-37.234220
45840		-18.090581	49.138296	-37.199622
45841		-17.970222	49.101899	-37.147028
45842		-17.827512	49.053882	-37.069242
45843		-17.652328	48.998790	-36.969854
45844		-17.453863	48.940903	-36.855471
45845		-17.240451	48.871473	-36.735627
45846		-17.014587	48.792562	-36.613044
45847		-16.775219	48.715000	-36.496093
45848		-16.536586	48.634710	-36.401188
45849		-16.291834	48.539232	-36.313886
45850		-16.033203	48.417993	-36.216485
45851		-15.767236	48.272174	-36.103359
45852		-15.520853	48.098050	-35.984706
45853		-15.331270	47.908336	-35.880161
45854		-15.169330	47.708184	-35.774479
45855		-15.015767	47.509235	-35.649295
45856		-14.858381	47.319894	-35.507274
45857		-14.701979	47.131146	-35.353140
45858		-14.544692	46.941272	-35.190044
45859		-14.387040	46.745314	-35.022222
45860		-14.229063	46.549064	-34.844070
45861		-14.066152	46.345445	-34.654738
45862		-13.904894	46.129949	-34.447593
45863		-13.742575	45.895049	-34.220193
45864		-13.580107	45.647095	-33.978953
45865		-13.430440	45.389480	-33.726612
45866		-13.308436	45.135914	-33.475078
45867		-13.212927	44.882172	-33.223936
45868		-13.140185	44.624057	-32.982305
45869		-13.079391	44.360113	-32.743897
45870		-13.016820	44.097181	-32.509230
45871		-12.939420	43.825202	-32.269127
45872		-12.837716	43.530034	-32.008360
45873		-12.719691	43.208707	-31.718275
45874		-12.576743	42.872744	-31.399990
45875		-12.418716	42.530224	-31.063830
45876		-12.246556	42.187131	-30.715093
45877		-12.084696	41.853251	-30.365096
45878		-11.929448	41.531994	-30.009746
45879		-11.779314	41.221178	-29.652018
45880		-11.622034	40.914650	-29.281438
45881		-11.452057	40.590158	-28.905082
45882		-11.270349	40.247169	-28.517844
45883		-11.111189	39.926494	-28.108853
45884		-10.951599	39.608311	-27.676741
45885		-10.796690	39.274283	-27.213479
45886		-10.650691	38.924713	-26.724020
45887		-10.512868	38.560209	-26.210239
45888		-10.370298	38.201116	-25.689587
45889		-10.246443	37.859154	-25.183075
45890		-10.151035	37.542883	-24.700308
45891		-10.081717	37.253303	-24.234012
45892		-10.029448	36.989344	-23.774294
45893		-9.981608	36.734729	-23.311689
45894		-9.939414	36.487640	-22.842785
45895		-9.894159	36.237039	-22.358926
45896		-9.854642	35.987706	-21.865716
45897		-9.816869	35.738968	-21.363883
45898		-9.786155	35.486949	-20.858038
45899		-9.773642	35.228064	-20.358762
45900		-9.768706	34.970085	-19.868454
45901		-9.764740	34.720181	-19.391884
45902		-9.778418	34.480449	-18.950174
45903		-9.805416	34.256579	-18.531344
45904		-9.851728	34.065217	-18.133500
45905		-9.907352	33.891656	-17.751151
45906		-9.954706	33.721643	-17.385382
45907		-9.984263	33.534151	-17.023419
45908		-9.985457	33.335899	-16.660821
45909		-9.965028	33.130715	-16.295582
45910		-9.921572	32.929452	-15.930793
45911		-9.869615	32.742066	-15.572159
45912		-9.815920	32.576696	-15.219208
45913		-9.763275	32.431166	-14.864590
45914		-9.723592	32.295127	-14.519379
45915		-9.719567	32.142311	-14.190486
45916		-9.736276	31.973468	-13.879122
45917		-9.768272	31.796307	-13.579096
45918		-9.812116	31.624429	-13.290291
45919		-9.867470	31.456609	-13.003720
45920		-9.916430	31.288993	-12.716978
45921		-9.955454	31.115741	-12.412808
45922		-9.990511	30.945229	-12.086828
45923		-10.034602	30.787171	-11.746395
45924		-10.079999	30.647880	-11.409761
45925		-10.136513	30.515685	-11.090871
45926		-10.211474	30.370726	-10.795539
45927		-10.287573	30.200430	-10.516057
45928		-10.347699	30.008392	-10.257217
45929		-10.379862	29.799842	-10.006091
45930		-10.380973	29.577626	-9.761043
45931		-10.362085	29.354454	-9.503978
45932		-10.310012	29.134533	-9.244842
45933		-10.226611	28.916682	-8.974871
45934		-10.152082	28.705747	-8.708112
45935		-10.085758	28.482730	-8.449899
45936		-10.031672	28.252304	-8.204989
45937		-9.985287	28.021245	-7.959746
45938		-9.951913	27.802393	-7.713397
45939		-9.932105	27.578032	-7.461298
45940		-9.913234	27.354554	-7.206265
45941		-9.893406	27.116752	-6.949162
45942		-9.860835	26.873618	-6.694314
45943		-9.820804	26.632895	-6.443548
45944		-9.778589	26.400703	-6.206210
45945		-9.748001	26.181100	-5.971814
45946		-9.729580	25.970433	-5.745032
45947		-9.717909	25.765981	-5.518550
45948		-9.711909	25.566976	-5.298213
45949		-9.708548	25.381000	-5.083002
45950		-9.718751	25.212319	-4.879939
45951		-9.741160	25.062219	-4.684234
45952		-9.760355	24.938953	-4.499455
45953		-9.775096	24.845270	-4.326663
45954		-9.773302	24.775228	-4.171000
45955		-9.759753	24.719803	-4.032052
45956		-9.735004	24.667099	-3.917544
45957		-9.711922	24.607376	-3.823825
45958		-9.694474	24.533295	-3.742795
45959		-9.680619	24.458109	-3.673626
45960		-9.673207	24.394604	-3.623574
45961		-9.672288	24.338852	-3.583763
45962		-9.681077	24.285234	-3.553910
45963		-9.702768	24.228733	-3.527822
45964		-9.723552	24.166520	-3.498744
45965		-9.756662	24.101395	-3.462366
45966		-9.817347	24.046500	-3.420522
45967		-9.903763	24.011581	-3.374275
45968		-10.015336	23.999958	-3.331884
45969		-10.150460	23.998028	-3.296534
45970		-10.288431	24.012035	-3.282374
45971		-10.411906	24.042980	-3.287623
45972		-10.509868	24.082870	-3.305574
45973		-10.591872	24.113652	-3.322615
45974		-10.647395	24.136109	-3.331943
45975		-10.690892	24.160192	-3.333799
45976		-10.729334	24.198861	-3.340644
45977		-10.765794	24.248000	-3.352213
45978		-10.794013	24.299026	-3.367348
45979		-10.794299	24.328301	-3.381022
45980		-10.765116	24.333310	-3.408108
45981		-10.713445	24.324171	-3.445060
45982		-10.634272	24.312119	-3.485384
45983		-10.544395	24.301321	-3.524696
45984		-10.463630	24.288179	-3.569510
45985		-10.392844	24.251998	-3.617784
45986		-10.335493	24.193382	-3.668045
45987		-10.301096	24.119591	-3.708639
45988		-10.285029	24.049080	-3.745010
45989		-10.286633	23.981097	-3.762276
45990		-10.316015	23.932337	-3.761661
45991		-10.368503	23.909568	-3.747774
45992		-10.442853	23.888716	-3.719895
45993		-10.530869	23.859431	-3.680159
45994		-10.623893	23.830086	-3.637005
45995		-10.727696	23.792661	-3.592722
45996		-10.834230	23.756940	-3.551357
45997		-10.937915	23.728092	-3.516979
45998		-11.032891	23.708181	-3.487877
45999		-11.101688	23.691955	-3.463878
46000		-11.142806	23.668609	-3.445890
46001		-11.161090	23.623853	-3.423657
46002		-11.159373	23.563344	-3.396211
46003		-11.158397	23.494966	-3.363184
46004		-11.156292	23.420835	-3.324075
46005		-11.165148	23.346800	-3.282047
46006		-11.170530	23.264665	-3.242319
46007		-11.163350	23.186228	-3.205734
46008		-11.136896	23.113485	-3.178069
46009		-11.100276	23.036827	-3.148264
46010		-11.059228	22.958550	-3.117560
46011		-11.028835	22.872395	-3.076855
46012		-11.008008	22.783851	-3.023425
46013		-10.994919	22.702358	-2.961477
46014		-11.007234	22.632666	-2.907223
46015		-11.041265	22.583598	-2.861601
46016		-11.083858	22.549233	-2.826699
46017		-11.125584	22.503645	-2.795017
46018		-11.157312	22.451678	-2.761018
46019		-11.179983	22.401771	-2.719312
46020		-11.180049	22.356912	-2.676861
46021		-11.163464	22.313866	-2.625812
46022		-11.149582	22.272956	-2.568906
46023		-11.128409	22.217134	-2.499788
46024		-11.101649	22.157917	-2.424047
46025		-11.083233	22.108549	-2.345398
46026		-11.083465	22.062712	-2.267197
46027		-11.073167	22.018350	-2.182754
46028		-11.075682	21.984222	-2.097729
46029		-11.083328	21.959108	-2.003722
46030		-11.100883	21.937855	-1.901455
46031		-11.131110	21.927802	-1.792338
46032		-11.174140	21.927887	-1.690069
46033		-11.210308	21.949392	-1.590209
46034		-11.226455	21.986248	-1.492579
46035		-11.229221	22.021647	-1.397172
46036		-11.211417	22.045131	-1.304003
46037		-11.163717	22.068438	-1.208199
46038		-11.083629	22.104881	-1.117106
46039		-10.954686	22.150362	-1.027049
46040		-10.791318	22.198828	-0.956901
46041		-10.616304	22.252041	-0.902570
46042		-10.412328	22.278436	-0.859073
46043		-10.175317	22.231000	-0.806905
46044		-9.936880	22.147058	-0.744499
46045		-9.712118	22.067078	-0.673637
46046		-9.525691	22.009442	-0.599645
46047		-9.391505	21.978232	-0.529442
46048		-9.288691	21.958092	-0.470770
46049		-9.210764	21.943060	-0.423747
46050		-9.163778	21.942768	-0.397667
46051		-9.142771	21.955874	-0.390417
46052		-9.155312	21.975895	-0.391681
46053		-9.194734	21.992468	-0.391064
46054		-9.252789	22.005076	-0.391089
46055		-9.348639	22.013989	-0.392040
46056		-9.461952	22.043869	-0.397415
46057		-9.592181	22.086143	-0.404794
46058		-9.729280	22.131160	-0.416456
46059		-9.852539	22.173361	-0.429462
46060		-9.964530	22.212402	-0.447225
46061		-10.052233	22.229306	-0.453225
46062		-10.118442	22.238746	-0.450377
46063		-10.160964	22.239582	-0.438479
46064		-10.165008	22.227023	-0.424164
46065		-10.141563	22.207560	-0.404783
46066		-10.083987	22.208664	-0.391867
46067		-10.009672	22.220890	-0.380539
46068		-9.948782	22.241018	-0.372908
46069		-9.899628	22.264869	-0.355921
46070		-9.864834	22.290234	-0.333907
46071		-9.840765	22.317427	-0.308498
46072		-9.838774	22.348656	-0.290067
46073		-9.842549	22.375190	-0.274252
46074		-9.852894	22.400186	-0.264446
46075		-9.869727	22.413461	-0.255311
46076		-9.885861	22.421349	-0.243574
46077		-9.901078	22.421623	-0.229939
46078		-9.910039	22.431845	-0.218379
46079		-9.908063	22.446481	-0.206091
46080		-9.897003	22.466185	-0.197163
46081		-9.886380	22.482660	-0.188703
46082		-9.883904	22.492102	-0.181500
46083		-9.891540	22.498100	-0.171584
46084		-9.899030	22.516098	-0.166312
46085		-9.907935	22.536563	-0.161198
46086		-9.919888	22.547698	-0.153538
46087		-9.940849	22.549297	-0.144800
46088		-9.957571	22.555989	-0.140829
46089		-9.960921	22.571190	-0.135585
46090		-9.962664	22.593979	-0.130139
46091		-9.957841	22.607902	-0.120029
46092		-9.949040	22.621281	-0.110782
46093		-9.951866	22.633472	-0.107561
46094		-9.963063	22.645173	-0.111266
46095		-9.992281	22.658116	-0.122662
46096		-10.030182	22.675144	-0.143348
46097		-10.068920	22.697538	-0.167033
46098		-10.108026	22.724521	-0.193085
46099		-10.149933	22.752375	-0.207804
46100		-10.201639	22.776303	-0.215281
46101		-10.253746	22.794847	-0.214696
46102		-10.296805	22.816708	-0.217350
46103		-10.325693	22.831225	-0.217946
46104		-10.335011	22.841602	-0.224209
46105		-10.331240	22.846405	-0.233432
46106		-10.323918	22.849306	-0.245764
46107		-10.319255	22.852537	-0.257276
46108		-10.317721	22.859122	-0.263671
46109		-10.317083	22.867258	-0.267793
46110		-10.309102	22.879586	-0.271585
46111		-10.306866	22.887115	-0.275290
46112		-10.309204	22.889916	-0.286643
46113		-10.328529	22.885828	-0.302908
46114		-10.362760	22.877715	-0.327584
46115		-10.404372	22.871409	-0.355975
46116		-10.450807	22.877101	-0.389407
46117		-10.506545	22.875275	-0.432987
46118		-10.559897	22.877157	-0.491666
46119		-10.620967	22.870867	-0.560488
46120		-10.705380	22.865839	-0.642839
46121		-10.811430	22.871354	-0.739709
46122		-10.953708	22.884383	-0.857968
46123		-11.114296	22.897951	-0.990381
46124		-11.276447	22.928850	-1.135036
46125		-11.442400	22.968837	-1.285667
46126		-11.622798	23.035751	-1.460508
46127		-11.810347	23.123987	-1.648086
46128		-12.009890	23.234435	-1.851509
46129		-12.208745	23.360491	-2.069228
46130		-12.368826	23.514397	-2.303086
46131		-12.476588	23.691509	-2.540064
46132		-12.529896	23.880465	-2.783144
46133		-12.527081	24.058502	-3.023951
46134		-12.505352	24.220611	-3.269302
46135		-12.497217	24.359970	-3.510021
46136		-12.506770	24.496684	-3.760025
46137		-12.547233	24.636570	-4.007375
46138		-12.655411	24.805866	-4.267002
46139		-12.779134	25.015342	-4.549526
46140		-12.885565	25.278228	-4.860051
46141		-12.987295	25.574230	-5.185067
46142		-13.082326	25.895458	-5.527724
46143		-13.160480	26.218189	-5.883970
46144		-13.224879	26.515765	-6.256739
46145		-13.310197	26.763227	-6.634667
46146		-13.427452	26.980133	-7.016928
46147		-13.553446	27.183403	-7.398612
46148		-13.683259	27.407922	-7.784203
46149		-13.805601	27.656218	-8.157112
46150		-13.929959	27.942496	-8.528051
46151		-14.045850	28.264629	-8.892652
46152		-14.182289	28.632157	-9.254064
46153		-14.330033	29.027611	-9.606905
46154		-14.448997	29.407300	-9.968222
46155		-14.543403	29.722188	-10.320502
46156		-14.633675	29.966078	-10.668972
46157		-14.721285	30.150554	-11.008257
46158		-14.821556	30.309110	-11.346423
46159		-14.931205	30.463093	-11.668988
46160		-15.040848	30.638033	-11.982010
46161		-15.137415	30.838948	-12.281010
46162		-15.218318	31.067085	-12.586353
46163		-15.286471	31.308372	-12.891930
46164		-15.363192	31.539280	-13.207131
46165		-15.462134	31.743947	-13.520844
46166		-15.588686	31.928775	-13.832386
46167		-15.735807	32.107232	-14.131169
46168		-15.894620	32.285803	-14.425298
46169		-16.058507	32.464978	-14.707853
46170		-16.214288	32.656580	-14.983734
46171		-16.350448	32.861222	-15.241603
46172		-16.470538	33.082532	-15.495512
46173		-16.561501	33.294374	-15.727452
46174		-16.637488	33.498227	-15.957805
46175		-16.697148	33.675934	-16.188220
46176		-16.739366	33.832103	-16.426655
46177		-16.769185	33.981232	-16.666809
46178		-16.801632	34.148467	-16.919585
46179		-16.831571	34.334988	-17.169501
46180		-16.851845	34.530553	-17.421834
46181		-16.862578	34.726584	-17.669552
46182		-16.862010	34.925355	-17.914789
46183		-16.859103	35.110246	-18.156445
46184		-16.866966	35.288301	-18.402896
46185		-16.893322	35.456029	-18.647791
46186		-16.929453	35.617114	-18.892811
46187		-16.959380	35.764919	-19.130456
46188		-16.984797	35.917977	-19.362576
46189		-17.013101	36.083636	-19.598379
46190		-17.032427	36.268169	-19.847570
46191		-17.047680	36.474354	-20.103038
46192		-17.079274	36.702822	-20.371524
46193		-17.130708	36.940927	-20.645431
46194		-17.193896	37.171771	-20.920466
46195		-17.270534	37.391055	-21.185797
46196		-17.362109	37.608045	-21.442353
46197		-17.455374	37.816695	-21.683596
46198		-17.554187	38.031782	-21.920801
46199		-17.667632	38.267750	-22.163807
46200		-17.767072	38.511416	-22.412679
46201		-17.848414	38.759010	-22.673705
46202		-17.919331	39.036194	-22.961711
46203		-17.941683	39.347313	-23.264006
46204		-17.865711	39.690186	-23.567899
46205		-17.662036	40.049298	-23.870207
46206		-17.390817	40.421235	-24.190670
46207		-17.099135	40.791147	-24.535958
46208		-16.779520	41.161112	-24.877863
46209		-16.442455	41.540296	-25.208647
46210		-16.116116	41.942327	-25.532575
46211		-15.796765	42.348944	-25.835135
46212		-15.489419	42.754410	-26.120748
46213		-15.192349	43.147522	-26.394333
46214		-14.919972	43.539738	-26.664409
46215		-14.667512	43.920571	-26.922617
46216		-14.450726	44.308587	-27.175000
46217		-14.272953	44.709462	-27.429953
46218		-14.145773	45.128328	-27.697729
46219		-14.061761	45.565869	-27.990480
46220		-13.981642	45.999181	-28.276474
46221		-13.908198	46.414600	-28.533504
46222		-13.829150	46.837524	-28.766651
46223		-13.766209	47.245453	-28.992360
46224		-13.780451	47.653038	-29.245367
46225		-13.838592	48.060167	-29.512017
46226		-13.936050	48.463605	-29.785504
46227		-14.066310	48.873450	-30.061638
46228		-14.219580	49.292614	-30.342041
46229		-14.372557	49.706179	-30.605261
46230		-14.514406	50.093000	-30.833369
46231		-14.669106	50.450551	-31.040699
46232		-14.851678	50.802211	-31.249502
46233		-15.039052	51.153614	-31.455790
46234		-15.202686	51.496695	-31.653011
46235		-15.325167	51.799937	-31.834324
46236		-15.379436	52.060727	-31.990468
46237		-15.378730	52.264766	-32.128854
46238		-15.365157	52.420701	-32.246100
46239		-15.359043	52.550809	-32.351678
46240		-15.350999	52.656419	-32.435083
46241		-15.337974	52.725699	-32.481367
46242		-15.313538	52.760027	-32.496507
46243		-15.290556	52.755811	-32.480660
46244		-15.286414	52.737664	-32.450286
46245		-15.293690	52.707950	-32.399809
46246		-15.322272	52.669831	-32.337363
46247		-15.374983	52.621810	-32.268430
46248		-15.459707	52.563106	-32.212470
46249		-15.589951	52.498111	-32.177864
46250		-15.776544	52.448029	-32.179717
46251		-16.008532	52.414531	-32.210624
46252		-16.277828	52.405186	-32.265889
46253		-16.553510	52.405923	-32.322139
46254		-16.821412	52.413951	-32.365892
46255		-17.067177	52.423285	-32.391210
46256		-17.272989	52.434473	-32.395968
46257		-17.417827	52.440935	-32.372443
46258		-17.498908	52.444402	-32.328720
46259		-17.544743	52.443551	-32.291104
46260		-17.580829	52.458089	-32.272844
46261		-17.610231	52.473798	-32.270792
46262		-17.627283	52.484147	-32.270598
46263		-17.621047	52.486857	-32.260752
46264		-17.602254	52.491300	-32.249699
46265		-17.554432	52.492545	-32.233489
46266		-17.483333	52.487670	-32.215424
46267		-17.399658	52.484383	-32.204672
46268		-17.307282	52.486891	-32.204108
46269		-17.227831	52.492024	-32.226078
46270		-17.161499	52.507200	-32.253603
46271		-17.086062	52.518764	-32.270282
46272		-16.989110	52.514441	-32.266137
46273		-16.889987	52.490492	-32.253546
46274		-16.787015	52.461604	-32.228658
46275		-16.672734	52.430523	-32.199527
46276		-16.555716	52.400696	-32.185005
46277		-16.428510	52.373352	-32.185580
46278		-16.289038	52.327185	-32.194249
46279		-16.144349	52.253856	-32.203797
46280		-16.018636	52.213084	-32.241413
46281		-15.948884	52.214168	-32.333016
46282		-15.927181	52.233192	-32.458252
46283		-15.919000	52.233635	-32.575529
46284		-15.897295	52.237789	-32.673277
46285		-15.890687	52.269912	-32.791479
46286		-15.914615	52.329571	-32.938958
46287		-15.961968	52.382112	-33.111409
46288		-16.020072	52.431771	-33.295234
46289		-16.074968	52.505963	-33.476193
46290		-16.135064	52.614108	-33.638111
46291		-16.205881	52.708739	-33.783045
46292		-16.252141	52.726250	-33.887271
46293		-16.283029	52.706785	-33.981834
46294		-16.308710	52.736634	-34.095320
46295		-16.344971	52.837713	-34.239691
46296		-16.399447	52.976261	-34.407164
46297		-16.458625	53.098917	-34.577706
46298		-16.491257	53.172327	-34.731159
46299		-16.489171	53.209495	-34.867679
46300		-16.449394	53.250181	-34.973921
46301		-16.379523	53.309745	-35.054922
46302		-16.286753	53.351080	-35.114006
46303		-16.176672	53.360645	-35.146454
46304		-16.046443	53.346273	-35.158706
46305		-15.900109	53.325439	-35.155414
46306		-15.773748	53.307515	-35.143845
46307		-15.662765	53.275915	-35.092164
46308		-15.561615	53.212154	-34.994864
46309		-15.485136	53.130656	-34.866238
46310		-15.429447	53.051365	-34.712532
46311		-15.398054	52.968670	-34.542615
46312		-15.392377	52.887924	-34.365278
46313		-15.408652	52.811149	-34.192046
46314		-15.448104	52.738320	-34.024768
46315		-15.511408	52.669555	-33.870717
46316		-15.597278	52.616744	-33.735472
46317		-15.709010	52.582253	-33.620067
46318		-15.858278	52.560830	-33.529392
46319		-16.018578	52.549198	-33.438187
46320		-16.180569	52.549127	-33.350279
46321		-16.333419	52.545978	-33.267534
46322		-16.475462	52.543275	-33.189370
46323		-16.602413	52.559266	-33.132786
46324		-16.719498	52.605587	-33.104357
46325		-16.826357	52.658585	-33.103767
46326		-16.912595	52.713026	-33.110302
46327		-16.966692	52.761664	-33.118364
46328		-17.002250	52.802262	-33.131835
46329		-17.028322	52.834946	-33.153032
46330		-17.059349	52.868858	-33.185410
46331		-17.087650	52.894705	-33.223872
46332		-17.118493	52.919247	-33.266814
46333		-17.154109	52.955380	-33.304841
46334		-17.204990	53.001294	-33.346287
46335		-17.257453	53.047641	-33.386793
46336		-17.300383	53.090495	-33.426704
46337		-17.326937	53.120868	-33.459165
46338		-17.345823	53.136265	-33.482602
46339		-17.365166	53.141620	-33.500306
46340		-17.392170	53.144708	-33.519770
46341		-17.427503	53.139708	-33.545525
46342		-17.475123	53.132855	-33.582907
46343		-17.526606	53.122795	-33.623874
46344		-17.581682	53.107815	-33.671204
46345		-17.629689	53.083104	-33.724014
46346		-17.657750	53.046127	-33.770519
46347		-17.659446	52.997912	-33.814633
46348		-17.645114	52.946549	-33.854391
46349		-17.624157	52.901686	-33.903740
46350		-17.596705	52.864769	-33.952996
46351		-17.565381	52.837911	-34.008235
46352		-17.527001	52.825325	-34.075154
46353		-17.480911	52.812838	-34.151048
46354		-17.432209	52.791284	-34.229438
46355		-17.383610	52.755669	-34.297458
46356		-17.316511	52.700487	-34.342794
46357		-17.229232	52.626840	-34.383260
46358		-17.149065	52.540588	-34.440443
46359		-17.082024	52.458314	-34.525823
46360		-17.022195	52.395991	-34.645501
46361		-16.958899	52.341484	-34.771875
46362		-16.892522	52.273367	-34.888249
46363		-16.824749	52.163433	-34.977155
46364		-16.762758	52.012513	-35.036319
46365		-16.719615	51.823874	-35.079804
46366		-16.685440	51.612466	-35.108403
46367		-16.668249	51.388532	-35.124713
46368		-16.665147	51.155659	-35.129876
46369		-16.664694	50.916309	-35.121868
46370		-16.670053	50.672790	-35.110114
46371		-16.681244	50.429955	-35.113431
46372		-16.697949	50.189874	-35.130096
46373		-16.709630	49.945799	-35.142208
46374		-16.692225	49.697512	-35.126963
46375		-16.649850	49.439621	-35.080751
46376		-16.607001	49.188845	-35.019666
46377		-16.576557	48.941843	-34.951751
46378		-16.549611	48.689038	-34.855291
46379		-16.513456	48.430176	-34.735261
46380		-16.453401	48.170036	-34.596585
46381		-16.372529	47.894709	-34.433805
46382		-16.285257	47.617542	-34.262195
46383		-16.189062	47.336390	-34.075107
46384		-16.077880	47.053600	-33.870067
46385		-15.958838	46.765593	-33.653726
46386		-15.829362	46.473852	-33.429645
46387		-15.692772	46.177917	-33.182743
46388		-15.570800	45.883029	-32.924994
46389		-15.467617	45.579729	-32.657317
46390		-15.393543	45.274257	-32.395098
46391		-15.338549	44.972502	-32.143589
46392		-15.297625	44.688468	-31.898482
46393		-15.262380	44.422642	-31.653616
46394		-15.229730	44.163379	-31.397861
46395		-15.185687	43.906815	-31.119995
46396		-15.130673	43.657080	-30.833443
46397		-15.079129	43.405867	-30.534641
46398		-15.039234	43.148213	-30.228865
46399		-15.000284	42.873216	-29.906298
46400		-14.949855	42.578068	-29.563020
46401		-14.886168	42.271390	-29.189280
46402		-14.804300	41.961102	-28.778967
46403		-14.700005	41.636148	-28.335172
46404		-14.589057	41.284587	-27.867631
46405		-14.481508	40.885125	-27.414647
46406		-14.413801	40.510776	-26.948891
46407		-14.374797	40.157888	-26.490130
46408		-14.346531	39.828504	-26.027312
46409		-14.315203	39.517809	-25.551614
46410		-14.273924	39.220083	-25.063858
46411		-14.233778	38.921192	-24.570489
46412		-14.195153	38.626192	-24.080241
46413		-14.158770	38.329954	-23.591800
46414		-14.107117	38.035894	-23.095918
46415		-14.045172	37.740446	-22.594211
46416		-13.994565	37.449855	-22.101413
46417		-13.961957	37.167192	-21.630096
46418		-13.951888	36.885993	-21.186508
46419		-13.964999	36.609434	-20.768111
46420		-13.978494	36.336569	-20.365442
46421		-13.953949	36.063723	-19.955813
46422		-13.881176	35.793386	-19.528311
46423		-13.723487	35.526281	-19.045180
46424		-13.509833	35.281744	-18.502967
46425		-13.323792	35.056314	-17.925088
46426		-13.210539	34.840401	-17.352835
46427		-13.154861	34.657884	-16.799391
46428		-13.121376	34.507587	-16.272447
46429		-13.121593	34.370329	-15.770192
46430		-13.173249	34.248465	-15.288308
46431		-13.243667	34.160684	-14.825804
46432		-13.313693	34.110048	-14.376025
46433		-13.401055	34.081193	-13.939722
46434		-13.479604	34.050365	-13.523311
46435		-13.544599	33.987976	-13.110752
46436		-13.612146	33.885651	-12.704781
46437		-13.683200	33.733717	-12.299261
46438		-13.748841	33.545743	-11.913055
46439		-13.809138	33.326941	-11.539054
46440		-13.860835	33.100979	-11.183566
46441		-13.876039	32.882695	-10.836273
46442		-13.856426	32.682423	-10.477330
46443		-13.806631	32.496818	-10.113943
46444		-13.672279	32.309724	-9.745632
46445		-13.471100	32.120037	-9.380599
46446		-13.202119	31.895413	-9.025841
46447		-12.899456	31.641567	-8.674220
46448		-12.578780	31.372814	-8.323085
46449		-12.255446	31.082849	-7.971720
46450		-11.952735	30.774346	-7.619312
46451		-11.680915	30.466837	-7.257060
46452		-11.414621	30.179163	-6.903234
46453		-11.161899	29.919662	-6.565328
46454		-10.945190	29.708800	-6.256728
46455		-10.758084	29.536168	-5.966981
46456		-10.641215	29.380647	-5.699372
46457		-10.577336	29.214989	-5.462050
46458		-10.536332	29.025677	-5.250462
46459		-10.560000	28.810535	-5.048757
46460		-10.634840	28.593296	-4.861216
46461		-10.729163	28.400545	-4.668967
46462		-10.839975	28.244260	-4.474636
46463		-10.919884	28.110482	-4.277614
46464		-10.996710	27.991341	-4.080148
46465		-11.058037	27.855252	-3.893678
46466		-11.089635	27.705325	-3.719834
46467		-11.111965	27.538718	-3.535153
46468		-11.142080	27.375811	-3.356134
46469		-11.160984	27.228838	-3.176230
46470		-11.167862	27.113286	-3.012125
46471		-11.140534	27.009968	-2.850596
46472		-11.080781	26.907964	-2.694921
46473		-10.982182	26.802593	-2.535496
46474		-10.851294	26.691731	-2.373045
46475		-10.693626	26.568425	-2.207038
46476		-10.520521	26.439468	-2.037861
46477		-10.355423	26.302875	-1.858052
46478		-10.205970	26.172330	-1.682635
46479		-10.040040	26.062813	-1.509893
46480		-9.885777	25.967199	-1.341532
46481		-9.729108	25.869741	-1.183951
46482		-9.563893	25.749025	-1.037396
46483		-9.399061	25.604295	-0.889609
46484		-9.260234	25.442250	-0.733644
46485		-9.139195	25.294644	-0.581316
46486		-9.034545	25.178996	-0.432113
46487		-8.943470	25.077841	-0.287767
46488		-8.877022	24.990436	-0.159461
46489		-8.828453	24.928432	-0.048583
46490		-8.802148	24.888864	0.041700
46491		-8.799127	24.855855	0.107703
46492		-8.812632	24.816825	0.163268
46493		-8.852984	24.763483	0.223563
46494		-8.909038	24.719174	0.282901
46495		-8.984805	24.692888	0.342920
46496		-9.067394	24.682700	0.383377
46497		-9.155766	24.675354	0.406707
46498		-9.235932	24.665741	0.412668
46499		-9.298172	24.643287	0.413621
46500		-9.344596	24.616559	0.403554
46501		-9.374583	24.587756	0.396587
46502		-9.392985	24.563900	0.389746
46503		-9.399741	24.527728	0.385818
46504		-9.401636	24.481284	0.381156
46505		-9.408949	24.418059	0.380308
46506		-9.424635	24.351720	0.374452
46507		-9.457429	24.287325	0.366183
46508		-9.505597	24.235293	0.355483
46509		-9.564611	24.188982	0.339176
46510		-9.613703	24.142376	0.326202
46511		-9.650664	24.098792	0.319543
46512		-9.676719	24.061788	0.331468
46513		-9.690134	24.029301	0.360864
46514		-9.681977	24.007696	0.391762
46515		-9.652205	23.989375	0.415921
46516		-9.604910	23.970074	0.429745
46517		-9.540964	23.946058	0.438750
46518		-9.454161	23.922925	0.452698
46519		-9.353879	23.914474	0.476438
46520		-9.237225	23.917392	0.508220
46521		-9.112075	23.914771	0.545998
46522		-8.984041	23.910814	0.577511
46523		-8.866759	23.898242	0.606730
46524		-8.779725	23.878132	0.635085
46525		-8.728705	23.846595	0.667850
46526		-8.717110	23.806459	0.692664
46527		-8.755653	23.755705	0.712812
46528		-8.812656	23.702325	0.720724
46529		-8.859202	23.656321	0.725122
46530		-8.896372	23.618884	0.727167
46531		-8.920666	23.578727	0.725125
46532		-8.922334	23.541385	0.714579
46533		-8.896529	23.485547	0.708025
46534		-8.843743	23.419231	0.701446
46535		-8.770510	23.339823	0.701092
46536		-8.689165	23.256576	0.702700
46537		-8.604981	23.179075	0.711597
46538		-8.534973	23.110172	0.720646
46539		-8.471949	23.049171	0.735455
46540		-8.430054	22.992263	0.747523
46541		-8.425176	22.942155	0.762743
46542		-8.442485	22.916506	0.775863
46543		-8.463583	22.907786	0.791371
46544		-8.487136	22.913144	0.809748
46545		-8.510131	22.913761	0.832462
46546		-8.532210	22.914724	0.854217
46547		-8.566047	22.923206	0.868463
46548		-8.606988	22.941382	0.882332
46549		-8.654401	22.956136	0.899563
46550		-8.701960	22.970906	0.909725
46551		-8.746562	22.970648	0.918765
46552		-8.798325	22.945197	0.928628
46553		-8.854592	22.906975	0.944516
46554		-8.915509	22.867999	0.959855
46555		-8.979377	22.834201	0.977447
46556		-9.039137	22.803561	0.988119
46557		-9.089583	22.757556	1.003275
46558		-9.129648	22.697963	1.013858
46559		-9.154210	22.637417	1.021703
46560		-9.167689	22.578530	1.024561
46561		-9.175153	22.516049	1.030652
46562		-9.174068	22.449161	1.043640
46563		-9.161504	22.367328	1.062342
46564		-9.136322	22.280402	1.081118
46565		-9.116558	22.208934	1.095836
46566		-9.098820	22.152861	1.107345
46567		-9.092490	22.112163	1.120012
46568		-9.081851	22.078414	1.132399
46569		-9.069500	22.041899	1.150329
46570		-9.054683	22.011109	1.177372
46571		-9.065355	22.000767	1.211904
46572		-9.093983	22.016418	1.252912
46573		-9.148828	22.066273	1.286871
46574		-9.223653	22.147766	1.316353
46575		-9.307860	22.247130	1.341951
46576		-9.394567	22.354644	1.365481
46577		-9.469347	22.466734	1.388641
46578		-9.526695	22.576265	1.409775
46579		-9.566174	22.670153	1.437009
46580		-9.568247	22.750934	1.467754
46581		-9.521686	22.820401	1.497077
46582		-9.427029	22.887696	1.514205
46583		-9.290176	22.944158	1.520821
46584		-9.143974	22.978565	1.518216
46585		-8.981961	22.990515	1.518247
46586		-8.805629	22.998684	1.524147
46587		-8.622845	23.016435	1.533254
46588		-8.437785	23.044361	1.541262
46589		-8.276623	23.067070	1.544157
46590		-8.156558	23.082478	1.546216
46591		-8.086188	23.092872	1.551274
46592		-8.060707	23.104717	1.563664
46593		-8.075408	23.116127	1.588222
46594		-8.106945	23.131353	1.622029
46595		-8.153256	23.150677	1.654830
46596		-8.211105	23.171051	1.683054
46597		-8.288075	23.194623	1.703419
46598		-8.357604	23.222369	1.714529
46599		-8.410015	23.249943	1.718342
46600		-8.446402	23.273439	1.718559
46601		-8.463974	23.285628	1.719585
46602		-8.449893	23.296259	1.719223
46603		-8.411431	23.307009	1.724256
46604		-8.357192	23.322154	1.729227
46605		-8.295372	23.336884	1.738792
46606		-8.240572	23.353142	1.742555
46607		-8.186630	23.368742	1.740930
46608		-8.146553	23.391265	1.735957
46609		-8.126418	23.416364	1.730984
46610		-8.123372	23.447703	1.723291
46611		-8.140209	23.469010	1.719265
46612		-8.174775	23.485234	1.715711
46613		-8.218113	23.489188	1.713455
46614		-8.270596	23.494109	1.707958
46615		-8.315179	23.495983	1.697119
46616		-8.346386	23.508486	1.672945
46617		-8.360971	23.529977	1.639233
46618		-8.366650	23.563272	1.588503
46619		-8.380328	23.601530	1.528408
46620		-8.398866	23.641683	1.457227
46621		-8.424533	23.681031	1.374981
46622		-8.455815	23.727245	1.272465
46623		-8.493058	23.780764	1.149088
46624		-8.554516	23.846679	0.987337
46625		-8.632363	23.940203	0.789156
46626		-8.713047	24.076118	0.552219
46627		-8.785552	24.244080	0.279024
46628		-8.853167	24.441821	-0.023612
46629		-8.884747	24.673901	-0.328562
46630		-8.936316	24.934933	-0.597077
46631		-9.080226	25.223826	-0.825096
46632		-9.257449	25.534069	-1.060844
46633		-9.442425	25.865301	-1.322804
46634		-9.676759	26.193025	-1.612308
46635		-9.981048	26.500443	-1.921166
46636		-10.347513	26.787438	-2.255922
46637		-10.752375	27.065921	-2.620588
46638		-11.169792	27.353718	-3.023364
46639		-11.556387	27.651228	-3.451425
46640		-11.873615	27.945764	-3.891840
46641		-12.134942	28.213618	-4.320826
46642		-12.368983	28.469895	-4.730630
46643		-12.584989	28.739880	-5.124382
46644		-12.787512	29.050584	-5.525605
46645		-12.991932	29.391037	-5.939859
46646		-13.195382	29.756694	-6.376702
46647		-13.393330	30.142570	-6.833470
46648		-13.585859	30.556913	-7.316460
46649		-13.773892	30.988561	-7.811150
46650		-13.951026	31.429888	-8.315374
46651		-14.103176	31.860830	-8.808054
46652		-14.243307	32.273321	-9.294162
46653		-14.379537	32.654105	-9.761648
46654		-14.513843	33.001777	-10.208066
46655		-14.641619	33.315218	-10.631135
46656		-14.788918	33.616911	-11.037294
46657		-14.939471	33.896307	-11.410332
46658		-15.083431	34.158936	-11.761375
46659		-15.214989	34.407221	-12.083164
46660		-15.332277	34.663080	-12.392435
46661		-15.427922	34.917369	-12.688382
46662		-15.518787	35.160413	-12.987240
46663		-15.621768	35.372130	-13.293897
46664		-15.751406	35.550223	-13.614559
46665		-15.902731	35.696452	-13.938891
46666		-16.057799	35.819230	-14.266392
46667		-16.196023	35.915783	-14.576447
46668		-16.322369	36.003838	-14.868921
46669		-16.466443	36.102614	-15.158702
46670		-16.631231	36.228891	-15.459098
46671		-16.821688	36.381923	-15.772694
46672		-17.042694	36.551102	-16.101484
46673		-17.271606	36.711792	-16.429506
46674		-17.468787	36.851210	-16.739856
46675		-17.622522	36.977866	-17.028681
46676		-17.748502	37.111764	-17.312607
46677		-17.873239	37.259576	-17.603281
46678		-17.977992	37.418326	-17.891971
46679		-18.072697	37.579324	-18.188658
46680		-18.174900	37.762713	-18.505109
46681		-18.298621	37.973644	-18.838609
46682		-18.422214	38.209759	-19.182084
46683		-18.538637	38.459713	-19.522791
46684		-18.633895	38.718569	-19.860938
46685		-18.701895	38.969303	-20.185635
46686		-18.758871	39.210793	-20.510136
46687		-18.807292	39.458267	-20.841119
46688		-18.863793	39.721963	-21.179445
46689		-18.937709	39.994155	-21.521953
46690		-19.034636	40.272912	-21.875016
46691		-19.142055	40.548143	-22.224177
46692		-19.258626	40.820492	-22.570226
46693		-19.368275	41.087274	-22.904946
46694		-19.480905	41.362335	-23.234758
46695		-19.584472	41.632862	-23.557271
46696		-19.675871	41.894719	-23.883197
46697		-19.773672	42.140072	-24.219578
46698		-19.883610	42.386993	-24.585614
46699		-19.986284	42.646360	-24.977785
46700		-20.084728	42.918527	-25.380817
46701		-20.184379	43.193949	-25.782113
46702		-20.268283	43.475335	-26.182524
46703		-20.316930	43.749876	-26.569258
46704		-20.323333	44.014814	-26.940307
46705		-20.295792	44.263990	-27.300342
46706		-20.266793	44.506704	-27.676549
46707		-20.249003	44.768280	-28.079877
46708		-20.267677	45.051662	-28.515529
46709		-20.319727	45.350693	-28.937765
46710		-20.372083	45.659449	-29.343164
46711		-20.408513	45.957085	-29.717867
46712		-20.462997	46.244257	-30.073540
46713		-20.548559	46.551311	-30.422775
46714		-20.660957	46.887649	-30.770427
46715		-20.805721	47.223983	-31.120205
46716		-20.947763	47.556319	-31.455557
46717		-21.046529	47.865368	-31.763828
46718		-21.119619	48.155198	-32.061691
46719		-21.191171	48.420706	-32.352845
46720		-21.285174	48.682910	-32.648084
46721		-21.382822	48.948789	-32.938538
46722		-21.476661	49.215723	-33.221289
46723		-21.556378	49.456809	-33.474372
46724		-21.598911	49.682280	-33.708829
46725		-21.581139	49.879878	-33.902855
46726		-21.520283	50.052421	-34.067448
46727		-21.454270	50.227725	-34.234709
46728		-21.408554	50.412267	-34.413706
46729		-21.404259	50.594712	-34.602601
46730		-21.439003	50.765800	-34.794745
46731		-21.496408	50.922431	-34.988764
46732		-21.563140	51.059492	-35.174801
46733		-21.647918	51.194716	-35.360771
46734		-21.738885	51.338633	-35.543005
46735		-21.843209	51.474329	-35.713229
46736		-21.957753	51.600079	-35.870689
46737		-22.083161	51.707249	-36.007043
46738		-22.214191	51.797210	-36.113540
46739		-22.328187	51.874687	-36.180076
46740		-22.423713	51.937387	-36.210400
46741		-22.510792	51.985264	-36.204792
46742		-22.575765	52.009916	-36.169586
46743		-22.616189	52.007964	-36.111486
46744		-22.641012	51.989458	-36.045765
46745		-22.670787	51.968896	-36.001165
46746		-22.719774	51.956203	-35.988366
46747		-22.794633	51.947959	-36.004474
46748		-22.896751	51.933892	-36.040902
46749		-23.018276	51.920967	-36.106136
46750		-23.149601	51.920469	-36.189972
46751		-23.284110	51.925908	-36.283482
46752		-23.412054	51.938452	-36.376010
46753		-23.535327	51.951290	-36.457260
46754		-23.646469	51.963437	-36.522850
46755		-23.738732	51.977564	-36.561303
46756		-23.822007	51.995302	-36.584542
46757		-23.895321	52.015364	-36.607850
46758		-23.947930	52.036124	-36.628521
46759		-23.988585	52.044804	-36.645360
46760		-24.017765	52.050871	-36.663464
46761		-24.031442	52.061550	-36.680842
46762		-24.026004	52.072944	-36.692849
46763		-24.011710	52.090948	-36.704618
46764		-23.986450	52.119570	-36.724706
46765		-23.946215	52.156799	-36.748843
46766		-23.868791	52.179638	-36.747745
46767		-23.738253	52.179933	-36.715386
46768		-23.579729	52.179884	-36.671039
46769		-23.414529	52.182767	-36.624918
46770		-23.268258	52.195710	-36.592970
46771		-23.138213	52.202552	-36.566451
46772		-23.026995	52.206047	-36.542861
46773		-22.934881	52.202227	-36.529700
46774		-22.851444	52.191962	-36.521379
46775		-22.775890	52.178235	-36.517907
46776		-22.687975	52.167548	-36.508555
46777		-22.591658	52.155886	-36.498854
46778		-22.484864	52.141971	-36.479849
46779		-22.363886	52.112240	-36.459436
46780		-22.253906	52.076928	-36.439906
46781		-22.131270	52.017965	-36.401967
46782		-22.021900	51.937212	-36.361026
46783		-21.937740	51.877422	-36.338425
46784		-21.900040	51.842996	-36.350003
46785		-21.873152	51.779761	-36.347655
46786		-21.823166	51.677623	-36.320963
46787		-21.760205	51.584832	-36.286020
46788		-21.707545	51.548738	-36.265515
46789		-21.648058	51.554435	-36.240303
46790		-21.566487	51.576284	-36.210614
46791		-21.476255	51.576718	-36.163379
46792		-21.384537	51.548231	-36.108613
46793		-21.300291	51.517098	-36.059046
46794		-21.216219	51.502397	-36.010901
46795		-21.140937	51.492668	-35.968401
46796		-21.060324	51.471422	-35.927797
46797		-20.984937	51.436757	-35.903871
46798		-20.917502	51.411119	-35.898722
46799		-20.851147	51.399965	-35.907844
46800		-20.788009	51.389051	-35.921273
46801		-20.719093	51.352052	-35.933254
46802		-20.666182	51.294857	-35.945554
46803		-20.642503	51.245974	-35.954094
46804		-20.653573	51.215158	-35.934661
46805		-20.690511	51.194199	-35.879627
46806		-20.737825	51.183591	-35.790916
46807		-20.815602	51.186826	-35.703870
46808		-20.935848	51.204832	-35.638243
46809		-21.078891	51.235694	-35.594372
46810		-21.220348	51.271917	-35.562059
46811		-21.337337	51.308240	-35.533235
46812		-21.422726	51.339617	-35.501638
46813		-21.473314	51.350542	-35.464494
46814		-21.498159	51.360483	-35.424909
46815		-21.499159	51.375689	-35.380226
46816		-21.487357	51.400412	-35.337690
46817		-21.459564	51.432645	-35.292256
46818		-21.421179	51.472234	-35.255171
46819		-21.374709	51.515232	-35.230209
46820		-21.322007	51.563421	-35.220638
46821		-21.262355	51.608813	-35.217883
46822		-21.206216	51.648036	-35.215946
46823		-21.160269	51.683734	-35.215255
46824		-21.117422	51.721530	-35.205671
46825		-21.065587	51.755448	-35.174129
46826		-21.006810	51.788441	-35.126870
46827		-20.941107	51.813273	-35.065961
46828		-20.881711	51.825450	-35.006802
46829		-20.829024	51.829384	-34.946083
46830		-20.787914	51.834648	-34.892664
46831		-20.753881	51.836679	-34.837332
46832		-20.722419	51.834681	-34.787089
46833		-20.693227	51.826756	-34.744642
46834		-20.659262	51.818990	-34.715407
46835		-20.617238	51.804209	-34.690297
46836		-20.574406	51.794941	-34.672004
46837		-20.524321	51.793295	-34.648684
46838		-20.478206	51.799855	-34.622448
46839		-20.430805	51.804509	-34.593816
46840		-20.389835	51.805054	-34.568537
46841		-20.356622	51.796189	-34.557908
46842		-20.318270	51.776333	-34.561856
46843		-20.284046	51.746714	-34.586413
46844		-20.246185	51.718812	-34.616657
46845		-20.218787	51.693451	-34.667977
46846		-20.176528	51.663542	-34.726764
46847		-20.117943	51.613246	-34.788653
46848		-20.042917	51.552764	-34.860674
46849		-19.932479	51.482155	-34.939915
46850		-19.801076	51.399306	-35.029292
46851		-19.661433	51.315731	-35.121183
46852		-19.511400	51.225374	-35.210886
46853		-19.356812	51.107569	-35.298759
46854		-19.213953	50.973247	-35.387151
46855		-19.091860	50.842439	-35.486682
46856		-18.981200	50.713563	-35.580535
46857		-18.837330	50.562932	-35.636529
46858		-18.662615	50.390925	-35.658673
46859		-18.492854	50.222172	-35.681521
46860		-18.350388	50.047462	-35.705554
46861		-18.248360	49.838960	-35.730287
46862		-18.170617	49.589770	-35.748029
46863		-18.096105	49.300397	-35.744700
46864		-18.019446	48.987544	-35.718123
46865		-17.938634	48.674018	-35.664550
46866		-17.853446	48.370411	-35.583056
46867		-17.773179	48.079404	-35.486498
46868		-17.704261	47.800620	-35.381916
46869		-17.657175	47.531538	-35.286721
46870		-17.621302	47.264390	-35.182952
46871		-17.574880	46.994312	-35.051031
46872		-17.503534	46.731570	-34.887859
46873		-17.408034	46.466084	-34.696218
46874		-17.306883	46.200990	-34.490445
46875		-17.190312	45.934410	-34.268627
46876		-17.074727	45.659257	-34.046812
46877		-16.958028	45.390864	-33.808328
46878		-16.840567	45.128156	-33.559481
46879		-16.713097	44.857186	-33.293145
46880		-16.569636	44.577178	-33.007590
46881		-16.409956	44.305836	-32.715998
46882		-16.229128	44.042978	-32.414344
46883		-16.050119	43.773849	-32.108955
46884		-15.864720	43.494151	-31.796506
46885		-15.667927	43.207382	-31.479844
46886		-15.462285	42.919407	-31.150337
46887		-15.255316	42.617757	-30.811323
46888		-15.053558	42.300611	-30.460366
46889		-14.848355	41.951874	-30.116346
46890		-14.680402	41.647770	-29.750629
46891		-14.529882	41.371779	-29.377180
46892		-14.396328	41.091811	-28.982086
46893		-14.284002	40.790369	-28.567537
46894		-14.197926	40.486730	-28.148447
46895		-14.137537	40.195512	-27.741781
46896		-14.101011	39.921483	-27.348620
46897		-14.090821	39.664856	-26.966034
46898		-14.093430	39.433974	-26.592004
46899		-14.101002	39.222120	-26.224573
46900		-14.113022	39.009891	-25.861723
46901		-14.129722	38.786936	-25.496366
46902		-14.138409	38.548927	-25.117787
46903		-14.138104	38.300717	-24.735934
46904		-14.126391	38.066364	-24.346906
46905		-14.107557	37.844460	-23.954672
46906		-14.086948	37.624196	-23.559376
46907		-14.055203	37.392946	-23.159076
46908		-14.014000	37.151245	-22.762727
46909		-13.961008	36.902782	-22.375832
46910		-13.903266	36.663646	-22.009876
46911		-13.830584	36.439744	-21.662495
46912		-13.734469	36.227268	-21.335908
46913		-13.611029	36.024843	-21.025769
46914		-13.463087	35.823293	-20.722618
46915		-13.308899	35.620363	-20.424766
46916		-13.143940	35.413240	-20.123961
46917		-12.991067	35.199337	-19.821400
46918		-12.852796	34.984632	-19.511987
46919		-12.738230	34.755367	-19.199242
46920		-12.659596	34.505146	-18.892569
46921		-12.615033	34.260017	-18.591516
46922		-12.596587	34.030312	-18.296156
46923		-12.584682	33.812313	-17.995926
46924		-12.583043	33.595386	-17.695383
46925		-12.581503	33.373386	-17.384464
46926		-12.577307	33.156117	-17.068383
46927		-12.559003	32.927701	-16.720939
46928		-12.509058	32.691294	-16.325399
46929		-12.485390	32.455387	-15.873141
46930		-12.554168	32.217446	-15.369675
46931		-12.705145	32.018695	-14.845099
46932		-12.927300	31.871870	-14.326707
46933		-13.206763	31.767108	-13.839136
46934		-13.473733	31.672089	-13.381947
46935		-13.686345	31.554677	-12.948091
46936		-13.850668	31.418985	-12.540942
46937		-13.958026	31.278921	-12.166328
46938		-14.022888	31.122738	-11.824733
46939		-14.101973	30.957353	-11.508317
46940		-14.197000	30.791313	-11.215717
46941		-14.273766	30.619467	-10.943171
46942		-14.328510	30.436555	-10.678244
46943		-14.347756	30.234138	-10.407687
46944		-14.296195	30.003124	-10.134408
46945		-14.182904	29.752041	-9.857729
46946		-14.022663	29.490457	-9.588446
46947		-13.799530	29.222494	-9.322775
46948		-13.529732	28.963369	-9.049082
46949		-13.289713	28.715196	-8.764766
46950		-13.092348	28.487226	-8.490011
46951		-12.910820	28.273580	-8.229949
46952		-12.760001	28.057276	-7.988952
46953		-12.642350	27.836030	-7.753727
46954		-12.557879	27.625939	-7.527192
46955		-12.508349	27.430488	-7.295152
46956		-12.490644	27.255141	-7.048039
46957		-12.491135	27.085729	-6.778202
46958		-12.505091	26.924496	-6.496481
46959		-12.527968	26.772283	-6.208123
46960		-12.576148	26.638150	-5.928807
46961		-12.647841	26.524783	-5.668151
46962		-12.712451	26.430171	-5.440448
46963		-12.755389	26.342282	-5.233682
46964		-12.781138	26.243989	-5.048222
46965		-12.790681	26.159103	-4.875484
46966		-12.786031	26.078133	-4.708964
46967		-12.745607	25.962652	-4.524820
46968		-12.691949	25.821740	-4.328844
46969		-12.624088	25.677047	-4.126535
46970		-12.571901	25.550805	-3.937123
46971		-12.532834	25.438482	-3.767675
46972		-12.511266	25.340240	-3.618211
46973		-12.473273	25.236146	-3.479335
46974		-12.423733	25.116714	-3.338902
46975		-12.389307	24.980463	-3.191619
46976		-12.373970	24.852693	-3.052554
46977		-12.399011	24.749467	-2.930364
46978		-12.453878	24.675552	-2.822281
46979		-12.519577	24.602181	-2.719995
46980		-12.549739	24.522779	-2.599050
46981		-12.557034	24.445055	-2.458561
46982		-12.567814	24.380616	-2.318258
46983		-12.584192	24.323355	-2.192521
46984		-12.596064	24.288847	-2.094692
46985		-12.574438	24.279146	-2.022077
46986		-12.537223	24.305940	-1.979662
46987		-12.482018	24.363338	-1.964690
46988		-12.408012	24.432270	-1.978475
46989		-12.332592	24.484582	-1.999472
46990		-12.253242	24.526490	-2.027110
46991		-12.170303	24.569061	-2.060836
46992		-12.099237	24.610889	-2.102506
46993		-12.042631	24.659490	-2.140415
46994		-12.026843	24.707041	-2.174148
46995		-12.025948	24.736263	-2.204159
46996		-12.032818	24.750168	-2.233931
46997		-12.056390	24.753517	-2.265278
46998		-12.100418	24.750646	-2.294269
46999		-12.166945	24.746130	-2.312744
47000		-12.249931	24.739309	-2.322110
47001		-12.330663	24.724919	-2.319913
47002		-12.408559	24.696983	-2.313565
47003		-12.471238	24.660812	-2.306634
47004		-12.518009	24.621247	-2.307832
47005		-12.564771	24.588479	-2.326339
47006		-12.599873	24.558047	-2.357260
47007		-12.610230	24.523775	-2.396103
47008		-12.584424	24.492762	-2.432519
47009		-12.534136	24.464981	-2.455530
47010		-12.469707	24.447951	-2.473722
47011		-12.406396	24.435130	-2.487397
47012		-12.351439	24.418929	-2.499282
47013		-12.301026	24.408115	-2.508682
47014		-12.229848	24.393356	-2.508386
47015		-12.155603	24.375194	-2.499972
47016		-12.087204	24.355611	-2.490458
47017		-12.020425	24.335424	-2.475903
47018		-11.958032	24.311736	-2.459609
47019		-11.894421	24.272507	-2.435444
47020		-11.829853	24.216775	-2.405701
47021		-11.769910	24.151978	-2.365511
47022		-11.721082	24.086320	-2.314750
47023		-11.680627	24.018490	-2.258666
47024		-11.667994	23.962080	-2.208144
47025		-11.674976	23.912090	-2.160606
47026		-11.679431	23.869067	-2.110934
47027		-11.691472	23.830031	-2.061304
47028		-11.695721	23.789922	-2.021238
47029		-11.682001	23.750044	-1.983376
47030		-11.662392	23.714112	-1.943077
47031		-11.639020	23.671268	-1.903254
47032		-11.598873	23.625431	-1.868616
47033		-11.548462	23.574323	-1.836838
47034		-11.491922	23.524429	-1.813084
47035		-11.415745	23.470299	-1.797170
47036		-11.321953	23.411670	-1.788817
47037		-11.201508	23.342529	-1.777519
47038		-11.056402	23.273687	-1.760582
47039		-10.908257	23.191600	-1.730663
47040		-10.765769	23.095889	-1.706732
47041		-10.632747	22.995210	-1.696572
47042		-10.513752	22.912436	-1.691310
47043		-10.400910	22.839194	-1.687321
47044		-10.278644	22.775459	-1.681403
47045		-10.184632	22.720553	-1.675121
47046		-10.114924	22.670895	-1.668441
47047		-10.056321	22.623418	-1.661875
47048		-9.998745	22.574743	-1.664323
47049		-9.940289	22.519489	-1.674652
47050		-9.873541	22.479480	-1.690601
47051		-9.810932	22.440681	-1.701793
47052		-9.756264	22.380886	-1.691112
47053		-9.698180	22.280513	-1.638930
47054		-9.680244	22.169455	-1.556135
47055		-9.710047	22.072188	-1.464030
47056		-9.803188	21.997888	-1.379066
47057		-9.938742	21.956209	-1.302905
47058		-10.097403	21.949303	-1.238725
47059		-10.245448	21.974534	-1.191929
47060		-10.350559	22.016268	-1.162945
47061		-10.397840	22.054720	-1.137699
47062		-10.402835	22.093472	-1.119723
47063		-10.401185	22.128415	-1.093898
47064		-10.432749	22.167383	-1.063200
47065		-10.517913	22.232798	-1.026598
47066		-10.653940	22.334701	-0.979050
47067		-10.827234	22.460842	-0.918688
47068		-11.015630	22.595753	-0.853137
47069		-11.163483	22.719206	-0.781202
47070		-11.262543	22.818230	-0.722504
47071		-11.296198	22.876220	-0.672416
47072		-11.237434	22.913019	-0.634626
47073		-11.096164	22.938482	-0.608148
47074		-10.887797	22.957350	-0.595881
47075		-10.645188	22.957014	-0.590620
47076		-10.411681	22.932822	-0.588341
47077		-10.231443	22.897564	-0.592794
47078		-10.130426	22.882299	-0.607914
47079		-10.123749	22.890136	-0.633403
47080		-10.213812	22.914144	-0.668092
47081		-10.369801	22.946538	-0.699907
47082		-10.558558	22.993548	-0.723060
47083		-10.753646	23.048124	-0.731221
47084		-10.935226	23.106644	-0.731554
47085		-11.087771	23.163371	-0.722077
47086		-11.201748	23.215150	-0.714026
47087		-11.278970	23.246335	-0.697822
47088		-11.326883	23.260063	-0.681838
47089		-11.344436	23.262814	-0.667502
47090		-11.340539	23.267386	-0.656486
47091		-11.334253	23.276213	-0.648840
47092		-11.318989	23.284588	-0.645250
47093		-11.304773	23.304133	-0.650385
47094		-11.285885	23.331394	-0.665491
47095		-11.264157	23.356527	-0.684611
47096		-11.251451	23.379600	-0.708612
47097		-11.243710	23.398937	-0.729987
47098		-11.240355	23.420727	-0.750943
47099		-11.239348	23.444449	-0.768383
47100		-11.250651	23.463353	-0.787982
47101		-11.276275	23.475352	-0.812480
47102		-11.317281	23.485019	-0.847419
47103		-11.371655	23.489830	-0.897586
47104		-11.446066	23.517757	-0.966350
47105		-11.560462	23.556672	-1.071285
47106		-11.685555	23.622644	-1.205170
47107		-11.818446	23.723285	-1.356639
47108		-11.931958	23.834918	-1.513210
47109		-11.997497	23.950547	-1.674858
47110		-12.039279	24.076148	-1.851506
47111		-12.064701	24.202532	-2.046146
47112		-12.092200	24.347042	-2.270320
47113		-12.118634	24.516389	-2.525314
47114		-12.168738	24.727764	-2.798917
47115		-12.217258	24.956543	-3.069352
47116		-12.247652	25.203719	-3.335815
47117		-12.253336	25.448143	-3.606082
47118		-12.202674	25.702175	-3.864569
47119		-12.144983	25.953464	-4.122568
47120		-12.103732	26.194630	-4.393204
47121		-12.068900	26.419127	-4.687377
47122		-12.078766	26.636796	-5.020304
47123		-12.120089	26.849375	-5.375497
47124		-12.251645	27.101924	-5.725691
47125		-12.485456	27.404124	-6.072027
47126		-12.710905	27.760456	-6.441124
47127		-12.896670	28.148894	-6.837907
47128		-13.019977	28.539608	-7.260287
47129		-13.107631	28.926217	-7.680302
47130		-13.220724	29.295123	-8.081686
47131		-13.427068	29.634768	-8.466394
47132		-13.685686	29.896618	-8.849222
47133		-13.977611	30.095155	-9.231243
47134		-14.272034	30.278396	-9.605653
47135		-14.549081	30.459871	-9.959399
47136		-14.792857	30.641142	-10.297270
47137		-15.000993	30.818136	-10.623970
47138		-15.172801	30.998521	-10.953440
47139		-15.312641	31.183078	-11.285787
47140		-15.430232	31.378451	-11.625391
47141		-15.523104	31.592702	-11.972436
47142		-15.579430	31.823529	-12.318179
47143		-15.608117	32.073328	-12.669045
47144		-15.617805	32.343096	-13.026808
47145		-15.616455	32.626450	-13.390480
47146		-15.621899	32.916299	-13.761477
47147		-15.640066	33.205524	-14.125614
47148		-15.672541	33.494488	-14.476210
47149		-15.717706	33.787623	-14.811890
47150		-15.766311	34.084329	-15.127572
47151		-15.818694	34.377865	-15.428261
47152		-15.866685	34.664838	-15.714702
47153		-15.910523	34.941229	-15.992041
47154		-15.944149	35.201894	-16.265973
47155		-15.972576	35.440314	-16.535767
47156		-15.997663	35.656317	-16.802061
47157		-16.020959	35.855193	-17.059621
47158		-16.044407	36.044432	-17.322742
47159		-16.066961	36.222182	-17.597880
47160		-16.082171	36.388430	-17.885180
47161		-16.106778	36.553954	-18.180911
47162		-16.156203	36.727814	-18.486968
47163		-16.230700	36.905421	-18.786943
47164		-16.330116	37.085292	-19.087126
47165		-16.446635	37.247015	-19.384020
47166		-16.556840	37.377212	-19.664781
47167		-16.663507	37.492999	-19.935638
47168		-16.772866	37.614717	-20.214002
47169		-16.882741	37.753039	-20.500741
47170		-17.000680	37.909062	-20.797471
47171		-17.120451	38.080220	-21.105322
47172		-17.226976	38.259029	-21.408222
47173		-17.321517	38.433716	-21.709473
47174		-17.408145	38.604514	-22.003580
47175		-17.498480	38.778584	-22.300119
47176		-17.595826	38.956255	-22.607725
47177		-17.705843	39.147026	-22.919249
47178		-17.832156	39.365509	-23.230378
47179		-17.956044	39.596676	-23.536519
47180		-18.073234	39.824867	-23.830567
47181		-18.189041	40.048236	-24.108911
47182		-18.305814	40.280727	-24.386767
47183		-18.433014	40.519779	-24.673073
47184		-18.573202	40.764940	-24.967301
47185		-18.717646	41.005265	-25.267906
47186		-18.849796	41.245776	-25.576631
47187		-18.945767	41.479779	-25.889356
47188		-18.998283	41.715599	-26.209679
47189		-18.999643	41.943508	-26.526061
47190		-18.953235	42.167912	-26.834521
47191		-18.879648	42.397663	-27.154537
47192		-18.780390	42.626081	-27.490691
47193		-18.664144	42.837125	-27.834300
47194		-18.553255	43.038330	-28.189131
47195		-18.441824	43.225845	-28.550151
47196		-18.347069	43.413733	-28.921830
47197		-18.284792	43.601905	-29.311952
47198		-18.262387	43.808575	-29.717647
47199		-18.282922	44.036484	-30.140680
47200		-18.345381	44.278720	-30.568338
47201		-18.445475	44.525632	-30.991257
47202		-18.585640	44.773821	-31.412446
47203		-18.761659	45.017447	-31.832920
47204		-18.958816	45.256898	-32.249924
47205		-19.156943	45.486172	-32.662828
47206		-19.368244	45.706318	-33.076610
47207		-19.593903	45.941745	-33.485307
47208		-19.846687	46.195831	-33.903131
47209		-20.131219	46.455443	-34.326513
47210		-20.424375	46.723631	-34.748750
47211		-20.705865	46.984205	-35.157377
47212		-20.962378	47.247640	-35.543291
47213		-21.179514	47.510138	-35.901505
47214		-21.376771	47.762917	-36.245616
47215		-21.555782	48.005783	-36.580671
47216		-21.709057	48.227376	-36.914208
47217		-21.850410	48.424364	-37.239409
47218		-21.991907	48.627266	-37.556792
47219		-22.134837	48.840084	-37.867715
47220		-22.292783	49.057053	-38.183031
47221		-22.457106	49.276577	-38.492909
47222		-22.651305	49.501610	-38.807970
47223		-22.879327	49.727820	-39.134456
47224		-23.144969	49.959742	-39.471149
47225		-23.419440	50.199234	-39.806190
47226		-23.683960	50.437403	-40.128268
47227		-23.936164	50.658677	-40.438085
47228		-24.176864	50.860850	-40.728707
47229		-24.413302	51.054702	-41.016148
47230		-24.622147	51.242705	-41.285060
47231		-24.781254	51.401881	-41.514579
47232		-24.902439	51.519487	-41.703310
47233		-25.013395	51.606970	-41.861832
47234		-25.137954	51.688383	-42.014244
47235		-25.274865	51.765774	-42.157561
47236		-25.420409	51.828573	-42.289606
47237		-25.565884	51.873253	-42.404881
47238		-25.703035	51.906207	-42.500952
47239		-25.829282	51.930944	-42.580265
47240		-25.934849	51.949484	-42.632925
47241		-26.003094	51.961600	-42.660360
47242		-26.036319	51.960156	-42.660820
47243		-26.056134	51.939134	-42.647913
47244		-26.104073	51.916188	-42.645827
47245		-26.201642	51.903178	-42.658991
47246		-26.326567	51.901538	-42.675929
47247		-26.452492	51.899071	-42.686590
47248		-26.564319	51.889417	-42.690538
47249		-26.661638	51.878644	-42.695036
47250		-26.750221	51.879297	-42.713103
47251		-26.817786	51.887813	-42.734595
47252		-26.876998	51.899808	-42.760752
47253		-26.926388	51.921571	-42.789004
47254		-26.966337	51.937006	-42.815356
47255		-26.998286	51.944653	-42.831508
47256		-27.017095	51.958110	-42.840049
47257		-27.026491	51.979884	-42.839338
47258		-27.008345	51.995852	-42.817496
47259		-26.955348	51.995729	-42.777097
47260		-26.878527	52.002995	-42.743451
47261		-26.816869	52.041172	-42.759135
47262		-26.771670	52.096225	-42.803755
47263		-26.691420	52.131421	-42.804994
47264		-26.542800	52.133908	-42.756856
47265		-26.370263	52.126523	-42.706067
47266		-26.225450	52.129010	-42.696323
47267		-26.095473	52.119158	-42.694060
47268		-25.960199	52.106120	-42.682976
47269		-25.810548	52.101526	-42.683374
47270		-25.667071	52.110185	-42.701393
47271		-25.529470	52.135660	-42.740382
47272		-25.387970	52.176787	-42.794772
47273		-25.226603	52.202395	-42.834965
47274		-25.045509	52.180791	-42.849222
47275		-24.870292	52.133985	-42.855291
47276		-24.732909	52.097942	-42.873862
47277		-24.664282	52.085789	-42.928897
47278		-24.620481	52.067476	-42.986996
47279		-24.602651	52.015855	-43.049677
47280		-24.621120	51.969131	-43.139446
47281		-24.692159	51.938185	-43.264074
47282		-24.781691	51.928342	-43.405040
47283		-24.872006	51.927879	-43.543760
47284		-24.965175	51.918616	-43.672271
47285		-25.059907	51.886611	-43.786066
47286		-25.144753	51.857582	-43.884657
47287		-25.237584	51.852833	-43.992076
47288		-25.328415	51.862796	-44.095950
47289		-25.388677	51.856262	-44.168174
47290		-25.407443	51.825964	-44.210514
47291		-25.394399	51.792332	-44.219210
47292		-25.357114	51.768947	-44.208631
47293		-25.299093	51.753925	-44.175413
47294		-25.229457	51.733592	-44.121383
47295		-25.131618	51.694822	-44.030638
47296		-25.017416	51.645197	-43.919942
47297		-24.899134	51.591363	-43.801182
47298		-24.785238	51.528091	-43.670633
47299		-24.678922	51.444909	-43.518817
47300		-24.586820	51.360662	-43.354302
47301		-24.519566	51.290634	-43.195133
47302		-24.489934	51.245504	-43.060891
47303		-24.495023	51.201689	-42.946902
47304		-24.528372	51.155818	-42.857138
47305		-24.588468	51.113654	-42.796656
47306		-24.684571	51.085816	-42.769228
47307		-24.813295	51.077275	-42.768400
47308		-24.964750	51.089417	-42.781168
47309		-25.120717	51.110472	-42.801223
47310		-25.264814	51.133574	-42.812975
47311		-25.382168	51.151715	-42.814352
47312		-25.474732	51.164072	-42.802323
47313		-25.541662	51.169297	-42.779121
47314		-25.592066	51.173022	-42.754925
47315		-25.625003	51.173273	-42.725349
47316		-25.635862	51.166325	-42.700423
47317		-25.648432	51.164037	-42.691681
47318		-25.668732	51.166472	-42.697283
47319		-25.691410	51.179832	-42.712766
47320		-25.710181	51.197910	-42.733424
47321		-25.718395	51.204599	-42.749037
47322		-25.715880	51.205864	-42.760733
47323		-25.701102	51.205925	-42.766563
47324		-25.690475	51.214296	-42.772815
47325		-25.675999	51.224323	-42.768160
47326		-25.664133	51.234847	-42.764776
47327		-25.654253	51.241412	-42.762087
47328		-25.647485	51.246588	-42.771181
47329		-25.638855	51.242701	-42.787653
47330		-25.624234	51.231708	-42.808510
47331		-25.596299	51.221091	-42.820848
47332		-25.566240	51.216276	-42.835611
47333		-25.527278	51.208529	-42.851087
47334		-25.485600	51.196685	-42.876234
47335		-25.432055	51.168133	-42.910087
47336		-25.353182	51.126912	-42.943766
47337		-25.241602	51.084212	-42.963416
47338		-25.103101	51.038143	-42.957823
47339		-24.929290	50.975206	-42.918703
47340		-24.741223	50.889350	-42.861829
47341		-24.554393	50.784988	-42.805085
47342		-24.380702	50.677259	-42.755193
47343		-24.211271	50.569701	-42.709562
47344		-24.047167	50.457973	-42.663842
47345		-23.880440	50.342903	-42.615324
47346		-23.727330	50.237523	-42.585448
47347		-23.597474	50.138161	-42.577338
47348		-23.483632	50.028411	-42.574067
47349		-23.372588	49.914577	-42.567731
47350		-23.259094	49.795030	-42.547939
47351		-23.151384	49.659030	-42.522314
47352		-23.046242	49.510858	-42.495827
47353		-22.929288	49.346550	-42.446218
47354		-22.784572	49.166403	-42.359917
47355		-22.628353	48.973626	-42.243982
47356		-22.490535	48.778222	-42.118607
47357		-22.376901	48.580211	-41.994278
47358		-22.276028	48.375629	-41.858734
47359		-22.184700	48.161809	-41.709238
47360		-22.087321	47.941572	-41.539841
47361		-21.968077	47.709927	-41.355519
47362		-21.835963	47.472074	-41.169822
47363		-21.686141	47.239240	-40.981545
47364		-21.522491	47.024072	-40.794392
47365		-21.340747	46.815039	-40.586521
47366		-21.145153	46.599643	-40.357466
47367		-20.932496	46.371561	-40.095842
47368		-20.700528	46.135331	-39.812324
47369		-20.459224	45.881397	-39.508739
47370		-20.242715	45.626789	-39.203468
47371		-20.059661	45.379847	-38.910248
47372		-19.908480	45.138733	-38.620978
47373		-19.776970	44.896043	-38.332841
47374		-19.645336	44.663786	-38.040031
47375		-19.499298	44.436374	-37.739445
47376		-19.342086	44.210590	-37.421505
47377		-19.178350	43.982045	-37.089629
47378		-18.998263	43.748744	-36.750095
47379		-18.828543	43.509928	-36.407042
47380		-18.680649	43.277973	-36.065932
47381		-18.550062	43.055946	-35.734802
47382		-18.441229	42.831590	-35.402989
47383		-18.358722	42.609375	-35.069385
47384		-18.286401	42.398767	-34.739431
47385		-18.218785	42.190750	-34.416429
47386		-18.155024	41.971420	-34.089144
47387		-18.082679	41.740998	-33.762977
47388		-17.989426	41.514036	-33.422139
47389		-17.884745	41.293825	-33.071786
47390		-17.769981	41.090378	-32.718756
47391		-17.646190	40.884184	-32.360866
47392		-17.509654	40.669999	-31.995973
47393		-17.366725	40.453880	-31.628677
47394		-17.187321	40.214013	-31.267211
47395		-17.054469	40.015658	-30.902522
47396		-16.919867	39.814488	-30.551004
47397		-16.772531	39.606767	-30.212141
47398		-16.606644	39.401973	-29.885341
47399		-16.424944	39.197929	-29.559630
47400		-16.254642	38.999705	-29.233517
47401		-16.097809	38.808533	-28.903518
47402		-15.943325	38.624764	-28.557170
47403		-15.796972	38.446703	-28.205582
47404		-15.641790	38.263045	-27.846584
47405		-15.485913	38.064864	-27.482372
47406		-15.336664	37.864310	-27.120157
47407		-15.199535	37.676309	-26.765816
47408		-15.073793	37.502593	-26.419448
47409		-14.948651	37.340055	-26.076204
47410		-14.813946	37.180858	-25.732103
47411		-14.664188	37.020813	-25.381965
47412		-14.495958	36.847418	-25.015805
47413		-14.317777	36.657541	-24.647989
47414		-14.159259	36.473587	-24.294320
47415		-14.019045	36.306260	-23.946770
47416		-13.902278	36.142887	-23.611331
47417		-13.805970	35.969133	-23.294095
47418		-13.710306	35.777291	-22.986974
47419		-13.614528	35.572790	-22.687014
47420		-13.520104	35.356908	-22.388474
47421		-13.416087	35.136567	-22.083049
47422		-13.306981	34.927186	-21.773129
47423		-13.190496	34.733831	-21.452017
47424		-13.077532	34.562415	-21.119945
47425		-12.980885	34.405872	-20.778595
47426		-12.908292	34.262112	-20.427344
47427		-12.861816	34.125541	-20.075741
47428		-12.840538	33.979061	-19.722931
47429		-12.851476	33.822590	-19.374664
47430		-12.876505	33.663018	-19.028308
47431		-12.903558	33.519278	-18.683905
47432		-12.919234	33.384016	-18.335857
47433		-12.929944	33.250048	-17.981033
47434		-12.927874	33.108696	-17.604868
47435		-12.910613	32.962693	-17.206483
47436		-12.877039	32.827996	-16.785979
47437		-12.841878	32.698668	-16.350905
47438		-12.807908	32.570867	-15.914320
47439		-12.780935	32.439370	-15.485155
47440		-12.751653	32.304400	-15.068649
47441		-12.699962	32.148753	-14.657642
47442		-12.616640	31.975658	-14.254889
47443		-12.485853	31.796979	-13.852257
47444		-12.324148	31.622587	-13.452243
47445		-12.128055	31.450528	-13.049003
47446		-11.906330	31.272158	-12.635615
47447		-11.692897	31.080239	-12.226144
47448		-11.481253	30.868293	-11.827388
47449		-11.287820	30.664973	-11.439254
47450		-11.130055	30.493164	-11.067827
47451		-10.995650	30.351805	-10.714253
47452		-10.878752	30.222971	-10.388382
47453		-10.769223	30.088244	-10.074215
47454		-10.655640	29.934356	-9.774082
47455		-10.543677	29.774170	-9.486110
47456		-10.432604	29.617553	-9.204477
47457		-10.330862	29.462132	-8.914001
47458		-10.253336	29.314852	-8.625862
47459		-10.174799	29.195008	-8.355535
47460		-10.094071	29.081068	-8.113915
47461		-10.016302	28.935716	-7.886045
47462		-9.961716	28.757515	-7.659136
47463		-9.951847	28.581327	-7.429599
47464		-9.960954	28.407000	-7.196306
47465		-9.956483	28.249895	-6.961331
47466		-9.932211	28.098803	-6.727609
47467		-9.884496	27.936024	-6.506884
47468		-9.814864	27.760038	-6.300181
47469		-9.742289	27.563407	-6.101876
47470		-9.683227	27.368174	-5.901831
47471		-9.634268	27.184012	-5.694082
47472		-9.599418	27.021594	-5.476768
47473		-9.547619	26.872744	-5.252952
47474		-9.464636	26.736780	-5.033748
47475		-9.359808	26.610868	-4.814364
47476		-9.230161	26.486740	-4.606760
47477		-9.086525	26.356646	-4.404088
47478		-8.955734	26.212659	-4.210783
47479		-8.842674	26.072500	-4.019303
47480		-8.745599	25.947758	-3.834866
47481		-8.660350	25.846878	-3.663167
47482		-8.568585	25.758882	-3.510025
47483		-8.473786	25.667871	-3.370468
47484		-8.380723	25.564209	-3.246834
47485		-8.290868	25.448368	-3.139431
47486		-8.230867	25.330430	-3.049822
47487		-8.189347	25.231281	-2.970852
47488		-8.151270	25.153380	-2.893083
47489		-8.130071	25.075256	-2.803697
47490		-8.110053	24.992346	-2.701607
47491		-8.108579	24.913038	-2.596209
47492		-8.126366	24.841378	-2.494401
47493		-8.156330	24.775230	-2.389986
47494		-8.208384	24.720950	-2.290462
47495		-8.266309	24.672374	-2.186799
47496		-8.337647	24.623593	-2.080216
47497		-8.403903	24.566716	-1.967115
47498		-8.466168	24.512065	-1.851959
47499		-8.519082	24.459537	-1.731314
47500		-8.557276	24.413849	-1.618230
47501		-8.574534	24.379000	-1.512283
47502		-8.592845	24.375493	-1.428948
47503		-8.594508	24.410816	-1.379793
47504		-8.585848	24.475417	-1.372834
47505		-8.574513	24.553254	-1.392240
47506		-8.543265	24.636005	-1.420424
47507		-8.467213	24.703047	-1.441863
47508		-8.343536	24.748259	-1.455665
47509		-8.191609	24.765045	-1.454192
47510		-8.051179	24.777035	-1.452437
47511		-7.936332	24.797397	-1.454464
47512		-7.877350	24.831086	-1.462331
47513		-7.864436	24.873426	-1.479223
47514		-7.878310	24.911134	-1.497325
47515		-7.904266	24.932449	-1.511077
47516		-7.934916	24.934072	-1.516030
47517		-7.978805	24.919083	-1.517536
47518		-8.034685	24.904041	-1.512754
47519		-8.106090	24.875771	-1.500622
47520		-8.190113	24.842635	-1.488236
47521		-8.278284	24.805397	-1.476888
47522		-8.357924	24.762013	-1.473369
47523		-8.434150	24.716313	-1.479195
47524		-8.519260	24.672755	-1.504443
47525		-8.626136	24.613390	-1.547491
47526		-8.750595	24.544922	-1.605473
47527		-8.856640	24.483997	-1.661247
47528		-8.931254	24.433704	-1.719638
47529		-9.000147	24.368931	-1.778257
47530		-9.074541	24.294228	-1.850964
47531		-9.157062	24.211673	-1.943958
47532		-9.257350	24.116691	-2.043968
47533		-9.364323	24.010639	-2.138532
47534		-9.467737	23.904136	-2.220455
47535		-9.570098	23.805015	-2.282552
47536		-9.680120	23.721474	-2.326612
47537		-9.809727	23.646991	-2.355514
47538		-9.960718	23.580001	-2.374793
47539		-10.126284	23.505535	-2.389931
47540		-10.284825	23.421923	-2.400679
47541		-10.433277	23.330583	-2.404715
47542		-10.574691	23.246423	-2.407811
47543		-10.710453	23.164328	-2.405479
47544		-10.831668	23.093533	-2.393333
47545		-10.939375	23.037336	-2.377452
47546		-11.032248	22.984747	-2.356051
47547		-11.103356	22.928096	-2.323358
47548		-11.165275	22.874040	-2.284385
47549		-11.235953	22.818777	-2.231166
47550		-11.336315	22.771683	-2.169060
47551		-11.489556	22.745200	-2.104828
47552		-11.682090	22.748851	-2.065779
47553		-11.885068	22.769125	-2.054594
47554		-12.076486	22.782536	-2.065977
47555		-12.244546	22.771021	-2.083660
47556		-12.368859	22.726326	-2.102122
47557		-12.432189	22.666503	-2.122132
47558		-12.438933	22.604548	-2.146892
47559		-12.402662	22.536326	-2.175379
47560		-12.330294	22.460018	-2.207413
47561		-12.232430	22.351051	-2.240136
47562		-12.127758	22.229339	-2.277592
47563		-12.026875	22.146596	-2.314634
47564		-11.924838	22.091821	-2.345920
47565		-11.844811	22.023848	-2.349013
47566		-11.800569	21.945142	-2.325332
47567		-11.793339	21.892266	-2.277907
47568		-11.814361	21.865513	-2.217569
47569		-11.868385	21.853338	-2.156075
47570		-11.955040	21.847872	-2.104716
47571		-12.049093	21.840952	-2.051171
47572		-12.127825	21.818763	-2.004023
47573		-12.175875	21.777884	-1.947579
47574		-12.208467	21.725180	-1.882322
47575		-12.225225	21.670988	-1.804359
47576		-12.210240	21.623858	-1.717389
47577		-12.204196	21.582820	-1.629567
47578		-12.225340	21.559200	-1.550404
47579		-12.270010	21.542336	-1.478873
47580		-12.343489	21.534266	-1.407042
47581		-12.467267	21.550812	-1.338815
47582		-12.621975	21.599375	-1.273023
47583		-12.801389	21.676362	-1.205439
47584		-13.015880	21.785417	-1.145848
47585		-13.248190	21.916245	-1.093802
47586		-13.468042	22.050175	-1.050523
47587		-13.643010	22.176126	-0.998425
47588		-13.771688	22.292945	-0.937750
47589		-13.829596	22.391840	-0.870951
47590		-13.801333	22.479122	-0.816064
47591		-13.679692	22.549809	-0.768615
47592		-13.491147	22.595280	-0.738149
47593		-13.276439	22.620851	-0.716816
47594		-13.064247	22.635868	-0.700470
47595		-12.861885	22.648682	-0.681504
47596		-12.676450	22.664117	-0.656389
47597		-12.518509	22.684096	-0.621522
47598		-12.403206	22.708551	-0.590575
47599		-12.328770	22.730854	-0.556748
47600		-12.290685	22.754541	-0.520256
47601		-12.291350	22.782319	-0.483545
47602		-12.322398	22.815977	-0.450214
47603		-12.382921	22.855177	-0.420196
47604		-12.449721	22.891672	-0.390926
47605		-12.527455	22.923920	-0.364259
47606		-12.604395	22.948977	-0.337770
47607		-12.676406	22.961977	-0.310058
47608		-12.733973	22.966860	-0.287868
47609		-12.784528	22.965926	-0.269413
47610		-12.821894	22.962286	-0.259059
47611		-12.867696	22.959991	-0.262611
47612		-12.919364	22.963495	-0.278306
47613		-12.983099	22.993668	-0.303981
47614		-13.066476	23.037828	-0.355661
47615		-13.156175	23.083575	-0.430066
47616		-13.234169	23.139212	-0.519713
47617		-13.302249	23.190341	-0.609133
47618		-13.355552	23.234577	-0.695963
47619		-13.407561	23.300804	-0.788913
47620		-13.446900	23.386071	-0.903551
47621		-13.478283	23.472742	-1.037003
47622		-13.502906	23.580710	-1.194652
47623		-13.542277	23.706440	-1.365323
47624		-13.623579	23.840165	-1.557144
47625		-13.749166	23.975510	-1.761489
47626		-13.903918	24.119073	-1.968562
47627		-14.062084	24.252083	-2.166642
47628		-14.235001	24.375500	-2.334675
47629		-14.384016	24.495439	-2.482824
47630		-14.513581	24.615868	-2.633732
47631		-14.627327	24.730374	-2.788917
47632		-14.754870	24.837428	-2.963800
47633		-14.906201	24.932904	-3.166223
47634		-15.077003	25.035228	-3.402475
47635		-15.258672	25.144730	-3.664599
47636		-15.445813	25.281326	-3.958383
47637		-15.609024	25.452994	-4.257344
47638		-15.819860	25.669893	-4.553516
47639		-16.032169	25.913707	-4.867468
47640		-16.189459	26.184515	-5.204883
47641		-16.307930	26.479370	-5.553169
47642		-16.402054	26.775042	-5.909150
47643		-16.485012	27.052255	-6.262555
47644		-16.558628	27.304888	-6.622902
47645		-16.624138	27.535205	-6.983102
47646		-16.685325	27.768100	-7.351824
47647		-16.713283	28.006497	-7.717167
47648		-16.678161	28.257142	-8.077185
47649		-16.557087	28.515980	-8.421884
47650		-16.364334	28.793723	-8.751005
47651		-16.116246	29.093817	-9.056395
47652		-15.833386	29.420362	-9.342632
47653		-15.536063	29.764302	-9.619372
47654		-15.244845	30.110729	-9.903435
47655		-14.968548	30.446408	-10.199021
47656		-14.722000	30.764092	-10.513502
47657		-14.511385	31.056759	-10.833395
47658		-14.348526	31.329651	-11.146797
47659		-14.226729	31.589818	-11.437501
47660		-14.155899	31.852550	-11.702331
47661		-14.122190	32.127364	-11.934389
47662		-14.121981	32.424856	-12.149977
47663		-14.150053	32.731505	-12.353005
47664		-14.196504	33.036708	-12.551056
47665		-14.254575	33.328835	-12.746560
47666		-14.317437	33.606807	-12.946749
47667		-14.372857	33.872678	-13.137656
47668		-14.420336	34.133701	-13.332162
47669		-14.459481	34.387040	-13.521837
47670		-14.483055	34.637440	-13.712278
47671		-14.481775	34.881074	-13.891695
47672		-14.451288	35.120538	-14.069881
47673		-14.403701	35.354911	-14.253017
47674		-14.363124	35.589708	-14.453469
47675		-14.346173	35.821003	-14.677352
47676		-14.351091	36.039172	-14.933835
47677		-14.336813	36.230727	-15.193513
47678		-14.304517	36.400539	-15.454295
47679		-14.260915	36.567312	-15.711906
47680		-14.220135	36.751902	-15.976773
47681		-14.195408	36.947033	-16.249402
47682		-14.207818	37.143943	-16.538150
47683		-14.250910	37.332988	-16.829363
47684		-14.335305	37.513409	-17.136724
47685		-14.446664	37.677640	-17.442917
47686		-14.561949	37.829922	-17.737923
47687		-14.668979	37.985976	-18.019253
47688		-14.767610	38.163148	-18.297483
47689		-14.869299	38.361241	-18.576445
47690		-15.010427	38.571116	-18.860832
47691		-15.177724	38.774821	-19.132645
47692		-15.352950	38.965393	-19.382092
47693		-15.522862	39.141553	-19.611739
47694		-15.683035	39.325951	-19.841548
47695		-15.840258	39.511413	-20.075675
47696		-15.994706	39.692088	-20.321470
47697		-16.152499	39.879987	-20.578193
47698		-16.336745	40.088951	-20.860807
47699		-16.559802	40.308605	-21.167539
47700		-16.816965	40.534602	-21.492357
47701		-17.089843	40.777313	-21.829275
47702		-17.346825	41.037197	-22.172418
47703		-17.553218	41.294163	-22.503313
47704		-17.709392	41.541307	-22.821650
47705		-17.835264	41.779243	-23.144127
47706		-17.928809	42.019528	-23.472375
47707		-17.985539	42.263437	-23.817120
47708		-18.028306	42.518095	-24.175664
47709		-18.082130	42.776670	-24.554746
47710		-18.145462	43.043822	-24.948612
47711		-18.210898	43.313871	-25.349867
47712		-18.276942	43.580955	-25.744479
47713		-18.331887	43.836332	-26.126354
47714		-18.371757	44.078253	-26.502192
47715		-18.417358	44.299794	-26.877081
47716		-18.500839	44.525725	-27.262529
47717		-18.615412	44.758952	-27.667770
47718		-18.756860	45.001933	-28.087239
47719		-18.931717	45.247427	-28.518064
47720		-19.159686	45.507746	-28.968654
47721		-19.427307	45.784075	-29.433606
47722		-19.743661	46.073463	-29.914349
47723		-20.099238	46.362996	-30.401074
47724		-20.490288	46.655849	-30.897388
47725		-20.877071	46.932747	-31.373927
47726		-21.220546	47.183899	-31.818533
47727		-21.529645	47.399349	-32.223284
47728		-21.837709	47.607487	-32.617654
47729		-22.163446	47.828683	-33.026460
47730		-22.507832	48.058711	-33.450676
47731		-22.876430	48.276983	-33.867624
47732		-23.256337	48.489002	-34.280663
47733		-23.613421	48.702674	-34.686593
47734		-23.922445	48.899701	-35.069066
47735		-24.193340	49.050797	-35.425326
47736		-24.449957	49.180635	-35.772199
47737		-24.690832	49.310096	-36.127991
47738		-24.901787	49.444400	-36.483356
47739		-25.099658	49.571000	-36.839734
47740		-25.298923	49.686119	-37.186002
47741		-25.484665	49.805883	-37.524254
47742		-25.663899	49.932899	-37.851887
47743		-25.833239	50.055733	-38.166507
47744		-25.997113	50.179883	-38.482160
47745		-26.168957	50.294899	-38.800477
47746		-26.362228	50.426492	-39.133465
47747		-26.552073	50.573250	-39.469856
47748		-26.742905	50.720132	-39.803009
47749		-26.957107	50.866169	-40.118741
47750		-27.222723	51.030921	-40.459422
47751		-27.517018	51.207955	-40.805223
47752		-27.835583	51.384757	-41.157069
47753		-28.174729	51.552707	-41.510778
47754		-28.508954	51.717902	-41.850461
47755		-28.827585	51.881250	-42.171378
47756		-29.117309	52.047533	-42.465971
47757		-29.359489	52.204529	-42.724982
47758		-29.550103	52.344170	-42.936371
47759		-29.671300	52.458781	-43.084220
47760		-29.729184	52.544651	-43.170039
47761		-29.739415	52.608707	-43.203180
47762		-29.696602	52.657646	-43.199884
47763		-29.627049	52.689594	-43.176297
47764		-29.547762	52.704106	-43.137015
47765		-29.461504	52.708096	-43.086087
47766		-29.399454	52.699863	-43.045287
47767		-29.398876	52.693370	-43.036142
47768		-29.440168	52.690501	-43.053874
47769		-29.502309	52.686713	-43.082575
47770		-29.566240	52.686073	-43.112757
47771		-29.628255	52.692742	-43.154427
47772		-29.684850	52.706022	-43.199852
47773		-29.731562	52.728361	-43.234128
47774		-29.780590	52.752408	-43.258601
47775		-29.828658	52.778349	-43.268066
47776		-29.876349	52.799681	-43.261409
47777		-29.902079	52.809083	-43.234412
47778		-29.908710	52.805958	-43.200384
47779		-29.905398	52.793119	-43.177339
47780		-29.902161	52.783054	-43.177284
47781		-29.894093	52.769283	-43.198585
47782		-29.892944	52.761687	-43.236284
47783		-29.900856	52.764449	-43.287977
47784		-29.904572	52.775868	-43.345273
47785		-29.880258	52.785735	-43.392557
47786		-29.816365	52.791152	-43.426696
47787		-29.720803	52.795852	-43.459193
47788		-29.607124	52.806110	-43.491049
47789		-29.491989	52.833808	-43.531103
47790		-29.393795	52.870544	-43.583923
47791		-29.293272	52.896760	-43.621586
47792		-29.190941	52.920321	-43.659515
47793		-29.103317	52.948353	-43.715231
47794		-29.024970	52.974902	-43.770614
47795		-28.919560	52.976419	-43.774010
47796		-28.778498	52.967393	-43.748169
47797		-28.636268	52.960958	-43.725590
47798		-28.510943	52.963608	-43.723289
47799		-28.392467	52.963357	-43.725487
47800		-28.280916	52.953321	-43.728723
47801		-28.182043	52.943696	-43.739081
47802		-28.084310	52.936290	-43.752078
47803		-27.996172	52.931649	-43.764935
47804		-27.924596	52.929852	-43.774320
47805		-27.846326	52.927792	-43.766051
47806		-27.762407	52.897443	-43.740041
47807		-27.676005	52.846021	-43.713902
47808		-27.605766	52.793784	-43.718349
47809		-27.546268	52.737506	-43.740927
47810		-27.512106	52.696757	-43.785180
47811		-27.507902	52.676662	-43.845181
47812		-27.513934	52.656204	-43.892918
47813		-27.518201	52.625063	-43.919094
47814		-27.524460	52.598718	-43.942705
47815		-27.548780	52.580511	-43.975400
47816		-27.589285	52.563405	-44.005644
47817		-27.644459	52.527673	-44.040742
47818		-27.734813	52.515477	-44.132639
47819		-27.850594	52.522164	-44.271353
47820		-27.965808	52.536008	-44.428538
47821		-28.072023	52.555514	-44.591428
47822		-28.158702	52.579706	-44.745141
47823		-28.220969	52.597152	-44.880618
47824		-28.281532	52.614866	-45.016430
47825		-28.324910	52.629229	-45.148561
47826		-28.345950	52.645844	-45.261387
47827		-28.346162	52.671543	-45.348622
47828		-28.317078	52.694886	-45.408413
47829		-28.280528	52.704227	-45.450087
47830		-28.236895	52.701036	-45.465302
47831		-28.196059	52.701327	-45.464553
47832		-28.145551	52.702325	-45.435028
47833		-28.088928	52.691848	-45.375376
47834		-28.016126	52.660498	-45.273993
47835		-27.929295	52.604854	-45.134283
47836		-27.844560	52.551901	-44.978721
47837		-27.776194	52.504174	-44.836150
47838		-27.724763	52.466342	-44.706189
47839		-27.699217	52.435071	-44.604494
47840		-27.710100	52.410545	-44.539730
47841		-27.759920	52.389360	-44.511232
47842		-27.860214	52.382219	-44.521164
47843		-28.034975	52.388168	-44.579092
47844		-28.247175	52.403679	-44.637002
47845		-28.459310	52.418873	-44.676092
47846		-28.639743	52.437976	-44.696720
47847		-28.762965	52.440294	-44.687226
47848		-28.844905	52.422187	-44.654453
47849		-28.886363	52.396153	-44.610900
47850		-28.887593	52.369672	-44.561218
47851		-28.870888	52.341696	-44.513005
47852		-28.853964	52.312734	-44.480594
47853		-28.839744	52.283967	-44.468315
47854		-28.843953	52.252987	-44.489805
47855		-28.861454	52.224702	-44.534574
47856		-28.885282	52.200140	-44.592645
47857		-28.902099	52.182585	-44.654058
47858		-28.906900	52.174833	-44.709812
47859		-28.890160	52.170020	-44.746396
47860		-28.847769	52.163243	-44.761821
47861		-28.772937	52.154509	-44.744971
47862		-28.685208	52.150391	-44.720927
47863		-28.598834	52.148675	-44.696983
47864		-28.526473	52.144508	-44.680817
47865		-28.473811	52.129948	-44.674437
47866		-28.437564	52.107740	-44.684047
47867		-28.403682	52.071014	-44.695161
47868		-28.365066	52.021522	-44.708557
47869		-28.309223	51.967260	-44.729836
47870		-28.215004	51.912526	-44.760119
47871		-28.076324	51.852883	-44.784777
47872		-27.915728	51.786039	-44.795001
47873		-27.749732	51.718201	-44.783782
47874		-27.590003	51.655166	-44.761932
47875		-27.439103	51.592780	-44.721117
47876		-27.289669	51.518663	-44.661806
47877		-27.111481	51.428241	-44.559783
47878		-26.920747	51.330990	-44.433191
47879		-26.714722	51.234802	-44.288717
47880		-26.507390	51.148743	-44.142988
47881		-26.300248	51.063164	-43.997085
47882		-26.101969	50.975284	-43.866220
47883		-25.902618	50.893552	-43.762009
47884		-25.702371	50.806552	-43.658603
47885		-25.485084	50.704851	-43.533542
47886		-25.266781	50.585657	-43.396352
47887		-25.063067	50.452367	-43.249075
47888		-24.869072	50.301057	-43.087301
47889		-24.681494	50.132341	-42.914117
47890		-24.510922	49.946566	-42.734253
47891		-24.362451	49.743232	-42.566581
47892		-24.218973	49.532998	-42.397653
47893		-24.087130	49.323724	-42.238763
47894		-23.957355	49.122397	-42.077731
47895		-23.822799	48.918448	-41.899841
47896		-23.679109	48.715573	-41.697440
47897		-23.518088	48.504050	-41.467794
47898		-23.356859	48.277088	-41.224130
47899		-23.205128	48.032800	-40.971460
47900		-23.064474	47.773105	-40.713292
47901		-22.927554	47.502121	-40.454953
47902		-22.800891	47.226483	-40.216389
47903		-22.683173	46.950444	-40.001450
47904		-22.575211	46.666240	-39.800886
47905		-22.456182	46.378240	-39.600276
47906		-22.305166	46.076486	-39.373266
47907		-22.121618	45.722696	-39.087907
47908		-21.943869	45.339213	-38.771318
47909		-21.770662	44.960388	-38.448212
47910		-21.600586	44.596900	-38.117995
47911		-21.448464	44.235922	-37.776852
47912		-21.313102	43.879821	-37.429236
47913		-21.187600	43.539953	-37.077984
47914		-21.054685	43.215470	-36.713532
47915		-20.905939	42.894592	-36.329667
47916		-20.731197	42.556656	-35.916443
47917		-20.521913	42.201788	-35.473662
47918		-20.298996	41.832210	-35.007672
47919		-20.098433	41.463277	-34.529767
47920		-19.929880	41.111025	-34.055225
47921		-19.792871	40.782296	-33.591237
47922		-19.660266	40.459121	-33.128926
47923		-19.497781	40.115888	-32.684722
47924		-19.343097	39.813288	-32.230369
47925		-19.168427	39.536201	-31.753558
47926		-18.985153	39.265955	-31.260357
47927		-18.802972	38.996406	-30.758038
47928		-18.627131	38.734578	-30.256005
47929		-18.452668	38.481147	-29.759755
47930		-18.273472	38.226972	-29.265648
47931		-18.087799	37.966755	-28.768731
47932		-17.893697	37.705441	-28.264329
47933		-17.691024	37.445637	-27.762704
47934		-17.487668	37.185891	-27.265865
47935		-17.307650	36.929025	-26.789600
47936		-17.149662	36.670120	-26.325032
47937		-17.002698	36.409828	-25.868151
47938		-16.869104	36.160040	-25.418431
47939		-16.757166	35.917639	-24.973029
47940		-16.669694	35.691066	-24.533209
47941		-16.595934	35.472260	-24.097835
47942		-16.526371	35.255710	-23.657779
47943		-16.470150	35.038365	-23.230437
47944		-16.415821	34.823738	-22.815280
47945		-16.364837	34.610309	-22.414386
47946		-16.320215	34.398431	-22.026866
47947		-16.287733	34.187896	-21.636594
47948		-16.259023	33.988514	-21.255706
47949		-16.218435	33.797649	-20.860363
47950		-16.174496	33.618138	-20.470379
47951		-16.126510	33.442205	-20.076718
47952		-16.083195	33.281442	-19.680377
47953		-16.050975	33.133252	-19.283842
47954		-16.015371	32.989953	-18.887437
47955		-15.977109	32.845560	-18.503345
47956		-15.930524	32.690863	-18.125114
47957		-15.885525	32.532348	-17.757940
47958		-15.834004	32.374205	-17.392855
47959		-15.792965	32.218173	-17.024196
47960		-15.770383	32.072987	-16.646763
47961		-15.746266	31.933798	-16.260301
47962		-15.702406	31.799364	-15.867928
47963		-15.635563	31.656781	-15.482545
47964		-15.536284	31.506063	-15.107099
47965		-15.410024	31.340533	-14.743257
47966		-15.268606	31.154229	-14.392049
47967		-15.124768	30.960597	-14.047784
47968		-14.979209	30.757311	-13.710900
47969		-14.836183	30.549726	-13.383643
47970		-14.690754	30.352531	-13.062057
47971		-14.548786	30.160891	-12.742175
47972		-14.400725	29.973416	-12.417508
47973		-14.258295	29.783779	-12.092883
47974		-14.106715	29.593762	-11.771623
47975		-13.952488	29.403183	-11.450946
47976		-13.796676	29.212560	-11.134463
47977		-13.640112	29.021739	-10.819771
47978		-13.484298	28.831006	-10.505024
47979		-13.338289	28.637863	-10.192336
47980		-13.195804	28.450684	-9.881998
47981		-13.050047	28.276896	-9.579687
47982		-12.904193	28.126907	-9.294324
47983		-12.754048	28.005887	-9.026759
47984		-12.589616	27.910707	-8.776885
47985		-12.403415	27.831218	-8.536218
47986		-12.202505	27.747606	-8.299425
47987		-11.991818	27.668359	-8.071412
47988		-11.769496	27.588197	-7.849316
47989		-11.547664	27.512625	-7.643121
47990		-11.324633	27.447626	-7.451784
47991		-11.100214	27.388514	-7.278032
47992		-10.876141	27.326442	-7.116261
47993		-10.671880	27.260980	-6.965553
47994		-10.491077	27.199897	-6.822776
47995		-10.343773	27.133123	-6.688469
47996		-10.227188	27.051919	-6.547231
47997		-10.146692	26.959147	-6.408366
47998		-10.082702	26.855896	-6.263128
47999		-10.034830	26.746993	-6.109663
48000		-10.002799	26.638062	-5.952089
48001		-9.973217	26.531002	-5.790492
48002		-9.953481	26.446219	-5.626776
48003		-9.943283	26.377392	-5.456404
48004		-9.937076	26.330104	-5.291012
48005		-9.931903	26.290624	-5.135695
48006		-9.908768	26.242754	-5.001636
48007		-9.873699	26.174280	-4.885469
48008		-9.845391	26.075855	-4.775392
48009		-9.830601	25.963337	-4.659189
48010		-9.814460	25.854638	-4.539848
48011		-9.802000	25.760683	-4.427902
48012		-9.792065	25.683399	-4.326207
48013		-9.777664	25.610545	-4.235691
48014		-9.756008	25.535079	-4.157142
48015		-9.736390	25.460819	-4.087349
48016		-9.720077	25.397569	-4.032299
48017		-9.699903	25.349905	-3.991721
48018		-9.674108	25.324042	-3.965018
48019		-9.654744	25.323536	-3.960513
48020		-9.646952	25.348011	-3.979352
48021		-9.668623	25.390860	-4.001969
48022		-9.719939	25.448706	-4.027325
48023		-9.785996	25.507910	-4.046328
48024		-9.846921	25.557731	-4.064246
48025		-9.912631	25.601145	-4.079163
48026		-9.996853	25.641652	-4.097270
48027		-10.084563	25.667445	-4.108379
48028		-10.170729	25.673058	-4.123245
48029		-10.249795	25.663538	-4.142924
48030		-10.322268	25.645915	-4.170286
48031		-10.392252	25.617424	-4.201045
48032		-10.457516	25.585135	-4.235348
48033		-10.532026	25.564974	-4.280659
48034		-10.619983	25.561329	-4.349281
48035		-10.695700	25.546078	-4.423920
48036		-10.755139	25.507378	-4.499517
48037		-10.797297	25.456399	-4.573386
48038		-10.842126	25.409151	-4.651397
48039		-10.874532	25.379635	-4.721602
48040		-10.894787	25.371301	-4.779793
48041		-10.905887	25.373992	-4.811202
48042		-10.906155	25.380182	-4.818163
48043		-10.890220	25.386695	-4.800613
48044		-10.850955	25.398459	-4.777913
48045		-10.784157	25.407008	-4.748084
48046		-10.700857	25.405454	-4.721297
48047		-10.590596	25.391057	-4.689647
48048		-10.451426	25.367781	-4.655079
48049		-10.300047	25.324688	-4.618905
48050		-10.152061	25.247288	-4.588039
48051		-10.013309	25.124507	-4.562424
48052		-9.892648	24.970842	-4.537964
48053		-9.792469	24.799951	-4.509079
48054		-9.716763	24.620254	-4.470625
48055		-9.653259	24.444886	-4.428730
48056		-9.591708	24.291048	-4.385087
48057		-9.548307	24.159299	-4.350117
48058		-9.534980	24.029332	-4.322393
48059		-9.550123	23.897839	-4.292093
48060		-9.599600	23.770909	-4.252413
48061		-9.667848	23.649025	-4.193388
48062		-9.739370	23.530860	-4.112665
48063		-9.805645	23.427296	-4.015101
48064		-9.873640	23.349159	-3.911052
48065		-9.950076	23.286103	-3.811480
48066		-10.028302	23.234709	-3.721671
48067		-10.106937	23.187791	-3.641914
48068		-10.200359	23.147142	-3.585878
48069		-10.303944	23.115144	-3.544919
48070		-10.424853	23.125776	-3.520911
48071		-10.541417	23.177936	-3.507714
48072		-10.612328	23.248558	-3.498513
48073		-10.625772	23.320588	-3.485711
48074		-10.582197	23.372244	-3.466339
48075		-10.481937	23.388465	-3.437093
48076		-10.356961	23.386803	-3.398910
48077		-10.207213	23.360420	-3.339176
48078		-10.044778	23.288214	-3.269369
48079		-9.905381	23.189470	-3.199542
48080		-9.766116	23.131115	-3.134724
48081		-9.621803	23.138170	-3.077414
48082		-9.487394	23.172864	-3.027573
48083		-9.363112	23.187144	-2.967454
48084		-9.265165	23.183022	-2.903419
48085		-9.230575	23.170513	-2.826230
48086		-9.271018	23.147540	-2.725231
48087		-9.388026	23.127011	-2.594049
48088		-9.552779	23.127826	-2.451890
48089		-9.727226	23.154795	-2.321256
48090		-9.914064	23.199377	-2.214656
48091		-10.114420	23.259185	-2.138827
48092		-10.315309	23.330850	-2.089995
48093		-10.479226	23.395481	-2.048605
48094		-10.583017	23.447010	-2.008369
48095		-10.606682	23.488470	-1.963633
48096		-10.548272	23.519321	-1.909732
48097		-10.428232	23.550811	-1.848723
48098		-10.280363	23.603794	-1.796665
48099		-10.136391	23.676637	-1.769715
48100		-10.007636	23.754880	-1.760258
48101		-9.903951	23.830693	-1.755369
48102		-9.837818	23.899973	-1.744951
48103		-9.815006	23.959855	-1.724061
48104		-9.843941	24.016620	-1.694352
48105		-9.928704	24.068434	-1.655957
48106		-10.063915	24.118732	-1.620462
48107		-10.231221	24.166871	-1.590961
48108		-10.403611	24.201609	-1.564587
48109		-10.568432	24.224749	-1.542727
48110		-10.721967	24.232009	-1.516869
48111		-10.868481	24.232225	-1.482746
48112		-11.003627	24.230786	-1.442140
48113		-11.129864	24.224932	-1.396244
48114		-11.246991	24.208142	-1.349877
48115		-11.365450	24.184656	-1.310877
48116		-11.482629	24.164090	-1.279977
48117		-11.591408	24.141448	-1.253047
48118		-11.693175	24.117745	-1.231694
48119		-11.787804	24.086530	-1.218459
48120		-11.877024	24.049213	-1.214168
48121		-11.974037	24.001464	-1.226322
48122		-12.079148	23.951337	-1.263018
48123		-12.196672	23.912386	-1.331030
48124		-12.340874	23.888283	-1.425562
48125		-12.537582	23.868479	-1.549287
48126		-12.793185	23.847531	-1.694602
48127		-13.099934	23.824854	-1.855207
48128		-13.442612	23.820337	-2.030694
48129		-13.810781	23.853898	-2.217640
48130		-14.226216	23.937355	-2.412124
48131		-14.643299	24.050377	-2.620577
48132		-15.036080	24.185459	-2.849699
48133		-15.390488	24.323188	-3.090066
48134		-15.729871	24.455819	-3.347980
48135		-16.054371	24.584618	-3.624672
48136		-16.361137	24.719766	-3.921793
48137		-16.647888	24.866016	-4.239980
48138		-16.899560	25.029667	-4.587774
48139		-17.089970	25.222094	-4.938945
48140		-17.268513	25.456388	-5.282838
48141		-17.400791	25.685204	-5.612177
48142		-17.469226	25.914103	-5.955183
48143		-17.459604	26.155252	-6.317361
48144		-17.396476	26.414208	-6.698537
48145		-17.315710	26.674461	-7.093960
48146		-17.240170	26.932376	-7.496325
48147		-17.179964	27.180536	-7.889048
48148		-17.190558	27.434416	-8.261779
48149		-17.284529	27.742939	-8.631902
48150		-17.362963	28.096447	-9.003618
48151		-17.424798	28.471363	-9.378341
48152		-17.467641	28.841839	-9.753737
48153		-17.500072	29.199599	-10.121963
48154		-17.502105	29.538898	-10.463799
48155		-17.510847	29.844077	-10.762241
48156		-17.550176	30.105494	-11.039846
48157		-17.610872	30.308380	-11.309424
48158		-17.711253	30.467001	-11.579943
48159		-17.840133	30.592417	-11.842964
48160		-17.991276	30.702415	-12.110960
48161		-18.131512	30.811967	-12.377158
48162		-18.233420	30.936273	-12.639461
48163		-18.285518	31.079879	-12.900820
48164		-18.280800	31.237206	-13.161318
48165		-18.229978	31.393287	-13.421989
48166		-18.143271	31.542222	-13.696874
48167		-18.032912	31.674743	-13.979799
48168		-17.916359	31.804751	-14.267860
48169		-17.802728	31.942157	-14.556692
48170		-17.693656	32.104373	-14.840924
48171		-17.587363	32.278107	-15.124213
48172		-17.500411	32.460462	-15.405499
48173		-17.439403	32.640821	-15.679177
48174		-17.408754	32.840937	-15.951624
48175		-17.408676	33.063779	-16.229156
48176		-17.428728	33.311858	-16.522569
48177		-17.440692	33.576038	-16.824178
48178		-17.411495	33.859411	-17.130713
48179		-17.310738	34.158119	-17.448028
48180		-17.123320	34.442190	-17.770768
48181		-16.859364	34.721995	-18.101745
48182		-16.537530	35.028543	-18.445376
48183		-16.177028	35.342847	-18.796909
48184		-15.785207	35.640207	-19.149227
48185		-15.362069	35.913542	-19.492611
48186		-14.917046	36.166766	-19.825132
48187		-14.454661	36.382237	-20.132558
48188		-14.010042	36.569844	-20.426031
48189		-13.610489	36.752831	-20.708108
48190		-13.278500	36.949275	-20.991364
48191		-13.016683	37.160866	-21.281669
48192		-12.844730	37.409476	-21.580141
48193		-12.760479	37.665208	-21.891823
48194		-12.762560	37.933033	-22.216899
48195		-12.831304	38.208165	-22.539685
48196		-12.941475	38.481751	-22.857069
48197		-13.078333	38.751263	-23.168383
48198		-13.241818	39.028598	-23.487723
48199		-13.410684	39.326240	-23.808685
48200		-13.575497	39.636910	-24.121498
48201		-13.738403	39.936651	-24.440063
48202		-13.910999	40.226037	-24.753100
48203		-14.100394	40.512666	-25.074162
48204		-14.286145	40.808703	-25.392068
48205		-14.460483	41.109600	-25.717158
48206		-14.639583	41.424411	-26.058586
48207		-14.821653	41.735745	-26.422370
48208		-15.002866	42.038962	-26.802556
48209		-15.165034	42.330144	-27.197086
48210		-15.307997	42.612924	-27.595778
48211		-15.433498	42.882798	-27.980508
48212		-15.547081	43.157922	-28.367754
48213		-15.659600	43.444072	-28.770211
48214		-15.763118	43.741185	-29.170652
48215		-15.853403	44.035583	-29.574520
48216		-15.936618	44.321300	-29.987217
48217		-16.020542	44.605074	-30.403192
48218		-16.103469	44.882026	-30.824916
48219		-16.183883	45.146700	-31.238975
48220		-16.281406	45.429566	-31.631920
48221		-16.387871	45.713920	-32.003620
48222		-16.499950	45.996151	-32.360644
48223		-16.621070	46.270481	-32.711993
48224		-16.770212	46.548314	-33.067907
48225		-16.936027	46.835279	-33.433387
48226		-17.107457	47.118985	-33.807835
48227		-17.273857	47.387498	-34.189814
48228		-17.436405	47.643779	-34.568908
48229		-17.604937	47.909003	-34.939913
48230		-17.783168	48.189232	-35.313686
48231		-17.949756	48.455650	-35.676279
48232		-18.106797	48.697583	-36.039490
48233		-18.268462	48.924678	-36.413046
48234		-18.445287	49.159991	-36.796366
48235		-18.628163	49.405187	-37.187901
48236		-18.790854	49.640499	-37.570606
48237		-18.935235	49.841059	-37.949045
48238		-19.082617	50.030995	-38.328860
48239		-19.246065	50.247516	-38.712595
48240		-19.454638	50.490273	-39.099501
48241		-19.714870	50.731364	-39.479086
48242		-20.006624	50.964392	-39.851025
48243		-20.312321	51.187294	-40.211632
48244		-20.635505	51.416072	-40.571106
48245		-20.960319	51.642185	-40.920279
48246		-21.276120	51.859087	-41.252661
48247		-21.566625	52.058273	-41.551576
48248		-21.814563	52.243186	-41.809075
48249		-22.031045	52.411394	-42.024074
48250		-22.204878	52.559343	-42.193777
48251		-22.327408	52.674976	-42.303965
48252		-22.411503	52.766186	-42.366096
48253		-22.456557	52.828802	-42.381756
48254		-22.470544	52.865526	-42.356695
48255		-22.469499	52.888125	-42.305730
48256		-22.446148	52.899171	-42.228342
48257		-22.404667	52.891804	-42.120451
48258		-22.359742	52.863111	-41.995128
48259		-22.340926	52.828068	-41.882106
48260		-22.381805	52.794551	-41.811637
48261		-22.469297	52.773652	-41.779416
48262		-22.594484	52.762788	-41.784485
48263		-22.729087	52.758669	-41.812172
48264		-22.868064	52.763043	-41.855856
48265		-23.007045	52.778720	-41.904423
48266		-23.144548	52.797885	-41.950994
48267		-23.276365	52.817062	-41.993029
48268		-23.390469	52.836565	-42.022813
48269		-23.489341	52.847223	-42.048847
48270		-23.568565	52.848927	-42.064795
48271		-23.636912	52.848953	-42.089681
48272		-23.685744	52.845537	-42.126213
48273		-23.717093	52.836577	-42.177468
48274		-23.741130	52.822182	-42.247027
48275		-23.758914	52.812885	-42.331214
48276		-23.753061	52.808142	-42.422264
48277		-23.725519	52.804315	-42.513441
48278		-23.670915	52.798869	-42.600587
48279		-23.591535	52.784165	-42.687829
48280		-23.482372	52.768422	-42.773794
48281		-23.322815	52.750572	-42.853111
48282		-23.144328	52.725611	-42.927002
48283		-22.959679	52.694850	-42.994571
48284		-22.782743	52.648359	-43.049468
48285		-22.624079	52.571737	-43.095579
48286		-22.490856	52.479818	-43.145777
48287		-22.392733	52.388740	-43.197576
48288		-22.335390	52.302083	-43.252480
48289		-22.303881	52.229290	-43.308335
48290		-22.320875	52.159240	-43.372093
48291		-22.404564	52.098190	-43.476859
48292		-22.525700	52.039924	-43.614046
48293		-22.633727	51.977401	-43.758089
48294		-22.727113	51.911116	-43.891081
48295		-22.807940	51.843878	-44.006902
48296		-22.903403	51.796233	-44.124162
48297		-23.030290	51.766672	-44.247311
48298		-23.180228	51.759705	-44.381467
48299		-23.347943	51.757520	-44.524659
48300		-23.537476	51.749488	-44.684707
48301		-23.724893	51.732078	-44.850400
48302		-23.904325	51.715672	-45.031992
48303		-24.068152	51.702569	-45.221435
48304		-24.210955	51.710068	-45.411859
48305		-24.313677	51.722373	-45.577284
48306		-24.361443	51.705301	-45.687374
48307		-24.379041	51.666981	-45.757328
48308		-24.389169	51.635092	-45.804041
48309		-24.406210	51.610872	-45.837097
48310		-24.425855	51.615556	-45.859974
48311		-24.453524	51.655478	-45.891304
48312		-24.477426	51.718081	-45.930074
48313		-24.497076	51.774282	-45.967315
48314		-24.518200	51.823687	-45.992901
48315		-24.552042	51.870273	-45.991495
48316		-24.611376	51.937370	-45.969047
48317		-24.714362	52.030631	-45.918169
48318		-24.835087	52.125313	-45.806879
48319		-24.901368	52.179775	-45.614613
48320		-24.906189	52.199546	-45.378340
48321		-24.850895	52.193734	-45.132265
48322		-24.758491	52.179429	-44.907309
48323		-24.610888	52.160840	-44.683147
48324		-24.438042	52.151768	-44.498710
48325		-24.272628	52.152830	-44.364212
48326		-24.157534	52.132894	-44.269514
48327		-24.087638	52.080197	-44.186843
48328		-24.068935	52.035427	-44.119902
48329		-24.113562	52.022589	-44.079426
48330		-24.219880	52.028912	-44.065374
48331		-24.369892	52.040146	-44.067654
48332		-24.540711	52.047109	-44.086946
48333		-24.717651	52.059181	-44.119578
48334		-24.886540	52.077099	-44.164099
48335		-25.035506	52.088398	-44.212329
48336		-25.152680	52.084011	-44.242901
48337		-25.229919	52.065761	-44.246227
