// General information: 
//  MT Manager version: 2022.2.0 
//  XDA version: 2022.2.0 build 7381 rev 124627 built on 2023-07-19
// Device information: 
//  DeviceId: 00B44876
//  ProductCode: MTW2-3A7G6
//  Firmware Version: 4.3.5
//  Hardware Version: 2.0.0
// Device settings: 
//  Filter Profile: human(46.1)
//  Option Flags: Orientation Smoother Disabled, Position/Velocity Smoother Disabled, Continuous Zero Rotation Update Disabled, AHS Disabled, ICC Disabled
// Coordinate system: ENU
PacketCounter	SampleTimeFine	Roll	Pitch	Yaw
45227		7.044235	-4.577012	2.574303
45228		7.049621	-4.574806	2.571446
45229		7.055920	-4.574240	2.568184
45230		7.057358	-4.573895	2.566040
45231		7.056781	-4.574674	2.564499
45232		7.054450	-4.576934	2.565078
45233		7.053598	-4.578171	2.564349
45234		7.056734	-4.576460	2.565882
45235		7.064443	-4.576764	2.566290
45236		7.075207	-4.575436	2.565531
45237		7.088610	-4.574381	2.568093
45238		7.098968	-4.570366	2.568371
45239		7.110466	-4.568668	2.570409
45240		7.121393	-4.566245	2.572490
45241		7.134599	-4.564495	2.572967
45242		7.146420	-4.562585	2.571829
45243		7.158462	-4.563731	2.570378
45244		7.182047	-4.558594	2.564850
45245		7.187931	-4.557830	2.566013
45246		7.189758	-4.558331	2.563656
45247		7.188617	-4.558129	2.564682
45248		7.184073	-4.560259	2.565418
45249		7.182427	-4.560325	2.563871
45250		7.182300	-4.560890	2.565110
45251		7.180482	-4.562119	2.566261
45252		7.183320	-4.560847	2.568586
45253		7.185458	-4.557794	2.571234
45254		7.189339	-4.554108	2.574015
45255		7.189767	-4.551276	2.578078
45256		7.185649	-4.548205	2.582522
45257		7.184224	-4.544788	2.586088
45258		7.185776	-4.542152	2.591838
45259		7.189155	-4.537513	2.596828
45260		7.191213	-4.534540	2.599566
45261		7.197072	-4.530098	2.602381
45262		7.203268	-4.527835	2.605588
45263		7.204319	-4.524078	2.608135
45264		7.203493	-4.522399	2.611205
45265		7.202035	-4.522730	2.612862
45266		7.201421	-4.521154	2.613715
45267		7.199424	-4.519816	2.613713
45268		7.197669	-4.519363	2.613521
45269		7.194628	-4.518609	2.613927
45270		7.194633	-4.519822	2.611526
45271		7.199407	-4.517668	2.608290
45272		7.206414	-4.512144	2.604293
45273		7.213884	-4.504240	2.600517
45274		7.220889	-4.498713	2.596521
45275		7.226108	-4.491458	2.596951
45276		7.226822	-4.482709	2.594898
45277		7.223373	-4.476208	2.594272
45278		7.223956	-4.466808	2.595855
45279		7.228580	-4.459754	2.593596
45280		7.238514	-4.453022	2.594919
45281		7.253876	-4.441455	2.595321
45282		7.273211	-4.426371	2.593511
45283		7.292560	-4.411737	2.590268
45284		7.306520	-4.400094	2.588915
45285		7.314829	-4.387292	2.589951
45286		7.317130	-4.375877	2.590991
45287		7.320013	-4.370240	2.590575
45288		7.330816	-4.362168	2.589519
45289		7.348508	-4.349759	2.586729
45290		7.369857	-4.334031	2.582765
45291		7.391221	-4.318883	2.577148
45292		7.414200	-4.301674	2.571226
45293		7.438468	-4.282705	2.562044
45294		7.464027	-4.262131	2.553205
45295		7.491580	-4.238444	2.546571
45296		7.524820	-4.212249	2.545051
45297		7.573973	-4.182847	2.543368
45298		7.599435	-4.143695	2.569145
45299		7.628473	-4.076414	2.609161
45300		7.653505	-3.966454	2.675157
45301		7.698366	-3.812243	2.743305
45302		7.815899	-3.637321	2.752309
45303		8.007926	-3.455051	2.746785
45304		8.264457	-3.267215	2.738602
45305		8.501415	-3.054274	2.726217
45306		8.703664	-2.819164	2.720756
45307		8.885564	-2.577829	2.717640
45308		9.071323	-2.350466	2.707295
45309		9.282445	-2.148082	2.688915
45310		9.490646	-1.958888	2.664489
45311		9.629752	-1.731317	2.620566
45312		9.666339	-1.389693	2.570533
45313		9.737409	-1.065862	2.562684
45314		9.769817	-0.730810	2.580650
45315		9.731355	-0.340334	2.554196
45316		9.712037	0.086396	2.535046
45317		9.710683	0.510398	2.553022
45318		9.744959	1.000033	2.599777
45319		9.878347	1.557175	2.692364
45320		10.089316	2.259132	2.684829
45321		10.159709	2.887450	2.637605
45322		10.303257	3.466008	2.694045
45323		10.492237	4.101788	2.688312
45324		10.466614	4.622685	2.676320
45325		10.525796	4.939233	2.905398
45326		10.359616	4.907043	3.052584
45327		10.369834	4.883808	3.156007
45328		10.318997	4.908680	3.140254
45329		10.197894	4.945003	3.199346
45330		10.057939	5.022394	3.210911
45331		9.888793	5.059654	3.309445
45332		9.726712	5.154362	3.311640
45333		9.539840	5.193585	3.387667
45334		9.411910	5.302394	3.356102
45335		9.254321	5.326188	3.407619
45336		9.160628	5.415577	3.361508
45337		8.990519	5.401843	3.407856
45338		8.927205	5.474888	3.375175
45339		8.793926	5.465078	3.394432
45340		8.769923	5.523055	3.374094
45341		8.665886	5.525325	3.358112
45342		8.621147	5.546132	3.369203
45343		8.523717	5.579562	3.330188
45344		8.425658	5.590273	3.370789
45345		8.321744	5.658612	3.343505
45346		8.158517	5.662585	3.395340
45347		8.012928	5.700665	3.406119
45348		7.845873	5.677673	3.456643
45349		7.708220	5.636688	3.496159
45350		7.607405	5.578147	3.517824
45351		7.516141	5.506524	3.529786
45352		7.475835	5.451472	3.527723
45353		7.477955	5.407975	3.519450
45354		7.490826	5.378086	3.508055
45355		7.487105	5.351594	3.499104
45356		7.457825	5.320971	3.492073
45357		7.400772	5.274540	3.493436
45358		7.334783	5.222368	3.499543
45359		7.294268	5.162881	3.501316
45360		7.290432	5.102096	3.493685
45361		7.309965	5.046332	3.472410
45362		7.341113	5.007058	3.437563
45363		7.369431	4.967155	3.397842
45364		7.384012	4.926660	3.366661
45365		7.403742	4.877460	3.351217
45366		7.418217	4.828857	3.352606
45367		7.412934	4.769466	3.364414
45368		7.389439	4.694275	3.376346
45369		7.359239	4.607803	3.370573
45370		7.334573	4.525507	3.339775
45371		7.316723	4.464350	3.290762
45372		7.294860	4.416355	3.227263
45373		7.272332	4.369690	3.164133
45374		7.258079	4.315477	3.094434
45375		7.248722	4.255053	3.017308
45376		7.240342	4.192917	2.930980
45377		7.234187	4.132492	2.834623
45378		7.235549	4.071238	2.726242
45379		7.238363	3.996414	2.603301
45380		7.231543	3.925461	2.473226
45381		7.212753	3.856315	2.331117
45382		7.191805	3.804705	2.189266
45383		7.166208	3.762279	2.039002
45384		7.143064	3.730829	1.893139
45385		7.110600	3.691245	1.754575
45386		7.085525	3.650933	1.623670
45387		7.067163	3.618458	1.486435
45388		7.034047	3.589194	1.348069
45389		6.977573	3.549526	1.209894
45390		6.918663	3.499539	1.080238
45391		6.864533	3.436505	0.955495
45392		6.823057	3.374491	0.837504
45393		6.795505	3.315310	0.709247
45394		6.778678	3.262362	0.574501
45395		6.764098	3.208420	0.438346
45396		6.752767	3.151459	0.315594
45397		6.755048	3.093501	0.188407
45398		6.767286	3.052300	0.060951
45399		6.771436	3.022515	-0.065800
45400		6.763103	2.998784	-0.185537
45401		6.738790	2.969119	-0.292625
45402		6.697607	2.930147	-0.391411
45403		6.654119	2.890509	-0.487126
45404		6.610081	2.848435	-0.579853
45405		6.563503	2.806330	-0.676039
45406		6.528528	2.758379	-0.768909
45407		6.505997	2.690683	-0.866057
45408		6.489891	2.603753	-0.956093
45409		6.478117	2.514355	-1.039410
45410		6.467647	2.439223	-1.119425
45411		6.452611	2.382072	-1.189510
45412		6.420462	2.338854	-1.247861
45413		6.382222	2.293250	-1.283442
45414		6.329133	2.241912	-1.306759
45415		6.279493	2.188641	-1.317881
45416		6.239495	2.140449	-1.324179
45417		6.187975	2.094420	-1.333077
45418		6.132237	2.038236	-1.338489
45419		6.077727	1.970142	-1.349455
45420		6.032831	1.893514	-1.368218
45421		5.993695	1.814524	-1.396202
45422		5.954699	1.736609	-1.438258
45423		5.911998	1.668020	-1.480336
45424		5.858492	1.601586	-1.518024
45425		5.800114	1.534291	-1.549518
45426		5.735442	1.461034	-1.578940
45427		5.658688	1.385321	-1.618831
45428		5.585716	1.309255	-1.665919
45429		5.514413	1.247156	-1.725141
45430		5.430310	1.191889	-1.779979
45431		5.348201	1.137493	-1.819925
45432		5.274964	1.073497	-1.846053
45433		5.199033	0.990053	-1.857215
45434		5.124452	0.880226	-1.847598
45435		5.053564	0.754690	-1.821524
45436		4.989264	0.631757	-1.783050
45437		4.930005	0.518102	-1.744734
45438		4.865867	0.403562	-1.711393
45439		4.808156	0.277183	-1.695626
45440		4.766248	0.135334	-1.706693
45441		4.735861	-0.021447	-1.748871
45442		4.721292	-0.193673	-1.826015
45443		4.759451	-0.477388	-1.923695
45444		4.869331	-1.101855	-1.995907
45445		4.901373	-2.202744	-1.961346
45446		4.716756	-3.391745	-1.821177
45447		4.499494	-4.392270	-1.723243
45448		4.441775	-5.196240	-1.713399
45449		4.531720	-5.873993	-1.775151
45450		4.658594	-6.431244	-1.906922
45451		4.769012	-6.838153	-2.103515
45452		4.843323	-7.106118	-2.313686
45453		4.911032	-7.261761	-2.496080
45454		4.972192	-7.341224	-2.653179
45455		5.020983	-7.408529	-2.796298
45456		5.026661	-7.474083	-2.916894
45457		4.960741	-7.558961	-3.013378
45458		4.833188	-7.687710	-3.068199
45459		4.725658	-7.839010	-3.065392
45460		4.645126	-7.995275	-3.030392
45461		4.590065	-8.135843	-2.983593
45462		4.568664	-8.266056	-2.936556
45463		4.596507	-8.396567	-2.897629
45464		4.668143	-8.544793	-2.874025
45465		4.760258	-8.691759	-2.861354
45466		4.847301	-8.811045	-2.844353
45467		4.934843	-8.867413	-2.828082
45468		5.026839	-8.921578	-2.779167
45469		4.982604	-8.998798	-2.696075
45470		4.936717	-9.112478	-2.667079
45471		4.913847	-9.238146	-2.625973
45472		4.899693	-9.381970	-2.595840
45473		4.877501	-9.587923	-2.519989
45474		4.841131	-9.901411	-2.399592
45475		4.849381	-10.243186	-2.310035
45476		4.866622	-10.657196	-2.218666
45477		4.841086	-11.208025	-2.185644
45478		4.828019	-11.889536	-2.185012
45479		4.836828	-12.625507	-2.212717
45480		4.893899	-13.331522	-2.265465
45481		4.960052	-13.941848	-2.314587
45482		5.036792	-14.440205	-2.378755
45483		5.144287	-14.847295	-2.474297
45484		5.280063	-15.213333	-2.581324
45485		5.441047	-15.597448	-2.705688
45486		5.626422	-16.039529	-2.842031
45487		5.794967	-16.523277	-2.985893
45488		5.911670	-16.993310	-3.133657
45489		5.975487	-17.394867	-3.277209
45490		5.979356	-17.694696	-3.394347
45491		5.973927	-17.876226	-3.489757
45492		5.982209	-17.952257	-3.552817
45493		6.024447	-17.952666	-3.597373
45494		6.079196	-17.914389	-3.624740
45495		6.116975	-17.856726	-3.647074
45496		6.111239	-17.809940	-3.672614
45497		6.070426	-17.786860	-3.707342
45498		6.012792	-17.774127	-3.744068
45499		5.950572	-17.753720	-3.795689
45500		5.870405	-17.743594	-3.872228
45501		5.807939	-17.705380	-3.996267
45502		5.785619	-17.625326	-4.177667
45503		5.792229	-17.503894	-4.393403
45504		5.757257	-17.451996	-4.642227
45505		5.613766	-17.601168	-4.860372
45506		5.467147	-17.820779	-5.024156
45507		5.386005	-17.982814	-5.140679
45508		5.304471	-18.094084	-5.239976
45509		5.208611	-18.216257	-5.377482
45510		5.149752	-18.387437	-5.504098
45511		5.093429	-18.555029	-5.616651
45512		5.076737	-18.662640	-5.718744
45513		5.085272	-18.710494	-5.801909
45514		5.084808	-18.726668	-5.884563
45515		5.094683	-18.694759	-5.997100
45516		5.133985	-18.603031	-6.106437
45517		5.172444	-18.464073	-6.181481
45518		5.190981	-18.257092	-6.217748
45519		5.221371	-17.954397	-6.219418
45520		5.281816	-17.516620	-6.168124
45521		5.362810	-16.935301	-6.053161
45522		5.409506	-16.279115	-5.913681
45523		5.283231	-15.784073	-5.782899
45524		5.092021	-15.416139	-5.586137
45525		5.053085	-15.130701	-5.344876
45526		4.958885	-14.946581	-5.128881
45527		4.929629	-14.693013	-5.009475
45528		4.932571	-14.514899	-4.945784
45529		4.989162	-14.348566	-4.923345
45530		5.063646	-14.169010	-4.880253
45531		5.116765	-14.025829	-4.833864
45532		5.168982	-13.878369	-4.785351
45533		5.189821	-13.719620	-4.742005
45534		5.177426	-13.586312	-4.695201
45535		5.143013	-13.466220	-4.650084
45536		5.080597	-13.355465	-4.606651
45537		4.980752	-13.263551	-4.570604
45538		4.885131	-13.189107	-4.541232
45539		4.813764	-13.136877	-4.529144
45540		4.761342	-13.107231	-4.539790
45541		4.737490	-13.113573	-4.569504
45542		4.731793	-13.166565	-4.596149
45543		4.729990	-13.260811	-4.618126
45544		4.741733	-13.385475	-4.636344
45545		4.762298	-13.509578	-4.657180
45546		4.753766	-13.597914	-4.673767
45547		4.717957	-13.646734	-4.678759
45548		4.682226	-13.663123	-4.680545
45549		4.655143	-13.657816	-4.680754
45550		4.640098	-13.641305	-4.685787
45551		4.629808	-13.625353	-4.689417
45552		4.618806	-13.622649	-4.690553
45553		4.601113	-13.635164	-4.684461
45554		4.588084	-13.661461	-4.674004
45555		4.581922	-13.702300	-4.668876
45556		4.582139	-13.743722	-4.663777
45557		4.575281	-13.773790	-4.659202
45558		4.559237	-13.793110	-4.653479
45559		4.537284	-13.801180	-4.646647
45560		4.505523	-13.799920	-4.638469
45561		4.467738	-13.793825	-4.626608
45562		4.424799	-13.787087	-4.613826
45563		4.378503	-13.783228	-4.596825
45564		4.331308	-13.791017	-4.572834
45565		4.292331	-13.826590	-4.533865
45566		4.269582	-13.897907	-4.481770
45567		4.258111	-13.994603	-4.402369
45568		4.225742	-14.099181	-4.337686
45569		4.187843	-14.189504	-4.276265
45570		4.124885	-14.254936	-4.229443
45571		4.035110	-14.267722	-4.225134
45572		3.950454	-14.267066	-4.271245
45573		3.890943	-14.280748	-4.341011
45574		3.861584	-14.285033	-4.383717
45575		3.844930	-14.309285	-4.415259
45576		3.867271	-14.356136	-4.459074
45577		3.936582	-14.413786	-4.503975
45578		4.078029	-14.383260	-4.495914
45579		4.146288	-14.362657	-4.379143
45580		4.136750	-14.494750	-4.220842
45581		4.206827	-14.570440	-4.159103
45582		4.290334	-14.625650	-4.091704
45583		4.291531	-14.760328	-4.005762
45584		4.305342	-14.887878	-3.916671
45585		4.343133	-14.983878	-3.807699
45586		4.359288	-15.083927	-3.677001
45587		4.395052	-15.166308	-3.538133
45588		4.466798	-15.223884	-3.404449
45589		4.555259	-15.261192	-3.283248
45590		4.644583	-15.295858	-3.179466
45591		4.763944	-15.301794	-3.102950
45592		4.896255	-15.303412	-3.040683
45593		4.998914	-15.330913	-2.983722
45594		5.069192	-15.368667	-2.930954
45595		5.124193	-15.386378	-2.874976
45596		5.147462	-15.401082	-2.789804
45597		5.120880	-15.419154	-2.656375
45598		5.065452	-15.412560	-2.499387
45599		4.997470	-15.379442	-2.338623
45600		4.917319	-15.340987	-2.186813
45601		4.848869	-15.288800	-2.049680
45602		4.793634	-15.224444	-1.921384
45603		4.744600	-15.157198	-1.792442
45604		4.706520	-15.106902	-1.683741
45605		4.692599	-15.057170	-1.593381
45606		4.668744	-15.021337	-1.494331
45607		4.615977	-15.002980	-1.372758
45608		4.563493	-14.987524	-1.243676
45609		4.519342	-14.974532	-1.114491
45610		4.480018	-14.968208	-0.986460
45611		4.431415	-14.966771	-0.865285
45612		4.382595	-14.966047	-0.762348
45613		4.340087	-14.973405	-0.679845
45614		4.287970	-15.008828	-0.611534
45615		4.216988	-15.061612	-0.549230
45616		4.107919	-15.137804	-0.480821
45617		3.981003	-15.241785	-0.407460
45618		3.869624	-15.361067	-0.327809
45619		3.773496	-15.474527	-0.235790
45620		3.680967	-15.586591	-0.140980
45621		3.596147	-15.684782	-0.054562
45622		3.524297	-15.761853	0.016774
45623		3.461279	-15.820870	0.063993
45624		3.407907	-15.869042	0.090716
45625		3.368389	-15.904955	0.106849
45626		3.332346	-15.938185	0.123771
45627		3.292175	-15.964584	0.159021
45628		3.249082	-15.982433	0.208828
45629		3.196844	-15.989829	0.273108
45630		3.146358	-15.991256	0.339118
45631		3.117946	-15.976249	0.397314
45632		3.107694	-15.953767	0.454788
45633		3.100380	-15.937234	0.519593
45634		3.098054	-15.917753	0.585894
45635		3.101020	-15.894090	0.653420
45636		3.095645	-15.867061	0.722195
45637		3.086719	-15.833827	0.778794
45638		3.070334	-15.789949	0.834540
45639		3.035002	-15.745420	0.894546
45640		2.988271	-15.700730	0.962559
45641		2.950896	-15.646944	1.030899
45642		2.928431	-15.587341	1.096397
45643		2.919481	-15.526318	1.161363
45644		2.913428	-15.472208	1.223333
45645		2.913779	-15.418495	1.282292
45646		2.912791	-15.376804	1.332903
45647		2.907711	-15.339612	1.364712
45648		2.891643	-15.309429	1.384368
45649		2.870692	-15.274437	1.401446
45650		2.847088	-15.237019	1.422715
45651		2.824218	-15.197726	1.450626
45652		2.822992	-15.141769	1.475426
45653		2.845655	-15.070266	1.500074
45654		2.872619	-14.999129	1.529190
45655		2.901835	-14.928922	1.552269
45656		2.929809	-14.852845	1.560219
45657		2.950823	-14.772146	1.553901
45658		2.953556	-14.693450	1.544467
45659		2.934286	-14.608957	1.529515
45660		2.905968	-14.517901	1.504905
45661		2.877335	-14.412571	1.469726
45662		2.863098	-14.290870	1.421267
45663		2.866208	-14.164611	1.367299
45664		2.872036	-14.048462	1.317274
45665		2.886308	-13.943082	1.269910
45666		2.907443	-13.844650	1.221377
45667		2.917553	-13.761315	1.176136
45668		2.920197	-13.677305	1.128602
45669		2.926200	-13.581919	1.074347
45670		2.944970	-13.481159	1.010588
45671		2.977679	-13.386531	0.948113
45672		3.004177	-13.311425	0.901606
45673		3.016575	-13.278529	0.872654
45674		3.014488	-13.307989	0.864258
45675		3.006401	-13.403197	0.873829
45676		3.014583	-13.534176	0.897321
45677		3.052272	-13.679085	0.928235
45678		3.114795	-13.815774	0.945039
45679		3.186526	-13.943102	0.951601
45680		3.234081	-14.082050	0.954725
45681		3.278453	-14.228985	0.950864
45682		3.326734	-14.371914	0.941137
45683		3.376945	-14.512331	0.930411
45684		3.429228	-14.646402	0.927381
45685		3.494041	-14.774386	0.934260
45686		3.577936	-14.902565	0.946470
45687		3.683899	-15.032400	0.980608
45688		3.793066	-15.155906	1.033679
45689		3.904713	-15.245142	1.088603
45690		3.998491	-15.286066	1.135319
45691		4.068940	-15.287948	1.165332
45692		4.119713	-15.267761	1.191568
45693		4.143741	-15.259642	1.224907
45694		4.151502	-15.276879	1.268293
45695		4.165974	-15.305247	1.312126
45696		4.201449	-15.328970	1.348866
45697		4.238097	-15.364012	1.380127
45698		4.296691	-15.411169	1.398604
45699		4.362939	-15.456918	1.402419
45700		4.424275	-15.496432	1.390635
45701		4.488321	-15.528350	1.355662
45702		4.552881	-15.560941	1.313385
45703		4.620389	-15.607571	1.275782
45704		4.691583	-15.676410	1.248953
45705		4.774366	-15.745548	1.220193
45706		4.874558	-15.822487	1.177204
45707		5.011134	-15.887538	1.120258
45708		5.145201	-15.940361	1.062278
45709		5.262481	-15.985781	1.001197
45710		5.360015	-16.042832	0.946828
45711		5.436337	-16.102633	0.901953
45712		5.495795	-16.167260	0.868604
45713		5.553050	-16.240866	0.840441
45714		5.606785	-16.325244	0.818589
45715		5.664332	-16.412603	0.793945
45716		5.731404	-16.500967	0.767443
45717		5.800962	-16.592502	0.743603
45718		5.853475	-16.692952	0.730391
45719		5.877449	-16.795751	0.716993
45720		5.906482	-16.895483	0.703463
45721		5.936404	-16.992453	0.695250
45722		5.948718	-17.094407	0.694850
45723		5.953224	-17.185977	0.749912
45724		5.935470	-17.252878	0.785289
45725		5.927302	-17.281409	0.817830
45726		5.890478	-17.277065	0.856067
45727		5.890101	-17.252506	0.864754
45728		5.915292	-17.217894	0.846791
45729		5.934644	-17.174407	0.823937
45730		5.948948	-17.120250	0.804988
45731		5.953821	-17.073257	0.787135
45732		5.943475	-17.038794	0.774028
45733		5.923407	-17.019600	0.779667
45734		5.898518	-17.009345	0.791036
45735		5.871714	-17.012179	0.804386
45736		5.843536	-17.013188	0.826888
45737		5.807221	-16.997636	0.853820
45738		5.808478	-16.930073	0.821000
45739		5.857113	-16.803922	0.777448
45740		5.859207	-16.689237	0.760374
45741		5.859913	-16.594086	0.749406
45742		5.878887	-16.521024	0.733763
45743		5.906321	-16.430019	0.740718
45744		5.971386	-16.261238	0.818551
45745		5.956259	-16.056796	0.913267
45746		5.950631	-15.829048	1.006497
45747		5.954580	-15.564613	1.092919
45748		5.951313	-15.238404	1.174229
45749		5.911219	-14.876583	1.218421
45750		5.895502	-14.568931	1.175679
45751		5.960565	-14.342622	1.108753
45752		6.050367	-14.169545	1.062060
45753		6.095607	-13.996423	1.036167
45754		6.081705	-13.804116	1.023952
45755		6.040559	-13.591799	1.021503
45756		5.964170	-13.354431	1.030308
45757		5.857317	-13.084380	1.048443
45758		5.760566	-12.783306	1.060323
45759		5.694601	-12.474488	1.075945
45760		5.657891	-12.174550	1.102228
45761		5.612782	-11.888694	1.131562
45762		5.541370	-11.602854	1.168089
45763		5.450050	-11.282677	1.200116
45764		5.377406	-10.897369	1.222197
45765		5.330573	-10.434889	1.235932
45766		5.304615	-9.900245	1.230798
45767		5.316309	-9.331912	1.195921
45768		5.379697	-8.782766	1.137773
45769		5.476149	-8.258503	1.074369
45770		5.584573	-7.773307	1.006268
45771		5.707073	-7.297617	0.966041
45772		5.807929	-6.790504	0.955174
45773		5.885658	-6.235321	0.967433
45774		5.943069	-5.632241	0.984751
45775		5.970666	-4.994913	1.002728
45776		5.979886	-4.321629	1.019861
45777		5.988006	-3.587751	1.029709
45778		6.009662	-2.767280	1.044651
45779		6.030844	-1.862573	1.056213
45780		6.048997	-0.890235	1.045928
45781		6.064021	0.123169	1.030097
45782		6.017318	1.118955	0.990425
45783		5.914556	2.075504	0.941165
45784		5.775056	2.992050	0.888991
45785		5.630044	3.852975	0.841792
45786		5.434733	4.608847	0.826092
45787		5.255078	5.251327	0.855679
45788		5.096553	5.811725	0.899659
45789		4.923886	6.311176	0.946834
45790		4.771080	6.770798	0.993742
45791		4.594943	7.165778	1.025354
45792		4.400558	7.479177	1.046374
45793		4.224014	7.729017	1.074234
45794		4.046928	7.933784	1.101706
45795		3.863332	8.098867	1.127591
45796		3.707023	8.236716	1.149730
45797		3.585850	8.353106	1.166145
45798		3.491473	8.446321	1.174088
45799		3.421817	8.520483	1.177142
45800		3.372383	8.569592	1.170908
45801		3.334898	8.593074	1.154791
45802		3.291376	8.592823	1.135622
45803		3.209664	8.596562	1.118828
45804		3.117149	8.633782	1.108715
45805		3.030468	8.683091	1.096261
45806		2.954648	8.731130	1.080878
45807		2.896688	8.766602	1.066826
45808		2.854739	8.784870	1.054853
45809		2.827540	8.779126	1.042876
45810		2.823785	8.746516	1.031747
45811		2.828214	8.690850	1.021518
45812		2.848313	8.612283	1.010114
45813		2.878431	8.522688	0.998267
45814		2.912940	8.428673	0.988411
45815		2.945747	8.347419	0.981882
45816		2.971216	8.285118	0.976752
45817		2.982756	8.248672	0.975954
45818		2.982933	8.235036	0.978949
45819		2.978509	8.224876	0.974033
45820		2.975833	8.213176	0.964231
45821		2.977057	8.190261	0.952634
45822		2.983569	8.160911	0.940735
45823		2.990038	8.118004	0.930459
45824		3.002695	8.062431	0.919259
45825		3.027892	7.998837	0.908947
45826		3.064211	7.934801	0.899332
45827		3.112490	7.869574	0.885062
45828		3.169904	7.811341	0.870788
45829		3.228845	7.770935	0.862475
45830		3.292967	7.757090	0.857850
45831		3.359868	7.764566	0.857971
45832		3.431152	7.785490	0.864306
45833		3.512941	7.810253	0.871350
45834		3.622960	7.903598	0.874409
45835		3.762367	7.996979	0.851737
45836		3.828353	8.052216	0.836065
45837		3.928133	8.099751	0.819208
45838		4.042991	8.151738	0.797282
45839		4.140137	8.208179	0.748570
45840		4.255173	8.299162	0.681228
45841		4.427709	8.420333	0.626782
45842		4.721177	8.648301	0.574108
45843		4.956423	8.966337	0.438529
45844		5.148234	9.288358	0.352122
45845		5.361094	9.645597	0.273658
45846		5.547353	9.986594	0.263671
45847		5.491876	10.115329	0.421669
45848		5.471928	10.165012	0.572738
45849		5.559776	10.287537	0.701156
45850		5.621560	10.431406	0.827813
45851		5.637805	10.571149	0.948478
45852		5.634597	10.691444	1.053952
45853		5.690445	10.740692	1.095169
45854		5.839085	10.720632	1.121268
45855		5.983034	10.618593	1.143989
45856		6.060301	10.457365	1.189935
45857		6.087629	10.270445	1.271468
45858		6.102849	10.087243	1.384112
45859		6.132890	9.919833	1.521864
45860		6.148467	9.785241	1.667631
45861		6.108274	9.677531	1.781975
45862		5.983005	9.569153	1.847686
45863		5.798373	9.467574	1.875933
45864		5.602211	9.405677	1.881737
45865		5.443072	9.387235	1.890938
45866		5.357868	9.396063	1.920407
45867		5.334333	9.428158	1.990166
45868		5.349251	9.479181	2.105655
45869		5.381998	9.533451	2.255215
45870		5.382498	9.580737	2.405199
45871		5.323351	9.636153	2.541329
45872		5.203747	9.725021	2.648977
45873		5.016780	9.826467	2.732936
45874		4.787897	9.933688	2.805815
45875		4.560370	10.028053	2.892548
45876		4.361491	10.083269	3.001707
45877		4.223090	10.090084	3.142696
45878		4.184807	10.048278	3.321219
45879		4.187599	9.957126	3.514208
45880		4.207321	9.854027	3.710537
45881		4.226875	9.790285	3.893579
45882		4.221647	9.804360	4.054328
45883		4.198770	9.914932	4.194871
45884		4.196596	10.142599	4.316972
45885		4.213074	10.473494	4.423432
45886		4.203402	10.867562	4.493365
45887		4.117794	11.257361	4.528374
45888		3.983164	11.569428	4.598770
45889		3.891039	11.796198	4.685626
45890		3.832692	11.917621	4.797828
45891		3.806418	11.921496	4.920727
45892		3.830014	11.815580	5.054642
45893		3.903932	11.644074	5.195225
45894		4.014763	11.447445	5.326982
45895		4.154674	11.268625	5.441322
45896		4.308350	11.147587	5.539729
45897		4.438352	11.108469	5.612892
45898		4.467476	11.131767	5.639707
45899		4.405117	11.205238	5.628388
45900		4.315241	11.311167	5.592149
45901		4.270362	11.416945	5.564399
45902		4.272543	11.491028	5.550640
45903		4.306928	11.509913	5.560334
45904		4.368235	11.478047	5.586123
45905		4.427212	11.390860	5.603309
45906		4.443711	11.256242	5.590376
45907		4.418839	11.093220	5.539794
45908		4.371757	10.934073	5.452863
45909		4.330068	10.803328	5.338304
45910		4.303651	10.721326	5.200699
45911		4.280666	10.694627	5.046314
45912		4.264198	10.723529	4.875597
45913		4.225420	10.780877	4.681244
45914		4.157352	10.821019	4.489293
45915		4.085941	10.809753	4.310369
45916		4.052415	10.749210	4.148639
45917		4.067400	10.630382	3.994760
45918		4.095844	10.476442	3.836431
45919		4.142941	10.302720	3.674502
45920		4.203622	10.134854	3.503433
45921		4.276640	9.985533	3.322863
45922		4.368787	9.868936	3.134707
45923		4.465652	9.795642	2.939098
45924		4.537455	9.775369	2.727421
45925		4.555036	9.765257	2.494453
45926		4.529225	9.760549	2.256287
45927		4.475089	9.744752	2.032448
45928		4.407165	9.700791	1.821729
45929		4.335656	9.637164	1.627967
45930		4.272956	9.566510	1.447285
45931		4.232044	9.492656	1.284461
45932		4.215307	9.421339	1.131724
45933		4.196290	9.342582	0.981520
45934		4.152332	9.257059	0.820867
45935		4.103983	9.170564	0.638916
45936		4.060842	9.092518	0.435500
45937		4.024595	9.013592	0.216022
45938		3.989974	8.935112	-0.009298
45939		3.942223	8.859946	-0.224680
45940		3.861831	8.780271	-0.414703
45941		3.756754	8.689265	-0.574801
45942		3.641504	8.581290	-0.707628
45943		3.531323	8.453543	-0.810821
45944		3.420854	8.297344	-0.890686
45945		3.318302	8.118450	-0.953467
45946		3.210189	7.929941	-1.008651
45947		3.080895	7.728971	-1.061532
45948		2.957225	7.520128	-1.115143
45949		2.848482	7.309955	-1.173912
45950		2.750777	7.110766	-1.237804
45951		2.682988	6.947541	-1.304712
45952		2.646359	6.834241	-1.377680
45953		2.629474	6.770286	-1.449023
45954		2.632517	6.757690	-1.514550
45955		2.663807	6.799469	-1.558638
45956		2.731847	6.895609	-1.573131
45957		2.812317	7.047785	-1.546789
45958		2.866271	7.246731	-1.496994
45959		2.833917	7.405941	-1.448770
45960		2.778644	7.463076	-1.386232
45961		2.749923	7.427706	-1.320934
45962		2.732570	7.319519	-1.257148
45963		2.730608	7.183832	-1.199326
45964		2.741407	7.068000	-1.139079
45965		2.789977	7.004227	-1.079417
45966		2.822301	6.983097	-1.035015
45967		2.820884	6.973059	-1.005472
45968		2.806914	6.956649	-0.981860
45969		2.784603	6.932682	-0.961415
45970		2.754597	6.896781	-0.941816
45971		2.739849	6.833373	-0.920653
45972		2.735609	6.720737	-0.904977
45973		2.746915	6.562935	-0.891991
45974		2.762787	6.360950	-0.889461
45975		2.777992	6.131931	-0.888916
45976		2.806693	5.875914	-0.890004
45977		2.852518	5.599556	-0.892090
45978		2.917588	5.292169	-0.890198
45979		3.002992	4.958016	-0.862846
45980		3.086274	4.591605	-0.829765
45981		3.150263	4.178059	-0.807590
45982		3.206904	3.731860	-0.791866
45983		3.266238	3.274475	-0.766001
45984		3.331566	2.778237	-0.686331
45985		3.366769	2.186216	-0.526682
45986		3.339694	1.503574	-0.360637
45987		3.278600	0.764252	-0.163074
45988		3.117387	-0.055746	0.033297
45989		2.930450	-0.893818	0.175513
45990		2.826664	-1.697196	0.288643
45991		2.690904	-2.439602	0.303438
45992		2.538084	-3.048964	0.227044
45993		2.392014	-3.495452	0.113177
45994		2.247470	-3.826739	-0.015585
45995		2.077238	-4.098898	-0.123050
45996		1.896571	-4.349454	-0.184883
45997		1.712934	-4.616408	-0.204363
45998		1.514787	-4.914132	-0.191573
45999		1.318231	-5.269230	-0.154546
46000		1.116667	-5.708993	-0.106322
46001		0.911721	-6.225637	-0.061427
46002		0.714839	-6.790874	-0.035613
46003		0.540007	-7.379795	-0.029658
46004		0.385136	-7.999099	-0.033649
46005		0.226752	-8.604743	-0.031050
46006		0.075131	-9.162066	-0.029809
46007		-0.033376	-9.664437	-0.028189
46008		-0.104189	-10.165492	-0.021612
46009		-0.154270	-10.700552	-0.022103
46010		-0.180536	-11.277899	-0.033449
46011		-0.181111	-11.864412	-0.067112
46012		-0.127625	-12.433762	-0.131493
46013		-0.006902	-12.922040	-0.218152
46014		0.116112	-13.290445	-0.325640
46015		0.215799	-13.613256	-0.487794
46016		0.423631	-13.895623	-0.709650
46017		0.755140	-14.114413	-0.981119
46018		1.129098	-14.281477	-1.273945
46019		1.471539	-14.436149	-1.567659
46020		1.793179	-14.583797	-1.862376
46021		2.129500	-14.708045	-2.162944
46022		2.499807	-14.804703	-2.472624
46023		2.891816	-14.874348	-2.800384
46024		3.273410	-14.902707	-3.147969
46025		3.598442	-14.861651	-3.515844
46026		3.835379	-14.732889	-3.893185
46027		3.957780	-14.524445	-4.222965
46028		3.994001	-14.272367	-4.490411
46029		4.012032	-14.024797	-4.694200
46030		4.055808	-13.840474	-4.863365
46031		4.068221	-13.721546	-5.023904
46032		4.024832	-13.619751	-5.174450
46033		3.899394	-13.515100	-5.313921
46034		3.773359	-13.352951	-5.460950
46035		3.770972	-13.097797	-5.609407
46036		3.902886	-12.787772	-5.767380
46037		4.118729	-12.474838	-5.957470
46038		4.370021	-12.175844	-6.193993
46039		4.745835	-11.961889	-6.477654
46040		4.940903	-11.983166	-6.663262
46041		4.938558	-12.153550	-6.819986
46042		4.813881	-12.402776	-6.909995
46043		4.666860	-12.622789	-7.005472
46044		4.589373	-12.807220	-7.115733
46045		4.587045	-12.926902	-7.242687
46046		4.610556	-12.952725	-7.353659
46047		4.651643	-12.873116	-7.395343
46048		4.635689	-12.734210	-7.344195
46049		4.531500	-12.588721	-7.208722
46050		4.388562	-12.450154	-7.005458
46051		4.257827	-12.308447	-6.746995
46052		4.204988	-12.143758	-6.509154
46053		4.284009	-11.964860	-6.303255
46054		4.321857	-11.842130	-6.123385
46055		4.308117	-11.717011	-5.999082
46056		4.315399	-11.579115	-5.881460
46057		4.286077	-11.501627	-5.745767
46058		4.272356	-11.417638	-5.624769
46059		4.268421	-11.350842	-5.525137
46060		4.213745	-11.323903	-5.450063
46061		4.236215	-11.238023	-5.414040
46062		4.239774	-11.138872	-5.358102
46063		4.228749	-11.078586	-5.297410
46064		4.241907	-11.038869	-5.298472
46065		4.264843	-10.996599	-5.290462
46066		4.222607	-10.993527	-5.259974
46067		4.151628	-11.004625	-5.237338
46068		4.088784	-11.031044	-5.222760
46069		4.047438	-11.082766	-5.216148
46070		4.033642	-11.161704	-5.214247
46071		4.028333	-11.243852	-5.213075
46072		4.019487	-11.320958	-5.215463
46073		3.999607	-11.376814	-5.220163
46074		3.964526	-11.416339	-5.226195
46075		3.933409	-11.447676	-5.233769
46076		3.889787	-11.485454	-5.237597
46077		3.868564	-11.526497	-5.250956
46078		3.860159	-11.576854	-5.264776
46079		3.847508	-11.636946	-5.278410
46080		3.828798	-11.706520	-5.289621
46081		3.806554	-11.782293	-5.297236
46082		3.786899	-11.847458	-5.306515
46083		3.770685	-11.889132	-5.320536
46084		3.766179	-11.902505	-5.330328
46085		3.768412	-11.908117	-5.337025
46086		3.770476	-11.913397	-5.342184
46087		3.770168	-11.924963	-5.342048
46088		3.765236	-11.942295	-5.335651
46089		3.764189	-11.964381	-5.322950
46090		3.770184	-11.991977	-5.307504
46091		3.788841	-12.019294	-5.287975
46092		3.823595	-12.057966	-5.271151
46093		3.876281	-12.105441	-5.257818
46094		3.939248	-12.171810	-5.246383
46095		4.011790	-12.255547	-5.238058
46096		4.089568	-12.354180	-5.228072
46097		4.173355	-12.466409	-5.227026
46098		4.265022	-12.590831	-5.234288
46099		4.356949	-12.721922	-5.240678
46100		4.442634	-12.855334	-5.237429
46101		4.511624	-12.982012	-5.225565
46102		4.569741	-13.087778	-5.212961
46103		4.616773	-13.174666	-5.202414
46104		4.648104	-13.247250	-5.185380
46105		4.659231	-13.315457	-5.160856
46106		4.653636	-13.379269	-5.128143
46107		4.640814	-13.448006	-5.093875
46108		4.633535	-13.523134	-5.059356
46109		4.631756	-13.592553	-5.035848
46110		4.635516	-13.653184	-5.017445
46111		4.635359	-13.706017	-4.997821
46112		4.626177	-13.749117	-4.977537
46113		4.595375	-13.791502	-4.953473
46114		4.542093	-13.834816	-4.928911
46115		4.456346	-13.861658	-4.933748
46116		4.366382	-13.888401	-4.959957
46117		4.270036	-13.921724	-5.012609
46118		4.222720	-13.979704	-5.030995
46119		4.165379	-14.060342	-5.032506
46120		4.132172	-14.150100	-5.032595
46121		4.134808	-14.241317	-5.011604
46122		4.149336	-14.372592	-5.005136
46123		4.217477	-14.496808	-5.024680
46124		4.313134	-14.616411	-5.021757
46125		4.415369	-14.726643	-5.020343
46126		4.538924	-14.816214	-5.025160
46127		4.671135	-14.870059	-4.994460
46128		4.770623	-14.943968	-4.939067
46129		4.877291	-15.048613	-4.913753
46130		5.010649	-15.134533	-4.922520
46131		5.152125	-15.188958	-4.939804
46132		5.278128	-15.243867	-4.964717
46133		5.397045	-15.301592	-4.989661
46134		5.503467	-15.360761	-4.997500
46135		5.579937	-15.412871	-4.992214
46136		5.618750	-15.462994	-4.972479
46137		5.636145	-15.506199	-4.931106
46138		5.666806	-15.532086	-4.879082
46139		5.712629	-15.546564	-4.831420
46140		5.787033	-15.556110	-4.789428
46141		5.886434	-15.563886	-4.776342
46142		6.001658	-15.570228	-4.800111
46143		6.113600	-15.592151	-4.834883
46144		6.197361	-15.628107	-4.847964
46145		6.232543	-15.659893	-4.821140
46146		6.231827	-15.677040	-4.752299
46147		6.207140	-15.687984	-4.650478
46148		6.171664	-15.699600	-4.535001
46149		6.144987	-15.698035	-4.433146
46150		6.140318	-15.683733	-4.340040
46151		6.151253	-15.666254	-4.254828
46152		6.180156	-15.652493	-4.178048
46153		6.223225	-15.650134	-4.104219
46154		6.246097	-15.646621	-4.013016
46155		6.220288	-15.628726	-3.918131
46156		6.156228	-15.580531	-3.824100
46157		6.076262	-15.505667	-3.724437
46158		5.982707	-15.414672	-3.615638
46159		5.894307	-15.310511	-3.500949
46160		5.817167	-15.204984	-3.402259
46161		5.749617	-15.107335	-3.331587
46162		5.689053	-15.022056	-3.274797
46163		5.625440	-14.950983	-3.216770
46164		5.562885	-14.890344	-3.142478
46165		5.492720	-14.836892	-3.052324
46166		5.416756	-14.781077	-2.956606
46167		5.351724	-14.721274	-2.865114
46168		5.291205	-14.660425	-2.782091
46169		5.235722	-14.595728	-2.710664
46170		5.192891	-14.533416	-2.639991
46171		5.155575	-14.485161	-2.566758
46172		5.123127	-14.443891	-2.497389
46173		5.092042	-14.404049	-2.438832
46174		5.061358	-14.360624	-2.388878
46175		5.021390	-14.301576	-2.343609
46176		4.969915	-14.237752	-2.303793
46177		4.923138	-14.173054	-2.264735
46178		4.882727	-14.113816	-2.219389
46179		4.851540	-14.056260	-2.180448
46180		4.824752	-14.002137	-2.143556
46181		4.792118	-13.946767	-2.112739
46182		4.757831	-13.896332	-2.074905
46183		4.711725	-13.858747	-2.025969
46184		4.667553	-13.821990	-1.961423
46185		4.620949	-13.773874	-1.896249
46186		4.580262	-13.703105	-1.837226
46187		4.527243	-13.624341	-1.771256
46188		4.463917	-13.544628	-1.713707
46189		4.408039	-13.460786	-1.656579
46190		4.358804	-13.372816	-1.601562
46191		4.310614	-13.297118	-1.536057
46192		4.265158	-13.237209	-1.451470
46193		4.219653	-13.182781	-1.352116
46194		4.175877	-13.133395	-1.240805
46195		4.134175	-13.083141	-1.124057
46196		4.097491	-13.028190	-1.003663
46197		4.065278	-12.968442	-0.889474
46198		4.044840	-12.893130	-0.794953
46199		4.039729	-12.790631	-0.723528
46200		4.047621	-12.678008	-0.670253
46201		4.071974	-12.560521	-0.623941
46202		4.116493	-12.439367	-0.573936
46203		4.182531	-12.312785	-0.510105
46204		4.273857	-12.173170	-0.438008
46205		4.388110	-12.018816	-0.355214
46206		4.514819	-11.850774	-0.272884
46207		4.657577	-11.654481	-0.220740
46208		4.828023	-11.420943	-0.209697
46209		5.003664	-11.168257	-0.220819
46210		5.156246	-10.931359	-0.225989
46211		5.272246	-10.725471	-0.208712
46212		5.360611	-10.543899	-0.193279
46213		5.432870	-10.386904	-0.176058
46214		5.500050	-10.232410	-0.168868
46215		5.573292	-10.085497	-0.172955
46216		5.653374	-9.951857	-0.178694
46217		5.728624	-9.837902	-0.176482
46218		5.789298	-9.753293	-0.168236
46219		5.841624	-9.683736	-0.163383
46220		5.891465	-9.621425	-0.173399
46221		5.935411	-9.552955	-0.205187
46222		5.980386	-9.460543	-0.253949
46223		6.040963	-9.354006	-0.321677
46224		6.107373	-9.265592	-0.387951
46225		6.148043	-9.253738	-0.427735
46226		6.144060	-9.354221	-0.420562
46227		6.088316	-9.564605	-0.359953
46228		5.992389	-9.840286	-0.251675
46229		5.860410	-10.123655	-0.127368
46230		5.730164	-10.393352	-0.018410
46231		5.647912	-10.623570	0.067398
46232		5.613531	-10.828064	0.136039
46233		5.619610	-11.022515	0.187147
46234		5.648378	-11.217517	0.215642
46235		5.689153	-11.432250	0.230286
46236		5.744054	-11.653757	0.244045
46237		5.804990	-11.858644	0.259638
46238		5.873338	-12.032057	0.262854
46239		5.943983	-12.149663	0.247656
46240		6.003892	-12.211320	0.217696
46241		6.049749	-12.231509	0.179672
46242		6.081954	-12.234333	0.133939
46243		6.097386	-12.236273	0.086212
46244		6.092732	-12.253899	0.045064
46245		6.078628	-12.272990	0.005102
46246		6.062275	-12.281542	-0.036363
46247		6.040159	-12.287185	-0.075213
46248		6.016839	-12.294531	-0.104393
46249		5.999385	-12.307862	-0.122058
46250		5.987958	-12.336209	-0.126538
46251		5.982354	-12.382312	-0.117083
46252		5.988601	-12.448985	-0.102169
46253		6.007750	-12.524053	-0.087466
46254		6.042342	-12.609595	-0.072818
46255		6.093723	-12.693328	-0.057623
46256		6.159471	-12.768477	-0.039208
46257		6.218211	-12.828431	-0.017224
46258		6.265205	-12.880622	0.005116
46259		6.301811	-12.921430	0.055873
46260		6.291378	-12.998191	0.081478
46261		6.282278	-13.061191	0.091474
46262		6.272690	-13.127778	0.095814
46263		6.250248	-13.207108	0.095295
46264		6.232729	-13.287573	0.088998
46265		6.224253	-13.377365	0.074081
46266		6.232259	-13.468172	0.058227
46267		6.257952	-13.572193	0.033970
46268		6.293972	-13.688995	0.015823
46269		6.351690	-13.824180	-0.015728
46270		6.418741	-13.971280	-0.063567
46271		6.496381	-14.106605	-0.103727
46272		6.554565	-14.258435	-0.146228
46273		6.620012	-14.421659	-0.199886
46274		6.687594	-14.578402	-0.244535
46275		6.747771	-14.744167	-0.210723
46276		6.714101	-14.867716	-0.070195
46277		6.714021	-14.854476	-0.076359
46278		6.731542	-14.761425	-0.117392
46279		6.840230	-14.545768	-0.122786
46280		6.934153	-14.261876	-0.073201
46281		6.955026	-13.991276	0.011906
46282		6.904015	-13.751520	0.090976
46283		6.868512	-13.491701	0.185056
46284		6.853573	-13.120125	0.294851
46285		6.820980	-12.581595	0.450548
46286		6.746222	-12.007856	0.578306
46287		6.691524	-11.609794	0.645275
46288		6.726145	-11.321616	0.686173
46289		6.801629	-11.009737	0.734714
46290		6.848142	-10.611346	0.820643
46291		6.883711	-10.137861	0.917059
46292		6.973160	-9.624303	0.997658
46293		7.084514	-9.103355	1.084903
46294		7.188390	-8.560997	1.199201
46295		7.279675	-7.964581	1.364212
46296		7.386270	-7.281194	1.568728
46297		7.527135	-6.528261	1.795539
46298		7.697786	-5.729383	2.016016
46299		7.841125	-4.875890	2.266758
46300		7.916404	-3.916610	2.586164
46301		7.956839	-2.783611	2.989924
46302		8.101954	-1.458195	3.338151
46303		8.238945	-0.135203	3.556300
46304		8.184133	0.924736	3.687217
46305		8.090177	1.750433	3.753249
46306		7.979783	2.390773	3.806613
46307		7.784057	2.946017	3.854891
46308		7.488948	3.505188	3.891341
46309		7.115538	4.128829	3.932812
46310		6.680831	4.790749	3.971238
46311		6.275114	5.470439	4.015708
46312		5.935488	6.134488	4.052832
46313		5.664687	6.768671	4.085068
46314		5.461330	7.383382	4.109599
46315		5.198000	7.950909	4.078258
46316		4.877997	8.368601	4.046350
46317		4.604478	8.693975	4.026859
46318		4.345484	8.943877	4.029117
46319		4.077506	9.125041	4.035924
46320		3.838052	9.244854	4.040900
46321		3.664602	9.333475	4.048281
46322		3.563836	9.370551	4.059070
46323		3.508182	9.361359	4.054839
46324		3.503076	9.323533	4.044791
46325		3.518843	9.261039	4.030033
46326		3.535797	9.183722	4.007845
46327		3.550496	9.088107	3.984609
46328		3.558997	8.974542	3.960424
46329		3.557431	8.840097	3.937306
46330		3.554201	8.690247	3.915616
46331		3.562140	8.539653	3.895599
46332		3.579283	8.401520	3.879616
46333		3.607080	8.281469	3.866991
46334		3.643263	8.182602	3.858723
46335		3.683573	8.111227	3.851139
46336		3.712792	8.061119	3.843337
46337		3.727781	8.023781	3.829448
46338		3.731400	7.991530	3.817332
46339		3.728015	7.951521	3.803897
46340		3.722479	7.907390	3.786804
46341		3.723350	7.855190	3.771620
46342		3.725140	7.795896	3.763276
46343		3.732849	7.742862	3.758190
46344		3.743959	7.693111	3.749713
46345		3.760571	7.645874	3.741885
46346		3.785188	7.602581	3.734595
46347		3.810491	7.562323	3.721030
46348		3.833941	7.514959	3.708345
46349		3.853210	7.468435	3.696720
46350		3.874861	7.421652	3.694021
46351		3.900515	7.371920	3.700091
46352		3.926118	7.330275	3.714429
46353		3.956402	7.307136	3.734490
46354		4.004025	7.294439	3.748502
46355		4.081145	7.292668	3.748149
46356		4.177993	7.301969	3.743294
46357		4.276848	7.326163	3.741438
46358		4.377885	7.357259	3.740018
46359		4.492252	7.378429	3.737178
46360		4.617498	7.388130	3.736497
46361		4.739112	7.405644	3.742971
46362		4.839785	7.452877	3.750306
46363		4.931930	7.554997	3.763532
46364		5.018874	7.706572	3.778359
46365		5.113363	7.907190	3.797458
46366		5.196066	8.159783	3.810872
46367		5.252456	8.496270	3.811559
46368		5.327667	8.892373	3.829654
46369		5.457285	9.338659	3.860594
46370		5.532894	9.644833	4.054376
46371		5.645472	9.830256	4.259863
46372		5.826002	9.992928	4.435169
46373		6.015737	10.142960	4.566168
46374		6.166216	10.294826	4.696674
46375		6.298132	10.428390	4.826376
46376		6.390985	10.486992	4.917038
46377		6.496182	10.490181	5.009859
46378		6.582187	10.453348	5.105607
46379		6.613046	10.395735	5.196593
46380		6.616510	10.345342	5.292368
46381		6.626246	10.303274	5.374270
46382		6.658489	10.247953	5.442958
46383		6.683592	10.157788	5.500906
46384		6.677334	10.042710	5.544716
46385		6.649959	9.939923	5.582843
46386		6.620413	9.890948	5.626401
46387		6.568534	9.882300	5.686312
46388		6.493361	9.890132	5.774890
46389		6.445684	9.896154	5.895105
46390		6.461345	9.892581	6.048616
46391		6.538427	9.873225	6.222884
46392		6.648158	9.826465	6.405409
46393		6.760086	9.756429	6.593177
46394		6.874650	9.697469	6.802188
46395		6.993626	9.676930	7.048720
46396		7.114658	9.686961	7.347619
46397		7.222830	9.695404	7.656833
46398		7.296525	9.660399	7.867212
46399		7.381723	9.558021	7.968768
46400		7.498388	9.415950	7.970117
46401		7.628086	9.264981	7.921865
46402		7.724314	9.132338	7.846930
46403		7.781983	9.029574	7.775182
46404		7.782072	8.967773	7.723127
46405		7.727353	8.933613	7.686174
46406		7.652139	8.925503	7.658256
46407		7.577448	8.935680	7.627582
46408		7.527211	8.951268	7.591065
46409		7.490890	8.951597	7.547726
46410		7.446883	8.923283	7.496121
46411		7.397393	8.870174	7.439380
46412		7.350998	8.810198	7.364453
46413		7.296452	8.737747	7.277454
46414		7.246275	8.657880	7.174909
46415		7.209755	8.575918	7.064563
46416		7.183441	8.495103	6.947114
46417		7.157925	8.410102	6.822320
46418		7.131461	8.320477	6.690574
46419		7.119334	8.235084	6.553498
46420		7.111292	8.147702	6.419754
46421		7.109080	8.043351	6.299688
46422		7.139756	7.916869	6.200810
46423		7.207448	7.752604	6.122401
46424		7.299485	7.548917	6.044835
46425		7.403884	7.298642	5.958877
46426		7.500933	7.014730	5.871447
46427		7.601781	6.720434	5.786894
46428		7.699930	6.429407	5.722641
46429		7.795549	6.155054	5.653644
46430		7.906518	5.893808	5.570450
46431		8.046160	5.645688	5.461963
46432		8.189046	5.393628	5.314475
46433		8.329701	5.147069	5.128825
46434		8.452440	4.929180	4.926168
46435		8.544185	4.744692	4.718756
46436		8.614306	4.592363	4.530236
46437		8.657545	4.475052	4.365396
46438		8.684900	4.384596	4.226860
46439		8.702324	4.308549	4.099967
46440		8.716995	4.234250	3.975244
46441		8.735239	4.146920	3.843700
46442		8.766738	4.046521	3.716842
46443		8.803301	3.936745	3.579676
46444		8.837201	3.844308	3.448870
46445		8.842275	3.778704	3.323844
46446		8.824700	3.743408	3.196727
46447		8.789127	3.728479	3.064048
46448		8.733965	3.720130	2.923361
46449		8.657500	3.709698	2.776113
46450		8.562285	3.700235	2.623530
46451		8.462889	3.691402	2.475857
46452		8.367336	3.685629	2.337047
46453		8.289538	3.684966	2.204335
46454		8.224999	3.667880	2.070572
46455		8.166337	3.632429	1.936803
46456		8.097050	3.587122	1.824864
46457		7.990727	3.523410	1.747786
46458		7.861151	3.448189	1.711364
46459		7.746309	3.388828	1.692977
46460		7.663552	3.354937	1.678688
46461		7.616388	3.336903	1.651526
46462		7.583983	3.327996	1.620215
46463		7.549435	3.318341	1.587432
46464		7.511266	3.297882	1.564098
46465		7.436052	3.256690	1.546274
46466		7.360839	3.188730	1.571856
46467		7.335308	3.112457	1.605811
46468		7.346551	3.026916	1.643153
46469		7.383845	2.942883	1.672263
46470		7.460654	2.859008	1.677016
46471		7.547796	2.776723	1.644500
46472		7.604501	2.702136	1.587409
46473		7.620367	2.637883	1.515033
46474		7.607981	2.571465	1.436900
46475		7.563903	2.491292	1.373614
46476		7.503221	2.406109	1.324556
46477		7.455152	2.333114	1.281605
46478		7.420813	2.270288	1.245791
46479		7.418548	2.207170	1.213041
46480		7.458047	2.157913	1.169477
46481		7.515528	2.112478	1.118576
46482		7.556920	2.075822	1.065191
46483		7.580736	2.043955	1.015895
46484		7.576974	2.002592	0.969743
46485		7.559814	1.944748	0.935674
46486		7.537569	1.871262	0.909435
46487		7.531193	1.739290	0.894803
46488		7.538567	1.510901	0.883414
46489		7.560580	1.169110	0.875716
46490		7.591801	0.724176	0.871780
46491		7.617688	0.212071	0.870894
46492		7.635666	-0.278859	0.835877
46493		7.683122	-0.666316	0.790152
46494		7.730591	-0.966608	0.751613
46495		7.723787	-1.180118	0.689285
46496		7.695283	-1.346317	0.671330
46497		7.605466	-1.470350	0.646141
46498		7.452795	-1.620143	0.622046
46499		7.275093	-1.784274	0.617301
46500		7.058355	-1.969533	0.628094
46501		6.842200	-2.179314	0.648024
46502		6.670795	-2.434514	0.664591
46503		6.529729	-2.752345	0.663376
46504		6.408975	-3.144322	0.656503
46505		6.261082	-3.605069	0.633902
46506		6.096353	-4.095087	0.603937
46507		5.941995	-4.625329	0.575744
46508		5.769944	-5.198285	0.562998
46509		5.558599	-5.833701	0.556575
46510		5.343530	-6.512330	0.545345
46511		5.142144	-7.170429	0.529024
46512		4.992812	-7.756585	0.501294
46513		4.925611	-8.240007	0.448101
46514		4.920155	-8.642968	0.366868
46515		4.922339	-8.995336	0.264307
46516		4.921412	-9.328642	0.148216
46517		4.904981	-9.679253	0.026307
46518		4.867576	-10.096399	-0.067294
46519		4.840576	-10.607680	-0.142121
46520		4.853379	-11.195947	-0.215836
46521		4.891998	-11.853628	-0.290111
46522		4.937086	-12.550414	-0.367341
46523		4.976604	-13.239218	-0.440331
46524		4.999051	-13.867069	-0.504005
46525		4.994831	-14.410254	-0.554106
46526		4.971782	-14.838678	-0.595821
46527		4.960708	-15.146305	-0.622464
46528		4.990256	-15.339560	-0.642305
46529		5.066661	-15.458187	-0.649263
46530		5.204549	-15.519099	-0.651125
46531		5.387033	-15.538322	-0.658722
46532		5.551364	-15.556720	-0.679799
46533		5.657683	-15.607105	-0.726245
46534		5.723508	-15.721742	-0.775806
46535		5.734820	-15.872706	-0.830318
46536		5.686611	-16.009982	-0.895367
46537		5.591887	-16.075066	-0.962157
46538		5.507505	-16.027117	-1.032720
46539		5.507645	-15.866426	-1.116365
46540		5.550092	-15.655181	-1.210146
46541		5.630890	-15.432726	-1.322238
46542		5.784724	-15.247658	-1.444761
46543		5.974375	-15.080206	-1.585982
46544		6.156629	-14.907728	-1.757371
46545		6.354597	-14.700550	-1.958113
46546		6.541901	-14.463391	-2.177449
46547		6.683824	-14.212554	-2.373339
46548		6.768831	-14.011342	-2.514348
46549		6.737002	-13.954937	-2.578833
46550		6.593984	-14.014562	-2.614994
46551		6.431062	-14.102670	-2.623834
46552		6.255901	-14.172499	-2.600662
46553		6.061160	-14.213641	-2.546979
46554		5.836050	-14.203521	-2.474862
46555		5.610399	-14.135995	-2.408339
46556		5.400962	-14.015859	-2.339397
46557		5.176455	-13.847209	-2.259076
46558		4.953327	-13.630602	-2.164914
46559		4.736257	-13.383006	-2.066021
46560		4.515220	-13.123316	-2.000518
46561		4.340242	-12.834650	-1.971411
46562		4.212854	-12.497803	-1.945136
46563		4.107338	-12.144052	-1.883612
46564		4.010638	-11.803378	-1.806783
46565		3.904236	-11.453360	-1.738589
46566		3.815104	-11.083566	-1.696020
46567		3.754815	-10.739404	-1.679225
46568		3.724774	-10.462597	-1.670847
46569		3.705964	-10.258954	-1.684402
46570		3.689061	-10.152188	-1.715773
46571		3.663381	-10.094402	-1.746273
46572		3.605668	-10.090317	-1.766593
46573		3.503845	-10.170278	-1.788957
46574		3.412290	-10.307603	-1.819971
46575		3.360295	-10.486962	-1.868507
46576		3.310634	-10.698701	-1.925740
46577		3.267873	-10.927370	-1.997239
46578		3.260468	-11.150817	-2.091893
46579		3.277015	-11.378161	-2.195694
46580		3.287329	-11.594449	-2.295859
46581		3.276884	-11.763220	-2.373382
46582		3.262055	-11.875763	-2.421834
46583		3.245685	-11.954435	-2.451621
46584		3.234904	-12.026086	-2.459085
46585		3.238617	-12.100606	-2.463067
46586		3.247777	-12.157648	-2.459229
46587		3.261269	-12.182748	-2.448545
46588		3.275819	-12.179469	-2.432580
46589		3.293083	-12.154557	-2.420664
46590		3.296951	-12.117173	-2.419228
46591		3.283223	-12.082089	-2.425760
46592		3.250424	-12.064414	-2.434587
46593		3.189696	-12.056877	-2.446400
46594		3.107240	-12.052293	-2.458036
46595		3.024244	-12.041745	-2.474579
46596		2.956556	-12.024994	-2.510589
46597		2.911381	-12.005521	-2.551514
46598		2.880061	-11.978125	-2.593149
46599		2.860262	-11.947963	-2.635899
46600		2.850432	-11.926449	-2.678354
46601		2.837282	-11.921831	-2.711312
46602		2.815994	-11.934956	-2.727011
46603		2.796174	-11.963841	-2.732970
46604		2.785150	-12.000918	-2.735207
46605		2.787601	-12.052690	-2.742817
46606		2.796360	-12.116130	-2.759506
46607		2.807143	-12.190307	-2.783498
46608		2.817074	-12.261945	-2.810123
46609		2.814814	-12.319881	-2.835470
46610		2.806338	-12.363770	-2.856202
46611		2.791549	-12.395856	-2.871480
46612		2.774159	-12.418514	-2.882863
46613		2.758557	-12.430070	-2.897943
46614		2.758599	-12.434384	-2.931918
46615		2.761238	-12.439499	-2.969127
46616		2.763792	-12.457260	-2.998962
46617		2.774481	-12.468101	-3.046746
46618		2.791737	-12.469117	-3.111187
46619		2.800433	-12.457202	-3.199148
46620		2.786955	-12.441932	-3.299920
46621		2.741148	-12.408748	-3.437164
46622		2.654073	-12.323078	-3.661138
46623		2.595160	-12.228310	-3.928085
46624		2.512161	-12.122385	-4.223406
46625		2.450243	-12.009064	-4.488647
46626		2.523950	-11.824768	-4.655226
46627		2.440801	-11.863458	-4.683708
46628		2.290420	-12.035846	-4.657499
46629		2.246139	-12.273414	-4.588227
46630		2.263461	-12.599410	-4.463291
46631		2.325890	-12.968263	-4.305401
46632		2.423071	-13.303229	-4.160867
46633		2.538175	-13.525315	-4.045710
46634		2.630783	-13.627829	-3.952433
46635		2.671374	-13.647409	-3.869975
46636		2.663887	-13.620481	-3.790855
46637		2.623473	-13.577810	-3.718405
46638		2.567523	-13.545326	-3.643808
46639		2.501780	-13.551786	-3.553266
46640		2.413842	-13.609431	-3.419631
46641		2.325023	-13.676551	-3.264497
46642		2.251890	-13.725792	-3.108867
46643		2.192710	-13.754883	-2.960026
46644		2.144665	-13.765547	-2.843676
46645		2.113564	-13.752941	-2.763684
46646		2.101339	-13.735999	-2.719974
46647		2.109402	-13.714040	-2.685526
46648		2.117813	-13.705060	-2.634433
46649		2.118715	-13.706829	-2.564182
46650		2.105950	-13.715927	-2.478024
46651		2.088666	-13.717586	-2.373392
46652		2.057492	-13.707647	-2.247131
46653		2.013668	-13.667798	-2.115884
46654		1.965435	-13.609180	-1.981587
46655		1.905980	-13.522439	-1.855288
46656		1.842421	-13.409449	-1.742159
46657		1.781387	-13.278027	-1.634805
46658		1.709131	-13.151306	-1.525905
46659		1.651568	-13.019926	-1.416823
46660		1.610977	-12.892233	-1.326415
46661		1.580400	-12.789163	-1.229783
46662		1.538578	-12.706346	-1.113234
46663		1.484275	-12.648156	-0.981965
46664		1.430601	-12.596369	-0.853150
46665		1.376053	-12.536986	-0.725643
46666		1.325671	-12.468327	-0.600106
46667		1.283427	-12.393580	-0.485987
46668		1.253611	-12.325228	-0.381197
46669		1.237420	-12.267954	-0.277416
46670		1.221134	-12.233347	-0.159578
46671		1.199186	-12.211239	-0.034972
46672		1.181581	-12.192840	0.091476
46673		1.168459	-12.163933	0.210854
46674		1.151216	-12.116351	0.307026
46675		1.127574	-12.057064	0.383230
46676		1.091708	-12.009301	0.465896
46677		1.045064	-11.971893	0.551582
46678		1.004722	-11.938574	0.636207
46679		0.971570	-11.906138	0.715818
46680		0.940127	-11.873701	0.795407
46681		0.910213	-11.842117	0.868656
46682		0.892734	-11.814851	0.929136
46683		0.875270	-11.788900	0.986056
46684		0.840198	-11.758726	1.046926
46685		0.795759	-11.706641	1.099519
46686		0.751358	-11.627575	1.128453
46687		0.707444	-11.538873	1.150446
46688		0.672717	-11.452896	1.163761
46689		0.642772	-11.395701	1.199542
46690		0.606545	-11.376629	1.235107
46691		0.598587	-11.374503	1.267253
46692		0.614666	-11.377922	1.307325
46693		0.638490	-11.373992	1.351362
46694		0.662046	-11.361446	1.395966
46695		0.693959	-11.319410	1.429418
46696		0.730849	-11.247876	1.452289
46697		0.768037	-11.169710	1.474193
46698		0.788103	-11.111626	1.506124
46699		0.793496	-11.075482	1.545063
46700		0.795541	-11.065586	1.591671
46701		0.785306	-11.067079	1.639068
46702		0.775323	-11.061338	1.685430
46703		0.778177	-11.033156	1.714801
46704		0.785700	-10.984095	1.733201
46705		0.790040	-10.918832	1.742412
46706		0.789394	-10.850550	1.749852
46707		0.772712	-10.785804	1.762156
46708		0.742593	-10.728280	1.779776
46709		0.686465	-10.687755	1.796425
46710		0.606715	-10.674350	1.819276
46711		0.500361	-10.695906	1.849804
46712		0.396562	-10.763918	1.874984
46713		0.323901	-10.889661	1.896475
46714		0.275067	-11.073973	1.926993
46715		0.241434	-11.292721	1.961204
46716		0.231994	-11.503408	1.977027
46717		0.252025	-11.661152	1.965456
46718		0.283074	-11.756405	1.927716
46719		0.303722	-11.803371	1.873432
46720		0.315635	-11.825642	1.811858
46721		0.320636	-11.849479	1.758048
46722		0.329378	-11.883631	1.710150
46723		0.348165	-11.934895	1.667344
46724		0.375531	-11.987202	1.628283
46725		0.416783	-12.007457	1.582930
46726		0.458560	-11.977854	1.528912
46727		0.494467	-11.888781	1.470706
46728		0.513929	-11.760868	1.409307
46729		0.522514	-11.610957	1.353668
46730		0.526564	-11.473933	1.315765
46731		0.528012	-11.364624	1.295361
46732		0.540263	-11.295642	1.287590
46733		0.558503	-11.278926	1.297656
46734		0.589091	-11.309796	1.317855
46735		0.632722	-11.380198	1.345528
46736		0.696288	-11.470824	1.361517
46737		0.781342	-11.571268	1.370628
46738		0.890053	-11.667247	1.363626
46739		1.027507	-11.744892	1.331728
46740		1.185969	-11.809999	1.289515
46741		1.369560	-11.867229	1.234029
46742		1.551354	-11.916546	1.161576
46743		1.704249	-11.965675	1.092498
46744		1.808932	-12.017286	1.038917
46745		1.876295	-12.079435	0.999621
46746		1.910578	-12.146543	0.984299
46747		1.922430	-12.226846	0.985316
46748		1.949360	-12.330042	1.001967
46749		1.995430	-12.467456	1.034131
46750		2.060116	-12.658613	1.071235
46751		2.158366	-12.893615	1.116800
46752		2.271118	-13.161402	1.163727
46753		2.407869	-13.459303	1.220630
46754		2.539265	-13.751631	1.294169
46755		2.664283	-14.012057	1.353542
46756		2.784576	-14.258222	1.419631
46757		2.892258	-14.490512	1.478850
46758		2.991816	-14.711176	1.523749
46759		3.099183	-14.923063	1.558345
46760		3.196501	-15.140632	1.586571
46761		3.267803	-15.354477	1.614792
46762		3.361782	-15.556974	1.645611
46763		3.486256	-15.772192	1.723396
46764		3.596532	-15.967929	1.819645
46765		3.704340	-16.051292	1.881696
46766		3.745999	-16.070795	1.918513
46767		3.793580	-16.055752	1.916631
46768		3.839673	-16.006121	1.923142
46769		3.863396	-15.939944	1.934847
46770		3.886813	-15.873126	1.948088
46771		3.931346	-15.818490	1.963937
46772		3.962900	-15.759679	1.994003
46773		3.971205	-15.667295	2.024980
46774		3.978364	-15.522913	2.064456
46775		3.998687	-15.302636	2.106638
46776		3.977065	-15.013603	2.111945
46777		3.893852	-14.674584	2.087901
46778		3.780169	-14.277614	2.030272
46779		3.763688	-13.744011	1.968944
46780		3.747729	-13.214646	1.871604
46781		3.754080	-12.785926	1.733174
46782		3.761433	-12.409419	1.630886
46783		3.749427	-12.035427	1.551403
46784		3.675689	-11.647928	1.486666
46785		3.564658	-11.244094	1.410466
46786		3.513323	-10.805740	1.342811
46787		3.453934	-10.302557	1.298383
46788		3.324365	-9.675104	1.247317
46789		3.238167	-8.949358	1.191461
46790		3.206084	-8.174906	1.146921
46791		3.166183	-7.357668	1.080366
46792		3.192237	-6.513696	1.001458
46793		3.333242	-5.618528	0.927610
46794		3.530723	-4.647974	0.818492
46795		3.770045	-3.627073	0.678280
46796		4.080719	-2.559492	0.525872
46797		4.462707	-1.444900	0.371176
46798		4.845081	-0.299647	0.251166
46799		5.177518	0.835667	0.181924
46800		5.444168	1.862734	0.138652
46801		5.536098	2.631676	0.125451
46802		5.386606	3.093919	0.149123
46803		5.151011	3.404076	0.215447
46804		4.911215	3.694185	0.274991
46805		4.612550	3.932542	0.319424
46806		4.292354	4.110993	0.360841
46807		4.075715	4.279571	0.404243
46808		3.937565	4.442405	0.442872
46809		3.842273	4.591801	0.465638
46810		3.780930	4.736412	0.484881
46811		3.742114	4.865677	0.511735
46812		3.722620	4.972860	0.536494
46813		3.710415	5.051896	0.551258
46814		3.692301	5.087919	0.562438
46815		3.661294	5.107802	0.577165
46816		3.621523	5.123786	0.592332
46817		3.584570	5.124524	0.599926
46818		3.566924	5.104684	0.601785
46819		3.568447	5.067569	0.597770
46820		3.591817	5.011765	0.592364
46821		3.633861	4.937923	0.584937
46822		3.684593	4.850443	0.585151
46823		3.726717	4.770715	0.583263
46824		3.751225	4.704701	0.581192
46825		3.753379	4.668770	0.583483
46826		3.727285	4.653569	0.588038
46827		3.688596	4.642800	0.592789
46828		3.645969	4.627444	0.600476
46829		3.605734	4.613817	0.604418
46830		3.571970	4.605202	0.608295
46831		3.552472	4.601883	0.613019
46832		3.545849	4.600124	0.617701
46833		3.549140	4.601758	0.624607
46834		3.553061	4.597972	0.628778
46835		3.555616	4.586400	0.632582
46836		3.554159	4.569621	0.637912
46837		3.550064	4.552306	0.638101
46838		3.543978	4.533475	0.636684
46839		3.542406	4.514084	0.634115
46840		3.536505	4.498179	0.631639
46841		3.526417	4.484505	0.626454
46842		3.510236	4.480746	0.620533
46843		3.492283	4.482167	0.610965
46844		3.474239	4.486666	0.602578
46845		3.460724	4.490593	0.593036
46846		3.454190	4.492074	0.587689
46847		3.455934	4.494200	0.586012
46848		3.469524	4.490016	0.587531
46849		3.492446	4.482890	0.594234
46850		3.537499	4.482222	0.618047
46851		3.615453	4.493999	0.661487
46852		3.757070	4.521537	0.717076
46853		3.984689	4.575856	0.777646
46854		4.268295	4.671622	0.830922
46855		4.511884	4.886419	0.839443
46856		4.892977	5.236434	0.769882
46857		5.298806	5.636415	0.650606
46858		5.680265	6.062904	0.570725
46859		5.975582	6.512056	0.523512
46860		6.162786	6.919131	0.616742
46861		6.031758	7.152840	0.883747
46862		5.849310	7.325047	1.171606
46863		5.752521	7.510497	1.482269
46864		5.666544	7.684414	1.761888
46865		5.605764	7.839433	1.998619
46866		5.607670	7.983376	2.206258
46867		5.622013	8.106975	2.387619
46868		5.606025	8.168143	2.547403
46869		5.595455	8.109222	2.646838
46870		5.720381	8.013247	2.739779
46871		5.871930	7.901412	2.824402
46872		5.908843	7.785518	2.919183
46873		5.876063	7.684544	3.017310
46874		5.854504	7.622959	3.100451
46875		5.840156	7.594919	3.150017
46876		5.815443	7.580765	3.168427
46877		5.782414	7.555578	3.170458
46878		5.743623	7.512280	3.172426
46879		5.703722	7.461398	3.187934
46880		5.662133	7.422051	3.229839
46881		5.632585	7.412665	3.295314
46882		5.613129	7.429580	3.372503
46883		5.584239	7.439298	3.436292
46884		5.538931	7.450329	3.486385
46885		5.475067	7.474956	3.520860
46886		5.399154	7.513781	3.547623
46887		5.309226	7.532261	3.573586
46888		5.242087	7.515430	3.603146
46889		5.211472	7.475798	3.632551
46890		5.201501	7.420097	3.662378
46891		5.211762	7.360892	3.705062
46892		5.257019	7.324438	3.759121
46893		5.303832	7.316708	3.817884
46894		5.359366	7.319896	3.865345
46895		5.426149	7.323587	3.876410
46896		5.485092	7.318766	3.848576
46897		5.534170	7.296489	3.797875
46898		5.583385	7.262594	3.738325
46899		5.641623	7.214470	3.685608
46900		5.669926	7.146129	3.639213
46901		5.671332	7.053320	3.603160
46902		5.684367	6.949921	3.572964
46903		5.735804	6.857524	3.546568
46904		5.796447	6.766019	3.510854
46905		5.837967	6.658211	3.453811
46906		5.866541	6.538893	3.371264
46907		5.894449	6.421762	3.265625
46908		5.916578	6.326000	3.149555
46909		5.934187	6.248643	3.037789
46910		5.940101	6.185733	2.931106
46911		5.948630	6.116856	2.818144
46912		5.950476	6.032314	2.693956
46913		5.934946	5.937827	2.557345
46914		5.917984	5.856883	2.422377
46915		5.914833	5.807129	2.294732
46916		5.915362	5.782223	2.189558
46917		5.911186	5.773422	2.103844
46918		5.897194	5.771969	2.043377
46919		5.866712	5.773703	1.999882
46920		5.821057	5.760903	1.960131
46921		5.772805	5.722100	1.914827
46922		5.731228	5.661936	1.853620
46923		5.696757	5.586081	1.787183
46924		5.668717	5.506237	1.723746
46925		5.651440	5.429776	1.677982
46926		5.655613	5.362839	1.661317
46927		5.697422	5.303266	1.688024
46928		5.783125	5.246394	1.737918
46929		5.883673	5.175467	1.794178
46930		5.979496	5.097391	1.835635
46931		6.073623	5.001996	1.859194
46932		6.142229	4.877738	1.850016
46933		6.194775	4.720997	1.804233
46934		6.232541	4.548369	1.724074
46935		6.270267	4.382726	1.624709
46936		6.297064	4.239034	1.519468
46937		6.308935	4.119209	1.422168
46938		6.321452	4.032349	1.338109
46939		6.328684	3.962943	1.275306
46940		6.336224	3.916073	1.227294
46941		6.335588	3.873318	1.194835
46942		6.317446	3.840915	1.170548
46943		6.276286	3.812296	1.140936
46944		6.216579	3.772978	1.107016
46945		6.168308	3.712004	1.074169
46946		6.131983	3.631678	1.045732
46947		6.104542	3.535379	1.015771
46948		6.092775	3.437349	0.990171
46949		6.076157	3.347780	0.969964
46950		6.055262	3.271861	0.959774
46951		6.022753	3.201855	0.957175
46952		5.977350	3.127900	0.950467
46953		5.913739	3.047960	0.932564
46954		5.823182	2.957999	0.908495
46955		5.736145	2.857448	0.877510
46956		5.669231	2.750735	0.832015
46957		5.625874	2.642501	0.782643
46958		5.595526	2.533127	0.727183
46959		5.579586	2.436212	0.669605
46960		5.567877	2.360422	0.616001
46961		5.563466	2.312995	0.571022
46962		5.547027	2.284774	0.534318
46963		5.506968	2.266292	0.494532
46964		5.451129	2.237911	0.457147
46965		5.401659	2.184305	0.415122
46966		5.358634	2.100117	0.368686
46967		5.327533	2.013480	0.332261
46968		5.303490	1.938468	0.311445
46969		5.292058	1.870934	0.300472
46970		5.293433	1.805886	0.290557
46971		5.300662	1.737843	0.281318
46972		5.312829	1.678126	0.265476
46973		5.310373	1.610318	0.259141
46974		5.306818	1.496611	0.276093
46975		5.320726	1.249589	0.319861
46976		5.348988	0.751474	0.408754
46977		5.340755	0.052249	0.543362
46978		5.252889	-0.630278	0.667533
46979		5.125059	-1.169105	0.687728
46980		5.051552	-1.577185	0.644782
46981		5.052201	-1.887810	0.575118
46982		5.075446	-2.107856	0.490186
46983		5.081116	-2.243015	0.385634
46984		5.060771	-2.315802	0.277201
46985		5.020901	-2.358187	0.169500
46986		4.976839	-2.389050	0.064773
46987		4.913971	-2.441956	-0.022940
46988		4.826587	-2.540775	-0.079553
46989		4.728673	-2.701043	-0.095543
46990		4.621045	-2.869399	-0.084268
46991		4.549774	-3.019880	-0.086789
46992		4.569264	-3.155224	-0.097473
46993		4.672493	-3.275512	-0.105272
46994		4.792823	-3.381590	-0.105296
46995		4.872318	-3.480400	-0.104346
46996		4.887840	-3.581622	-0.104925
46997		4.850005	-3.680044	-0.101855
46998		4.780361	-3.771652	-0.096177
46999		4.694727	-3.865370	-0.100895
47000		4.602574	-3.977282	-0.112066
47001		4.522030	-4.121266	-0.127151
47002		4.456393	-4.312026	-0.142390
47003		4.383512	-4.545937	-0.161885
47004		4.286852	-4.798280	-0.175182
47005		4.166033	-5.081765	-0.181379
47006		4.037388	-5.406267	-0.152241
47007		3.891546	-5.860875	-0.009790
47008		3.729573	-6.356940	0.081380
47009		3.603129	-6.894841	0.180762
47010		3.460892	-7.484699	0.233359
47011		3.357595	-8.108677	0.227128
47012		3.291455	-8.768429	0.183870
47013		3.244594	-9.452813	0.109464
47014		3.222497	-10.151694	0.013293
47015		3.207552	-10.842115	-0.083452
47016		3.185209	-11.522319	-0.178775
47017		3.145933	-12.197799	-0.266294
47018		3.100869	-12.877548	-0.335781
47019		3.034078	-13.544654	-0.400980
47020		2.953386	-14.212588	-0.480581
47021		2.892183	-14.886304	-0.556615
47022		2.849943	-15.560681	-0.632901
47023		2.839155	-16.222480	-0.715791
47024		2.882087	-16.880002	-0.813295
47025		2.965134	-17.547883	-0.931779
47026		3.084075	-18.215586	-1.070766
47027		3.223462	-18.837998	-1.231026
47028		3.366436	-19.387392	-1.416352
47029		3.538204	-19.840864	-1.624144
47030		3.760979	-20.186217	-1.849448
47031		4.047996	-20.413221	-2.081814
47032		4.407142	-20.528875	-2.322491
47033		4.844924	-20.554105	-2.581994
47034		5.320777	-20.523921	-2.857919
47035		5.762519	-20.467214	-3.145620
47036		6.120659	-20.415681	-3.439090
47037		6.412283	-20.334639	-3.736086
47038		6.690001	-20.122526	-4.041094
47039		7.100883	-19.746664	-4.321202
47040		7.504531	-19.222425	-4.495244
47041		7.592241	-18.557826	-4.583550
47042		7.600262	-17.679940	-4.794752
47043		7.902649	-16.432743	-5.070829
47044		8.316719	-14.800983	-5.271327
47045		8.519100	-13.036337	-5.376860
47046		8.437584	-11.448806	-5.386994
47047		8.293110	-10.277214	-5.338369
47048		8.264949	-9.938141	-5.092204
47049		8.050770	-10.086584	-4.727076
47050		7.708546	-10.244308	-4.418839
47051		7.395035	-10.279794	-4.212773
47052		7.242639	-10.260285	-4.237196
47053		7.267461	-10.190028	-4.458742
47054		7.403327	-10.052368	-4.746476
47055		7.556125	-9.841154	-4.958131
47056		7.645449	-9.589061	-5.041096
47057		7.646329	-9.305247	-5.028974
47058		7.553132	-9.010200	-4.960039
47059		7.297808	-8.727961	-4.860245
47060		6.791257	-8.561725	-4.666732
47061		5.996910	-8.536419	-4.392585
47062		4.970276	-8.634991	-4.070733
47063		4.018131	-8.848292	-3.762276
47064		3.380186	-9.260037	-3.430140
47065		2.929339	-9.731903	-3.218322
47066		2.680534	-10.076958	-3.185356
47067		2.568695	-10.335833	-3.276244
47068		2.553682	-10.557898	-3.418040
47069		2.631159	-10.718272	-3.601445
47070		2.755625	-10.841468	-3.779985
47071		2.862740	-10.946072	-3.905437
47072		2.919152	-11.037011	-3.979863
47073		2.902982	-11.092665	-4.008378
47074		2.840268	-11.109183	-3.993996
47075		2.757148	-11.102302	-3.942020
47076		2.667544	-11.105990	-3.869457
47077		2.618092	-11.094822	-3.816203
47078		2.602980	-11.088878	-3.785948
47079		2.606260	-11.096722	-3.771998
47080		2.612321	-11.125009	-3.756962
47081		2.607009	-11.177399	-3.732108
47082		2.591348	-11.253362	-3.707551
47083		2.570377	-11.334720	-3.694708
47084		2.540897	-11.413505	-3.699318
47085		2.509666	-11.479686	-3.719880
47086		2.487275	-11.533695	-3.752535
47087		2.469584	-11.587094	-3.789250
47088		2.445383	-11.643597	-3.824055
47089		2.406947	-11.704327	-3.855230
47090		2.360232	-11.775941	-3.884238
47091		2.309307	-11.857286	-3.914120
47092		2.263535	-11.931915	-3.949276
47093		2.227921	-11.988572	-3.984632
47094		2.214882	-12.027163	-4.021544
47095		2.226500	-12.069303	-4.055562
47096		2.259549	-12.130153	-4.084232
47097		2.300237	-12.203966	-4.108875
47098		2.332484	-12.287381	-4.132143
47099		2.337351	-12.375866	-4.153149
47100		2.321902	-12.451327	-4.165011
47101		2.280254	-12.515480	-4.157786
47102		2.252449	-12.538980	-4.176007
47103		2.190853	-12.551262	-4.200183
47104		2.249285	-12.503599	-4.313256
47105		2.301763	-12.518529	-4.406289
47106		2.403097	-12.541994	-4.457385
47107		2.506768	-12.604492	-4.511945
47108		2.662903	-12.669613	-4.576081
47109		2.841395	-12.720335	-4.658904
47110		3.024125	-12.756490	-4.764210
47111		3.206761	-12.766636	-4.893398
47112		3.379797	-12.762782	-5.034839
47113		3.555175	-12.784773	-5.190161
47114		3.786945	-12.868837	-5.358825
47115		4.149148	-12.848435	-5.403904
47116		4.294029	-13.011560	-5.277299
47117		4.499155	-13.256984	-5.263013
47118		4.870618	-13.312078	-5.310601
47119		5.088313	-13.348931	-5.303823
47120		5.176119	-13.344498	-5.283358
47121		5.167319	-13.271369	-5.245454
47122		5.055872	-13.188879	-5.187303
47123		4.922059	-13.152118	-5.098704
47124		4.866429	-13.201031	-4.980091
47125		4.947612	-13.290830	-4.862565
47126		5.133922	-13.398137	-4.749895
47127		5.375668	-13.506828	-4.654865
47128		5.629309	-13.591302	-4.573299
47129		5.843064	-13.653712	-4.501220
47130		5.984806	-13.751027	-4.419429
47131		6.066234	-13.885083	-4.319567
47132		6.101674	-14.003956	-4.213416
47133		6.077749	-14.077467	-4.099199
47134		5.987794	-14.109884	-3.991562
47135		5.868755	-14.123252	-3.892581
47136		5.755386	-14.127860	-3.801248
47137		5.652337	-14.128511	-3.702664
47138		5.546857	-14.141480	-3.593638
47139		5.437984	-14.187863	-3.472239
47140		5.347826	-14.258222	-3.364815
47141		5.288767	-14.322493	-3.282425
47142		5.242895	-14.365619	-3.210117
47143		5.189041	-14.387436	-3.140200
47144		5.125609	-14.381263	-3.073528
47145		5.042253	-14.355455	-3.012947
47146		4.925314	-14.313346	-2.958597
47147		4.792850	-14.236428	-2.918309
47148		4.653412	-14.142178	-2.882760
47149		4.522199	-14.044610	-2.848092
47150		4.408255	-13.940264	-2.816021
47151		4.309839	-13.838376	-2.773174
47152		4.215417	-13.737118	-2.718403
47153		4.112979	-13.634297	-2.654643
47154		3.999181	-13.528559	-2.586497
47155		3.874391	-13.416426	-2.508281
47156		3.742503	-13.304982	-2.434828
47157		3.615832	-13.193706	-2.366756
47158		3.509320	-13.084398	-2.300759
47159		3.416446	-12.977261	-2.234686
47160		3.337726	-12.872977	-2.167331
47161		3.269308	-12.774033	-2.099079
47162		3.212751	-12.688602	-2.024601
47163		3.152109	-12.615822	-1.932883
47164		3.075921	-12.561353	-1.825840
47165		3.003874	-12.505713	-1.723480
47166		2.946944	-12.441674	-1.638564
47167		2.897519	-12.371243	-1.559067
47168		2.851895	-12.305103	-1.479676
47169		2.810073	-12.244371	-1.399490
47170		2.774853	-12.191495	-1.321124
47171		2.748104	-12.136113	-1.252043
47172		2.716767	-12.074219	-1.181438
47173		2.677219	-12.005202	-1.109237
47174		2.635652	-11.935134	-1.028393
47175		2.590540	-11.859888	-0.936134
47176		2.544140	-11.790646	-0.839696
47177		2.506733	-11.725671	-0.748156
47178		2.468297	-11.675800	-0.661675
47179		2.430677	-11.630810	-0.584075
47180		2.403363	-11.576032	-0.522618
47181		2.387245	-11.517428	-0.467118
47182		2.382035	-11.472008	-0.407537
47183		2.388895	-11.450444	-0.335815
47184		2.405891	-11.451209	-0.253572
47185		2.437833	-11.466695	-0.165762
47186		2.476743	-11.491694	-0.077589
47187		2.509482	-11.516210	0.004991
47188		2.556048	-11.511678	0.065120
47189		2.617817	-11.475197	0.096528
47190		2.681316	-11.419889	0.104854
47191		2.744269	-11.355946	0.111743
47192		2.792452	-11.301987	0.124705
47193		2.827664	-11.256877	0.146724
47194		2.845296	-11.223420	0.178847
47195		2.856872	-11.191055	0.217056
47196		2.877405	-11.162576	0.251823
47197		2.903951	-11.143935	0.290402
47198		2.929731	-11.133535	0.337447
47199		2.946366	-11.131964	0.389114
47200		2.959266	-11.132187	0.438605
47201		2.978920	-11.124303	0.482353
47202		3.004204	-11.105609	0.513368
47203		3.034182	-11.079269	0.530065
47204		3.061295	-11.051990	0.537667
47205		3.080210	-11.010905	0.536529
47206		3.097348	-10.949129	0.528877
47207		3.114830	-10.885731	0.525437
47208		3.114235	-10.847926	0.539910
47209		3.101751	-10.843268	0.560832
47210		3.083436	-10.881980	0.584596
47211		3.073320	-10.944508	0.613933
47212		3.066522	-11.021278	0.649566
47213		3.063817	-11.081103	0.678775
47214		3.069425	-11.116105	0.690878
47215		3.081484	-11.125259	0.689602
47216		3.083681	-11.103240	0.681779
47217		3.086059	-11.061487	0.655974
47218		3.081869	-11.013160	0.615810
47219		3.067686	-10.963106	0.566483
47220		3.037282	-10.920207	0.516351
47221		3.000111	-10.886895	0.469166
47222		2.970318	-10.869597	0.426772
47223		2.945252	-10.872345	0.392670
47224		2.925835	-10.900896	0.370216
47225		2.921488	-10.954067	0.358736
47226		2.937028	-11.027082	0.356038
47227		2.972845	-11.115351	0.353895
47228		3.032797	-11.220502	0.351374
47229		3.123114	-11.337562	0.344392
47230		3.229523	-11.469702	0.336242
47231		3.327608	-11.582768	0.325471
47232		3.408870	-11.637744	0.307957
47233		3.465389	-11.640876	0.287997
47234		3.493404	-11.630846	0.265208
47235		3.502741	-11.626216	0.247110
47236		3.500281	-11.639615	0.238470
47237		3.498903	-11.688457	0.237591
47238		3.510797	-11.785334	0.244184
47239		3.554989	-11.913668	0.243684
47240		3.645656	-12.068632	0.230024
47241		3.789873	-12.216882	0.189969
47242		3.952135	-12.345597	0.132279
47243		4.089372	-12.468511	0.079085
47244		4.177312	-12.582785	0.042501
47245		4.223079	-12.693348	0.027199
47246		4.255138	-12.796479	0.029515
47247		4.291631	-12.899016	0.036430
47248		4.347612	-13.008653	0.044669
47249		4.427911	-13.135501	0.050883
47250		4.531621	-13.290419	0.060386
47251		4.652671	-13.469521	0.078347
47252		4.781222	-13.667211	0.107094
47253		4.909512	-13.872422	0.130968
47254		5.010282	-14.081907	0.156335
47255		5.090499	-14.298070	0.207812
47256		5.129356	-14.523652	0.262593
47257		5.092384	-14.759155	0.265914
47258		5.078708	-14.979354	0.217420
47259		5.146623	-15.166983	0.156088
47260		5.270936	-15.270110	0.250161
47261		5.234846	-15.299386	0.376294
47262		5.215242	-15.245156	0.416697
47263		5.261765	-15.111535	0.408197
47264		5.354888	-14.949680	0.436519
47265		5.384893	-14.802643	0.491921
47266		5.390460	-14.666871	0.538264
47267		5.391187	-14.513423	0.580223
47268		5.380922	-14.302697	0.621081
47269		5.347451	-14.018490	0.635652
47270		5.283165	-13.673120	0.641607
47271		5.185616	-13.248469	0.646429
47272		5.120649	-12.694836	0.650267
47273		5.203323	-12.175956	0.624683
47274		5.294628	-11.817704	0.579427
47275		5.386051	-11.526174	0.547759
47276		5.464176	-11.192361	0.545349
47277		5.498101	-10.787219	0.579636
47278		5.569772	-10.269760	0.679689
47279		5.609604	-9.703063	0.801537
47280		5.695686	-9.137335	0.918193
47281		5.846597	-8.601940	1.031078
47282		6.039153	-8.119863	1.158268
47283		6.253568	-7.673957	1.308838
47284		6.456637	-7.212255	1.502911
47285		6.654524	-6.649686	1.712987
47286		6.845858	-5.903630	1.988683
47287		6.928622	-4.938774	2.320081
47288		6.908467	-3.793057	2.633820
47289		6.897193	-2.591505	2.883997
47290		6.979453	-1.404275	3.080427
47291		7.188804	-0.228498	3.209017
47292		7.375751	0.837393	3.270734
47293		7.437786	1.785250	3.303540
47294		7.407937	2.671433	3.297479
47295		7.316608	3.537502	3.296882
47296		7.121621	4.400340	3.316661
47297		6.833131	5.285555	3.316155
47298		6.492026	6.150967	3.283162
47299		6.112644	6.964891	3.229767
47300		5.717336	7.703451	3.185533
47301		5.351762	8.360618	3.168376
47302		5.067046	8.947757	3.183006
47303		4.713422	9.405185	3.156869
47304		4.453653	9.756774	3.157611
47305		4.213929	10.008573	3.163912
47306		4.014560	10.170532	3.184687
47307		3.881008	10.282391	3.224617
47308		3.774375	10.330563	3.262021
47309		3.701388	10.336054	3.299101
47310		3.656076	10.310001	3.322840
47311		3.627415	10.253786	3.328073
47312		3.603962	10.168336	3.319349
47313		3.589603	10.107040	3.301707
47314		3.558322	10.038436	3.280416
47315		3.499042	9.950818	3.260405
47316		3.470562	9.869736	3.235667
47317		3.445815	9.807397	3.209204
47318		3.423742	9.764482	3.184050
47319		3.403230	9.733135	3.164634
47320		3.386271	9.712988	3.144392
47321		3.375796	9.696825	3.123741
47322		3.369527	9.670867	3.095840
47323		3.365165	9.630974	3.063382
47324		3.362426	9.578274	3.032204
47325		3.357335	9.527898	3.005834
47326		3.355714	9.481142	2.987205
47327		3.359064	9.444485	2.971451
47328		3.361896	9.415009	2.955554
47329		3.375490	9.385778	2.937238
47330		3.393139	9.349835	2.918071
47331		3.409046	9.309065	2.896197
47332		3.427436	9.270206	2.876457
47333		3.452482	9.227773	2.857214
47334		3.493554	9.185813	2.845493
47335		3.552610	9.152276	2.833844
47336		3.613852	9.161415	2.819822
47337		3.679890	9.227455	2.801886
47338		3.742332	9.345762	2.782503
47339		3.791377	9.501171	2.765180
47340		3.831596	9.671985	2.743235
47341		3.887753	9.842170	2.728371
47342		3.958892	10.018131	2.722225
47343		4.035795	10.236527	2.685730
47344		4.182088	10.498357	2.672106
47345		4.393086	10.752139	2.685110
47346		4.611624	11.013206	2.687582
47347		4.828767	11.284221	2.687258
47348		5.038417	11.531572	2.710399
47349		5.239658	11.785754	2.699866
47350		5.354508	11.898900	2.827950
47351		5.435250	11.898794	2.968866
47352		5.595355	11.894633	3.118953
47353		5.732901	11.904724	3.230060
47354		5.856055	11.942484	3.317162
47355		5.986404	12.001995	3.411486
47356		6.065578	12.050588	3.524281
47357		6.096581	12.071291	3.617378
47358		6.161544	12.068201	3.673284
47359		6.277660	12.039973	3.757522
47360		6.324720	11.988743	3.831915
47361		6.305164	11.927698	3.891460
47362		6.231723	11.831841	3.955372
47363		6.166062	11.732550	3.983110
47364		6.110646	11.630598	3.998363
47365		6.070144	11.560915	3.991449
47366		6.032961	11.523759	3.971750
47367		5.977928	11.509878	3.938065
47368		5.899406	11.514613	3.902821
47369		5.800356	11.519632	3.874206
47370		5.692715	11.499629	3.861821
47371		5.601522	11.431938	3.865970
47372		5.539342	11.333445	3.891836
47373		5.504765	11.216271	3.935098
47374		5.491984	11.102992	3.990487
47375		5.483470	11.013187	4.039750
47376		5.456844	10.942171	4.074139
47377		5.430714	10.878872	4.091599
47378		5.403075	10.823842	4.094101
47379		5.368669	10.776109	4.101750
47380		5.339169	10.741015	4.121944
47381		5.312295	10.726876	4.154137
47382		5.296086	10.724635	4.197659
47383		5.318796	10.712091	4.250341
47384		5.385176	10.694640	4.299926
47385		5.462700	10.658064	4.335611
47386		5.512728	10.588055	4.355608
47387		5.540390	10.491662	4.374490
47388		5.571324	10.395336	4.394043
47389		5.624219	10.318360	4.407802
47390		5.694144	10.266300	4.411030
47391		5.767795	10.242327	4.404885
47392		5.845306	10.239997	4.403698
47393		5.920419	10.244309	4.404535
47394		5.967046	10.229368	4.404959
47395		6.017095	10.193901	4.412827
47396		6.078194	10.148084	4.414725
47397		6.116652	10.086910	4.402345
47398		6.118601	10.015931	4.374586
47399		6.108453	9.938557	4.335256
47400		6.103839	9.860376	4.290976
47401		6.117117	9.778875	4.247383
47402		6.150938	9.695588	4.205161
47403		6.208960	9.623752	4.158971
47404		6.275174	9.564602	4.113932
47405		6.334516	9.507270	4.077734
47406		6.375156	9.431957	4.048513
47407		6.410522	9.339780	4.028213
47408		6.440138	9.222922	3.992202
47409		6.462982	9.083376	3.921700
47410		6.483744	8.932571	3.817451
47411		6.505233	8.784620	3.686313
47412		6.529849	8.659911	3.535448
47413		6.555649	8.560223	3.386143
47414		6.588087	8.499942	3.254470
47415		6.622739	8.471980	3.164029
47416		6.653863	8.463658	3.121368
47417		6.675348	8.466400	3.130372
47418		6.676717	8.476304	3.170724
47419		6.666676	8.465739	3.224214
47420		6.679406	8.416866	3.266860
47421		6.710685	8.317200	3.282831
47422		6.748673	8.174186	3.269701
47423		6.789475	8.003442	3.227568
47424		6.828940	7.834356	3.166619
47425		6.861382	7.685443	3.096320
47426		6.882956	7.562431	3.025458
47427		6.903020	7.455684	2.963119
47428		6.929550	7.362661	2.912773
47429		6.967676	7.254018	2.875819
47430		7.025936	7.133034	2.844405
47431		7.103646	6.999367	2.797617
47432		7.184034	6.848556	2.728148
47433		7.264296	6.686127	2.633180
47434		7.349290	6.518874	2.513050
47435		7.445318	6.350817	2.377659
47436		7.543886	6.193741	2.229746
47437		7.633925	6.041217	2.080371
47438		7.704726	5.903997	1.928640
47439		7.764250	5.781826	1.785266
47440		7.803795	5.672531	1.655912
47441		7.827011	5.577425	1.544830
47442		7.846894	5.502456	1.454723
47443		7.868096	5.434432	1.380925
47444		7.890100	5.367812	1.306726
47445		7.924319	5.288131	1.216601
47446		7.966526	5.192452	1.096097
47447		7.996369	5.093910	0.943866
47448		8.009373	5.008300	0.774161
47449		8.005261	4.946974	0.603516
47450		7.975487	4.915741	0.445899
47451		7.928912	4.906261	0.307805
47452		7.877833	4.909446	0.186405
47453		7.834538	4.924142	0.085922
47454		7.801253	4.946799	0.003698
47455		7.790759	4.976293	-0.065199
47456		7.806920	4.999782	-0.129894
47457		7.846709	5.003829	-0.198855
47458		7.889062	4.969364	-0.284998
47459		7.928059	4.889330	-0.393565
47460		7.940364	4.798053	-0.499737
47461		7.920150	4.718843	-0.577926
47462		7.889889	4.659196	-0.621623
47463		7.861520	4.621941	-0.646506
47464		7.842793	4.598238	-0.660216
47465		7.835484	4.579322	-0.673780
47466		7.839294	4.557039	-0.687274
47467		7.848661	4.527162	-0.700917
47468		7.852574	4.484785	-0.713491
47469		7.854978	4.449419	-0.742851
47470		7.845387	4.412836	-0.785354
47471		7.832781	4.373143	-0.848644
47472		7.826124	4.328674	-0.928455
47473		7.827275	4.282060	-1.026240
47474		7.836237	4.227369	-1.136298
47475		7.844476	4.156998	-1.258464
47476		7.830895	4.069932	-1.383557
47477		7.792135	3.992596	-1.496025
47478		7.745556	3.937660	-1.579341
47479		7.716920	3.896702	-1.637162
47480		7.708237	3.857859	-1.688922
47481		7.714263	3.801921	-1.738898
47482		7.716772	3.727340	-1.795419
47483		7.691298	3.641166	-1.854786
47484		7.625074	3.551867	-1.903414
47485		7.526642	3.491609	-1.913006
47486		7.437384	3.459557	-1.871616
47487		7.404888	3.443811	-1.790626
47488		7.436170	3.426268	-1.688184
47489		7.492152	3.400328	-1.587780
47490		7.554989	3.364505	-1.515270
47491		7.604924	3.323115	-1.487013
47492		7.620714	3.289919	-1.491864
47493		7.614348	3.268554	-1.506240
47494		7.601276	3.256747	-1.516462
47495		7.586687	3.247479	-1.524112
47496		7.572181	3.231352	-1.527474
47497		7.559768	3.203668	-1.537230
47498		7.560217	3.157966	-1.550099
47499		7.585931	3.082616	-1.563392
47500		7.644383	2.974062	-1.579288
47501		7.729131	2.810595	-1.585082
47502		7.814990	2.603837	-1.585955
47503		7.875346	2.391060	-1.601761
47504		7.904767	2.187179	-1.617589
47505		7.874862	2.019077	-1.659619
47506		7.853675	1.863606	-1.682748
47507		7.845772	1.695165	-1.685592
47508		7.876029	1.487083	-1.693080
47509		7.953184	1.204777	-1.714756
47510		8.063091	0.852958	-1.742145
47511		8.178210	0.466026	-1.761881
47512		8.274778	0.074580	-1.776943
47513		8.339842	-0.304908	-1.785270
47514		8.373130	-0.641173	-1.784560
47515		8.382477	-0.927222	-1.775660
47516		8.399891	-1.166521	-1.769603
47517		8.418333	-1.366370	-1.760348
47518		8.402158	-1.544599	-1.778264
47519		8.390218	-1.744046	-1.814497
47520		8.376076	-1.994713	-1.868463
47521		8.338530	-2.310352	-1.931431
47522		8.251390	-2.677770	-2.013799
47523		8.106587	-3.098775	-2.108534
47524		7.914571	-3.591029	-2.157777
47525		7.702202	-4.225065	-2.173475
47526		7.536248	-4.838496	-2.246322
47527		7.361240	-5.420912	-2.322586
47528		7.141792	-5.915097	-2.410939
47529		6.928011	-6.303540	-2.486066
47530		6.711805	-6.626241	-2.492879
47531		6.427264	-6.955572	-2.461006
47532		6.066078	-7.362654	-2.386349
47533		5.649302	-7.874730	-2.280956
47534		5.191831	-8.510470	-2.172217
47535		4.688476	-9.238022	-2.076034
47536		4.183951	-10.024793	-1.997236
47537		3.698233	-10.855881	-1.945524
47538		3.242700	-11.713797	-1.934539
47539		2.812878	-12.607045	-1.942613
47540		2.475822	-13.519769	-1.936026
47541		2.212720	-14.410584	-1.898601
47542		2.059509	-15.258742	-1.820696
47543		1.974309	-16.038643	-1.719533
47544		1.935186	-16.737520	-1.620454
47545		1.912159	-17.381397	-1.528934
47546		1.890899	-18.006260	-1.450923
47547		1.892003	-18.635221	-1.378732
47548		1.971247	-19.240949	-1.336200
47549		2.132680	-19.766476	-1.335183
47550		2.371234	-20.178202	-1.370079
47551		2.648617	-20.462968	-1.438401
47552		2.944699	-20.630816	-1.542384
47553		3.238365	-20.699008	-1.679499
47554		3.527347	-20.696679	-1.845260
47555		3.807769	-20.665632	-2.030534
47556		4.101756	-20.609104	-2.229390
47557		4.426428	-20.509771	-2.417365
47558		4.793384	-20.285904	-2.560616
47559		5.275958	-19.768629	-2.629302
47560		6.032738	-18.899939	-2.648445
47561		6.849489	-17.648609	-2.562076
47562		7.401487	-16.094095	-2.405612
47563		7.649310	-14.583827	-2.318063
47564		7.832805	-13.583178	-2.451404
47565		8.045620	-13.066034	-2.745081
47566		8.289909	-12.844143	-3.146154
47567		8.444172	-12.686949	-3.581263
47568		8.542213	-12.504330	-3.926336
47569		8.476776	-12.320074	-4.155725
47570		8.320536	-12.145699	-4.331506
47571		8.122805	-11.956935	-4.429546
47572		7.956674	-11.703216	-4.440176
47573		7.726262	-11.430010	-4.344053
47574		7.341068	-11.163744	-4.158070
47575		6.837635	-10.886770	-3.890178
47576		6.239058	-10.599943	-3.523348
47577		5.570007	-10.357857	-3.095175
47578		4.890213	-10.274027	-2.674974
47579		4.290649	-10.327067	-2.319778
47580		3.922222	-10.381808	-2.033889
47581		3.740644	-10.415729	-1.797325
47582		3.511227	-10.472077	-1.599223
47583		3.289265	-10.574399	-1.457770
47584		3.203830	-10.689896	-1.420011
47585		3.213962	-10.786947	-1.440968
47586		3.201571	-10.883593	-1.476246
47587		3.205254	-10.951667	-1.512456
47588		3.218176	-11.014556	-1.555480
47589		3.240218	-11.068369	-1.593608
47590		3.275508	-11.097408	-1.629266
47591		3.315997	-11.101260	-1.660024
47592		3.357637	-11.097938	-1.686459
47593		3.397909	-11.095669	-1.721875
47594		3.438964	-11.092061	-1.759915
47595		3.461046	-11.104655	-1.791319
47596		3.468168	-11.125994	-1.815106
47597		3.471649	-11.168144	-1.843849
47598		3.477556	-11.225425	-1.871399
47599		3.473204	-11.292401	-1.893768
47600		3.453928	-11.368017	-1.912215
47601		3.416451	-11.446145	-1.929340
47602		3.362855	-11.518928	-1.948592
47603		3.306371	-11.572438	-1.978619
47604		3.258284	-11.600797	-2.032312
47605		3.215342	-11.602654	-2.108430
47606		3.172650	-11.588233	-2.198826
47607		3.125646	-11.566727	-2.296807
47608		3.072984	-11.543864	-2.401695
47609		3.002817	-11.538070	-2.508642
47610		2.906011	-11.553739	-2.596940
47611		2.793849	-11.582443	-2.658640
47612		2.654655	-11.619411	-2.724399
47613		2.639334	-11.624384	-2.844205
47614		2.664702	-11.644957	-2.944872
47615		2.700402	-11.686835	-3.018699
47616		2.749802	-11.742849	-3.106099
47617		2.802101	-11.817804	-3.206314
47618		2.850315	-11.907619	-3.307312
47619		2.894833	-12.019568	-3.399137
47620		2.931564	-12.150754	-3.475252
47621		2.962701	-12.284018	-3.540262
47622		2.995894	-12.412066	-3.608035
47623		3.037708	-12.540335	-3.686759
47624		3.094288	-12.683079	-3.776850
47625		3.244308	-12.750070	-3.863887
47626		3.328448	-12.868119	-3.858690
47627		3.331473	-13.083994	-3.846042
47628		3.410007	-13.203524	-3.869597
47629		3.458781	-13.300756	-3.892665
47630		3.477500	-13.351625	-3.918260
47631		3.456968	-13.321908	-3.934945
47632		3.367400	-13.251170	-3.939722
47633		3.234698	-13.138550	-3.949968
47634		3.084541	-12.997582	-3.959487
47635		2.919373	-12.855726	-3.958395
47636		2.775259	-12.728772	-3.929818
47637		2.671651	-12.656200	-3.856675
47638		2.606492	-12.662275	-3.741219
47639		2.562121	-12.722894	-3.602847
47640		2.531120	-12.797480	-3.472922
47641		2.503065	-12.857144	-3.366504
47642		2.450933	-12.889707	-3.291455
47643		2.376233	-12.888031	-3.245597
47644		2.284780	-12.853520	-3.215757
47645		2.174531	-12.802882	-3.177925
47646		2.063007	-12.764815	-3.130225
47647		1.964366	-12.748546	-3.078228
47648		1.873100	-12.786011	-3.007685
47649		1.808559	-12.863756	-2.921487
47650		1.774801	-12.965528	-2.836458
47651		1.766097	-13.074939	-2.766005
47652		1.774115	-13.176338	-2.719053
47653		1.792352	-13.280667	-2.684878
47654		1.808598	-13.389396	-2.657284
47655		1.822762	-13.497835	-2.631128
47656		1.818552	-13.609476	-2.604363
47657		1.802249	-13.722822	-2.575653
47658		1.790769	-13.811406	-2.548021
47659		1.776416	-13.864556	-2.512834
47660		1.751023	-13.871177	-2.478632
47661		1.723749	-13.842868	-2.448337
47662		1.685140	-13.816873	-2.414992
47663		1.652938	-13.774910	-2.386448
47664		1.616889	-13.736820	-2.354805
47665		1.578470	-13.693771	-2.326145
47666		1.531514	-13.639639	-2.288898
47667		1.477062	-13.576251	-2.248445
47668		1.427557	-13.497195	-2.205047
47669		1.383175	-13.401748	-2.163127
47670		1.348178	-13.294971	-2.114629
47671		1.307720	-13.182207	-2.059954
47672		1.258091	-13.074690	-2.003096
47673		1.207534	-12.969563	-1.952470
47674		1.163769	-12.868520	-1.908155
47675		1.121996	-12.769535	-1.869713
47676		1.078211	-12.666324	-1.832439
47677		1.029424	-12.544359	-1.800403
47678		0.977262	-12.406172	-1.766902
47679		0.929412	-12.255836	-1.733772
47680		0.875582	-12.122132	-1.688698
47681		0.821442	-12.012869	-1.632358
47682		0.761779	-11.937286	-1.555584
47683		0.693873	-11.894957	-1.452712
47684		0.636513	-11.877021	-1.327162
47685		0.600311	-11.860289	-1.179946
47686		0.567938	-11.839213	-1.027285
47687		0.553260	-11.796378	-0.882831
47688		0.565228	-11.729126	-0.762818
47689		0.603387	-11.636282	-0.667673
47690		0.652547	-11.544886	-0.587704
47691		0.701800	-11.468167	-0.512559
47692		0.747979	-11.408667	-0.436617
47693		0.773090	-11.375997	-0.362638
47694		0.769499	-11.369890	-0.290898
47695		0.745685	-11.377781	-0.217189
47696		0.711352	-11.387283	-0.143955
47697		0.677663	-11.382285	-0.074120
47698		0.642015	-11.355627	-0.011071
47699		0.616936	-11.309832	0.046739
47700		0.598538	-11.256903	0.101433
47701		0.590733	-11.211436	0.149846
47702		0.593113	-11.194133	0.199338
47703		0.611126	-11.200679	0.246283
47704		0.641198	-11.234151	0.300840
47705		0.671581	-11.279909	0.365711
47706		0.710179	-11.324656	0.431698
47707		0.750389	-11.357287	0.499904
47708		0.782516	-11.380599	0.568868
47709		0.815595	-11.393653	0.633873
47710		0.840853	-11.404130	0.685400
47711		0.860303	-11.410852	0.727921
47712		0.881468	-11.425616	0.771711
47713		0.912314	-11.454779	0.823143
47714		0.945830	-11.491997	0.881295
47715		0.982058	-11.527888	0.934707
47716		1.026273	-11.551742	0.992961
47717		1.058539	-11.561201	1.059169
47718		1.084063	-11.570680	1.129984
47719		1.111161	-11.581871	1.200355
47720		1.139343	-11.608462	1.277017
47721		1.165438	-11.654965	1.363030
47722		1.194338	-11.718861	1.454006
47723		1.223672	-11.785135	1.544922
47724		1.237011	-11.864775	1.632320
47725		1.213319	-11.945950	1.711993
47726		1.150084	-11.993940	1.778353
47727		1.070281	-12.008815	1.822869
47728		0.970980	-12.023385	1.857213
47729		0.869516	-12.065007	1.883952
47730		0.779251	-12.146451	1.913279
47731		0.716073	-12.253258	1.950062
47732		0.668103	-12.383865	1.991245
47733		0.641865	-12.499793	2.021849
47734		0.616568	-12.592217	2.044009
47735		0.589026	-12.647941	2.055357
47736		0.548383	-12.690786	2.062865
47737		0.503534	-12.720598	2.069052
47738		0.449533	-12.739462	2.073639
47739		0.389517	-12.740797	2.069297
47740		0.332670	-12.734749	2.058847
47741		0.277932	-12.732812	2.052248
47742		0.234111	-12.720339	2.042197
47743		0.201286	-12.709864	2.032491
47744		0.169085	-12.686846	2.025289
47745		0.144624	-12.640962	2.014395
47746		0.128923	-12.573535	1.996473
47747		0.103909	-12.499536	1.986719
47748		0.065793	-12.410849	1.974958
47749		0.035014	-12.325294	1.964967
47750		0.018382	-12.264656	1.965809
47751		0.020791	-12.239110	1.977272
47752		0.028425	-12.262749	2.006879
47753		0.041045	-12.336704	2.044694
47754		0.066629	-12.443572	2.080486
47755		0.112077	-12.568867	2.108487
47756		0.181177	-12.685473	2.119424
47757		0.254882	-12.796648	2.112086
47758		0.341200	-12.874570	2.067043
47759		0.423311	-12.932385	2.006219
47760		0.495352	-12.982424	1.942802
47761		0.553050	-13.042775	1.882542
47762		0.607607	-13.124558	1.814512
47763		0.677890	-13.193652	1.729370
47764		0.764328	-13.232398	1.633123
47765		0.836243	-13.242748	1.539254
47766		0.874766	-13.242117	1.464861
47767		0.896181	-13.239987	1.400621
47768		0.919074	-13.243911	1.345598
47769		0.959432	-13.250645	1.299995
47770		1.019678	-13.261651	1.259285
47771		1.096713	-13.279547	1.221905
47772		1.177239	-13.300924	1.192045
47773		1.253497	-13.325700	1.169812
47774		1.319008	-13.364564	1.154667
47775		1.374867	-13.415783	1.145366
47776		1.430217	-13.486842	1.135073
47777		1.487203	-13.576569	1.126500
47778		1.542126	-13.671042	1.134852
47779		1.594690	-13.808160	1.159289
47780		1.634350	-13.963960	1.183692
47781		1.689776	-14.127439	1.216520
47782		1.741575	-14.307101	1.265029
47783		1.791588	-14.492748	1.311996
47784		1.850286	-14.693395	1.357922
47785		1.928317	-14.913990	1.403707
47786		2.006766	-15.156774	1.439460
47787		2.098092	-15.428313	1.459539
47788		2.192439	-15.711419	1.550329
47789		2.263418	-16.002493	1.628366
47790		2.335035	-16.298093	1.697432
47791		2.359426	-16.600738	1.799309
47792		2.322556	-16.886256	1.966833
47793		2.190005	-17.143967	2.092098
47794		2.091096	-17.305878	2.199031
47795		2.041113	-17.373194	2.284097
47796		2.035062	-17.368351	2.302470
47797		2.057938	-17.307234	2.276806
47798		2.103571	-17.196090	2.241528
47799		2.173522	-17.031241	2.209582
47800		2.239550	-16.831057	2.187594
47801		2.268639	-16.595166	2.189297
47802		2.256142	-16.315856	2.191566
47803		2.194468	-15.996625	2.183480
47804		2.095804	-15.633820	2.167851
47805		2.009758	-15.272631	2.121274
47806		1.976629	-14.953891	2.083476
47807		1.929053	-14.729728	2.073688
47808		1.886273	-14.561150	2.090785
47809		1.850438	-14.425742	2.135320
47810		1.800252	-14.299109	2.201710
47811		1.717907	-14.164276	2.262937
47812		1.626404	-13.988097	2.283460
47813		1.568870	-13.739032	2.270514
47814		1.553764	-13.398118	2.229684
47815		1.561016	-12.923838	2.178541
47816		1.620324	-12.309190	2.161891
47817		1.745160	-11.614030	2.178069
47818		1.926328	-10.885613	2.231068
47819		2.174733	-10.084241	2.276452
47820		2.543591	-9.176235	2.326056
47821		3.006924	-8.171267	2.391423
47822		3.450484	-7.073719	2.426072
47823		3.760032	-5.949284	2.491301
47824		3.964530	-4.875073	2.608033
47825		4.183370	-3.811672	2.761569
47826		4.381440	-2.704154	2.899743
47827		4.534321	-1.613847	3.005899
47828		4.692980	-0.628515	3.043519
47829		4.861171	0.228514	3.015968
47830		5.005552	0.982184	2.989312
47831		5.130975	1.674390	2.973858
47832		5.205696	2.349129	2.953523
47833		5.187558	3.010270	2.911286
47834		5.097853	3.682146	2.849681
47835		4.971160	4.375701	2.783465
47836		4.818812	5.079256	2.724273
47837		4.672449	5.771703	2.681199
47838		4.561056	6.432224	2.681154
47839		4.482177	6.965288	2.677259
47840		4.319388	7.316301	2.633386
47841		4.191762	7.582222	2.619548
47842		3.997780	7.657148	2.631965
47843		3.855851	7.679938	2.674320
47844		3.731986	7.734913	2.721152
47845		3.599146	7.800091	2.762314
47846		3.512670	7.879590	2.806278
47847		3.456241	7.964906	2.839305
47848		3.404405	8.042313	2.858690
47849		3.343306	8.102914	2.869026
47850		3.283267	8.142863	2.875345
47851		3.229405	8.157566	2.878069
47852		3.187163	8.149120	2.875624
47853		3.157584	8.118411	2.872289
47854		3.149671	8.062990	2.862547
47855		3.156241	7.989214	2.848594
47856		3.170276	7.904148	2.835374
47857		3.189977	7.825166	2.827484
47858		3.211178	7.752847	2.818143
47859		3.230992	7.690051	2.809922
47860		3.245270	7.631144	2.796256
47861		3.261937	7.575328	2.781572
47862		3.273471	7.517259	2.767599
47863		3.285155	7.462980	2.756057
47864		3.306958	7.415424	2.747150
47865		3.333745	7.373498	2.740779
47866		3.363992	7.337976	2.736365
47867		3.398777	7.302611	2.732378
47868		3.450708	7.257333	2.731842
47869		3.518473	7.205332	2.736103
47870		3.609308	7.152754	2.742443
47871		3.728312	7.092615	2.751403
47872		3.863774	7.033707	2.768117
47873		3.995684	6.991655	2.788324
47874		4.117204	6.976387	2.816092
47875		4.219933	6.990746	2.848656
47876		4.338862	7.034213	2.883804
47877		4.488962	7.109427	2.917661
47878		4.667047	7.220300	2.954318
47879		4.862834	7.368861	2.993077
47880		5.040686	7.560355	3.023776
47881		5.242114	7.736911	3.120683
47882		5.456060	7.863898	3.268350
47883		5.736014	8.037511	3.376996
47884		5.926280	8.165391	3.499664
47885		6.073457	8.269612	3.647844
47886		6.184175	8.352543	3.811245
47887		6.268681	8.464893	3.963619
47888		6.358636	8.596651	4.132714
47889		6.364489	8.716488	4.331428
47890		6.344835	8.815164	4.571771
47891		6.328523	8.908485	4.827604
47892		6.332638	8.974415	5.074354
47893		6.396396	8.963803	5.295442
47894		6.556265	8.876609	5.448334
47895		6.796990	8.751722	5.584471
47896		7.045979	8.635842	5.703074
47897		7.252478	8.571242	5.822870
47898		7.404769	8.573014	5.950194
47899		7.519517	8.635865	6.087965
47900		7.657899	8.737754	6.262318
47901		7.853831	8.865725	6.481419
47902		8.096466	8.996332	6.746029
47903		8.355652	9.112827	7.023749
47904		8.613733	9.194016	7.281432
47905		8.821875	9.232985	7.467733
47906		8.895351	9.222905	7.553928
47907		8.800585	9.118026	7.570014
47908		8.618336	8.936348	7.552033
47909		8.414780	8.738077	7.521683
47910		8.211170	8.572389	7.492465
47911		8.041806	8.441474	7.481512
47912		7.932046	8.336884	7.494673
47913		7.915025	8.260463	7.518932
47914		7.959769	8.221908	7.526145
47915		8.004187	8.219177	7.490589
47916		7.980241	8.232954	7.415333
47917		7.865221	8.236265	7.328915
47918		7.687971	8.209352	7.259054
47919		7.503461	8.134333	7.226059
47920		7.365350	8.028243	7.231169
47921		7.291457	7.913964	7.274225
47922		7.261875	7.808056	7.338370
47923		7.247361	7.714381	7.394510
47924		7.238929	7.637500	7.413481
47925		7.221785	7.564484	7.388223
47926		7.178005	7.472052	7.317550
47927		7.119656	7.354072	7.213780
47928		7.064201	7.211271	7.103838
47929		7.021538	7.059303	7.010871
47930		7.001827	6.922035	6.946360
47931		7.010864	6.806444	6.914524
47932		7.054084	6.716502	6.915954
47933		7.113385	6.639222	6.928116
47934		7.151243	6.550270	6.925393
47935		7.137867	6.428680	6.886931
47936		7.099417	6.280808	6.820583
47937		7.067996	6.111525	6.733783
47938		7.067741	5.923750	6.628320
47939		7.080105	5.726207	6.527723
47940		7.091528	5.546999	6.435908
47941		7.115905	5.398576	6.347881
47942		7.165923	5.292788	6.256426
47943		7.218976	5.229197	6.167351
47944		7.262604	5.196508	6.054979
47945		7.286431	5.187103	5.920364
47946		7.260021	5.174500	5.773491
47947		7.212445	5.156007	5.629652
47948		7.173612	5.135179	5.500009
47949		7.146717	5.114961	5.389229
47950		7.136211	5.100919	5.297990
47951		7.147879	5.089021	5.220571
47952		7.178904	5.077871	5.143907
47953		7.217908	5.057446	5.048858
47954		7.239026	5.023329	4.920576
47955		7.229418	4.970205	4.765089
47956		7.199834	4.910743	4.591767
47957		7.159610	4.867352	4.409149
47958		7.115934	4.831452	4.236320
47959		7.072848	4.801547	4.078966
47960		7.042555	4.785032	3.936145
47961		7.029034	4.771283	3.812281
47962		7.038077	4.755494	3.702687
47963		7.063337	4.734186	3.592193
47964		7.081454	4.708517	3.472092
47965		7.080836	4.667745	3.343553
47966		7.068568	4.616810	3.208721
47967		7.049244	4.569569	3.078315
47968		7.016285	4.527750	2.971235
47969		6.986823	4.496567	2.884499
47970		6.969475	4.473418	2.812371
47971		6.953279	4.447994	2.740124
47972		6.934568	4.421873	2.667150
47973		6.914895	4.376771	2.587416
47974		6.895104	4.321843	2.503532
47975		6.863295	4.245408	2.418436
47976		6.823979	4.154208	2.326504
47977		6.784568	4.054163	2.231036
47978		6.737477	3.958380	2.135008
47979		6.690622	3.877359	2.048590
47980		6.656530	3.814987	1.973202
47981		6.638251	3.762239	1.911934
47982		6.638470	3.715502	1.868215
47983		6.657157	3.666834	1.833105
47984		6.680238	3.605426	1.801139
47985		6.685856	3.527357	1.752484
47986		6.682940	3.429444	1.695531
47987		6.677798	3.305242	1.627724
47988		6.668101	3.158653	1.557509
47989		6.649936	2.986796	1.502861
47990		6.625901	2.805097	1.462091
47991		6.594925	2.616323	1.434534
47992		6.568529	2.443587	1.419658
47993		6.546726	2.304977	1.414175
47994		6.532772	2.200715	1.417800
47995		6.529651	2.133532	1.433254
47996		6.523356	2.083468	1.455292
47997		6.515544	2.046986	1.468917
47998		6.506789	2.001967	1.476142
47999		6.506736	1.941635	1.467466
48000		6.521965	1.877333	1.444211
48001		6.543041	1.814877	1.403341
48002		6.566610	1.760337	1.362364
48003		6.584117	1.716253	1.307869
48004		6.592905	1.681686	1.254896
48005		6.595838	1.654673	1.208900
48006		6.594903	1.641221	1.176109
48007		6.590078	1.630378	1.169737
48008		6.587071	1.615147	1.184220
48009		6.590849	1.575650	1.202960
48010		6.605655	1.498353	1.219187
48011		6.625425	1.375061	1.225779
48012		6.646529	1.211439	1.226779
48013		6.650740	1.014656	1.244863
48014		6.623047	0.789822	1.274151
48015		6.563683	0.556810	1.325573
48016		6.464799	0.342645	1.389950
48017		6.358663	0.176420	1.443124
48018		6.255004	0.072809	1.487373
48019		6.191356	0.008062	1.515932
48020		6.176113	-0.043382	1.529994
48021		6.199391	-0.123284	1.533614
48022		6.235170	-0.247080	1.537396
48023		6.248826	-0.404656	1.547998
48024		6.227993	-0.577439	1.562179
48025		6.186508	-0.756239	1.574325
48026		6.134033	-0.940656	1.580602
48027		6.081026	-1.120708	1.582240
48028		6.020043	-1.283143	1.572819
48029		5.968915	-1.430102	1.561993
48030		5.952085	-1.590925	1.550497
48031		5.961168	-1.805080	1.531785
48032		5.974632	-2.101672	1.491042
48033		5.985644	-2.484435	1.451273
48034		5.932580	-2.927383	1.417911
48035		5.821951	-3.386303	1.384968
48036		5.664113	-3.860258	1.393694
48037		5.460749	-4.416139	1.552587
48038		5.239185	-5.004533	1.673294
48039		5.019216	-5.634677	1.728104
48040		4.889367	-6.304580	1.712701
48041		4.771212	-7.020594	1.625852
48042		4.733185	-7.751901	1.461938
48043		4.783424	-8.501850	1.247700
48044		4.907699	-9.262382	0.993350
48045		5.077340	-9.984441	0.731839
48046		5.265394	-10.628464	0.462306
48047		5.491222	-11.136140	0.206154
48048		5.727874	-11.469254	0.007864
48049		5.916593	-11.697323	-0.137375
48050		6.048246	-11.938682	-0.240854
48051		6.116589	-12.271870	-0.340962
48052		6.164454	-12.805517	-0.481460
48053		6.239422	-13.562100	-0.640077
48054		6.360376	-14.466006	-0.821750
48055		6.578383	-15.437050	-0.978185
48056		6.866992	-16.340765	-1.141826
48057		7.204997	-17.101246	-1.358755
48058		7.590405	-17.706088	-1.604381
48059		7.948864	-18.220548	-1.844568
48060		8.182150	-18.707571	-2.059735
48061		8.273430	-19.236725	-2.254272
48062		8.250548	-19.840984	-2.432250
48063		8.155378	-20.516350	-2.619009
48064		8.045244	-21.168826	-2.831830
48065		7.969260	-21.684037	-3.071889
48066		8.063205	-21.955190	-3.324030
48067		8.436959	-21.912851	-3.511787
48068		8.952231	-21.576565	-3.622244
48069		9.383453	-21.082176	-3.662852
48070		9.597680	-20.446119	-3.733168
48071		9.700250	-19.673132	-3.833431
48072		9.758548	-18.734587	-3.913100
48073		9.809045	-17.716184	-3.989872
48074		9.926958	-16.782022	-4.077474
48075		9.771837	-16.287397	-4.100482
48076		9.486559	-16.057081	-4.428699
48077		9.433222	-15.717727	-4.706091
48078		9.382658	-15.250377	-4.690832
48079		9.126974	-14.826794	-4.613792
48080		8.771162	-14.436056	-4.632117
48081		8.394772	-13.973154	-4.637763
48082		7.906236	-13.452095	-4.578005
48083		7.302592	-12.967351	-4.468342
48084		6.725663	-12.553876	-4.338706
48085		6.258104	-12.169064	-4.226412
48086		5.815907	-11.810248	-4.150215
48087		5.372610	-11.497904	-4.121133
48088		4.925922	-11.212347	-4.127684
48089		4.523385	-10.944878	-4.125722
48090		4.113540	-10.693827	-4.139612
48091		3.757660	-10.443810	-4.178143
48092		3.452456	-10.229063	-4.223263
48093		3.189508	-10.056367	-4.308132
48094		3.024022	-9.915054	-4.377488
48095		2.921541	-9.869226	-4.442523
48096		2.837240	-9.880475	-4.550426
48097		2.805748	-9.906461	-4.616384
48098		2.771411	-10.000985	-4.664721
48099		2.779281	-10.121683	-4.726954
48100		2.817379	-10.284390	-4.793789
48101		2.877849	-10.475525	-4.846942
48102		2.947092	-10.678329	-4.885364
48103		3.017827	-10.864628	-4.907133
48104		3.082596	-11.024652	-4.914048
48105		3.134113	-11.142869	-4.911961
48106		3.164972	-11.219792	-4.900213
48107		3.173571	-11.258902	-4.877721
48108		3.168504	-11.280798	-4.848425
48109		3.157483	-11.288617	-4.822488
48110		3.132512	-11.302293	-4.798456
48111		3.094598	-11.323718	-4.771932
48112		3.046245	-11.353747	-4.743113
48113		2.987439	-11.390732	-4.712792
48114		2.923194	-11.426291	-4.682840
48115		2.855923	-11.451234	-4.664657
48116		2.798053	-11.457824	-4.662123
48117		2.744236	-11.449970	-4.669817
48118		2.690004	-11.427575	-4.676322
48119		2.623870	-11.406784	-4.685813
48120		2.545500	-11.394907	-4.695396
48121		2.447015	-11.389760	-4.697660
48122		2.328602	-11.379269	-4.686976
48123		2.142198	-11.363850	-4.662819
48124		1.973109	-11.308169	-4.683835
48125		1.816080	-11.262084	-4.667732
48126		1.591764	-11.285024	-4.567689
48127		1.336870	-11.364080	-4.444500
48128		1.118086	-11.478540	-4.307121
48129		0.955324	-11.608778	-4.151591
48130		0.859167	-11.696088	-3.954947
48131		0.778501	-11.830224	-3.746106
48132		0.759995	-11.950107	-3.598088
48133		0.753844	-12.028321	-3.475206
48134		0.733427	-12.072382	-3.378278
48135		0.702166	-12.049300	-3.303825
48136		0.659403	-11.979916	-3.245340
48137		0.626111	-11.863623	-3.209805
48138		0.585874	-11.741365	-3.178543
48139		0.578977	-11.656805	-3.128047
48140		0.613680	-11.654675	-3.054908
48141		0.672793	-11.735884	-2.966272
48142		0.755250	-11.849029	-2.870050
48143		0.841975	-11.947076	-2.767272
48144		0.924962	-12.001517	-2.658426
48145		0.983467	-12.009086	-2.551555
48146		1.019847	-12.001130	-2.450064
48147		1.066361	-11.987588	-2.363296
48148		1.136584	-12.013997	-2.290997
48149		1.257533	-12.087357	-2.232073
48150		1.433742	-12.229089	-2.196012
48151		1.670920	-12.412218	-2.186235
48152		1.944660	-12.604728	-2.198420
48153		2.235171	-12.777378	-2.224368
48154		2.511716	-12.929926	-2.247857
48155		2.729155	-13.053862	-2.257510
48156		2.853565	-13.151082	-2.244051
48157		2.879861	-13.236462	-2.200880
48158		2.849929	-13.324668	-2.168587
48159		2.812714	-13.407270	-2.146420
48160		2.784694	-13.473121	-2.122297
48161		2.758504	-13.512841	-2.098268
48162		2.715676	-13.513044	-2.083051
48163		2.653288	-13.474566	-2.082059
48164		2.588948	-13.408524	-2.086771
48165		2.518247	-13.346770	-2.094730
48166		2.445395	-13.308217	-2.101210
48167		2.378614	-13.291104	-2.110041
48168		2.320415	-13.292782	-2.115034
48169		2.266532	-13.319097	-2.111679
48170		2.223523	-13.361801	-2.115185
48171		2.189516	-13.408506	-2.119552
48172		2.166007	-13.440860	-2.130569
48173		2.165686	-13.444615	-2.153990
48174		2.181332	-13.437829	-2.187417
48175		2.215571	-13.429653	-2.239266
48176		2.261966	-13.438564	-2.304433
48177		2.317808	-13.472850	-2.385638
48178		2.377306	-13.530137	-2.481029
48179		2.442203	-13.591788	-2.600692
48180		2.497426	-13.633246	-2.739147
48181		2.528447	-13.650825	-2.863826
48182		2.543701	-13.639179	-2.956040
48183		2.556144	-13.603935	-3.008244
48184		2.574353	-13.533220	-3.047263
48185		2.605257	-13.436458	-3.071960
48186		2.638087	-13.327471	-3.093880
48187		2.663464	-13.199516	-3.109671
48188		2.679570	-13.066091	-3.111913
48189		2.698668	-12.920913	-3.095109
48190		2.726947	-12.745549	-3.074452
48191		2.747684	-12.547237	-3.045840
48192		2.760211	-12.342052	-3.023876
48193		2.779548	-12.129122	-3.020216
48194		2.800684	-11.923749	-3.020711
48195		2.821165	-11.733897	-3.025097
48196		2.848480	-11.569344	-3.027302
48197		2.869883	-11.438996	-3.015541
48198		2.877215	-11.333653	-2.995911
48199		2.863972	-11.249579	-2.975849
48200		2.848211	-11.163717	-2.954402
48201		2.835983	-11.065654	-2.925451
48202		2.824732	-10.951850	-2.895334
48203		2.807377	-10.831260	-2.862757
48204		2.792057	-10.714641	-2.841348
48205		2.790553	-10.615909	-2.818991
48206		2.785852	-10.543199	-2.790388
48207		2.776794	-10.499403	-2.754620
48208		2.772262	-10.480959	-2.710943
48209		2.751325	-10.479057	-2.659719
48210		2.724905	-10.485073	-2.604421
48211		2.704117	-10.489552	-2.551223
48212		2.697068	-10.482615	-2.505673
48213		2.701156	-10.466232	-2.461919
48214		2.723235	-10.450677	-2.433816
48215		2.764995	-10.438410	-2.420060
48216		2.808374	-10.436409	-2.427154
48217		2.852581	-10.441830	-2.460118
48218		2.887255	-10.443745	-2.512531
48219		2.917314	-10.422823	-2.579395
48220		2.940099	-10.377666	-2.677362
48221		2.970968	-10.294895	-2.816124
48222		3.007510	-10.178959	-2.973644
48223		3.026932	-10.058151	-3.128479
48224		3.028311	-9.968527	-3.278087
48225		3.018329	-9.941155	-3.429463
48226		3.015102	-9.986894	-3.564147
48227		3.004262	-10.092889	-3.653587
48228		2.993069	-10.210927	-3.728364
48229		3.002519	-10.297712	-3.805889
48230		3.017060	-10.349264	-3.892336
48231		3.035192	-10.367274	-3.971666
48232		3.054291	-10.374288	-4.041830
48233		3.077796	-10.383883	-4.104999
48234		3.100734	-10.408284	-4.152351
48235		3.117517	-10.441317	-4.181447
48236		3.122743	-10.470713	-4.193033
48237		3.128498	-10.472797	-4.188924
48238		3.134839	-10.442109	-4.177356
48239		3.137863	-10.380539	-4.167207
48240		3.133464	-10.299862	-4.162183
48241		3.124174	-10.225314	-4.154027
48242		3.119351	-10.170582	-4.136748
48243		3.124355	-10.149182	-4.110160
48244		3.143126	-10.172489	-4.071045
48245		3.171934	-10.246269	-4.034126
48246		3.203621	-10.376088	-3.998825
48247		3.242512	-10.536067	-3.964480
48248		3.284081	-10.713400	-3.940606
48249		3.341261	-10.877637	-3.931504
48250		3.404622	-11.015942	-3.938571
48251		3.465147	-11.118812	-3.946921
48252		3.520155	-11.180367	-3.968811
48253		3.551801	-11.227907	-3.992154
48254		3.582854	-11.273547	-4.025321
48255		3.601940	-11.333080	-4.068028
48256		3.620992	-11.388639	-4.128497
48257		3.640006	-11.416945	-4.210053
48258		3.639781	-11.426674	-4.284313
48259		3.614451	-11.426056	-4.340049
48260		3.572687	-11.421200	-4.376292
48261		3.538278	-11.416788	-4.398618
48262		3.514317	-11.418750	-4.410003
48263		3.512813	-11.429958	-4.415481
48264		3.529582	-11.462608	-4.417070
48265		3.556115	-11.523874	-4.410993
48266		3.585792	-11.610475	-4.397356
48267		3.617338	-11.714793	-4.374044
48268		3.653863	-11.831016	-4.344288
48269		3.697493	-11.947324	-4.321953
48270		3.754273	-12.060137	-4.302098
48271		3.813935	-12.170862	-4.279923
48272		3.881333	-12.280356	-4.253487
48273		3.955129	-12.388750	-4.222273
48274		4.028999	-12.493331	-4.181039
48275		4.109853	-12.599986	-4.141873
48276		4.199454	-12.708766	-4.097219
48277		4.295019	-12.815408	-4.044787
48278		4.396106	-12.915951	-3.982451
48279		4.505429	-13.002152	-3.923089
48280		4.616849	-13.061828	-3.861238
48281		4.714063	-13.087752	-3.793760
48282		4.807473	-13.086056	-3.707016
48283		4.871609	-13.056177	-3.588611
48284		4.905991	-13.010180	-3.468444
48285		4.986028	-12.988810	-3.351523
48286		5.067198	-12.935247	-3.263999
48287		5.208858	-12.834410	-3.179959
48288		5.378252	-12.668980	-3.071583
48289		5.697420	-12.306679	-3.011568
48290		5.909744	-11.955815	-2.788625
48291		6.033054	-11.722586	-2.492860
48292		6.108625	-11.554911	-2.152795
48293		6.192657	-11.410901	-1.825647
48294		6.296466	-11.296773	-1.532587
48295		6.389206	-11.235257	-1.274351
48296		6.457222	-11.218201	-1.027547
48297		6.506227	-11.227707	-0.769363
48298		6.554862	-11.252475	-0.475277
48299		6.606325	-11.291481	-0.142312
48300		6.692203	-11.338930	0.251871
48301		6.813683	-11.376854	0.714288
48302		6.940914	-11.376524	1.234205
48303		7.107081	-11.280719	1.823085
48304		7.288087	-11.105475	2.380210
48305		7.354857	-11.008068	2.807959
48306		7.444587	-11.006087	3.112873
48307		7.494229	-11.072784	3.388320
48308		7.616844	-11.088110	3.631479
48309		7.886679	-10.911533	3.834956
48310		8.306246	-10.496725	4.018280
48311		8.811577	-9.865640	4.212234
48312		9.292440	-9.104711	4.412595
48313		9.617511	-8.321855	4.620960
48314		9.609230	-7.592507	4.832917
48315		9.174769	-6.963846	5.122111
48316		8.510036	-6.293001	5.432850
48317		8.123230	-5.487184	5.677653
48318		7.990583	-4.638580	5.842253
48319		7.866140	-3.764866	5.965736
48320		7.584887	-2.786502	6.071901
48321		7.551384	-1.734984	6.001877
48322		7.499254	-0.689272	5.714561
48323		7.385320	0.299926	5.427807
48324		7.300538	1.262446	5.229568
48325		7.118788	2.147694	5.078676
48326		6.870868	2.928805	4.947495
48327		6.606889	3.621620	4.860588
48328		6.263769	4.232273	4.836906
48329		5.875928	4.768318	4.854194
48330		5.474213	5.238507	4.875723
48331		5.120375	5.622563	4.915616
48332		4.887753	5.963156	4.970715
48333		4.755659	6.271148	5.013481
48334		4.756754	6.422087	5.044524
48335		4.646903	6.439709	5.007441
48336		4.655324	6.517241	5.003896
48337		4.651818	6.586385	4.998394
48338		4.570058	6.594672	4.980593
48339		4.479645	6.586690	4.961252
48340		4.386263	6.584890	4.949123
48341		4.289493	6.590831	4.930575
48342		4.216628	6.593965	4.912800
48343		4.171798	6.594556	4.894882
48344		4.155023	6.590116	4.874926
48345		4.162274	6.580023	4.850252
48346		4.186824	6.565435	4.822969
48347		4.216797	6.551789	4.795774
48348		4.244524	6.541556	4.777579
48349		4.268042	6.545393	4.762715
48350		4.300887	6.575883	4.752073
48351		4.347142	6.645369	4.751108
48352		4.412854	6.749035	4.758406
48353		4.498255	6.879004	4.769166
48354		4.604284	7.030310	4.771939
48355		4.714297	7.195535	4.763463
48356		4.820125	7.358062	4.750455
48357		4.933668	7.506343	4.725900
48358		5.026060	7.625435	4.697192
48359		5.110143	7.714609	4.659184
48360		5.195769	7.794999	4.597276
48361		5.326953	7.886155	4.552810
48362		5.495990	7.984205	4.526703
48363		5.728517	8.082577	4.530001
48364		5.965541	8.170061	4.546107
48365		6.253074	8.340855	4.582261
48366		6.491390	8.576425	4.636449
48367		6.657217	8.834341	4.704264
48368		6.840312	9.115658	4.818236
48369		7.030609	9.403967	4.943686
48370		7.219550	9.700143	5.093899
48371		7.407007	9.915882	5.183749
48372		7.645070	10.064233	5.281598
48373		7.866386	10.131746	5.356767
48374		8.023346	10.135121	5.414166
48375		8.094911	10.091127	5.466481
48376		8.041651	10.016200	5.498507
48377		7.873771	9.915272	5.492172
48378		7.672646	9.819404	5.455677
48379		7.490751	9.746765	5.385152
48380		7.338500	9.692812	5.276821
48381		7.192177	9.651296	5.136414
48382		7.034945	9.632849	4.978457
48383		6.847957	9.639446	4.816839
48384		6.658989	9.661462	4.669106
48385		6.503062	9.673688	4.545433
48386		6.386354	9.653523	4.453979
48387		6.308875	9.600408	4.386202
48388		6.263064	9.505942	4.334996
48389		6.246687	9.372335	4.287788
48390		6.273241	9.240895	4.243953
48391		6.339818	9.152615	4.195618
48392		6.437030	9.122939	4.141496
48393		6.530978	9.133269	4.078594
48394		6.551184	9.120981	4.014483
48395		6.459092	9.031941	3.983102
48396		6.347806	8.890701	3.979552
48397		6.303966	8.750731	3.997074
48398		6.313931	8.619584	4.023342
48399		6.345282	8.485203	4.032764
48400		6.387464	8.335377	4.001080
48401		6.446697	8.163713	3.934942
48402		6.498808	7.974680	3.834238
48403		6.546475	7.777489	3.712527
48404		6.603138	7.600158	3.591766
48405		6.646895	7.462091	3.472449
48406		6.644524	7.346059	3.367771
48407		6.595533	7.224174	3.271829
48408		6.541765	7.082928	3.183099
48409		6.510945	6.916081	3.097760
48410		6.507811	6.733066	3.016558
48411		6.518787	6.549972	2.946075
48412		6.531222	6.374420	2.883271
48413		6.551366	6.214156	2.844905
48414		6.570377	6.067450	2.837506
48415		6.573565	5.937111	2.843581
48416		6.549305	5.813515	2.855641
48417		6.493844	5.681507	2.852304
48418		6.424566	5.539357	2.826031
48419		6.342351	5.378441	2.761678
48420		6.256600	5.211244	2.656961
48421		6.164516	5.027884	2.504603
48422		6.073766	4.833679	2.315049
48423		5.982704	4.631690	2.109164
48424		5.860914	4.422810	1.894967
48425		5.708141	4.212329	1.679894
48426		5.556156	4.003411	1.461680
48427		5.412367	3.788864	1.235291
48428		5.269224	3.566843	1.011637
48429		5.110990	3.345427	0.807073
48430		4.927290	3.139043	0.619561
48431		4.737294	2.964115	0.451936
48432		4.533222	2.816987	0.288000
48433		4.306966	2.656671	0.107472
48434		4.075696	2.452145	-0.097484
48435		3.844801	2.177267	-0.325178
48436		3.607383	1.833515	-0.568936
48437		3.348376	1.414958	-0.805504
48438		3.081714	0.948755	-1.004187
48439		2.821001	0.475420	-1.164530
48440		2.568145	0.020835	-1.284861
48441		2.340074	-0.400604	-1.368625
48442		2.139084	-0.757093	-1.417632
48443		1.946122	-1.052249	-1.456098
48444		1.759546	-1.299175	-1.500521
48445		1.573465	-1.516942	-1.581648
48446		1.402733	-1.722328	-1.697161
48447		1.258070	-1.918510	-1.852155
48448		1.162322	-2.107983	-2.045153
48449		1.146137	-2.289113	-2.267144
48450		1.205947	-2.462362	-2.494987
48451		1.311091	-2.622228	-2.694055
48452		1.428446	-2.749001	-2.833137
48453		1.569031	-2.819021	-2.898993
48454		1.717540	-2.832965	-2.899914
48455		1.857909	-2.813190	-2.864469
48456		1.987236	-2.801227	-2.818529
48457		2.083208	-2.859201	-2.808344
48458		2.062743	-3.028731	-2.844517
48459		2.143160	-3.281002	-2.909654
48460		2.464825	-3.522384	-2.981520
48461		2.835771	-3.714738	-3.034598
48462		3.135394	-3.838509	-3.045430
48463		3.351450	-3.906686	-3.008746
48464		3.490491	-3.931569	-2.935762
48465		3.559899	-3.934145	-2.852392
48466		3.569558	-3.952488	-2.772005
48467		3.549222	-4.011911	-2.704364
48468		3.513784	-4.102868	-2.641713
48469		3.459098	-4.224817	-2.588822
48470		3.384102	-4.382835	-2.547060
48471		3.289119	-4.577578	-2.504096
48472		3.120862	-4.913444	-2.345061
48473		2.847189	-5.415006	-2.128984
48474		2.608132	-6.034507	-1.875437
48475		2.424368	-6.810997	-1.555281
48476		2.226593	-7.703674	-1.202961
48477		1.996132	-8.716026	-0.895620
48478		1.720192	-9.780507	-0.658902
48479		1.505084	-10.829785	-0.484109
48480		1.234291	-11.820738	-0.337715
48481		0.960790	-12.702431	-0.223384
48482		0.737353	-13.463367	-0.122857
48483		0.608543	-14.101983	-0.032700
48484		0.576640	-14.675118	0.026946
48485		0.647691	-15.247407	0.049576
48486		0.838674	-15.790023	0.032210
48487		1.119122	-16.256398	-0.004504
48488		1.467290	-16.611588	-0.084888
48489		1.861898	-16.854508	-0.231539
48490		2.270128	-17.002626	-0.440156
48491		2.693017	-17.081539	-0.699131
48492		3.139517	-17.111984	-0.988229
48493		3.599653	-17.099843	-1.284927
48494		4.030042	-17.057064	-1.562064
48495		4.407820	-16.997216	-1.806810
48496		4.736335	-16.937605	-2.021675
48497		5.029992	-16.887327	-2.209181
48498		5.273988	-16.840260	-2.362491
48499		5.462831	-16.790272	-2.496530
48500		5.618011	-16.736479	-2.609124
48501		5.734594	-16.647737	-2.706759
48502		5.838602	-16.503270	-2.795221
48503		5.929202	-16.291911	-2.849979
48504		5.982008	-16.037796	-2.874922
48505		5.982361	-15.778383	-2.890339
48506		5.970791	-15.513336	-2.908191
48507		6.020674	-15.196259	-2.919078
48508		6.146951	-14.797467	-2.913099
48509		6.310806	-14.335071	-2.909212
48510		6.479888	-13.842866	-2.924805
48511		6.556781	-13.433392	-2.972800
48512		6.461073	-13.250237	-3.019850
48513		6.273292	-13.219549	-3.045653
48514		6.169875	-13.175287	-3.075394
48515		6.186871	-13.030777	-3.099550
48516		6.262133	-12.811047	-3.136214
48517		6.370057	-12.531664	-3.184822
48518		6.537507	-12.173720	-3.239000
48519		6.779323	-11.693421	-3.287451
48520		7.015569	-11.112568	-3.316414
48521		7.122495	-10.566463	-3.312442
48522		7.089970	-10.141670	-3.292699
48523		7.010382	-9.825111	-3.279880
48524		6.978742	-9.518249	-3.256675
48525		6.988373	-9.156423	-3.211258
48526		6.991935	-8.781869	-3.145583
48527		6.912496	-8.510069	-3.094370
48528		6.726096	-8.381632	-3.042634
48529		6.439404	-8.345675	-2.977743
48530		6.118550	-8.407722	-2.875405
48531		5.773978	-8.605827	-2.747623
48532		5.402886	-8.941654	-2.628265
48533		5.020064	-9.394995	-2.511809
48534		4.766884	-10.005487	-2.427656
48535		4.551277	-10.775781	-2.400554
48536		4.358533	-11.544414	-2.420116
48537		4.273232	-12.271067	-2.511316
48538		4.361860	-12.846301	-2.655787
48539		4.540424	-13.175353	-2.826546
48540		4.731969	-13.257864	-2.987670
48541		4.876943	-13.209921	-3.099106
48542		4.970543	-13.134918	-3.156132
48543		5.027823	-13.067125	-3.169787
48544		5.049069	-13.013401	-3.165379
48545		5.044798	-12.974310	-3.156010
48546		5.032120	-12.960437	-3.144683
48547		5.026145	-12.967014	-3.140583
48548		5.030086	-12.985313	-3.153147
48549		5.038484	-13.026163	-3.177952
48550		5.039524	-13.083822	-3.213098
48551		5.020565	-13.142613	-3.247855
48552		4.983748	-13.198998	-3.285607
48553		4.950628	-13.249289	-3.330471
48554		4.919121	-13.288436	-3.384306
48555		4.882685	-13.307714	-3.442831
48556		4.839634	-13.314100	-3.499700
48557		4.787482	-13.306533	-3.544914
48558		4.724641	-13.282446	-3.578861
48559		4.662043	-13.253538	-3.601953
48560		4.601659	-13.224110	-3.615456
48561		4.548533	-13.194407	-3.622772
48562		4.504234	-13.170287	-3.624873
48563		4.475748	-13.153040	-3.628850
48564		4.458327	-13.136013	-3.635643
48565		4.448184	-13.126509	-3.644695
48566		4.443824	-13.122710	-3.654089
48567		4.432348	-13.124043	-3.661826
48568		4.409908	-13.129273	-3.668821
48569		4.380056	-13.137603	-3.677223
48570		4.351414	-13.147366	-3.689799
48571		4.330463	-13.160494	-3.702060
48572		4.316599	-13.185783	-3.717699
48573		4.310947	-13.227273	-3.729230
48574		4.311163	-13.293248	-3.738214
48575		4.317843	-13.387768	-3.741538
48576		4.336925	-13.524912	-3.742882
48577		4.376115	-13.704507	-3.748429
