// General information: 
//  MT Manager version: 2022.2.0 
//  XDA version: 2022.2.0 build 7381 rev 124627 built on 2023-07-19
// Device information: 
//  DeviceId: 00B44877
//  ProductCode: MTW2-3A7G6
//  Firmware Version: 4.3.5
//  Hardware Version: 2.0.0
// Device settings: 
//  Filter Profile: human(46.1)
//  Option Flags: Orientation Smoother Disabled, Position/Velocity Smoother Disabled, Continuous Zero Rotation Update Disabled, AHS Disabled, ICC Disabled
// Coordinate system: ENU
PacketCounter	SampleTimeFine	Roll	Pitch	Yaw
45227		-16.233177	34.908935	-27.845575
45228		-16.242810	34.919690	-27.838716
45229		-16.254149	34.930058	-27.831231
45230		-16.262013	34.938814	-27.821178
45231		-16.264223	34.945856	-27.812177
45232		-16.257479	34.950386	-27.805617
45233		-16.237992	34.953236	-27.801409
45234		-16.210290	34.950486	-27.795264
45235		-16.177688	34.946970	-27.796058
45236		-16.138362	34.937764	-27.795101
45237		-16.100029	34.931629	-27.799569
45238		-16.057553	34.925855	-27.801437
45239		-16.021084	34.925776	-27.808811
45240		-15.986156	34.926665	-27.815497
45241		-15.956078	34.931115	-27.820119
45242		-15.931449	34.933126	-27.825445
45243		-15.911955	34.940537	-27.833352
45244		-15.897584	34.944035	-27.838800
45245		-15.895508	34.953554	-27.845695
45246		-15.899277	34.962828	-27.847118
45247		-15.908228	34.976282	-27.846305
45248		-15.918056	34.988235	-27.841884
45249		-15.930034	35.001537	-27.838490
45250		-15.940034	35.014754	-27.836509
45251		-15.953228	35.027504	-27.834090
45252		-15.967734	35.034668	-27.831719
45253		-15.980255	35.042565	-27.830843
45254		-15.995752	35.049913	-27.831837
45255		-16.011785	35.055679	-27.828037
45256		-16.027430	35.061876	-27.824567
45257		-16.044870	35.068872	-27.822501
45258		-16.060190	35.074976	-27.821075
45259		-16.074128	35.079963	-27.821051
45260		-16.089167	35.083054	-27.822742
45261		-16.097226	35.085435	-27.826085
45262		-16.105029	35.084410	-27.827810
45263		-16.114414	35.084133	-27.833435
45264		-16.122293	35.085136	-27.840581
45265		-16.133117	35.089129	-27.848784
45266		-16.145632	35.096110	-27.860178
45267		-16.161771	35.103946	-27.871381
45268		-16.180214	35.114769	-27.881443
45269		-16.197613	35.125345	-27.891126
45270		-16.216599	35.134607	-27.902671
45271		-16.231826	35.146844	-27.913401
45272		-16.246279	35.157235	-27.921014
45273		-16.263462	35.169626	-27.927285
45274		-16.282940	35.180377	-27.929786
45275		-16.300273	35.193574	-27.927241
45276		-16.317945	35.205240	-27.925471
45277		-16.334785	35.212215	-27.918555
45278		-16.342465	35.214656	-27.911251
45279		-16.345339	35.214798	-27.904674
45280		-16.342820	35.207004	-27.900355
45281		-16.337334	35.195696	-27.899659
45282		-16.325657	35.177461	-27.900200
45283		-16.314459	35.156056	-27.901841
45284		-16.296894	35.133607	-27.902226
45285		-16.281532	35.109606	-27.905051
45286		-16.265363	35.084138	-27.906352
45287		-16.249604	35.057893	-27.905790
45288		-16.231314	35.033244	-27.904873
45289		-16.214865	35.008518	-27.902061
45290		-16.197774	34.982509	-27.898562
45291		-16.186921	34.953754	-27.896558
45292		-16.178391	34.924252	-27.891089
45293		-16.175237	34.894601	-27.889528
45294		-16.171134	34.859418	-27.885145
45295		-16.162567	34.822842	-27.882972
45296		-16.145249	34.782688	-27.878937
45297		-16.124415	34.737190	-27.876194
45298		-16.101978	34.681401	-27.872279
45299		-16.085192	34.618039	-27.868507
45300		-16.058832	34.537421	-27.858901
45301		-16.021838	34.416653	-27.848119
45302		-15.959303	34.237618	-27.834477
45303		-15.881118	34.002440	-27.817361
45304		-15.831085	33.739219	-27.808136
45305		-15.832309	33.498990	-27.823539
45306		-15.865154	33.305916	-27.870315
45307		-15.890265	33.133127	-27.933464
45308		-15.879951	32.951541	-27.989935
45309		-15.870268	32.765654	-28.038955
45310		-15.895869	32.609531	-28.103906
45311		-15.944215	32.497215	-28.184155
45312		-15.980998	32.400954	-28.272089
45313		-16.007044	32.308281	-28.352593
45314		-16.034939	32.211565	-28.424536
45315		-16.066818	32.111427	-28.481765
45316		-16.087796	32.010523	-28.526360
45317		-16.108965	31.900468	-28.562116
45318		-16.126854	31.785669	-28.588452
45319		-16.167706	31.665685	-28.611527
45320		-16.207635	31.544740	-28.634852
45321		-16.248150	31.433010	-28.656915
45322		-16.288751	31.326108	-28.671276
45323		-16.326641	31.224980	-28.672504
45324		-16.381035	31.123027	-28.667305
45325		-16.434255	31.024180	-28.654775
45326		-16.481323	30.926481	-28.632612
45327		-16.518476	30.818393	-28.597690
45328		-16.537951	30.709022	-28.543701
45329		-16.545830	30.592381	-28.472076
45330		-16.525778	30.473206	-28.384289
45331		-16.502804	30.352232	-28.282286
45332		-16.487489	30.238545	-28.177673
45333		-16.471814	30.119732	-28.065052
45334		-16.461998	29.999357	-27.946837
45335		-16.440100	29.880527	-27.820794
45336		-16.413926	29.757590	-27.687024
45337		-16.391109	29.633765	-27.543743
45338		-16.387392	29.506352	-27.397415
45339		-16.381929	29.382055	-27.248010
45340		-16.362640	29.243968	-27.085704
45341		-16.345906	29.105564	-26.918423
45342		-16.337100	28.961013	-26.752690
45343		-16.335652	28.811777	-26.589655
45344		-16.335009	28.653213	-26.428892
45345		-16.338882	28.485249	-26.267639
45346		-16.344259	28.304427	-26.105172
45347		-16.364517	28.122142	-25.944905
45348		-16.372330	27.925948	-25.780207
45349		-16.373330	27.726880	-25.612685
45350		-16.386826	27.514707	-25.435534
45351		-16.417822	27.298889	-25.251314
45352		-16.464603	27.080181	-25.059723
45353		-16.497810	26.857640	-24.860997
45354		-16.543186	26.640789	-24.656957
45355		-16.595351	26.430540	-24.448877
45356		-16.658802	26.215805	-24.237847
45357		-16.733946	26.005685	-24.032246
45358		-16.780130	25.795418	-23.821911
45359		-16.823183	25.587743	-23.603465
45360		-16.864492	25.373987	-23.375565
45361		-16.910305	25.160088	-23.138618
45362		-16.960227	24.939531	-22.895496
45363		-16.993439	24.714378	-22.648298
45364		-17.020111	24.495949	-22.403305
45365		-17.053316	24.288003	-22.162342
45366		-17.077536	24.073280	-21.915648
45367		-17.106257	23.862950	-21.669157
45368		-17.095564	23.659689	-21.418410
45369		-17.072274	23.449741	-21.166537
45370		-17.029109	23.224690	-20.913634
45371		-16.982737	22.999920	-20.667812
45372		-16.917996	22.778963	-20.415254
45373		-16.848542	22.551232	-20.149034
45374		-16.793330	22.319303	-19.881482
45375		-16.742407	22.086259	-19.611247
45376		-16.688972	21.847425	-19.337708
45377		-16.636639	21.614835	-19.061358
45378		-16.572361	21.388969	-18.783490
45379		-16.494031	21.161482	-18.504464
45380		-16.420415	20.924398	-18.210218
45381		-16.369583	20.687165	-17.913547
45382		-16.323327	20.449790	-17.612729
45383		-16.268987	20.211332	-17.305417
45384		-16.211373	19.982243	-16.995828
45385		-16.145381	19.752884	-16.690526
45386		-16.077998	19.519382	-16.389147
45387		-16.000513	19.280030	-16.092127
45388		-15.918399	19.035678	-15.791170
45389		-15.831033	18.793265	-15.483825
45390		-15.757851	18.559450	-15.178233
45391		-15.697048	18.344215	-14.879061
45392		-15.636434	18.136904	-14.589280
45393		-15.569704	17.939450	-14.309538
45394		-15.487938	17.750988	-14.037168
45395		-15.397253	17.571536	-13.784585
45396		-15.288781	17.407288	-13.535027
45397		-15.205079	17.257496	-13.288537
45398		-15.112391	17.112664	-13.036950
45399		-15.051361	16.986352	-12.789610
45400		-15.010832	16.859644	-12.546577
45401		-14.966247	16.733216	-12.314766
45402		-14.900491	16.615547	-12.095088
45403		-14.820973	16.497176	-11.883340
45404		-14.735236	16.377810	-11.675978
45405		-14.643525	16.264222	-11.474195
45406		-14.548896	16.151277	-11.271521
45407		-14.470252	16.040376	-11.074438
45408		-14.404265	15.916980	-10.878148
45409		-14.333677	15.783415	-10.685759
45410		-14.244094	15.648022	-10.495350
45411		-14.148842	15.514492	-10.313753
45412		-14.056667	15.371574	-10.134062
45413		-13.954541	15.217692	-9.957918
45414		-13.857271	15.067019	-9.789736
45415		-13.756876	14.907585	-9.624150
45416		-13.661839	14.744752	-9.460560
45417		-13.553292	14.575980	-9.298038
45418		-13.443215	14.401994	-9.131034
45419		-13.329442	14.224771	-8.965739
45420		-13.223336	14.041016	-8.799343
45421		-13.094177	13.865689	-8.635527
45422		-12.962278	13.697338	-8.469048
45423		-12.824423	13.536509	-8.302544
45424		-12.692764	13.386543	-8.130647
45425		-12.565770	13.243704	-7.953292
45426		-12.457651	13.105310	-7.775694
45427		-12.343930	12.970465	-7.607994
45428		-12.217690	12.842512	-7.443796
45429		-12.096552	12.712099	-7.285633
45430		-11.987780	12.577791	-7.130123
45431		-11.871598	12.445248	-6.976122
45432		-11.760321	12.327590	-6.822674
45433		-11.636859	12.209860	-6.671147
45434		-11.515853	12.095954	-6.526239
45435		-11.404919	11.969570	-6.382327
45436		-11.280994	11.851697	-6.242889
45437		-11.145358	11.737389	-6.113511
45438		-11.000244	11.635065	-5.989328
45439		-10.839795	11.542874	-5.876410
45440		-10.672835	11.449532	-5.754257
45441		-10.518599	11.375326	-5.634502
45442		-10.367488	11.297840	-5.506627
45443		-10.216221	11.218759	-5.379258
45444		-10.071769	11.153575	-5.255621
45445		-9.924658	11.109726	-5.142322
45446		-9.759846	11.082820	-5.031086
45447		-9.561650	11.069525	-4.927295
45448		-9.348089	11.062000	-4.822614
45449		-9.142908	11.057441	-4.713454
45450		-8.961553	11.058504	-4.601233
45451		-8.808587	11.076540	-4.488344
45452		-8.688824	11.095644	-4.365185
45453		-8.591100	11.117235	-4.239894
45454		-8.495530	11.140507	-4.118708
45455		-8.446877	11.178961	-4.016239
45456		-8.425419	11.216371	-3.934047
45457		-8.397737	11.272659	-3.874206
45458		-8.388886	11.345053	-3.833883
45459		-8.388205	11.411539	-3.814835
45460		-8.373143	11.466702	-3.814852
45461		-8.358942	11.514943	-3.832574
45462		-8.351772	11.539219	-3.869698
45463		-8.330124	11.552759	-3.922989
45464		-8.303763	11.560232	-3.984682
45465		-8.274442	11.558898	-4.047947
45466		-8.236098	11.549682	-4.106018
45467		-8.192766	11.525796	-4.154605
45468		-8.162616	11.496849	-4.190802
45469		-8.144656	11.465301	-4.216580
45470		-8.118630	11.429735	-4.226875
45471		-8.084915	11.395442	-4.227077
45472		-8.056146	11.362854	-4.219589
45473		-8.018072	11.324700	-4.208132
45474		-7.976399	11.283283	-4.198555
45475		-7.922091	11.240614	-4.189081
45476		-7.866823	11.204045	-4.182652
45477		-7.799564	11.166527	-4.170455
45478		-7.731797	11.133551	-4.148986
45479		-7.671330	11.106922	-4.118345
45480		-7.614549	11.081045	-4.078958
45481		-7.567325	11.063760	-4.030906
45482		-7.526713	11.047725	-3.973766
45483		-7.486192	11.026033	-3.904756
45484		-7.441098	11.003454	-3.824693
45485		-7.384703	10.986184	-3.747486
45486		-7.326767	10.972818	-3.671148
45487		-7.272442	10.966418	-3.592657
45488		-7.228733	10.952205	-3.509926
45489		-7.194542	10.923788	-3.429383
45490		-7.161927	10.889651	-3.349882
45491		-7.130144	10.858436	-3.274851
45492		-7.094252	10.821355	-3.205492
45493		-7.064246	10.787972	-3.136268
45494		-7.033934	10.752253	-3.073237
45495		-7.004640	10.718333	-3.017363
45496		-6.976461	10.685228	-2.965846
45497		-6.951918	10.654332	-2.920950
45498		-6.920119	10.623052	-2.884493
45499		-6.883811	10.597373	-2.854155
45500		-6.848471	10.567993	-2.828161
45501		-6.805652	10.537468	-2.808665
45502		-6.750366	10.515614	-2.789739
45503		-6.700566	10.504654	-2.771638
45504		-6.656447	10.494446	-2.750240
45505		-6.609554	10.488992	-2.728320
45506		-6.559630	10.482171	-2.701057
45507		-6.498371	10.476463	-2.671536
45508		-6.429248	10.473005	-2.636565
45509		-6.361521	10.471237	-2.603158
45510		-6.289455	10.467725	-2.570308
45511		-6.217657	10.465035	-2.534774
45512		-6.145254	10.456833	-2.490998
45513		-6.076461	10.451153	-2.440909
45514		-6.007973	10.441425	-2.381551
45515		-5.938034	10.427821	-2.320712
45516		-5.873939	10.415964	-2.247885
45517		-5.816428	10.413837	-2.170594
45518		-5.765308	10.408583	-2.093218
45519		-5.725668	10.412393	-2.014681
45520		-5.694899	10.421675	-1.936873
45521		-5.675204	10.438314	-1.860071
45522		-5.673878	10.466633	-1.789793
45523		-5.673231	10.502315	-1.727645
45524		-5.673191	10.550641	-1.670800
45525		-5.679563	10.613860	-1.626044
45526		-5.678274	10.682329	-1.592018
45527		-5.670790	10.750472	-1.570712
45528		-5.655585	10.826365	-1.550035
45529		-5.620483	10.902267	-1.529757
45530		-5.585869	10.984946	-1.507573
45531		-5.535234	11.065719	-1.488779
45532		-5.478344	11.146024	-1.468996
45533		-5.427976	11.224045	-1.454353
45534		-5.381994	11.289743	-1.434898
45535		-5.332348	11.345942	-1.414080
45536		-5.288854	11.397029	-1.387453
45537		-5.245744	11.437625	-1.352178
45538		-5.201255	11.468812	-1.314788
45539		-5.154436	11.490664	-1.274960
45540		-5.110328	11.510116	-1.236421
45541		-5.063789	11.536618	-1.208401
45542		-5.022852	11.570404	-1.185278
45543		-4.995091	11.613782	-1.172468
45544		-4.986596	11.657633	-1.166149
45545		-4.976575	11.706300	-1.164935
45546		-4.964446	11.743332	-1.167555
45547		-4.937297	11.774379	-1.178099
45548		-4.903853	11.801304	-1.192305
45549		-4.862239	11.824261	-1.207972
45550		-4.829683	11.832355	-1.219001
45551		-4.802322	11.835270	-1.224274
45552		-4.781370	11.841115	-1.225251
45553		-4.771833	11.845049	-1.221523
45554		-4.771969	11.846265	-1.210527
45555		-4.780462	11.854022	-1.194315
45556		-4.792848	11.859772	-1.175571
45557		-4.806949	11.863119	-1.158185
45558		-4.819820	11.856374	-1.142344
45559		-4.831179	11.850653	-1.128294
45560		-4.846542	11.847236	-1.118637
45561		-4.864833	11.845433	-1.112394
45562		-4.888940	11.846319	-1.108124
45563		-4.923858	11.854754	-1.107484
45564		-4.968886	11.863704	-1.109464
45565		-5.017065	11.874747	-1.118824
45566		-5.067936	11.899158	-1.131516
45567		-5.123135	11.926508	-1.157197
45568		-5.185935	11.957625	-1.191627
45569		-5.263593	12.000247	-1.234969
45570		-5.364915	12.055330	-1.282358
45571		-5.505363	12.121186	-1.335230
45572		-5.680411	12.181351	-1.391014
45573		-5.875967	12.239317	-1.461822
45574		-6.087815	12.307120	-1.556860
45575		-6.310253	12.382817	-1.671323
45576		-6.529469	12.478336	-1.808094
45577		-6.743451	12.610555	-1.971376
45578		-6.985810	12.779073	-2.151742
45579		-7.268407	12.978211	-2.342494
45580		-7.563262	13.189508	-2.532121
45581		-7.832655	13.383357	-2.718596
45582		-8.143339	13.618995	-2.920435
45583		-8.439545	13.875813	-3.130840
45584		-8.696266	14.140571	-3.350236
45585		-8.942340	14.409260	-3.574413
45586		-9.221782	14.694361	-3.797464
45587		-9.538370	14.987531	-4.014596
45588		-9.876922	15.269815	-4.216344
45589		-10.202454	15.561460	-4.412978
45590		-10.526237	15.852494	-4.604373
45591		-10.852921	16.133451	-4.794195
45592		-11.190505	16.406867	-5.004142
45593		-11.522034	16.669346	-5.230149
45594		-11.824936	16.924176	-5.471695
45595		-12.060049	17.158809	-5.719037
45596		-12.266617	17.421714	-5.975744
45597		-12.525561	17.682735	-6.221980
45598		-12.787074	17.925138	-6.451804
45599		-13.051283	18.177221	-6.662212
45600		-13.337843	18.422475	-6.847844
45601		-13.635615	18.661974	-7.011868
45602		-13.937701	18.884658	-7.155980
45603		-14.261128	19.100555	-7.288388
45604		-14.585539	19.302880	-7.420118
45605		-14.886923	19.465849	-7.568965
45606		-15.108853	19.570454	-7.723214
45607		-15.286524	19.659133	-7.897688
45608		-15.452990	19.737650	-8.083265
45609		-15.623271	19.817836	-8.271486
45610		-15.792082	19.908178	-8.457308
45611		-15.964760	20.014474	-8.640616
45612		-16.157692	20.139943	-8.813482
45613		-16.377011	20.292491	-8.981005
45614		-16.619158	20.466753	-9.153620
45615		-16.877914	20.651392	-9.331206
45616		-17.119215	20.830295	-9.516218
45617		-17.361277	21.003508	-9.712657
45618		-17.602222	21.165808	-9.921378
45619		-17.822747	21.323377	-10.141623
45620		-18.027758	21.465989	-10.364122
45621		-18.224224	21.598007	-10.589424
45622		-18.410399	21.716737	-10.814160
45623		-18.590919	21.824064	-11.041300
45624		-18.772287	21.916658	-11.256724
45625		-18.958312	22.000272	-11.453913
45626		-19.138501	22.088761	-11.634564
45627		-19.310494	22.197337	-11.810945
45628		-19.466627	22.328634	-11.990826
45629		-19.600015	22.479938	-12.188597
45630		-19.704942	22.639695	-12.404672
45631		-19.782476	22.801363	-12.642866
45632		-19.838890	22.957853	-12.891993
45633		-19.883880	23.112708	-13.151859
45634		-19.916862	23.264951	-13.416580
45635		-19.951367	23.422908	-13.685816
45636		-19.987294	23.590876	-13.960442
45637		-20.018563	23.770322	-14.238036
45638		-20.038943	23.949739	-14.518477
45639		-20.045304	24.126228	-14.807111
45640		-20.031621	24.297913	-15.099611
45641		-19.998290	24.466265	-15.395372
45642		-19.951172	24.632556	-15.690639
45643		-19.897789	24.807003	-15.985367
45644		-19.841002	25.007523	-16.278587
45645		-19.776010	25.218202	-16.579167
45646		-19.700621	25.421373	-16.873062
45647		-19.617752	25.609387	-17.168058
45648		-19.522312	25.774830	-17.457877
45649		-19.428361	25.924112	-17.749167
45650		-19.338252	26.067904	-18.039887
45651		-19.242590	26.212025	-18.332235
45652		-19.133685	26.356294	-18.621008
45653		-19.018739	26.509359	-18.910090
45654		-18.902250	26.665864	-19.199004
45655		-18.785129	26.821544	-19.483468
45656		-18.662981	26.975702	-19.760267
45657		-18.543383	27.132881	-20.035314
45658		-18.429912	27.294556	-20.304435
45659		-18.309790	27.466128	-20.572986
45660		-18.189581	27.639856	-20.837531
45661		-18.076416	27.809326	-21.103346
45662		-17.961510	27.970854	-21.359305
45663		-17.859177	28.133779	-21.606397
45664		-17.764241	28.302026	-21.851053
45665		-17.670277	28.473905	-22.098423
45666		-17.574653	28.639079	-22.344604
45667		-17.470814	28.798094	-22.592905
45668		-17.351917	28.944207	-22.834799
45669		-17.221353	29.089925	-23.073911
45670		-17.097056	29.236683	-23.313041
45671		-16.985975	29.385802	-23.550150
45672		-16.880122	29.534363	-23.783852
45673		-16.781539	29.686520	-24.015539
45674		-16.694606	29.825956	-24.246959
45675		-16.613744	29.961984	-24.481524
45676		-16.520872	30.086306	-24.702181
45677		-16.430341	30.207065	-24.917961
45678		-16.330613	30.326551	-25.126506
45679		-16.237530	30.456349	-25.331434
45680		-16.151341	30.586686	-25.534334
45681		-16.071601	30.709620	-25.731225
45682		-15.991541	30.824392	-25.923540
45683		-15.909135	30.933045	-26.108607
45684		-15.817539	31.033699	-26.285476
45685		-15.713956	31.124622	-26.453628
45686		-15.597142	31.213758	-26.611927
45687		-15.478295	31.300005	-26.761247
45688		-15.364017	31.381016	-26.895708
45689		-15.258167	31.464170	-27.022336
45690		-15.160614	31.545942	-27.138257
45691		-15.067381	31.633466	-27.247292
45692		-14.982755	31.724308	-27.353664
45693		-14.908090	31.818076	-27.454343
45694		-14.835516	31.897185	-27.545867
45695		-14.775472	31.969032	-27.637274
45696		-14.721077	32.035943	-27.723729
45697		-14.683236	32.103864	-27.803720
45698		-14.665545	32.181211	-27.881752
45699		-14.656560	32.258300	-27.960171
45700		-14.658246	32.331252	-28.038724
45701		-14.669303	32.396823	-28.119392
45702		-14.682966	32.453822	-28.195629
45703		-14.702160	32.509852	-28.266567
45704		-14.725052	32.565535	-28.326613
45705		-14.751204	32.627314	-28.374676
45706		-14.768498	32.688239	-28.409110
45707		-14.774475	32.743170	-28.420734
45708		-14.772095	32.783292	-28.419275
45709		-14.766194	32.814177	-28.409777
45710		-14.747340	32.840035	-28.389224
45711		-14.733555	32.864375	-28.363727
45712		-14.728098	32.892430	-28.339625
45713		-14.733615	32.934356	-28.321618
45714		-14.733534	32.970999	-28.303469
45715		-14.739324	33.003354	-28.289563
45716		-14.744590	33.032756	-28.283058
45717		-14.755883	33.061711	-28.281838
45718		-14.762811	33.091134	-28.280404
45719		-14.771294	33.126120	-28.278342
45720		-14.781220	33.169632	-28.279521
45721		-14.795183	33.217036	-28.284369
45722		-14.805268	33.260253	-28.284243
45723		-14.813313	33.296868	-28.286836
45724		-14.815325	33.329399	-28.287507
45725		-14.805562	33.356598	-28.280044
45726		-14.792463	33.380480	-28.272388
45727		-14.771268	33.400810	-28.256405
45728		-14.745369	33.421332	-28.234885
45729		-14.714244	33.441078	-28.209860
45730		-14.677042	33.459657	-28.183023
45731		-14.642876	33.477712	-28.155169
45732		-14.610873	33.496006	-28.130153
45733		-14.586691	33.515363	-28.112139
45734		-14.561893	33.530219	-28.092771
45735		-14.541547	33.546661	-28.076618
45736		-14.519088	33.560103	-28.062865
45737		-14.493621	33.572263	-28.048351
45738		-14.473879	33.583772	-28.037683
45739		-14.458393	33.596638	-28.025083
45740		-14.447310	33.604552	-28.019960
45741		-14.440572	33.610858	-28.012868
45742		-14.433337	33.616427	-28.005426
45743		-14.426361	33.620279	-28.000886
45744		-14.414853	33.619248	-27.998576
45745		-14.403144	33.617023	-28.001595
45746		-14.383906	33.606726	-28.007596
45747		-14.358301	33.589593	-28.015974
45748		-14.332989	33.571104	-28.025415
45749		-14.308522	33.552360	-28.038366
45750		-14.288565	33.530681	-28.049681
45751		-14.271835	33.507430	-28.058015
45752		-14.254515	33.481026	-28.061554
45753		-14.235754	33.454091	-28.065051
45754		-14.207341	33.425470	-28.062025
45755		-14.175560	33.395300	-28.052895
45756		-14.144248	33.366529	-28.043679
45757		-14.115987	33.336422	-28.032757
45758		-14.088186	33.304660	-28.021619
45759		-14.063661	33.277394	-28.012775
45760		-14.043092	33.247866	-28.006138
45761		-14.022966	33.219114	-27.999762
45762		-14.000886	33.192708	-27.993306
45763		-13.987627	33.167179	-27.989800
45764		-13.974842	33.145886	-27.984830
45765		-13.965628	33.127595	-27.978852
45766		-13.959989	33.109203	-27.974047
45767		-13.954912	33.089197	-27.965291
45768		-13.949315	33.068493	-27.956151
45769		-13.939552	33.045111	-27.941503
45770		-13.930265	33.019169	-27.925962
45771		-13.920838	32.995463	-27.910226
45772		-13.907947	32.968121	-27.889221
45773		-13.891991	32.940540	-27.869593
45774		-13.876024	32.909972	-27.849242
45775		-13.859668	32.883403	-27.826344
45776		-13.847854	32.860864	-27.804349
45777		-13.839399	32.841325	-27.781068
45778		-13.836450	32.823935	-27.756584
45779		-13.829787	32.810068	-27.725124
45780		-13.817355	32.797407	-27.689366
45781		-13.804359	32.792719	-27.653220
45782		-13.793173	32.789096	-27.611791
45783		-13.782655	32.788438	-27.563084
45784		-13.772934	32.786769	-27.513758
45785		-13.759887	32.783431	-27.458354
45786		-13.749656	32.782365	-27.400712
45787		-13.744423	32.782307	-27.343965
45788		-13.740077	32.779569	-27.288719
45789		-13.735243	32.776025	-27.239950
45790		-13.726812	32.766910	-27.195044
45791		-13.719226	32.760377	-27.152283
45792		-13.717669	32.761802	-27.116174
45793		-13.722363	32.770093	-27.085909
45794		-13.728498	32.781535	-27.060046
45795		-13.741707	32.795145	-27.044788
45796		-13.751714	32.808832	-27.036136
45797		-13.757226	32.822617	-27.028975
45798		-13.762460	32.837037	-27.028908
45799		-13.762999	32.856237	-27.028205
45800		-13.757246	32.878377	-27.027776
45801		-13.750355	32.903632	-27.026994
45802		-13.739346	32.930962	-27.027714
45803		-13.728131	32.955401	-27.025114
45804		-13.710649	32.981653	-27.020614
45805		-13.691765	33.004420	-27.015939
45806		-13.666588	33.026199	-27.010697
45807		-13.644394	33.043357	-27.009228
45808		-13.621573	33.053140	-27.007797
45809		-13.597634	33.061517	-27.009441
45810		-13.566250	33.060224	-27.010524
45811		-13.525828	33.050071	-27.010101
45812		-13.479044	33.034287	-27.000215
45813		-13.440062	33.021588	-26.983040
45814		-13.426551	33.012961	-26.964342
45815		-13.436795	33.012611	-26.948093
45816		-13.465877	33.012435	-26.931961
45817		-13.508895	33.010508	-26.921862
45818		-13.553112	33.006743	-26.914337
45819		-13.600480	32.995432	-26.910700
45820		-13.642656	32.974860	-26.909960
45821		-13.687434	32.952116	-26.918497
45822		-13.728353	32.920354	-26.931183
45823		-13.769292	32.883389	-26.947154
45824		-13.800681	32.837221	-26.959892
45825		-13.827168	32.778935	-26.971940
45826		-13.848567	32.709401	-26.987535
45827		-13.851972	32.632592	-27.015764
45828		-13.838122	32.543142	-27.052985
45829		-13.813690	32.458661	-27.106485
45830		-13.782603	32.372270	-27.169050
45831		-13.743681	32.289021	-27.233023
45832		-13.709654	32.218937	-27.295027
45833		-13.670915	32.170233	-27.346246
45834		-13.644882	32.128031	-27.382201
45835		-13.631218	32.107856	-27.405750
45836		-13.615449	32.098805	-27.417174
45837		-13.589492	32.083321	-27.423186
45838		-13.547183	32.057166	-27.422772
45839		-13.512320	32.039086	-27.426487
45840		-13.489614	32.039944	-27.431984
45841		-13.463930	32.050491	-27.432708
45842		-13.427028	32.064379	-27.421487
45843		-13.389023	32.085512	-27.401561
45844		-13.353140	32.113590	-27.373138
45845		-13.312485	32.129872	-27.338399
45846		-13.262284	32.123287	-27.298568
45847		-13.204087	32.106271	-27.251017
45848		-13.151115	32.094396	-27.202026
45849		-13.090156	32.082639	-27.145536
45850		-13.020206	32.053937	-27.077639
45851		-12.962354	32.012120	-26.998612
45852		-12.914962	31.978009	-26.920195
45853		-12.872644	31.933143	-26.838659
45854		-12.833470	31.864765	-26.749224
45855		-12.807568	31.790916	-26.662124
45856		-12.784909	31.717774	-26.569480
45857		-12.763397	31.647898	-26.467593
45858		-12.747159	31.575134	-26.348303
45859		-12.735520	31.501158	-26.212061
45860		-12.728805	31.426841	-26.062257
45861		-12.731300	31.361321	-25.899250
45862		-12.727740	31.278460	-25.714833
45863		-12.726171	31.175085	-25.512971
45864		-12.731248	31.058351	-25.302259
45865		-12.756755	30.940384	-25.088556
45866		-12.786079	30.826768	-24.878765
45867		-12.816395	30.715398	-24.664988
45868		-12.851977	30.587245	-24.446478
45869		-12.884699	30.442184	-24.228314
45870		-12.919385	30.278982	-24.006446
45871		-12.951322	30.090623	-23.782733
45872		-12.997350	29.896138	-23.565790
45873		-13.061082	29.701846	-23.357811
45874		-13.099619	29.498105	-23.150156
45875		-13.116651	29.278796	-22.943315
45876		-13.125413	29.045804	-22.731607
45877		-13.124847	28.798756	-22.519917
45878		-13.115993	28.541907	-22.310499
45879		-13.120760	28.268437	-22.094537
45880		-13.164826	27.977576	-21.871443
45881		-13.231717	27.671364	-21.643905
45882		-13.344918	27.369027	-21.421405
45883		-13.488786	27.064072	-21.206176
45884		-13.652340	26.745901	-21.000688
45885		-13.827301	26.450478	-20.808885
45886		-13.996956	26.181646	-20.607377
45887		-14.129150	25.898620	-20.379096
45888		-14.247516	25.589696	-20.128851
45889		-14.356114	25.287475	-19.866456
45890		-14.421861	24.993403	-19.588234
45891		-14.488029	24.704158	-19.302014
45892		-14.586708	24.426611	-19.009611
45893		-14.696165	24.141862	-18.711204
45894		-14.797969	23.853969	-18.407337
45895		-14.877395	23.577293	-18.098142
45896		-14.914467	23.288521	-17.772397
45897		-14.963276	23.006677	-17.434608
45898		-15.014046	22.718975	-17.082905
45899		-15.020562	22.421465	-16.720916
45900		-14.963233	22.129087	-16.356242
45901		-14.923307	21.852009	-15.994162
45902		-14.882756	21.573349	-15.632132
45903		-14.850332	21.305777	-15.269397
45904		-14.829811	21.044404	-14.905380
45905		-14.801994	20.778444	-14.543318
45906		-14.777029	20.526344	-14.191501
45907		-14.769658	20.301257	-13.848747
45908		-14.771625	20.063549	-13.507980
45909		-14.756954	19.814865	-13.177528
45910		-14.760907	19.565544	-12.856740
45911		-14.744426	19.315463	-12.540735
45912		-14.730531	19.092822	-12.237264
45913		-14.701648	18.877621	-11.942895
45914		-14.648787	18.660865	-11.647044
45915		-14.638917	18.460794	-11.359668
45916		-14.627282	18.244440	-11.069221
45917		-14.628707	18.039771	-10.796506
45918		-14.622098	17.832008	-10.536927
45919		-14.598703	17.627514	-10.282875
45920		-14.565757	17.429094	-10.028563
45921		-14.541733	17.229322	-9.773923
45922		-14.501944	17.019862	-9.514734
45923		-14.412022	16.811057	-9.254598
45924		-14.327949	16.600144	-8.999603
45925		-14.223098	16.380563	-8.749148
45926		-14.116494	16.162175	-8.500537
45927		-14.015953	15.943137	-8.258088
45928		-13.913118	15.716686	-8.019209
45929		-13.830381	15.499882	-7.791257
45930		-13.755835	15.276425	-7.565607
45931		-13.668224	15.049753	-7.343563
45932		-13.579179	14.819767	-7.121906
45933		-13.493236	14.598024	-6.903326
45934		-13.401745	14.392309	-6.694457
45935		-13.315980	14.192521	-6.498782
45936		-13.207824	13.986889	-6.307646
45937		-13.072023	13.782993	-6.124597
45938		-12.976450	13.588720	-5.941553
45939		-12.904111	13.405436	-5.766788
45940		-12.841240	13.232530	-5.599293
45941		-12.760597	13.054412	-5.434173
45942		-12.679591	12.870426	-5.269536
45943		-12.589364	12.679783	-5.108977
45944		-12.489945	12.490824	-4.954136
45945		-12.381581	12.302939	-4.806557
45946		-12.276224	12.117122	-4.658068
45947		-12.170171	11.935930	-4.511082
45948		-12.057859	11.749167	-4.364680
45949		-11.939164	11.574280	-4.221699
45950		-11.820009	11.417880	-4.084911
45951		-11.700184	11.280345	-3.957286
45952		-11.594809	11.160081	-3.831206
45953		-11.493212	11.052134	-3.706489
45954		-11.422039	10.967472	-3.587307
45955		-11.361442	10.886292	-3.471423
45956		-11.312285	10.826404	-3.374037
45957		-11.269627	10.781172	-3.295410
45958		-11.200012	10.743105	-3.230818
45959		-11.140471	10.720841	-3.192972
45960		-11.077783	10.694360	-3.172563
45961		-11.014645	10.664987	-3.162682
45962		-10.962922	10.622646	-3.161521
45963		-10.909226	10.576042	-3.172397
45964		-10.849560	10.527698	-3.199610
45965		-10.777833	10.491994	-3.240841
45966		-10.710943	10.471176	-3.283704
45967		-10.662566	10.461733	-3.320936
45968		-10.630561	10.459219	-3.344664
45969		-10.604591	10.457325	-3.354712
45970		-10.601610	10.459461	-3.356084
45971		-10.601152	10.457384	-3.358212
45972		-10.607949	10.478248	-3.362205
45973		-10.615914	10.512205	-3.370359
45974		-10.623839	10.557976	-3.383714
45975		-10.616450	10.602797	-3.397223
45976		-10.602536	10.641577	-3.415195
45977		-10.577946	10.664422	-3.440001
45978		-10.560107	10.688798	-3.469909
45979		-10.524997	10.713262	-3.503703
45980		-10.488719	10.722243	-3.527695
45981		-10.460164	10.714296	-3.540357
45982		-10.434148	10.700047	-3.542171
45983		-10.416681	10.685178	-3.533906
45984		-10.393045	10.665476	-3.523642
45985		-10.362594	10.637298	-3.515122
45986		-10.331225	10.593964	-3.502782
45987		-10.297956	10.552401	-3.490934
45988		-10.271114	10.512674	-3.470930
45989		-10.233799	10.471552	-3.452680
45990		-10.192762	10.434538	-3.435614
45991		-10.151081	10.399202	-3.417899
45992		-10.115098	10.372747	-3.397186
45993		-10.093781	10.342386	-3.367548
45994		-10.087992	10.306291	-3.324849
45995		-10.094942	10.262624	-3.276023
45996		-10.104619	10.213362	-3.225520
45997		-10.109285	10.158496	-3.172119
45998		-10.101328	10.105036	-3.122566
45999		-10.090338	10.055979	-3.074452
46000		-10.063525	9.993656	-3.029703
46001		-10.028319	9.933928	-2.996557
46002		-9.988104	9.867350	-2.965115
46003		-9.948486	9.802076	-2.934965
46004		-9.909293	9.735115	-2.903873
46005		-9.865769	9.665616	-2.874962
46006		-9.818518	9.593820	-2.836397
46007		-9.771289	9.522274	-2.790262
46008		-9.713714	9.447813	-2.735098
46009		-9.661776	9.377619	-2.677285
46010		-9.609427	9.309549	-2.618604
46011		-9.559459	9.246298	-2.561038
46012		-9.502060	9.186849	-2.499969
46013		-9.448561	9.138705	-2.436919
46014		-9.397281	9.089338	-2.372364
46015		-9.334770	9.050974	-2.306749
46016		-9.279356	9.025966	-2.238237
46017		-9.230927	9.012941	-2.168079
46018		-9.170732	9.006802	-2.100202
46019		-9.097276	9.012207	-2.038535
46020		-9.015535	9.026699	-1.984435
46021		-8.926960	9.046224	-1.933244
46022		-8.827012	9.066421	-1.885290
46023		-8.722852	9.093377	-1.841010
46024		-8.605388	9.127140	-1.799100
46025		-8.474940	9.163391	-1.763789
46026		-8.336212	9.208741	-1.733820
46027		-8.196290	9.260976	-1.706104
46028		-8.057330	9.313582	-1.673784
46029		-7.919287	9.375605	-1.638070
46030		-7.782893	9.440947	-1.595086
46031		-7.643086	9.522124	-1.547915
46032		-7.497825	9.607918	-1.505557
46033		-7.334040	9.697258	-1.476395
46034		-7.172286	9.796971	-1.452529
46035		-7.005002	9.881827	-1.425157
46036		-6.842590	9.940893	-1.393867
46037		-6.690724	9.998796	-1.346425
46038		-6.532013	10.061018	-1.279043
46039		-6.375570	10.137473	-1.207346
46040		-6.223047	10.213112	-1.139153
46041		-6.069022	10.281275	-1.080657
46042		-5.936208	10.362448	-1.019397
46043		-5.807461	10.423426	-0.949086
46044		-5.704949	10.478355	-0.863223
46045		-5.583816	10.525660	-0.781389
46046		-5.445696	10.583889	-0.713876
46047		-5.306578	10.645790	-0.651207
46048		-5.167087	10.702216	-0.588699
46049		-5.023429	10.763942	-0.527199
46050		-4.893705	10.842379	-0.462094
46051		-4.777394	10.924698	-0.393758
46052		-4.700357	11.015250	-0.324124
46053		-4.648832	11.118956	-0.251528
46054		-4.602085	11.231162	-0.171001
46055		-4.573455	11.357017	-0.083068
46056		-4.577007	11.487044	0.013693
46057		-4.596095	11.623435	0.112979
46058		-4.619913	11.752012	0.216377
46059		-4.661621	11.887828	0.316351
46060		-4.704262	12.015239	0.413950
46061		-4.731484	12.119290	0.503799
46062		-4.765895	12.199418	0.583322
46063		-4.812998	12.252100	0.654641
46064		-4.864847	12.286285	0.722651
46065		-4.921235	12.314385	0.789401
46066		-4.989594	12.344570	0.855438
46067		-5.050714	12.371788	0.909775
46068		-5.101240	12.391569	0.948072
46069		-5.126080	12.408003	0.970124
46070		-5.144274	12.420311	0.974217
46071		-5.164272	12.440381	0.968317
46072		-5.175142	12.473521	0.959069
46073		-5.185927	12.513137	0.949046
46074		-5.193109	12.552671	0.943521
46075		-5.194656	12.590346	0.940067
46076		-5.193941	12.630018	0.936299
46077		-5.194845	12.667466	0.931519
46078		-5.194277	12.698150	0.933935
46079		-5.205761	12.730892	0.938618
46080		-5.222620	12.765390	0.948495
46081		-5.235515	12.800933	0.964151
46082		-5.254747	12.846420	0.987147
46083		-5.280126	12.894144	1.013879
46084		-5.306077	12.939034	1.047830
46085		-5.332588	12.978227	1.079243
46086		-5.356825	13.007286	1.109580
46087		-5.378628	13.030686	1.136134
46088		-5.406612	13.048716	1.161832
46089		-5.436128	13.074366	1.184778
46090		-5.464419	13.097297	1.208580
46091		-5.493513	13.121993	1.234660
46092		-5.524262	13.151431	1.258765
46093		-5.563987	13.186200	1.285678
46094		-5.611434	13.228441	1.313602
46095		-5.678579	13.283016	1.348334
46096		-5.769243	13.349641	1.385410
46097		-5.859052	13.419602	1.418128
46098		-5.933282	13.475810	1.443227
46099		-5.972355	13.496998	1.456949
46100		-5.981933	13.492160	1.451601
46101		-5.974853	13.490986	1.432503
46102		-5.973810	13.484757	1.416402
46103		-5.960520	13.478383	1.402938
46104		-5.950873	13.471974	1.398758
46105		-5.953667	13.468816	1.398807
46106		-5.956209	13.456513	1.398829
46107		-5.957070	13.439531	1.400063
46108		-5.963137	13.427812	1.395312
46109		-5.968310	13.420378	1.387253
46110		-5.967468	13.413068	1.384932
46111		-5.968618	13.408477	1.385684
46112		-5.973370	13.402158	1.385383
46113		-5.981246	13.392646	1.381106
46114		-5.997287	13.380078	1.373984
46115		-6.030981	13.366024	1.359024
46116		-6.070260	13.344760	1.338238
46117		-6.108554	13.321448	1.311206
46118		-6.152459	13.294507	1.277278
46119		-6.201551	13.271879	1.238192
46120		-6.252803	13.252112	1.188233
46121		-6.317845	13.246278	1.126515
46122		-6.389858	13.246299	1.053073
46123		-6.479347	13.254878	0.971471
46124		-6.582108	13.270202	0.878553
46125		-6.698930	13.290091	0.776899
46126		-6.829289	13.320965	0.665743
46127		-6.980077	13.378761	0.536429
46128		-7.147897	13.448781	0.391662
46129		-7.323105	13.534641	0.232157
46130		-7.507245	13.641763	0.059534
46131		-7.707327	13.774253	-0.127566
46132		-7.909183	13.918920	-0.313132
46133		-8.139349	14.084702	-0.500354
46134		-8.413701	14.284249	-0.689957
46135		-8.691723	14.495456	-0.886138
46136		-8.988610	14.718560	-1.086229
46137		-9.314141	14.945859	-1.293231
46138		-9.675473	15.186914	-1.497080
46139		-10.079320	15.438450	-1.698952
46140		-10.483348	15.672188	-1.883399
46141		-10.888794	15.882732	-2.054848
46142		-11.318587	16.104323	-2.210112
46143		-11.729490	16.349352	-2.351837
46144		-12.157582	16.642674	-2.490418
46145		-12.656441	16.983393	-2.636259
46146		-13.146856	17.311410	-2.783748
46147		-13.588904	17.613664	-2.940519
46148		-14.018028	17.913037	-3.122202
46149		-14.460174	18.217181	-3.331683
46150		-14.876035	18.503312	-3.564217
46151		-15.253731	18.771615	-3.820022
46152		-15.560292	18.999648	-4.071890
46153		-15.740564	19.197872	-4.309154
46154		-15.951775	19.455473	-4.561288
46155		-16.218615	19.723876	-4.817433
46156		-16.491709	19.966377	-5.055563
46157		-16.747729	20.207360	-5.289879
46158		-16.997649	20.442465	-5.521714
46159		-17.259328	20.674183	-5.750846
46160		-17.522937	20.893922	-5.972889
46161		-17.771684	21.091182	-6.192191
46162		-18.004764	21.262064	-6.403187
46163		-18.218457	21.423451	-6.610532
46164		-18.414307	21.573293	-6.817935
46165		-18.610781	21.723298	-7.032825
46166		-18.785279	21.862994	-7.248168
46167		-18.937812	21.996692	-7.475123
46168		-19.077182	22.121869	-7.710266
46169		-19.206247	22.239150	-7.951031
46170		-19.327919	22.344414	-8.200445
46171		-19.447814	22.437967	-8.449003
46172		-19.563124	22.525230	-8.689618
46173		-19.673632	22.611257	-8.923000
46174		-19.782050	22.703388	-9.155109
46175		-19.880293	22.802580	-9.390637
46176		-19.973188	22.905998	-9.624094
46177		-20.055195	23.008846	-9.859242
46178		-20.116252	23.107560	-10.094849
46179		-20.156906	23.202445	-10.332239
46180		-20.190070	23.305551	-10.575168
46181		-20.202274	23.423886	-10.819104
46182		-20.193788	23.545690	-11.063224
46183		-20.170049	23.678764	-11.311275
46184		-20.140531	23.823454	-11.563429
46185		-20.106565	23.973043	-11.823712
46186		-20.065566	24.126833	-12.086451
46187		-20.014019	24.281140	-12.352365
46188		-19.940912	24.442743	-12.620400
46189		-19.856170	24.610288	-12.893695
46190		-19.777999	24.782620	-13.166697
46191		-19.704656	24.959787	-13.443251
46192		-19.627635	25.140795	-13.724120
46193		-19.548776	25.327845	-14.007384
46194		-19.460321	25.520716	-14.295187
46195		-19.369418	25.724649	-14.583738
46196		-19.275465	25.938919	-14.873072
46197		-19.184965	26.161600	-15.162070
46198		-19.094037	26.387418	-15.445241
46199		-18.995769	26.609194	-15.725322
46200		-18.888072	26.817843	-16.001653
46201		-18.790680	27.017561	-16.279783
46202		-18.702500	27.202646	-16.560863
46203		-18.619194	27.380901	-16.850306
46204		-18.528725	27.553852	-17.141674
46205		-18.448239	27.732158	-17.439011
46206		-18.363660	27.905704	-17.738111
46207		-18.269693	28.076968	-18.027545
46208		-18.164159	28.244705	-18.308214
46209		-18.051328	28.418060	-18.584179
46210		-17.927500	28.601304	-18.863188
46211		-17.796815	28.790740	-19.151825
46212		-17.642347	28.979645	-19.444089
46213		-17.483030	29.170929	-19.740812
46214		-17.325229	29.358894	-20.033243
46215		-17.180191	29.544862	-20.319220
46216		-17.043831	29.730566	-20.599751
46217		-16.909321	29.918189	-20.881042
46218		-16.782973	30.103195	-21.160210
46219		-16.661884	30.283123	-21.435854
46220		-16.553017	30.460085	-21.706370
46221		-16.452700	30.647790	-21.972239
46222		-16.343429	30.834711	-22.226306
46223		-16.230614	31.021160	-22.480293
46224		-16.103266	31.190778	-22.732437
46225		-15.967031	31.346425	-22.982329
46226		-15.840057	31.489359	-23.226900
46227		-15.731584	31.632241	-23.470968
46228		-15.627732	31.768522	-23.716481
46229		-15.512169	31.895861	-23.956234
46230		-15.388121	32.016488	-24.192352
46231		-15.277642	32.136222	-24.424648
46232		-15.177655	32.251985	-24.652273
46233		-15.088302	32.369802	-24.865915
46234		-15.014514	32.488598	-25.062361
46235		-14.949937	32.599969	-25.235883
46236		-14.896922	32.711593	-25.404942
46237		-14.836069	32.816722	-25.559247
46238		-14.764635	32.914698	-25.697183
46239		-14.684473	32.998211	-25.815009
46240		-14.583960	33.059392	-25.909476
46241		-14.477097	33.108064	-25.985191
46242		-14.361107	33.145307	-26.036456
46243		-14.251727	33.178657	-26.068336
46244		-14.157205	33.208144	-26.076074
46245		-14.069620	33.238162	-26.062557
46246		-13.994297	33.261095	-26.032029
46247		-13.924446	33.284728	-25.980551
46248		-13.865239	33.314130	-25.917803
46249		-13.824737	33.350705	-25.855201
46250		-13.798736	33.384082	-25.793969
46251		-13.789474	33.418234	-25.743848
46252		-13.786476	33.449250	-25.697485
46253		-13.795815	33.486504	-25.665417
46254		-13.811975	33.522147	-25.637643
46255		-13.834304	33.564667	-25.615589
46256		-13.853415	33.611368	-25.595048
46257		-13.870027	33.661250	-25.577832
46258		-13.881997	33.709963	-25.563577
46259		-13.884610	33.754161	-25.553298
46260		-13.883131	33.791360	-25.549956
46261		-13.873393	33.819509	-25.550094
46262		-13.852714	33.839156	-25.552208
46263		-13.825270	33.855739	-25.552126
46264		-13.791099	33.869682	-25.549455
46265		-13.750947	33.883594	-25.541786
46266		-13.707871	33.892753	-25.530744
46267		-13.661411	33.901083	-25.519971
46268		-13.609905	33.900730	-25.506650
46269		-13.567788	33.899092	-25.496201
46270		-13.530504	33.890631	-25.483836
46271		-13.497937	33.883522	-25.473611
46272		-13.467176	33.880352	-25.463098
46273		-13.440984	33.881752	-25.458519
46274		-13.407365	33.881136	-25.456092
46275		-13.368602	33.882134	-25.456964
46276		-13.337150	33.883853	-25.460860
46277		-13.310479	33.887240	-25.471227
46278		-13.281215	33.889528	-25.483581
46279		-13.256053	33.889374	-25.503715
46280		-13.233949	33.882092	-25.527606
46281		-13.216496	33.871841	-25.557153
46282		-13.198316	33.853640	-25.590989
46283		-13.173763	33.836811	-25.623078
46284		-13.151966	33.830069	-25.665798
46285		-13.133886	33.839578	-25.716266
46286		-13.122547	33.860943	-25.777536
46287		-13.122783	33.887224	-25.848747
46288		-13.126579	33.907793	-25.924030
46289		-13.127030	33.926332	-25.997463
46290		-13.133823	33.948670	-26.061235
46291		-13.144612	33.978870	-26.115109
46292		-13.144025	34.016325	-26.162106
46293		-13.138214	34.056647	-26.201275
46294		-13.134920	34.097558	-26.237888
46295		-13.131338	34.134266	-26.274802
46296		-13.118041	34.162159	-26.308370
46297		-13.095456	34.181518	-26.343750
46298		-13.062432	34.190857	-26.376573
46299		-13.015290	34.195138	-26.407451
46300		-12.960118	34.202362	-26.433097
46301		-12.914525	34.214451	-26.456149
46302		-12.876679	34.231679	-26.481586
46303		-12.836170	34.247272	-26.503660
46304		-12.797967	34.260624	-26.519476
46305		-12.770765	34.275935	-26.529048
46306		-12.751126	34.289569	-26.531611
46307		-12.736034	34.301329	-26.521571
46308		-12.723098	34.312526	-26.495585
46309		-12.713049	34.320467	-26.455472
46310		-12.704779	34.331669	-26.401179
46311		-12.701335	34.347440	-26.334285
46312		-12.702131	34.363910	-26.260051
46313		-12.710758	34.379999	-26.181064
46314		-12.720455	34.394159	-26.104459
46315		-12.729481	34.402744	-26.031199
46316		-12.741972	34.405012	-25.966381
46317		-12.753345	34.406081	-25.912407
46318		-12.764830	34.400689	-25.867928
46319		-12.775323	34.398664	-25.836602
46320		-12.782366	34.399873	-25.824970
46321		-12.792925	34.407724	-25.832278
46322		-12.813159	34.417870	-25.850770
46323		-12.848635	34.433216	-25.879254
46324		-12.883840	34.453649	-25.905357
46325		-12.922033	34.477673	-25.932614
46326		-12.955355	34.499411	-25.956959
46327		-12.987639	34.543581	-25.988619
46328		-12.985515	34.578055	-26.011180
46329		-12.981710	34.605516	-26.029200
46330		-12.966041	34.634995	-26.042625
46331		-12.952635	34.669560	-26.058237
46332		-12.941114	34.700449	-26.070539
46333		-12.932713	34.735237	-26.078335
46334		-12.934372	34.767037	-26.085180
46335		-12.942391	34.798557	-26.087238
46336		-12.954921	34.826349	-26.083645
46337		-12.966078	34.850822	-26.080101
46338		-12.971427	34.871896	-26.074047
46339		-12.978283	34.890333	-26.070051
46340		-12.984081	34.906705	-26.070083
46341		-12.988375	34.919699	-26.069995
46342		-12.998351	34.933777	-26.068253
46343		-13.018634	34.947886	-26.068893
46344		-13.044567	34.959201	-26.067162
46345		-13.076219	34.971101	-26.064349
46346		-13.109140	34.976929	-26.057082
46347		-13.144810	34.975424	-26.050126
46348		-13.180725	34.969890	-26.045631
46349		-13.213583	34.963421	-26.045313
46350		-13.239553	34.952791	-26.049244
46351		-13.261876	34.938904	-26.059542
46352		-13.277203	34.913448	-26.069101
46353		-13.289795	34.877403	-26.075911
46354		-13.298425	34.837336	-26.079172
46355		-13.306480	34.797675	-26.080374
46356		-13.320173	34.749925	-26.080522
46357		-13.335204	34.702970	-26.073277
46358		-13.350720	34.657206	-26.065871
46359		-13.368189	34.601864	-26.057258
46360		-13.382357	34.526619	-26.052726
46361		-13.388407	34.424388	-26.050967
46362		-13.388370	34.301690	-26.056398
46363		-13.398682	34.186476	-26.070718
46364		-13.429439	34.088888	-26.094958
46365		-13.480203	34.019859	-26.129309
46366		-13.545570	33.969396	-26.165341
46367		-13.608446	33.917001	-26.195186
46368		-13.662657	33.854872	-26.218540
46369		-13.703427	33.791163	-26.233465
46370		-13.733974	33.729973	-26.244670
46371		-13.758700	33.660815	-26.246608
46372		-13.781181	33.577105	-26.238671
46373		-13.786729	33.486725	-26.216178
46374		-13.798459	33.405027	-26.183152
46375		-13.816303	33.330750	-26.142808
46376		-13.836944	33.246100	-26.083642
46377		-13.849610	33.149435	-26.003925
46378		-13.852893	33.045321	-25.903860
46379		-13.841649	32.940896	-25.787086
46380		-13.814545	32.842806	-25.654894
46381		-13.767246	32.730593	-25.499159
46382		-13.729714	32.629124	-25.326741
46383		-13.711949	32.522200	-25.143688
46384		-13.696987	32.391564	-24.941094
46385		-13.683498	32.236050	-24.731100
46386		-13.624001	32.054636	-24.509872
46387		-13.543276	31.871829	-24.284934
46388		-13.470915	31.700652	-24.053949
46389		-13.430491	31.533366	-23.824826
46390		-13.411182	31.363170	-23.584494
46391		-13.420712	31.185870	-23.334732
46392		-13.453563	31.007512	-23.076922
46393		-13.489450	30.818638	-22.814309
46394		-13.530883	30.608075	-22.550241
46395		-13.580378	30.390675	-22.292423
46396		-13.606779	30.172125	-22.046524
46397		-13.615745	29.938441	-21.794651
46398		-13.597234	29.677436	-21.533568
46399		-13.585417	29.402896	-21.266780
46400		-13.600517	29.105853	-21.005456
46401		-13.618562	28.806477	-20.755829
46402		-13.623547	28.512287	-20.510721
46403		-13.660252	28.225951	-20.267897
46404		-13.715827	27.946140	-20.033352
46405		-13.805458	27.666264	-19.802802
46406		-13.889990	27.388891	-19.573855
46407		-13.947044	27.104741	-19.338835
46408		-14.005153	26.819673	-19.091580
46409		-14.066556	26.526617	-18.827896
46410		-14.131669	26.252617	-18.553960
46411		-14.173115	25.997770	-18.271448
46412		-14.219002	25.748624	-17.975908
46413		-14.257109	25.483318	-17.660190
46414		-14.260374	25.216340	-17.325698
46415		-14.251928	24.944917	-16.972967
46416		-14.247267	24.665662	-16.607644
46417		-14.259452	24.384161	-16.236471
46418		-14.254089	24.103477	-15.860815
46419		-14.258665	23.825938	-15.480304
46420		-14.255738	23.536514	-15.092774
46421		-14.235443	23.235892	-14.696131
46422		-14.229632	22.950743	-14.300417
46423		-14.205924	22.671393	-13.900383
46424		-14.175598	22.394668	-13.503211
46425		-14.136624	22.103775	-13.108627
46426		-14.114917	21.810343	-12.733793
46427		-14.089196	21.500983	-12.375676
46428		-14.049922	21.194012	-12.039293
46429		-14.016593	20.886919	-11.711227
46430		-14.006252	20.580025	-11.391725
46431		-14.028961	20.296026	-11.080409
46432		-14.063076	20.009975	-10.772697
46433		-14.074417	19.718345	-10.468741
46434		-14.071218	19.419540	-10.165046
46435		-14.060368	19.115743	-9.852793
46436		-14.076103	18.816184	-9.533959
46437		-14.149922	18.521182	-9.217024
46438		-14.228078	18.227720	-8.908114
46439		-14.299109	17.952836	-8.613904
46440		-14.328713	17.686052	-8.329955
46441		-14.308428	17.430533	-8.052351
46442		-14.219642	17.182268	-7.778319
46443		-14.083334	16.948570	-7.507677
46444		-13.942242	16.715699	-7.241593
46445		-13.795244	16.451912	-6.968034
46446		-13.627836	16.192275	-6.700306
46447		-13.467343	15.925283	-6.440784
46448		-13.308948	15.661390	-6.193771
46449		-13.140316	15.407465	-5.954303
46450		-12.964284	15.165033	-5.720527
46451		-12.815027	14.927881	-5.481878
46452		-12.682484	14.700789	-5.243565
46453		-12.563555	14.490639	-4.997726
46454		-12.452982	14.293778	-4.758149
46455		-12.399523	14.120596	-4.528209
46456		-12.373941	13.943809	-4.315991
46457		-12.338060	13.776377	-4.132860
46458		-12.317248	13.607907	-3.965512
46459		-12.283019	13.433654	-3.812912
46460		-12.231354	13.259065	-3.676137
46461		-12.167553	13.097588	-3.554594
46462		-12.104635	12.941136	-3.446368
46463		-12.042337	12.778194	-3.346891
46464		-11.963409	12.617430	-3.258585
46465		-11.895593	12.471671	-3.181006
46466		-11.830019	12.320105	-3.107830
46467		-11.753534	12.184765	-3.036937
46468		-11.642850	12.049776	-2.966532
46469		-11.517442	11.918212	-2.894941
46470		-11.382726	11.786935	-2.821934
46471		-11.259495	11.666593	-2.750733
46472		-11.144733	11.547797	-2.676305
46473		-11.031447	11.438702	-2.599017
46474		-10.910856	11.343550	-2.526756
46475		-10.778955	11.248944	-2.456017
46476		-10.631356	11.167276	-2.393320
46477		-10.487886	11.092782	-2.328377
46478		-10.339474	11.024440	-2.255355
46479		-10.173893	10.946820	-2.178406
46480		-10.004930	10.864597	-2.105680
46481		-9.828059	10.774160	-2.035501
46482		-9.657689	10.668087	-1.962542
46483		-9.486275	10.566690	-1.887181
46484		-9.314846	10.471046	-1.802673
46485		-9.152796	10.385517	-1.716962
46486		-9.011874	10.307931	-1.632151
46487		-8.890084	10.236997	-1.544514
46488		-8.788385	10.177856	-1.452282
46489		-8.692882	10.123290	-1.358423
46490		-8.601504	10.071831	-1.273512
46491		-8.537479	10.030059	-1.200218
46492		-8.492711	9.984154	-1.130186
46493		-8.436533	9.944977	-1.072275
46494		-8.382838	9.911968	-1.025736
46495		-8.334681	9.885641	-0.991771
46496		-8.291269	9.863162	-0.967036
46497		-8.256896	9.841684	-0.954477
46498		-8.230556	9.812136	-0.949943
46499		-8.210106	9.794734	-0.960439
46500		-8.191218	9.779825	-0.978283
46501		-8.163547	9.773583	-1.009082
46502		-8.131994	9.760452	-1.045618
46503		-8.102508	9.747206	-1.083081
46504		-8.065422	9.730686	-1.115768
46505		-8.036207	9.717982	-1.142073
46506		-8.008714	9.705010	-1.161397
46507		-7.973163	9.693532	-1.178585
46508		-7.943488	9.683139	-1.192678
46509		-7.915258	9.684168	-1.197210
46510		-7.891024	9.694082	-1.195306
46511		-7.863495	9.709879	-1.184168
46512		-7.827943	9.729074	-1.161316
46513		-7.779874	9.743554	-1.128575
46514		-7.730987	9.766053	-1.085779
46515		-7.697612	9.779838	-1.032708
46516		-7.686486	9.782087	-0.975229
46517		-7.675367	9.782362	-0.919640
46518		-7.651566	9.792940	-0.869266
46519		-7.625398	9.805605	-0.822318
46520		-7.599160	9.811279	-0.774869
46521		-7.567503	9.816756	-0.724667
46522		-7.546435	9.828485	-0.670865
46523		-7.521910	9.837223	-0.620750
46524		-7.488790	9.838542	-0.569161
46525		-7.456136	9.831810	-0.514647
46526		-7.417185	9.819841	-0.456650
46527		-7.381188	9.798678	-0.401178
46528		-7.347523	9.768334	-0.348847
46529		-7.320443	9.730964	-0.296518
46530		-7.288886	9.687841	-0.242979
46531		-7.244019	9.647278	-0.190856
46532		-7.189947	9.617865	-0.142142
46533		-7.135287	9.584182	-0.095573
46534		-7.075256	9.541935	-0.044584
46535		-7.019429	9.510131	0.006879
46536		-6.970366	9.483903	0.063125
46537		-6.933381	9.456938	0.122468
46538		-6.902503	9.433105	0.192844
46539		-6.874132	9.417740	0.264292
46540		-6.847529	9.412454	0.336848
46541		-6.825117	9.414904	0.402605
46542		-6.809465	9.426206	0.467772
46543		-6.801462	9.437022	0.531900
46544		-6.799985	9.445137	0.595171
46545		-6.809148	9.453130	0.655088
46546		-6.823063	9.471480	0.707803
46547		-6.838281	9.490593	0.755031
46548		-6.849460	9.524198	0.797294
46549		-6.855827	9.551491	0.835159
46550		-6.853308	9.577353	0.868841
46551		-6.845293	9.596783	0.901061
46552		-6.834946	9.604619	0.935364
46553		-6.818393	9.608808	0.971549
46554		-6.800646	9.607907	1.007952
46555		-6.765512	9.611757	1.036720
46556		-6.727504	9.620669	1.067817
46557		-6.672023	9.627727	1.102653
46558		-6.622780	9.642239	1.139077
46559		-6.575144	9.654514	1.176965
46560		-6.530761	9.655304	1.212610
46561		-6.488429	9.650864	1.244508
46562		-6.443205	9.650360	1.275593
46563		-6.392880	9.648667	1.312907
46564		-6.344232	9.647903	1.360816
46565		-6.303632	9.653595	1.413247
46566		-6.255521	9.662699	1.469339
46567		-6.222624	9.690103	1.524592
46568		-6.200976	9.715863	1.582642
46569		-6.191142	9.753666	1.635581
46570		-6.198120	9.803271	1.690588
46571		-6.206420	9.853035	1.745555
46572		-6.201388	9.907207	1.798638
46573		-6.182929	9.969306	1.850218
46574		-6.161134	10.037403	1.896049
46575		-6.137133	10.115291	1.943079
46576		-6.121957	10.215676	1.987607
46577		-6.106938	10.331318	2.024010
46578		-6.093204	10.453902	2.053358
46579		-6.089880	10.587025	2.078688
46580		-6.083698	10.716311	2.099019
46581		-6.077772	10.839291	2.121369
46582		-6.077972	10.958972	2.142543
46583		-6.082947	11.064278	2.157996
46584		-6.078266	11.147293	2.168641
46585		-6.044960	11.217844	2.165979
46586		-5.994924	11.270353	2.151814
46587		-5.940421	11.310327	2.133699
46588		-5.902229	11.337927	2.113492
46589		-5.877821	11.356885	2.102953
46590		-5.860164	11.372719	2.099017
46591		-5.850276	11.398416	2.096630
46592		-5.836331	11.416941	2.097904
46593		-5.829362	11.446206	2.102359
46594		-5.835855	11.470617	2.115654
46595		-5.848040	11.492437	2.133909
46596		-5.874852	11.513655	2.161012
46597		-5.907310	11.533012	2.192051
46598		-5.937705	11.546780	2.223444
46599		-5.960382	11.562536	2.249108
46600		-5.968188	11.577502	2.268512
46601		-5.965142	11.594871	2.284627
46602		-5.964601	11.615365	2.298120
46603		-5.960428	11.632618	2.307239
46604		-5.956999	11.649046	2.318656
46605		-5.952101	11.658354	2.333304
46606		-5.946883	11.665117	2.345605
46607		-5.944630	11.670637	2.358946
46608		-5.940105	11.678683	2.375787
46609		-5.946062	11.700312	2.392961
46610		-5.951504	11.725066	2.413780
46611		-5.959611	11.755348	2.432268
46612		-5.965380	11.788316	2.445815
46613		-5.976095	11.818947	2.456925
46614		-5.987382	11.845956	2.472336
46615		-6.003180	11.872031	2.487203
46616		-6.019246	11.895080	2.508038
46617		-6.043762	11.921924	2.532056
46618		-6.090848	11.962157	2.553666
46619		-6.166302	12.045265	2.560454
46620		-6.254634	12.134482	2.547944
46621		-6.349839	12.238673	2.518993
46622		-6.472149	12.377588	2.468307
46623		-6.638666	12.548148	2.400291
46624		-6.840641	12.745997	2.322483
46625		-7.091947	12.984249	2.229907
46626		-7.408837	13.272170	2.120600
46627		-7.808604	13.617064	1.999186
46628		-8.252540	13.974890	1.864682
46629		-8.727219	14.356498	1.719242
46630		-9.212021	14.737156	1.565834
46631		-9.655368	15.092857	1.397670
46632		-10.104739	15.454661	1.213680
46633		-10.581040	15.810492	1.017976
46634		-11.055673	16.127004	0.818303
46635		-11.554041	16.427417	0.615210
46636		-12.078992	16.726848	0.413072
46637		-12.609172	17.016165	0.215531
46638		-13.101661	17.297716	0.022141
46639		-13.520847	17.586509	-0.165486
46640		-13.972709	17.900143	-0.352723
46641		-14.436667	18.212912	-0.543976
46642		-14.875894	18.531822	-0.746537
46643		-15.305040	18.864660	-0.965672
46644		-15.741810	19.201221	-1.191329
46645		-16.160430	19.543870	-1.433303
46646		-16.546797	19.887762	-1.689738
46647		-16.903880	20.245969	-1.968864
46648		-17.214745	20.607713	-2.262164
46649		-17.482081	20.975420	-2.573827
46650		-17.720825	21.342179	-2.893059
46651		-17.961791	21.701150	-3.221832
46652		-18.171355	22.045092	-3.541889
46653		-18.345714	22.378505	-3.864023
46654		-18.506793	22.702223	-4.197126
46655		-18.645093	23.018946	-4.539560
46656		-18.769180	23.337064	-4.893747
46657		-18.883702	23.665599	-5.265598
46658		-18.965566	23.982023	-5.649829
46659		-19.017119	24.279292	-6.047531
46660		-19.039191	24.529405	-6.443986
46661		-19.068515	24.744864	-6.826930
46662		-19.097818	24.932843	-7.194148
46663		-19.133529	25.108430	-7.548847
46664		-19.174544	25.267319	-7.892807
46665		-19.214469	25.411056	-8.228725
46666		-19.245407	25.525193	-8.552422
46667		-19.269158	25.627060	-8.868325
46668		-19.283053	25.729845	-9.169197
46669		-19.283295	25.845704	-9.459660
46670		-19.272814	25.971109	-9.740119
46671		-19.256338	26.094198	-10.022128
46672		-19.230836	26.211195	-10.304268
46673		-19.194804	26.322051	-10.583769
46674		-19.127799	26.435383	-10.858502
46675		-19.024663	26.560681	-11.136502
46676		-18.892410	26.689024	-11.411177
46677		-18.759060	26.820796	-11.688667
46678		-18.623586	26.944828	-11.964814
46679		-18.490183	27.076993	-12.251485
46680		-18.330316	27.218142	-12.546613
46681		-18.159299	27.363085	-12.854192
46682		-17.989203	27.494970	-13.171281
46683		-17.839335	27.612086	-13.490476
46684		-17.716159	27.721041	-13.810400
46685		-17.614609	27.822583	-14.127580
46686		-17.520218	27.927499	-14.441868
46687		-17.439477	28.046842	-14.765030
46688		-17.370606	28.177373	-15.093848
46689		-17.296331	28.319236	-15.426819
46690		-17.215691	28.471363	-15.761487
46691		-17.134178	28.630308	-16.096511
46692		-17.062824	28.782358	-16.421440
46693		-16.989199	28.932415	-16.737245
46694		-16.918432	29.081185	-17.049550
46695		-16.846514	29.224663	-17.353086
46696		-16.771701	29.371260	-17.651007
46697		-16.694295	29.529760	-17.945689
46698		-16.612935	29.693265	-18.240538
46699		-16.537462	29.864721	-18.535430
46700		-16.459721	30.039839	-18.828889
46701		-16.379176	30.212157	-19.118689
46702		-16.308219	30.393516	-19.407528
46703		-16.243383	30.571634	-19.699911
46704		-16.176270	30.744116	-19.990490
46705		-16.108921	30.914500	-20.278174
46706		-16.035509	31.077705	-20.564726
46707		-15.959545	31.236114	-20.851377
46708		-15.880748	31.394877	-21.132820
46709		-15.807845	31.551420	-21.410771
46710		-15.739009	31.707632	-21.692985
46711		-15.669350	31.870682	-21.974073
46712		-15.597852	32.038124	-22.256400
46713		-15.517465	32.201098	-22.536748
46714		-15.438073	32.349308	-22.808612
46715		-15.371941	32.495023	-23.068062
46716		-15.304954	32.626698	-23.314992
46717		-15.234099	32.755618	-23.555352
46718		-15.160170	32.886268	-23.784184
46719		-15.087182	33.014132	-24.006546
46720		-15.010166	33.139881	-24.222490
46721		-14.930513	33.262903	-24.427531
46722		-14.852777	33.378300	-24.620764
46723		-14.788926	33.488457	-24.798599
46724		-14.728366	33.589053	-24.966302
46725		-14.653645	33.672805	-25.118578
46726		-14.562515	33.739138	-25.254708
46727		-14.466737	33.798875	-25.380896
46728		-14.366492	33.854262	-25.498661
46729		-14.268342	33.908110	-25.608696
46730		-14.174088	33.952918	-25.715380
46731		-14.088631	33.993762	-25.817791
46732		-14.014303	34.038802	-25.913761
46733		-13.962137	34.088239	-26.008413
46734		-13.931673	34.142193	-26.099234
46735		-13.914602	34.190641	-26.186169
46736		-13.907063	34.234401	-26.266660
46737		-13.906891	34.281955	-26.346714
46738		-13.922563	34.340432	-26.426068
46739		-13.941025	34.392449	-26.494448
46740		-13.968482	34.436617	-26.549601
46741		-13.992228	34.483293	-26.585385
46742		-14.007842	34.520417	-26.607402
46743		-14.008282	34.549077	-26.619291
46744		-13.988248	34.559083	-26.615127
46745		-13.963551	34.555225	-26.602831
46746		-13.931417	34.542119	-26.584793
46747		-13.896482	34.524774	-26.567456
46748		-13.862738	34.507242	-26.551526
46749		-13.843987	34.493981	-26.544512
46750		-13.834387	34.483606	-26.547776
46751		-13.835647	34.475098	-26.559599
46752		-13.842452	34.465710	-26.580520
46753		-13.853926	34.455497	-26.608982
46754		-13.862930	34.446008	-26.640504
46755		-13.875416	34.438493	-26.678016
46756		-13.885558	34.439049	-26.720348
46757		-13.889887	34.440569	-26.757870
46758		-13.893359	34.447257	-26.796583
46759		-13.889674	34.451281	-26.827972
46760		-13.878161	34.454838	-26.854665
46761		-13.860058	34.459154	-26.874812
46762		-13.838359	34.464350	-26.888259
46763		-13.816091	34.474902	-26.898517
46764		-13.796216	34.490099	-26.904953
46765		-13.776744	34.506963	-26.907746
46766		-13.752244	34.526815	-26.907553
46767		-13.720795	34.544829	-26.902002
46768		-13.680159	34.561400	-26.892238
46769		-13.632743	34.571223	-26.878153
46770		-13.583353	34.577729	-26.863842
46771		-13.530108	34.582734	-26.844027
46772		-13.476811	34.582794	-26.830397
46773		-13.428433	34.582856	-26.815759
46774		-13.384090	34.586198	-26.804865
46775		-13.347812	34.591589	-26.800310
46776		-13.314802	34.594424	-26.797337
46777		-13.284638	34.598842	-26.794110
46778		-13.259761	34.599248	-26.788282
46779		-13.235377	34.599450	-26.775938
46780		-13.214803	34.602435	-26.759249
46781		-13.190004	34.600376	-26.738720
46782		-13.161359	34.599476	-26.712338
46783		-13.143835	34.600310	-26.690015
46784		-13.127296	34.602133	-26.670099
46785		-13.109318	34.597505	-26.656874
46786		-13.090436	34.593304	-26.650475
46787		-13.070071	34.592862	-26.648224
46788		-13.056649	34.593582	-26.651133
46789		-13.052341	34.608742	-26.658453
46790		-13.051619	34.623908	-26.665960
46791		-13.046222	34.637059	-26.669770
46792		-13.037998	34.645961	-26.671018
46793		-13.029852	34.654888	-26.663753
46794		-13.017666	34.663539	-26.646364
46795		-13.006917	34.669472	-26.622105
46796		-12.987776	34.674374	-26.592539
46797		-12.973322	34.681340	-26.567589
46798		-12.961198	34.685410	-26.544006
46799		-12.942278	34.687082	-26.517025
46800		-12.926963	34.688075	-26.489073
46801		-12.921941	34.693219	-26.466459
46802		-12.929949	34.699641	-26.445663
46803		-12.949926	34.709033	-26.428134
46804		-12.976329	34.715308	-26.414920
46805		-12.999145	34.721372	-26.401646
46806		-13.015633	34.729592	-26.386743
46807		-13.028101	34.740022	-26.371986
46808		-13.038019	34.755030	-26.357739
46809		-13.048769	34.774064	-26.343285
46810		-13.061547	34.797106	-26.328715
46811		-13.074595	34.827414	-26.310029
46812		-13.092196	34.858848	-26.294870
46813		-13.106081	34.894810	-26.282114
46814		-13.111519	34.930584	-26.273689
46815		-13.109484	34.963501	-26.271936
46816		-13.100502	34.995899	-26.277491
46817		-13.087023	35.025158	-26.279756
46818		-13.068196	35.051151	-26.280345
46819		-13.047937	35.079098	-26.279079
46820		-13.027028	35.112270	-26.273925
46821		-13.012421	35.148082	-26.270057
46822		-12.998925	35.179426	-26.260674
46823		-12.982283	35.206788	-26.249979
46824		-12.960573	35.227586	-26.242261
46825		-12.931758	35.244656	-26.230689
46826		-12.899557	35.255722	-26.223149
46827		-12.866306	35.267559	-26.215379
46828		-12.826863	35.271171	-26.203268
46829		-12.794578	35.279442	-26.194906
46830		-12.763185	35.280598	-26.188410
46831		-12.732569	35.281303	-26.182858
46832		-12.702971	35.280086	-26.180968
46833		-12.680817	35.277106	-26.183358
46834		-12.660564	35.270637	-26.188413
46835		-12.645510	35.261153	-26.196737
46836		-12.624162	35.248081	-26.203780
46837		-12.602073	35.232254	-26.205122
46838		-12.584581	35.223822	-26.205093
46839		-12.578930	35.222248	-26.200473
46840		-12.584347	35.221927	-26.188803
46841		-12.606104	35.225283	-26.171476
46842		-12.638846	35.234406	-26.147384
46843		-12.680435	35.237674	-26.121540
46844		-12.721516	35.230404	-26.100243
46845		-12.766372	35.221504	-26.084853
46846		-12.808475	35.205690	-26.081749
46847		-12.833835	35.180047	-26.078422
46848		-12.855823	35.134931	-26.076811
46849		-12.873799	35.084231	-26.081673
46850		-12.875569	35.039923	-26.096840
46851		-12.887582	34.998836	-26.119621
46852		-12.917005	34.967362	-26.157229
46853		-12.949518	34.951503	-26.210098
46854		-12.980778	34.932779	-26.267478
46855		-12.996157	34.908365	-26.327631
46856		-13.037241	34.890268	-26.390095
46857		-13.084639	34.890383	-26.453460
46858		-13.111059	34.873441	-26.500481
46859		-13.117989	34.841979	-26.536111
46860		-13.120976	34.796881	-26.561659
46861		-13.124078	34.733527	-26.574945
46862		-13.124869	34.657926	-26.585161
46863		-13.121318	34.565533	-26.583822
46864		-13.108342	34.455576	-26.565630
46865		-13.088036	34.326427	-26.532496
46866		-13.065600	34.184638	-26.479888
46867		-13.044737	34.044210	-26.410738
46868		-13.028780	33.902212	-26.328577
46869		-13.016798	33.758600	-26.228739
46870		-13.005382	33.603375	-26.105379
46871		-13.001592	33.449418	-25.967627
46872		-12.977802	33.301129	-25.811108
46873		-12.952791	33.155386	-25.631461
46874		-12.933847	32.992738	-25.429259
46875		-12.914233	32.828796	-25.216747
46876		-12.914220	32.680945	-24.999177
46877		-12.918156	32.536369	-24.776956
46878		-12.920887	32.378189	-24.541853
46879		-12.925742	32.218131	-24.295942
46880		-12.926641	32.041952	-24.037341
46881		-12.929222	31.856411	-23.774500
46882		-12.930948	31.663469	-23.503224
46883		-12.929869	31.449711	-23.224919
46884		-12.931351	31.234988	-22.945452
46885		-12.976494	31.033618	-22.677251
46886		-13.020876	30.829611	-22.415064
46887		-13.058862	30.617754	-22.150785
46888		-13.081420	30.410374	-21.885596
46889		-13.101849	30.178829	-21.608744
46890		-13.148459	29.945674	-21.331542
46891		-13.175287	29.719863	-21.045099
46892		-13.213326	29.476979	-20.745538
46893		-13.261790	29.211282	-20.431685
46894		-13.316245	28.943408	-20.120387
46895		-13.364363	28.675963	-19.810556
46896		-13.418682	28.413600	-19.507316
46897		-13.485099	28.185924	-19.220796
46898		-13.519585	27.953195	-18.931500
46899		-13.580881	27.722385	-18.638052
46900		-13.669357	27.478098	-18.345825
46901		-13.766536	27.238160	-18.058856
46902		-13.858765	27.005820	-17.777359
46903		-13.934963	26.757985	-17.496109
46904		-14.003026	26.505990	-17.216522
46905		-14.029215	26.256716	-16.932931
46906		-14.056427	26.002352	-16.646217
46907		-14.086976	25.744887	-16.353660
46908		-14.056521	25.480623	-16.060285
46909		-14.020225	25.227561	-15.760637
46910		-13.980232	24.963312	-15.453439
46911		-13.932250	24.698904	-15.138542
46912		-13.903674	24.444975	-14.822412
46913		-13.868101	24.177563	-14.502457
46914		-13.827789	23.895102	-14.184141
46915		-13.779541	23.603745	-13.857221
46916		-13.741191	23.305600	-13.527279
46917		-13.718239	23.025399	-13.200165
46918		-13.697906	22.734960	-12.872900
46919		-13.710339	22.444423	-12.551858
46920		-13.741862	22.146501	-12.238906
46921		-13.781143	21.856662	-11.939345
46922		-13.826216	21.580465	-11.647050
46923		-13.887728	21.307071	-11.358250
46924		-13.981128	21.025580	-11.082947
46925		-14.086087	20.755979	-10.827678
46926		-14.165056	20.486642	-10.573677
46927		-14.254991	20.224139	-10.329884
46928		-14.338383	19.969058	-10.092090
46929		-14.378223	19.720318	-9.859402
46930		-14.387816	19.466480	-9.633996
46931		-14.357732	19.197794	-9.418207
46932		-14.266595	18.932492	-9.211556
46933		-14.165969	18.681362	-9.005057
46934		-14.082785	18.440701	-8.785946
46935		-14.035041	18.205205	-8.557513
46936		-14.020481	17.971919	-8.323211
46937		-14.009471	17.731334	-8.079601
46938		-13.994679	17.482991	-7.831754
46939		-13.996505	17.236049	-7.584285
46940		-13.985244	16.980201	-7.336708
46941		-13.963639	16.721655	-7.096399
46942		-13.932069	16.463578	-6.862600
46943		-13.885719	16.204423	-6.647779
46944		-13.817864	15.949771	-6.451016
46945		-13.725322	15.693629	-6.265813
46946		-13.625976	15.442725	-6.085013
46947		-13.519575	15.192236	-5.908426
46948		-13.415775	14.941764	-5.739662
46949		-13.287673	14.689557	-5.572867
46950		-13.150815	14.444644	-5.400746
46951		-13.043526	14.213010	-5.222579
46952		-12.956813	13.987555	-5.042820
46953		-12.878189	13.764222	-4.872845
46954		-12.807296	13.555643	-4.710994
46955		-12.729382	13.365669	-4.554754
46956		-12.657649	13.184900	-4.404656
46957		-12.591649	13.010452	-4.250802
46958		-12.518523	12.845215	-4.100435
46959		-12.447051	12.692309	-3.953822
46960		-12.381617	12.551152	-3.808839
46961		-12.323275	12.417853	-3.666387
46962		-12.276916	12.291338	-3.527348
46963		-12.231280	12.165077	-3.390336
46964		-12.161767	12.043280	-3.261203
46965		-12.084664	11.938223	-3.143953
46966		-12.021300	11.831101	-3.033444
46967		-11.951184	11.719209	-2.933049
46968		-11.863042	11.612236	-2.841522
46969		-11.777280	11.512965	-2.756229
46970		-11.685389	11.404496	-2.667532
46971		-11.586463	11.293149	-2.576130
46972		-11.487466	11.177387	-2.485098
46973		-11.395423	11.056056	-2.395883
46974		-11.305754	10.938999	-2.312047
46975		-11.217801	10.824415	-2.229152
46976		-11.130384	10.710805	-2.149289
46977		-11.039053	10.610376	-2.078173
46978		-10.950337	10.523646	-2.019050
46979		-10.876706	10.445849	-1.961036
46980		-10.783279	10.360804	-1.903124
46981		-10.692385	10.291042	-1.851071
46982		-10.607327	10.237919	-1.791576
46983		-10.549129	10.202120	-1.725581
46984		-10.513812	10.176978	-1.645483
46985		-10.500208	10.178025	-1.556966
46986		-10.512169	10.189101	-1.464602
46987		-10.526681	10.208190	-1.384353
46988		-10.576833	10.240168	-1.332685
46989		-10.622552	10.282804	-1.315687
46990		-10.653550	10.335530	-1.329507
46991		-10.662187	10.379569	-1.358443
46992		-10.658305	10.407883	-1.398930
46993		-10.645140	10.426732	-1.452862
46994		-10.625846	10.441307	-1.513703
46995		-10.617146	10.455958	-1.579340
46996		-10.613600	10.454715	-1.635103
46997		-10.621962	10.447615	-1.679169
46998		-10.625625	10.428987	-1.708302
46999		-10.622923	10.413215	-1.733750
47000		-10.625267	10.398747	-1.751641
47001		-10.625487	10.381842	-1.759569
47002		-10.636428	10.361715	-1.756234
47003		-10.644244	10.350506	-1.747707
47004		-10.649008	10.339504	-1.739502
47005		-10.649887	10.331081	-1.730467
47006		-10.653854	10.324154	-1.724205
47007		-10.651496	10.314235	-1.722148
47008		-10.631138	10.307787	-1.723910
47009		-10.616639	10.314727	-1.727901
47010		-10.599879	10.324481	-1.733044
47011		-10.592799	10.331416	-1.734575
47012		-10.584656	10.337448	-1.737100
47013		-10.567648	10.347186	-1.738628
47014		-10.535473	10.357144	-1.728009
47015		-10.500217	10.361826	-1.703768
47016		-10.452620	10.364285	-1.668971
47017		-10.403888	10.355284	-1.624849
47018		-10.355844	10.342664	-1.574521
47019		-10.298008	10.331089	-1.522256
47020		-10.236815	10.318233	-1.467830
47021		-10.174081	10.301873	-1.409320
47022		-10.110408	10.277335	-1.343792
47023		-10.052712	10.246321	-1.277868
47024		-9.985085	10.211003	-1.213973
47025		-9.922951	10.183823	-1.154872
47026		-9.866085	10.151479	-1.088462
47027		-9.820229	10.119273	-1.014348
47028		-9.770946	10.091790	-0.939791
47029		-9.725203	10.076003	-0.865323
47030		-9.685721	10.057164	-0.791461
47031		-9.647614	10.032648	-0.720248
47032		-9.601560	10.008371	-0.654965
47033		-9.541490	9.979776	-0.597151
47034		-9.471307	9.949617	-0.543493
47035		-9.409933	9.911075	-0.494446
47036		-9.338698	9.870337	-0.444632
47037		-9.266541	9.836577	-0.399776
47038		-9.193963	9.798627	-0.360763
47039		-9.122133	9.763927	-0.324965
47040		-9.057383	9.729002	-0.292906
47041		-8.986477	9.687182	-0.263420
47042		-8.912514	9.643576	-0.235263
47043		-8.835814	9.605624	-0.208938
47044		-8.757712	9.565452	-0.181294
47045		-8.683838	9.532562	-0.156237
47046		-8.607496	9.502296	-0.131293
47047		-8.540525	9.480683	-0.106927
47048		-8.477897	9.453790	-0.084164
47049		-8.411032	9.436624	-0.062965
47050		-8.352546	9.438032	-0.049614
47051		-8.294216	9.440377	-0.041630
47052		-8.229503	9.440437	-0.035667
47053		-8.166269	9.437604	-0.030760
47054		-8.090501	9.440865	-0.015239
47055		-8.017924	9.449021	0.006161
47056		-7.942467	9.452099	0.039389
47057		-7.876091	9.454290	0.087995
47058		-7.819232	9.450119	0.150834
47059		-7.772013	9.441643	0.224104
47060		-7.730073	9.441483	0.303763
47061		-7.697317	9.455504	0.386078
47062		-7.687195	9.489516	0.462018
47063		-7.670326	9.542576	0.530811
47064		-7.643345	9.614872	0.589745
47065		-7.624426	9.704021	0.642398
47066		-7.602793	9.807823	0.688387
47067		-7.578309	9.932840	0.730231
47068		-7.546181	10.063215	0.770615
47069		-7.511972	10.200418	0.814223
47070		-7.471125	10.333511	0.862926
47071		-7.427730	10.452692	0.920850
47072		-7.392455	10.559310	0.983160
47073		-7.357916	10.643327	1.041045
47074		-7.339981	10.696663	1.085282
47075		-7.343574	10.723827	1.108745
47076		-7.358150	10.731349	1.120781
47077		-7.384935	10.721738	1.125551
47078		-7.417249	10.710759	1.123499
47079		-7.463535	10.703870	1.118567
47080		-7.521749	10.705465	1.113239
47081		-7.579435	10.731499	1.105209
47082		-7.641376	10.761419	1.102182
47083		-7.701036	10.797877	1.101700
47084		-7.757583	10.843695	1.108075
47085		-7.810318	10.893248	1.117520
47086		-7.857626	10.938862	1.128902
47087		-7.900017	10.978035	1.144611
47088		-7.937648	11.012348	1.161239
47089		-7.975586	11.045049	1.178916
47090		-8.017167	11.072150	1.200641
47091		-8.064065	11.100574	1.218905
47092		-8.110490	11.126051	1.241351
47093		-8.164330	11.154603	1.260953
47094		-8.221288	11.178705	1.282601
47095		-8.259628	11.190337	1.297846
47096		-8.282279	11.204246	1.316372
47097		-8.302403	11.228852	1.331218
47098		-8.329918	11.255233	1.341455
47099		-8.367599	11.281975	1.348205
47100		-8.407769	11.313162	1.355644
47101		-8.467261	11.348541	1.363669
47102		-8.551592	11.376446	1.379713
47103		-8.668104	11.404915	1.400341
47104		-8.825887	11.436740	1.427727
47105		-8.987678	11.465845	1.448344
47106		-9.176148	11.493015	1.460307
47107		-9.358250	11.516487	1.450821
47108		-9.525799	11.554015	1.418760
47109		-9.720239	11.621767	1.370364
47110		-9.934758	11.699257	1.316902
47111		-10.182075	11.786340	1.270716
47112		-10.437389	11.864553	1.246367
47113		-10.713817	11.969840	1.220937
47114		-10.997930	12.093792	1.178523
47115		-11.293910	12.268469	1.086363
47116		-11.623939	12.487179	0.955468
47117		-11.887976	12.667226	0.794677
47118		-12.141374	12.883416	0.607491
47119		-12.389586	13.111709	0.404105
47120		-12.586256	13.320294	0.213115
47121		-12.782377	13.544632	0.030594
47122		-13.026960	13.783739	-0.132020
47123		-13.328018	14.024071	-0.274542
47124		-13.633182	14.291619	-0.400337
47125		-13.935918	14.622175	-0.532956
47126		-14.260941	15.023505	-0.677666
47127		-14.593135	15.477557	-0.836045
47128		-14.962727	15.977024	-1.005345
47129		-15.293871	16.473694	-1.194321
47130		-15.573687	16.924788	-1.369305
47131		-15.842097	17.324638	-1.523573
47132		-16.117897	17.722494	-1.664937
47133		-16.411152	18.134003	-1.809915
47134		-16.708696	18.550474	-1.963463
47135		-16.980314	18.958277	-2.134511
47136		-17.226907	19.357695	-2.330233
47137		-17.464052	19.732928	-2.560504
47138		-17.707731	20.067306	-2.819423
47139		-17.964791	20.366638	-3.095019
47140		-18.217913	20.649261	-3.378551
47141		-18.442782	20.939070	-3.664459
47142		-18.650449	21.243841	-3.944721
47143		-18.846779	21.570789	-4.229333
47144		-19.029446	21.908768	-4.517804
47145		-19.197989	22.252306	-4.819668
47146		-19.352747	22.600243	-5.133252
47147		-19.489341	22.954641	-5.468121
47148		-19.598173	23.307649	-5.817147
47149		-19.685080	23.650166	-6.181680
47150		-19.742650	23.986109	-6.552133
47151		-19.764269	24.316893	-6.929652
47152		-19.755528	24.640045	-7.303016
47153		-19.736648	24.947919	-7.672791
47154		-19.718080	25.234005	-8.039172
47155		-19.701517	25.509831	-8.407905
47156		-19.701415	25.773336	-8.778339
47157		-19.694638	26.009999	-9.141927
47158		-19.672004	26.228613	-9.498620
47159		-19.629283	26.440409	-9.847508
47160		-19.575296	26.648186	-10.188343
47161		-19.513340	26.849599	-10.522387
47162		-19.452954	27.032256	-10.847954
47163		-19.392152	27.191560	-11.159873
47164		-19.340914	27.328879	-11.459874
47165		-19.298752	27.451776	-11.747621
47166		-19.256002	27.561107	-12.032460
47167		-19.220300	27.666251	-12.316356
47168		-19.173328	27.765745	-12.596065
47169		-19.105380	27.857774	-12.868504
47170		-19.024053	27.938965	-13.132849
47171		-18.932831	28.010804	-13.388780
47172		-18.827802	28.075196	-13.639888
47173		-18.714679	28.150128	-13.891918
47174		-18.595754	28.233015	-14.149119
47175		-18.489131	28.337061	-14.416024
47176		-18.397810	28.453598	-14.687045
47177		-18.328116	28.578139	-14.956891
47178		-18.286686	28.705030	-15.221567
47179		-18.265646	28.837143	-15.481269
47180		-18.268432	28.981239	-15.731011
47181		-18.275903	29.126432	-15.973998
47182		-18.283990	29.276991	-16.207339
47183		-18.269660	29.428253	-16.434850
47184		-18.251438	29.582186	-16.661177
47185		-18.213903	29.726115	-16.887464
47186		-18.145550	29.851463	-17.115601
47187		-18.049255	29.952602	-17.349286
47188		-17.942925	30.036291	-17.582277
47189		-17.824946	30.113673	-17.823641
47190		-17.684996	30.185176	-18.065818
47191		-17.541832	30.256661	-18.309494
47192		-17.399983	30.330108	-18.558106
47193		-17.263995	30.415123	-18.812195
47194		-17.141642	30.512183	-19.071822
47195		-17.039152	30.613030	-19.330825
47196		-16.941859	30.718956	-19.582067
47197		-16.851616	30.833476	-19.838008
47198		-16.781729	30.946768	-20.097305
47199		-16.722680	31.068570	-20.355752
47200		-16.668882	31.194096	-20.616679
47201		-16.608775	31.318514	-20.875007
47202		-16.534970	31.439974	-21.128372
47203		-16.458790	31.566848	-21.379349
47204		-16.379958	31.688379	-21.620548
47205		-16.297706	31.810420	-21.859172
47206		-16.212730	31.932789	-22.091586
47207		-16.138935	32.058923	-22.319910
47208		-16.070827	32.193441	-22.549655
47209		-16.007617	32.327433	-22.779027
47210		-15.938541	32.447549	-23.013282
47211		-15.861485	32.556705	-23.248240
47212		-15.791214	32.658401	-23.478304
47213		-15.728532	32.762793	-23.694204
47214		-15.683538	32.880056	-23.901761
47215		-15.641407	33.005727	-24.099439
47216		-15.582461	33.125686	-24.286034
47217		-15.507387	33.237531	-24.456599
47218		-15.412320	33.338634	-24.616607
47219		-15.313284	33.433966	-24.762428
47220		-15.232225	33.538771	-24.906333
47221		-15.172731	33.667921	-25.056404
47222		-15.069143	33.765585	-25.187381
47223		-14.983153	33.847847	-25.308007
47224		-14.902071	33.926632	-25.423561
47225		-14.817026	33.995389	-25.534004
47226		-14.727876	34.055342	-25.641312
47227		-14.629527	34.107390	-25.742734
47228		-14.534849	34.149663	-25.837904
47229		-14.445944	34.185873	-25.924201
47230		-14.368887	34.222604	-26.007121
47231		-14.288231	34.256993	-26.069844
47232		-14.208714	34.292448	-26.120337
47233		-14.129683	34.323808	-26.164573
47234		-14.055251	34.346207	-26.209030
47235		-13.986872	34.354566	-26.247564
47236		-13.920467	34.350796	-26.281695
47237		-13.863116	34.346712	-26.311136
47238		-13.818971	34.344474	-26.333964
47239		-13.782692	34.344021	-26.350056
47240		-13.755883	34.343724	-26.358247
47241		-13.731412	34.340257	-26.356720
47242		-13.708984	34.332192	-26.350321
47243		-13.695835	34.325427	-26.340382
47244		-13.688911	34.318370	-26.325460
47245		-13.689149	34.314903	-26.310736
47246		-13.697505	34.314663	-26.298167
47247		-13.713320	34.320400	-26.288277
47248		-13.733558	34.331907	-26.283784
47249		-13.759733	34.342616	-26.287736
47250		-13.777550	34.348979	-26.298927
47251		-13.785825	34.346202	-26.314501
47252		-13.787146	34.342772	-26.335812
47253		-13.789124	34.337974	-26.364417
47254		-13.790825	34.336891	-26.398061
47255		-13.791454	34.338700	-26.436797
47256		-13.790653	34.338082	-26.475808
47257		-13.786312	34.338263	-26.511833
47258		-13.780655	34.344440	-26.547934
47259		-13.762464	34.354028	-26.578056
47260		-13.741225	34.361449	-26.608248
47261		-13.714381	34.371978	-26.639321
47262		-13.678362	34.373995	-26.667549
47263		-13.636105	34.374262	-26.692271
47264		-13.589471	34.370332	-26.709812
47265		-13.540236	34.367578	-26.723714
47266		-13.487880	34.366097	-26.731317
47267		-13.429432	34.363132	-26.731625
47268		-13.360556	34.355713	-26.726385
47269		-13.295673	34.356326	-26.719799
47270		-13.230782	34.357717	-26.707276
47271		-13.165822	34.355675	-26.686775
47272		-13.093625	34.345894	-26.661378
47273		-13.014732	34.331735	-26.633412
47274		-12.925226	34.308704	-26.598359
47275		-12.825281	34.276992	-26.555500
47276		-12.717434	34.240043	-26.505572
47277		-12.611053	34.205512	-26.451007
47278		-12.514750	34.174118	-26.396319
47279		-12.428587	34.148257	-26.345042
47280		-12.360745	34.127757	-26.303114
47281		-12.307674	34.112644	-26.269675
47282		-12.268545	34.096585	-26.248943
47283		-12.238824	34.078281	-26.231173
47284		-12.218883	34.060420	-26.225606
47285		-12.201743	34.040963	-26.229402
47286		-12.187140	34.025992	-26.240229
47287		-12.182546	34.012472	-26.259612
47288		-12.183416	34.004668	-26.289310
47289		-12.187096	33.996704	-26.323004
47290		-12.193366	33.988308	-26.355127
47291		-12.207004	33.983502	-26.384400
47292		-12.223320	33.980523	-26.407467
47293		-12.243589	33.983434	-26.423451
47294		-12.266197	33.987004	-26.435889
47295		-12.271368	33.981673	-26.431670
47296		-12.261827	33.969647	-26.410263
47297		-12.249424	33.954834	-26.377731
47298		-12.233841	33.936941	-26.337995
47299		-12.214915	33.914948	-26.286880
47300		-12.194441	33.888316	-26.230080
47301		-12.179704	33.866477	-26.170204
47302		-12.166920	33.843118	-26.106420
47303		-12.165858	33.823029	-26.047474
47304		-12.173219	33.801842	-25.998112
47305		-12.184684	33.782100	-25.955422
47306		-12.204659	33.764784	-25.923051
47307		-12.236537	33.754584	-25.906468
47308		-12.272536	33.745279	-25.899168
47309		-12.318549	33.742462	-25.905938
47310		-12.362441	33.741990	-25.920052
47311		-12.400755	33.743402	-25.936366
47312		-12.432025	33.742743	-25.953904
47313		-12.454164	33.745284	-25.968709
47314		-12.471185	33.750101	-25.982788
47315		-12.485053	33.753996	-25.994235
47316		-12.492835	33.758299	-25.998655
47317		-12.495252	33.754827	-25.997653
47318		-12.495948	33.752140	-25.994157
47319		-12.495038	33.748686	-25.986631
47320		-12.490600	33.747570	-25.978061
47321		-12.485912	33.744312	-25.969444
47322		-12.480617	33.740826	-25.963023
47323		-12.478527	33.739817	-25.959202
47324		-12.477388	33.736399	-25.958241
47325		-12.480967	33.741253	-25.957790
47326		-12.489297	33.751740	-25.961680
47327		-12.496984	33.758573	-25.966052
47328		-12.502392	33.758748	-25.973387
47329		-12.505604	33.755582	-25.981056
47330		-12.508108	33.751645	-25.985802
47331		-12.511494	33.752061	-25.990570
47332		-12.519376	33.752339	-25.996737
47333		-12.537720	33.757277	-26.004846
47334		-12.554458	33.755427	-26.011900
47335		-12.574987	33.750413	-26.017695
47336		-12.598208	33.745711	-26.022656
47337		-12.621578	33.743469	-26.025671
47338		-12.648647	33.746030	-26.031818
47339		-12.669860	33.747900	-26.038076
47340		-12.678452	33.748341	-26.046341
47341		-12.678194	33.740329	-26.051739
47342		-12.665882	33.735738	-26.053517
47343		-12.644193	33.743353	-26.055482
47344		-12.622889	33.754514	-26.052604
47345		-12.610535	33.764293	-26.043916
47346		-12.605121	33.777248	-26.033572
47347		-12.610896	33.789511	-26.023723
47348		-12.620575	33.795087	-26.009951
47349		-12.627227	33.786752	-26.001795
47350		-12.642027	33.770122	-26.002118
47351		-12.663523	33.748791	-26.004204
47352		-12.678755	33.722327	-26.005504
47353		-12.684677	33.679862	-25.999877
47354		-12.697331	33.635050	-25.988298
47355		-12.714784	33.588758	-25.969358
47356		-12.726032	33.534357	-25.933377
47357		-12.727567	33.478897	-25.884111
47358		-12.729023	33.419401	-25.815261
47359		-12.729956	33.356090	-25.726764
47360		-12.740876	33.296531	-25.624828
47361		-12.760716	33.232777	-25.510551
47362		-12.795884	33.159554	-25.387656
47363		-12.832870	33.080599	-25.254490
47364		-12.876997	32.997239	-25.106818
47365		-12.914329	32.904917	-24.944748
47366		-12.949100	32.802119	-24.769794
47367		-12.979823	32.695465	-24.581474
47368		-12.996063	32.580815	-24.382651
47369		-13.004766	32.459330	-24.170699
47370		-12.988738	32.333190	-23.945989
47371		-12.976887	32.219806	-23.711290
47372		-12.976733	32.107914	-23.470316
47373		-13.000386	31.988608	-23.224196
47374		-13.025542	31.854378	-22.978947
47375		-13.043365	31.712044	-22.732264
47376		-13.052757	31.574389	-22.488084
47377		-13.037558	31.422828	-22.239040
47378		-13.022804	31.269131	-21.989684
47379		-13.019731	31.131640	-21.742071
47380		-13.042708	30.992038	-21.497406
47381		-13.087006	30.842393	-21.255285
47382		-13.136116	30.691593	-21.022119
47383		-13.179975	30.529960	-20.791484
47384		-13.222394	30.359845	-20.567092
47385		-13.269683	30.195834	-20.353314
47386		-13.329295	30.040139	-20.152218
47387		-13.390286	29.883984	-19.957446
47388		-13.448313	29.723000	-19.763272
47389		-13.497866	29.542895	-19.566386
47390		-13.562056	29.350142	-19.364836
47391		-13.645860	29.157645	-19.172940
47392		-13.715065	28.961269	-18.985929
47393		-13.779186	28.772301	-18.806653
47394		-13.839016	28.587581	-18.631252
47395		-13.902815	28.406517	-18.458045
47396		-13.962025	28.222231	-18.277699
47397		-14.030687	28.037754	-18.093513
47398		-14.083134	27.837201	-17.906633
47399		-14.115380	27.632312	-17.718163
47400		-14.139485	27.419104	-17.529047
47401		-14.157833	27.209941	-17.340942
47402		-14.225771	27.024748	-17.164128
47403		-14.327793	26.856613	-16.993926
47404		-14.426079	26.685577	-16.828161
47405		-14.491870	26.509918	-16.658170
47406		-14.531938	26.325978	-16.473137
47407		-14.574567	26.147035	-16.271906
47408		-14.641195	25.980367	-16.071433
47409		-14.733260	25.826941	-15.872504
47410		-14.825439	25.679760	-15.675389
47411		-14.896743	25.537409	-15.475542
47412		-14.948462	25.370566	-15.261236
47413		-14.986930	25.173818	-15.031704
47414		-15.048407	24.979694	-14.800631
47415		-15.124623	24.784183	-14.572421
47416		-15.197502	24.582843	-14.344110
47417		-15.250000	24.361029	-14.116784
47418		-15.300623	24.143302	-13.897967
47419		-15.323766	23.932323	-13.681220
47420		-15.335888	23.705037	-13.455590
47421		-15.384271	23.474115	-13.226643
47422		-15.421131	23.246351	-12.995104
47423		-15.420274	23.019290	-12.765694
47424		-15.423056	22.810059	-12.541121
47425		-15.431625	22.591511	-12.317303
47426		-15.400774	22.356114	-12.092874
47427		-15.325659	22.118904	-11.863681
47428		-15.288812	21.873521	-11.621484
47429		-15.280934	21.634271	-11.379451
47430		-15.273903	21.399542	-11.134518
47431		-15.283392	21.162971	-10.890035
47432		-15.312209	20.929292	-10.646163
47433		-15.333886	20.701649	-10.397907
47434		-15.353665	20.470405	-10.144360
47435		-15.355550	20.237326	-9.887842
47436		-15.362849	20.011427	-9.632407
47437		-15.343924	19.775596	-9.376488
47438		-15.322841	19.542795	-9.125347
47439		-15.264775	19.303414	-8.871954
47440		-15.172320	19.068253	-8.614506
47441		-15.069565	18.835624	-8.358080
47442		-14.968215	18.613511	-8.109756
47443		-14.874474	18.398151	-7.867920
47444		-14.771809	18.180976	-7.636998
47445		-14.652151	17.971161	-7.411927
47446		-14.525169	17.744823	-7.186290
47447		-14.391306	17.515227	-6.958495
47448		-14.251904	17.281116	-6.731610
47449		-14.109437	17.045679	-6.513388
47450		-13.985977	16.821098	-6.305070
47451		-13.889121	16.604643	-6.111383
47452		-13.803075	16.403318	-5.931339
47453		-13.688371	16.209438	-5.758327
47454		-13.574725	16.033062	-5.595407
47455		-13.471185	15.865795	-5.433756
47456		-13.382343	15.710983	-5.274511
47457		-13.307316	15.565074	-5.114391
47458		-13.226455	15.426386	-4.967070
47459		-13.162096	15.287660	-4.831008
47460		-13.110131	15.128139	-4.705273
47461		-13.048241	14.957130	-4.601676
47462		-12.979588	14.790775	-4.512855
47463		-12.892125	14.621704	-4.435306
47464		-12.808515	14.455476	-4.359909
47465		-12.730213	14.278398	-4.279999
47466		-12.638870	14.091847	-4.197889
47467		-12.533813	13.908479	-4.116217
47468		-12.421810	13.726157	-4.027241
47469		-12.298065	13.549574	-3.938335
47470		-12.168300	13.370819	-3.847113
47471		-12.036947	13.209349	-3.758583
47472		-11.901511	13.066456	-3.664621
47473		-11.784957	12.926365	-3.567784
47474		-11.668952	12.801356	-3.472691
47475		-11.527970	12.689369	-3.385732
47476		-11.387417	12.575930	-3.299936
47477		-11.242622	12.470087	-3.217409
47478		-11.091248	12.376977	-3.135061
47479		-10.958427	12.295243	-3.042623
47480		-10.842346	12.213189	-2.939835
47481		-10.737360	12.127974	-2.828304
47482		-10.661783	12.045233	-2.715009
47483		-10.590243	11.957342	-2.606898
47484		-10.506457	11.884768	-2.510249
47485		-10.413978	11.817137	-2.429738
47486		-10.331619	11.750096	-2.360822
47487		-10.244227	11.677971	-2.306731
47488		-10.146694	11.606274	-2.260165
47489		-10.050407	11.535689	-2.213525
47490		-9.959303	11.460269	-2.164852
47491		-9.874778	11.384221	-2.119863
47492		-9.804141	11.305445	-2.080215
47493		-9.724507	11.240019	-2.049931
47494		-9.648380	11.187608	-2.018986
47495		-9.569966	11.137171	-1.992222
47496		-9.481368	11.093096	-1.960954
47497		-9.377524	11.055060	-1.929090
47498		-9.279059	11.027743	-1.892892
47499		-9.187477	11.005548	-1.855204
47500		-9.099476	10.983721	-1.804760
47501		-9.011890	10.974297	-1.743181
47502		-8.929408	10.977397	-1.678255
47503		-8.858362	10.997011	-1.612132
47504		-8.815672	11.030299	-1.553113
47505		-8.790400	11.064689	-1.514866
47506		-8.766118	11.120177	-1.505966
47507		-8.726988	11.177862	-1.517521
47508		-8.700780	11.240704	-1.550413
47509		-8.667826	11.290249	-1.585159
47510		-8.648499	11.339181	-1.618262
47511		-8.621502	11.373636	-1.648327
47512		-8.590088	11.403607	-1.679555
47513		-8.563064	11.424278	-1.711940
47514		-8.527582	11.435731	-1.738700
47515		-8.490021	11.433456	-1.759705
47516		-8.454060	11.418434	-1.772296
47517		-8.424259	11.398683	-1.778849
47518		-8.403604	11.377698	-1.778140
47519		-8.384164	11.352315	-1.770027
47520		-8.372428	11.322895	-1.754099
47521		-8.371848	11.282302	-1.739511
47522		-8.369476	11.243385	-1.724645
47523		-8.369565	11.207119	-1.707336
47524		-8.370732	11.177466	-1.686679
47525		-8.369220	11.146553	-1.659006
47526		-8.376718	11.105289	-1.628624
47527		-8.402479	11.057099	-1.596220
47528		-8.416138	10.999877	-1.563689
47529		-8.448189	10.952986	-1.528737
47530		-8.492194	10.897246	-1.486580
47531		-8.533210	10.838793	-1.440698
47532		-8.564947	10.782161	-1.401325
47533		-8.588241	10.717197	-1.358486
47534		-8.610527	10.655459	-1.316287
47535		-8.625889	10.593174	-1.269338
47536		-8.634612	10.536379	-1.221311
47537		-8.642591	10.487888	-1.172309
47538		-8.640832	10.438755	-1.119418
47539		-8.635693	10.399570	-1.062797
47540		-8.641555	10.358346	-0.995409
47541		-8.654032	10.309032	-0.920040
47542		-8.655547	10.266835	-0.835290
47543		-8.659473	10.230142	-0.752183
47544		-8.667747	10.197505	-0.668199
47545		-8.668732	10.169105	-0.581192
47546		-8.657732	10.146184	-0.495603
47547		-8.645610	10.137575	-0.406888
47548		-8.635029	10.131506	-0.316270
47549		-8.616940	10.135351	-0.221002
47550		-8.599098	10.146029	-0.127420
47551		-8.572583	10.163281	-0.037441
47552		-8.556155	10.186736	0.048380
47553		-8.548086	10.211570	0.126563
47554		-8.532082	10.241853	0.193869
47555		-8.532101	10.269887	0.246556
47556		-8.513637	10.278338	0.292687
47557		-8.493943	10.283427	0.336807
47558		-8.469660	10.273781	0.385689
47559		-8.449265	10.261909	0.431573
47560		-8.435403	10.232973	0.480072
47561		-8.409564	10.197637	0.528617
47562		-8.365430	10.163330	0.574466
47563		-8.325339	10.132494	0.617919
47564		-8.297241	10.104881	0.673052
47565		-8.281258	10.081967	0.738134
47566		-8.275485	10.065173	0.809821
47567		-8.278532	10.056685	0.885297
47568		-8.285033	10.055144	0.966456
47569		-8.274215	10.062149	1.050809
47570		-8.262789	10.082566	1.139179
47571		-8.250915	10.103958	1.230085
47572		-8.233189	10.128886	1.321430
47573		-8.214169	10.152122	1.408832
47574		-8.186195	10.164284	1.490728
47575		-8.162361	10.165424	1.568842
47576		-8.140663	10.162067	1.639565
47577		-8.110940	10.145824	1.702127
47578		-8.085775	10.134291	1.760745
47579		-8.071367	10.134516	1.822595
47580		-8.072163	10.150175	1.885203
47581		-8.081571	10.187467	1.948839
47582		-8.092005	10.243430	2.011276
47583		-8.101598	10.316367	2.068262
47584		-8.105734	10.400629	2.121960
47585		-8.106319	10.503300	2.170220
47586		-8.104532	10.611636	2.210979
47587		-8.112271	10.724412	2.246679
47588		-8.120233	10.836369	2.276813
47589		-8.123541	10.943918	2.307715
47590		-8.127746	11.033061	2.342158
47591		-8.127122	11.107597	2.380651
47592		-8.128789	11.164633	2.419400
47593		-8.127438	11.201021	2.453654
47594		-8.114424	11.218154	2.481770
47595		-8.101966	11.233719	2.495202
47596		-8.080247	11.237726	2.497779
47597		-8.055132	11.244540	2.493982
47598		-8.037369	11.247358	2.494762
47599		-8.025072	11.253443	2.499624
47600		-8.020879	11.261407	2.511614
47601		-8.017754	11.273987	2.530073
47602		-8.025642	11.291090	2.558428
47603		-8.043574	11.317195	2.587804
47604		-8.064282	11.341481	2.624714
47605		-8.097835	11.371630	2.656761
47606		-8.137133	11.403581	2.684576
47607		-8.185529	11.436912	2.705601
47608		-8.240584	11.468721	2.723243
47609		-8.294659	11.494558	2.739393
47610		-8.363839	11.527132	2.756273
47611		-8.453176	11.559288	2.774325
47612		-8.539896	11.591651	2.790106
47613		-8.639457	11.644113	2.803566
47614		-8.747491	11.710910	2.810244
47615		-8.852558	11.779401	2.812752
47616		-8.965072	11.860514	2.798480
47617		-9.081542	11.938872	2.772049
47618		-9.214558	12.023580	2.741352
47619		-9.355625	12.097173	2.717752
47620		-9.537840	12.193769	2.706397
47621		-9.771616	12.311501	2.710296
47622		-10.028286	12.428304	2.731530
47623		-10.303603	12.562759	2.764407
47624		-10.572211	12.701574	2.787208
47625		-10.799069	12.844807	2.764639
47626		-11.022659	12.985168	2.695218
47627		-11.189764	13.096954	2.585304
47628		-11.294118	13.175295	2.454013
47629		-11.385711	13.254205	2.311253
47630		-11.507989	13.341022	2.173140
47631		-11.678765	13.429791	2.048608
47632		-11.874504	13.520787	1.937046
47633		-12.081194	13.614481	1.832655
47634		-12.277430	13.723032	1.726179
47635		-12.497367	13.875833	1.611806
47636		-12.798760	14.071639	1.483682
47637		-13.116656	14.266092	1.340197
47638		-13.373824	14.449433	1.188860
47639		-13.555406	14.624714	1.020126
47640		-13.684318	14.779207	0.834517
47641		-13.811972	14.914133	0.640826
47642		-13.968958	15.056576	0.425940
47643		-14.112521	15.172149	0.196138
47644		-14.258241	15.276466	-0.043846
47645		-14.426449	15.381862	-0.297233
47646		-14.575511	15.497937	-0.563912
47647		-14.702166	15.661895	-0.844406
47648		-14.838467	15.848105	-1.135639
47649		-14.981206	16.054472	-1.431430
47650		-15.108423	16.289435	-1.727322
47651		-15.216108	16.566929	-2.022611
47652		-15.316891	16.869767	-2.308079
47653		-15.411519	17.189564	-2.583734
47654		-15.493002	17.510516	-2.846764
47655		-15.559030	17.833623	-3.102744
47656		-15.589131	18.147988	-3.342600
47657		-15.637331	18.481672	-3.574999
47658		-15.726259	18.851185	-3.808149
47659		-15.838267	19.241260	-4.040287
47660		-15.967323	19.654078	-4.277379
47661		-16.096945	20.075720	-4.522809
47662		-16.234696	20.487331	-4.783464
47663		-16.384837	20.881692	-5.048867
47664		-16.543430	21.262485	-5.314947
47665		-16.703285	21.634885	-5.579505
47666		-16.863528	21.998937	-5.838505
47667		-17.023291	22.356768	-6.097739
47668		-17.177908	22.706598	-6.358778
47669		-17.320646	23.044293	-6.625015
47670		-17.448278	23.360007	-6.892347
47671		-17.559658	23.645614	-7.157786
47672		-17.663571	23.910941	-7.419112
47673		-17.764771	24.169390	-7.671303
47674		-17.846646	24.421869	-7.914188
47675		-17.912097	24.673929	-8.157861
47676		-17.959895	24.925946	-8.394573
47677		-17.994451	25.168801	-8.635797
47678		-18.007921	25.392234	-8.873808
47679		-17.996258	25.590390	-9.112614
47680		-17.970925	25.761904	-9.342960
47681		-17.936306	25.926203	-9.568654
47682		-17.885457	26.100005	-9.796947
47683		-17.829728	26.283176	-10.027843
47684		-17.774206	26.460349	-10.266909
47685		-17.724889	26.624053	-10.515243
47686		-17.679954	26.770518	-10.765480
47687		-17.642858	26.911704	-11.022191
47688		-17.621291	27.044769	-11.282672
47689		-17.591431	27.177296	-11.554930
47690		-17.565179	27.313571	-11.839452
47691		-17.534073	27.456383	-12.128326
47692		-17.473054	27.602237	-12.419777
47693		-17.402937	27.753365	-12.716466
47694		-17.343940	27.895831	-13.005398
47695		-17.297345	28.038973	-13.292267
47696		-17.245830	28.178691	-13.574366
47697		-17.191523	28.320879	-13.863633
47698		-17.129238	28.456491	-14.153628
47699		-17.058116	28.596167	-14.446696
47700		-16.991888	28.743725	-14.740036
47701		-16.928605	28.894803	-15.030514
47702		-16.866142	29.054533	-15.318026
47703		-16.795670	29.224760	-15.609571
47704		-16.715707	29.397397	-15.906936
47705		-16.621150	29.573935	-16.204428
47706		-16.518877	29.733703	-16.489280
47707		-16.413065	29.889765	-16.762919
47708		-16.316281	30.048842	-17.036792
47709		-16.238671	30.215077	-17.311713
47710		-16.165344	30.386463	-17.582775
47711		-16.099145	30.569391	-17.855878
47712		-16.034719	30.749789	-18.124659
47713		-15.966081	30.924149	-18.388975
47714		-15.894381	31.087985	-18.649687
47715		-15.821006	31.249185	-18.907838
47716		-15.757982	31.402891	-19.174904
47717		-15.682032	31.550309	-19.439640
47718		-15.602908	31.694627	-19.712870
47719		-15.526292	31.833540	-19.983111
47720		-15.452417	31.965685	-20.253688
47721		-15.379977	32.088839	-20.519853
47722		-15.306524	32.201486	-20.779144
47723		-15.229595	32.305635	-21.015964
47724		-15.152012	32.402594	-21.238497
47725		-15.077134	32.508116	-21.451551
47726		-14.985544	32.605493	-21.654081
47727		-14.891895	32.692688	-21.847963
47728		-14.800080	32.771032	-22.034313
47729		-14.719685	32.844616	-22.213020
47730		-14.654661	32.909867	-22.385973
47731		-14.604229	32.970682	-22.558979
47732		-14.558651	33.027483	-22.727940
47733		-14.504492	33.081082	-22.889213
47734		-14.435574	33.126814	-23.048288
47735		-14.350773	33.163389	-23.201931
47736		-14.257172	33.192520	-23.343676
47737		-14.175927	33.227378	-23.479499
47738		-14.108460	33.266349	-23.610802
47739		-14.054152	33.307042	-23.733123
47740		-14.019549	33.353038	-23.858721
47741		-14.000165	33.408009	-23.986368
47742		-13.945419	33.474067	-24.124273
47743		-13.877031	33.515044	-24.251143
47744		-13.800522	33.546565	-24.377422
47745		-13.726730	33.576535	-24.502833
47746		-13.656548	33.609581	-24.634273
47747		-13.588385	33.642867	-24.769119
47748		-13.526770	33.673585	-24.901031
47749		-13.478670	33.714041	-25.039599
47750		-13.437567	33.758937	-25.176857
47751		-13.411389	33.811991	-25.309896
47752		-13.403988	33.876079	-25.446507
47753		-13.401801	33.939024	-25.585669
47754		-13.409765	34.003855	-25.731395
47755		-13.417199	34.065171	-25.873662
47756		-13.429066	34.117995	-26.021058
47757		-13.443820	34.170227	-26.166567
47758		-13.471717	34.222936	-26.306727
47759		-13.500513	34.274755	-26.438161
47760		-13.518213	34.327285	-26.555957
47761		-13.521826	34.384393	-26.638814
47762		-13.523412	34.444341	-26.698638
47763		-13.517048	34.490978	-26.735182
47764		-13.500023	34.518457	-26.755779
47765		-13.470463	34.533857	-26.755866
47766		-13.443650	34.541085	-26.742859
47767		-13.428808	34.553399	-26.725644
47768		-13.416620	34.567011	-26.703047
47769		-13.422310	34.583624	-26.679109
47770		-13.437914	34.602633	-26.655032
47771		-13.458761	34.620031	-26.635676
47772		-13.475277	34.632604	-26.623719
47773		-13.490611	34.644475	-26.624104
47774		-13.504578	34.645317	-26.632673
47775		-13.517373	34.640664	-26.648054
47776		-13.529972	34.633255	-26.667347
47777		-13.539440	34.625614	-26.682280
47778		-13.548019	34.621582	-26.693762
47779		-13.548783	34.621054	-26.699858
47780		-13.538394	34.618589	-26.703866
47781		-13.515362	34.613296	-26.706462
47782		-13.484612	34.603755	-26.704483
47783		-13.450857	34.592311	-26.701873
47784		-13.417414	34.581935	-26.700152
47785		-13.384729	34.579732	-26.699610
47786		-13.354293	34.580074	-26.704926
47787		-13.318823	34.580614	-26.718473
47788		-13.269368	34.578474	-26.729400
47789		-13.213086	34.576249	-26.735814
47790		-13.155178	34.577799	-26.745883
47791		-13.092639	34.582177	-26.751197
47792		-13.020991	34.584896	-26.753964
47793		-12.944575	34.588007	-26.754203
47794		-12.868446	34.590601	-26.754655
47795		-12.798874	34.590680	-26.753951
47796		-12.737903	34.591773	-26.750293
47797		-12.688058	34.598773	-26.742640
47798		-12.648634	34.610870	-26.732975
47799		-12.621212	34.624836	-26.721452
47800		-12.590980	34.639307	-26.712120
47801		-12.556977	34.651787	-26.699515
47802		-12.518694	34.657691	-26.687244
47803		-12.477786	34.657517	-26.674959
47804		-12.440205	34.654257	-26.663494
47805		-12.410812	34.648181	-26.651154
47806		-12.379883	34.639198	-26.638257
47807		-12.353792	34.626836	-26.624841
47808		-12.329196	34.609485	-26.616844
47809		-12.308895	34.590597	-26.613045
47810		-12.289684	34.568502	-26.609394
47811		-12.273577	34.549085	-26.606339
47812		-12.263461	34.533474	-26.607548
47813		-12.252939	34.520351	-26.603312
47814		-12.250546	34.511413	-26.603019
47815		-12.248391	34.502285	-26.604064
47816		-12.244389	34.489233	-26.607538
47817		-12.232264	34.479053	-26.614083
47818		-12.221450	34.470166	-26.628936
47819		-12.210887	34.463973	-26.651674
47820		-12.206329	34.456774	-26.684672
47821		-12.209451	34.450852	-26.727227
47822		-12.214968	34.450472	-26.775264
47823		-12.228085	34.453033	-26.829009
47824		-12.245139	34.458801	-26.889310
47825		-12.264409	34.465793	-26.956019
47826		-12.280682	34.470591	-27.024861
47827		-12.290146	34.476579	-27.090431
47828		-12.295879	34.483120	-27.150776
47829		-12.300068	34.491951	-27.201713
47830		-12.306857	34.504909	-27.241849
47831		-12.313019	34.520120	-27.268650
47832		-12.318813	34.534424	-27.283485
47833		-12.318467	34.544604	-27.279542
47834		-12.308323	34.549567	-27.259578
47835		-12.289623	34.550731	-27.224999
47836		-12.261919	34.551021	-27.177422
47837		-12.227649	34.548155	-27.124159
47838		-12.185970	34.540884	-27.060601
47839		-12.152186	34.526477	-26.994625
47840		-12.138262	34.509832	-26.935269
47841		-12.136712	34.491247	-26.884095
47842		-12.153596	34.470755	-26.844242
47843		-12.179400	34.449807	-26.819000
47844		-12.212360	34.429072	-26.803627
47845		-12.254453	34.414049	-26.800170
47846		-12.295951	34.397540	-26.804949
47847		-12.336762	34.384867	-26.820115
47848		-12.375633	34.369817	-26.838517
47849		-12.412355	34.353070	-26.854732
47850		-12.441092	34.333189	-26.868516
47851		-12.463367	34.310328	-26.876660
47852		-12.473960	34.290802	-26.880251
47853		-12.471958	34.266295	-26.876692
47854		-12.462995	34.240938	-26.868565
47855		-12.448125	34.216317	-26.854954
47856		-12.435124	34.198391	-26.843548
47857		-12.429098	34.185724	-26.839805
47858		-12.427555	34.173160	-26.839969
47859		-12.421179	34.161068	-26.844536
47860		-12.416614	34.147776	-26.851040
47861		-12.410474	34.137920	-26.857968
47862		-12.408466	34.131950	-26.865604
47863		-12.413787	34.130700	-26.869873
47864		-12.422385	34.136617	-26.871928
47865		-12.433331	34.142770	-26.870417
47866		-12.442092	34.144615	-26.868028
47867		-12.443476	34.139246	-26.859303
47868		-12.447178	34.129652	-26.852268
47869		-12.451628	34.118694	-26.845349
47870		-12.462339	34.116046	-26.843893
47871		-12.476636	34.121157	-26.852598
47872		-12.497946	34.140240	-26.875282
47873		-12.535383	34.174986	-26.908267
47874		-12.586959	34.223219	-26.951776
47875		-12.643034	34.274678	-26.997857
47876		-12.701600	34.337424	-27.046896
47877		-12.762982	34.422610	-27.098339
47878		-12.809178	34.506106	-27.142354
47879		-12.843134	34.584368	-27.173191
47880		-12.866381	34.658464	-27.192476
47881		-12.870473	34.725718	-27.194203
47882		-12.870624	34.791710	-27.187083
47883		-12.873671	34.854348	-27.166789
47884		-12.867810	34.901030	-27.133540
47885		-12.853703	34.933198	-27.091585
47886		-12.804725	34.943594	-27.030435
47887		-12.753631	34.954727	-26.963844
47888		-12.711924	34.960665	-26.890428
47889		-12.670477	34.952199	-26.807251
47890		-12.638554	34.930965	-26.716995
47891		-12.612875	34.894502	-26.614100
47892		-12.597984	34.846213	-26.497041
47893		-12.586306	34.796874	-26.373605
47894		-12.580890	34.742796	-26.242862
47895		-12.580786	34.677163	-26.103078
47896		-12.584615	34.604179	-25.953847
47897		-12.611848	34.536988	-25.796669
47898		-12.654050	34.468019	-25.624241
47899		-12.712309	34.399207	-25.443008
47900		-12.772141	34.318807	-25.246519
47901		-12.830552	34.233812	-25.040937
47902		-12.873573	34.144476	-24.825012
47903		-12.909060	34.039821	-24.608447
47904		-12.954784	33.908687	-24.387978
47905		-12.987241	33.756911	-24.165623
47906		-13.009536	33.580922	-23.943167
47907		-13.041546	33.388603	-23.721530
47908		-13.062999	33.185472	-23.496278
47909		-13.088795	32.970347	-23.269086
47910		-13.122262	32.747605	-23.037818
47911		-13.169577	32.523386	-22.810062
47912		-13.218718	32.286668	-22.583667
47913		-13.242211	32.036269	-22.349559
47914		-13.283613	31.785560	-22.116056
47915		-13.336518	31.523880	-21.878446
47916		-13.371558	31.264157	-21.640851
47917		-13.385309	30.999363	-21.398481
47918		-13.414230	30.731103	-21.140790
47919		-13.465924	30.469529	-20.873823
47920		-13.515158	30.202842	-20.592068
47921		-13.590342	29.949091	-20.309416
47922		-13.663348	29.688680	-20.021155
47923		-13.736507	29.416184	-19.728829
47924		-13.786997	29.148667	-19.431093
47925		-13.845908	28.873959	-19.123838
47926		-13.919841	28.587368	-18.800464
47927		-14.016255	28.307557	-18.477053
47928		-14.112139	28.044777	-18.162324
47929		-14.168641	27.786487	-17.846162
47930		-14.193839	27.527734	-17.520237
47931		-14.214656	27.269137	-17.180442
47932		-14.256116	27.002243	-16.829435
47933		-14.302923	26.723346	-16.473202
47934		-14.337673	26.422406	-16.119434
47935		-14.343420	26.124207	-15.777588
47936		-14.329021	25.813525	-15.435637
47937		-14.309201	25.481501	-15.084494
47938		-14.263115	25.157040	-14.717729
47939		-14.259103	24.820635	-14.344683
47940		-14.274867	24.486346	-13.969985
47941		-14.261857	24.146351	-13.599611
47942		-14.233291	23.816296	-13.236989
47943		-14.216884	23.481038	-12.874847
47944		-14.217552	23.142941	-12.514954
47945		-14.236252	22.804391	-12.163313
47946		-14.283689	22.464791	-11.822009
47947		-14.344102	22.144147	-11.491852
47948		-14.382930	21.827007	-11.168533
47949		-14.424951	21.514292	-10.851607
47950		-14.452635	21.199174	-10.543910
47951		-14.460498	20.883093	-10.232019
47952		-14.496592	20.579507	-9.929335
47953		-14.526231	20.296216	-9.639108
47954		-14.549133	20.025596	-9.358551
47955		-14.585209	19.759885	-9.077687
47956		-14.627447	19.502842	-8.801349
47957		-14.639606	19.255517	-8.541928
47958		-14.653646	19.006380	-8.296225
47959		-14.634548	18.756614	-8.059144
47960		-14.586434	18.515056	-7.825842
47961		-14.531913	18.271812	-7.593176
47962		-14.504400	18.030223	-7.361351
47963		-14.484516	17.783866	-7.129013
47964		-14.451467	17.542954	-6.894758
47965		-14.404015	17.301874	-6.662786
47966		-14.336092	17.048064	-6.430698
47967		-14.264215	16.788908	-6.202654
47968		-14.198484	16.540692	-5.979431
47969		-14.145651	16.294890	-5.762326
47970		-14.093234	16.053559	-5.548510
47971		-14.051278	15.802043	-5.339652
47972		-14.001013	15.554094	-5.129356
47973		-13.939856	15.315842	-4.918283
47974		-13.870474	15.077519	-4.705322
47975		-13.808493	14.853705	-4.494182
47976		-13.756989	14.634926	-4.283784
47977		-13.715633	14.424996	-4.079014
47978		-13.671643	14.213632	-3.870203
47979		-13.609049	14.011271	-3.658916
47980		-13.547106	13.828295	-3.449533
47981		-13.486341	13.660604	-3.238007
47982		-13.433372	13.508860	-3.027699
47983		-13.383944	13.374199	-2.830525
47984		-13.325071	13.258594	-2.649514
47985		-13.266521	13.158501	-2.485802
47986		-13.196106	13.068149	-2.330888
47987		-13.133910	13.004195	-2.189085
47988		-13.087818	12.935911	-2.055751
47989		-13.038085	12.879881	-1.940964
47990		-12.975565	12.842207	-1.845774
47991		-12.915182	12.801214	-1.767039
47992		-12.843443	12.764309	-1.701914
47993		-12.758540	12.725702	-1.654911
47994		-12.668666	12.686032	-1.623676
47995		-12.569715	12.645209	-1.603730
47996		-12.478515	12.608338	-1.599035
47997		-12.390660	12.566745	-1.595392
47998		-12.309724	12.511916	-1.595829
47999		-12.207563	12.446420	-1.586477
48000		-12.110673	12.376414	-1.573432
48001		-12.003416	12.309551	-1.562711
48002		-11.897921	12.239568	-1.550735
48003		-11.797151	12.183754	-1.536304
48004		-11.705984	12.144932	-1.518140
48005		-11.608521	12.110489	-1.502986
48006		-11.547865	12.064304	-1.478151
48007		-11.493606	12.018978	-1.449637
48008		-11.423070	11.975502	-1.420420
48009		-11.347227	11.933754	-1.398008
48010		-11.259787	11.888139	-1.378308
48011		-11.159819	11.837928	-1.363722
48012		-11.069024	11.778230	-1.352271
48013		-10.977411	11.704611	-1.343001
48014		-10.884394	11.638261	-1.335730
48015		-10.798401	11.580883	-1.325438
48016		-10.732043	11.528804	-1.307208
48017		-10.693641	11.491334	-1.276073
48018		-10.683106	11.467682	-1.236184
48019		-10.681776	11.457687	-1.196294
48020		-10.693385	11.458835	-1.165152
48021		-10.704630	11.475137	-1.151940
48022		-10.720061	11.534375	-1.165226
48023		-10.725387	11.579451	-1.197147
48024		-10.726057	11.621701	-1.231892
48025		-10.729883	11.652378	-1.260412
48026		-10.735545	11.683618	-1.286051
48027		-10.749791	11.697888	-1.309210
48028		-10.751578	11.709524	-1.333055
48029		-10.750005	11.709749	-1.351118
48030		-10.736322	11.699817	-1.361323
48031		-10.728031	11.687391	-1.365084
48032		-10.725500	11.667139	-1.365335
48033		-10.730947	11.648101	-1.359449
48034		-10.738187	11.630536	-1.351561
48035		-10.748373	11.617040	-1.344640
48036		-10.756771	11.612740	-1.343738
48037		-10.757913	11.596771	-1.345564
48038		-10.749575	11.578513	-1.345484
48039		-10.732513	11.566057	-1.345855
48040		-10.705170	11.560520	-1.340398
48041		-10.678689	11.562762	-1.329023
48042		-10.661439	11.573094	-1.312058
48043		-10.639403	11.591421	-1.290589
48044		-10.611362	11.621397	-1.265603
48045		-10.593228	11.645322	-1.229589
48046		-10.572656	11.656330	-1.176351
48047		-10.543505	11.673780	-1.116300
48048		-10.508269	11.685385	-1.051147
48049		-10.473027	11.680718	-0.985528
48050		-10.429991	11.666760	-0.919126
48051		-10.379608	11.630516	-0.853655
48052		-10.335307	11.572827	-0.786349
48053		-10.283433	11.501871	-0.718644
48054		-10.235496	11.417197	-0.640068
48055		-10.195306	11.316763	-0.553207
48056		-10.156752	11.214462	-0.458904
48057		-10.121604	11.110884	-0.357742
48058		-10.084307	11.008939	-0.252654
48059		-10.047225	10.919487	-0.152029
48060		-10.016791	10.832275	-0.045198
48061		-9.979647	10.747744	0.062013
48062		-9.943244	10.666774	0.177317
48063		-9.910763	10.599546	0.292480
48064		-9.881289	10.537688	0.409351
48065		-9.847106	10.488152	0.520333
48066		-9.794886	10.448517	0.625066
48067		-9.750238	10.428093	0.721457
48068		-9.694601	10.411845	0.814429
48069		-9.626637	10.412250	0.899274
48070		-9.549830	10.431166	0.979741
48071		-9.487925	10.479278	1.050796
48072		-9.443159	10.551800	1.111333
48073		-9.404639	10.655687	1.148613
48074		-9.362221	10.776750	1.164503
48075		-9.295865	10.897600	1.159670
48076		-9.213117	11.015614	1.145628
48077		-9.136902	11.136503	1.125434
48078		-9.046306	11.237940	1.094876
48079		-8.930083	11.314016	1.061537
48080		-8.801418	11.369508	1.029761
48081		-8.672328	11.415886	1.000762
48082		-8.532705	11.469625	0.973243
48083		-8.402385	11.528866	0.946588
48084		-8.280118	11.597094	0.922195
48085		-8.168637	11.663490	0.905631
48086		-8.085554	11.738038	0.900778
48087		-8.011883	11.815797	0.914811
48088		-7.965722	11.882459	0.955126
48089		-7.950178	11.940666	1.022309
48090		-7.932232	11.982213	1.105522
48091		-7.941306	12.013633	1.195647
48092		-7.960034	12.036708	1.287288
48093		-7.975968	12.064935	1.377546
48094		-7.981249	12.104394	1.455460
48095		-7.994093	12.151255	1.520253
48096		-8.009622	12.198862	1.578045
48097		-8.044943	12.251341	1.630968
48098		-8.090440	12.311483	1.676308
48099		-8.130176	12.373901	1.712530
48100		-8.167099	12.435090	1.730534
48101		-8.194848	12.503098	1.735110
48102		-8.212618	12.582926	1.732567
48103		-8.222966	12.665076	1.724882
48104		-8.246195	12.747096	1.721043
48105		-8.282417	12.820243	1.722867
48106		-8.329558	12.885734	1.734764
48107		-8.388862	12.946895	1.758416
48108		-8.460506	13.002946	1.797474
48109		-8.541594	13.049944	1.853258
48110		-8.622945	13.096506	1.927794
48111		-8.712958	13.142071	2.007921
48112		-8.782394	13.164560	2.091142
48113		-8.846986	13.183787	2.175303
48114		-8.921173	13.188511	2.263578
48115		-9.002312	13.189622	2.356293
48116		-9.099680	13.187133	2.459165
48117		-9.193870	13.176448	2.569047
48118		-9.283433	13.167065	2.682579
48119		-9.406982	13.169038	2.795909
48120		-9.580269	13.178649	2.914678
48121		-9.803915	13.200279	3.034100
48122		-10.080003	13.236240	3.155398
48123		-10.410280	13.296955	3.257422
48124		-10.742055	13.336186	3.317310
48125		-10.936377	13.277185	3.323453
48126		-11.051946	13.187425	3.278648
48127		-11.137458	13.106826	3.196982
48128		-11.252840	13.047812	3.090508
48129		-11.372675	13.023089	2.967699
48130		-11.493170	13.008683	2.837964
48131		-11.636786	13.006554	2.697964
48132		-11.791497	13.013529	2.545880
48133		-11.978628	13.036715	2.393618
48134		-12.192413	13.077801	2.236659
48135		-12.420931	13.140244	2.072606
48136		-12.648908	13.218104	1.901966
48137		-12.873322	13.335199	1.711926
48138		-13.115018	13.489323	1.508225
48139		-13.372000	13.685141	1.276410
48140		-13.604269	13.891535	1.022627
48141		-13.813951	14.092376	0.762841
48142		-14.070437	14.321828	0.490513
48143		-14.370732	14.578285	0.216266
48144		-14.676480	14.847481	-0.051482
48145		-14.986372	15.131188	-0.316228
48146		-15.307924	15.423407	-0.570438
48147		-15.643060	15.735406	-0.820222
48148		-15.983995	16.068962	-1.058458
48149		-16.327710	16.423855	-1.293915
48150		-16.699542	16.807772	-1.531429
48151		-17.056677	17.184480	-1.762260
48152		-17.389164	17.548170	-1.990043
48153		-17.696778	17.879953	-2.210079
48154		-17.964646	18.184387	-2.427461
48155		-18.168121	18.483634	-2.641770
48156		-18.339262	18.751290	-2.846058
48157		-18.513041	18.975684	-3.038854
48158		-18.697732	19.183163	-3.229764
48159		-18.862452	19.388407	-3.428522
48160		-18.988722	19.579209	-3.642936
48161		-19.084360	19.766582	-3.871712
48162		-19.173773	19.947373	-4.110154
48163		-19.248979	20.127891	-4.361916
48164		-19.305653	20.298816	-4.623780
48165		-19.339587	20.460494	-4.899085
48166		-19.354426	20.609347	-5.170301
48167		-19.358730	20.765813	-5.439438
48168		-19.362051	20.935011	-5.708316
48169		-19.354732	21.102260	-5.969097
48170		-19.340148	21.261891	-6.217489
48171		-19.340952	21.444884	-6.461516
48172		-19.352504	21.658448	-6.709931
48173		-19.359302	21.899132	-6.972139
48174		-19.348837	22.160322	-7.257099
48175		-19.313932	22.436209	-7.560073
48176		-19.248537	22.711595	-7.876503
48177		-19.154163	22.979469	-8.204401
48178		-19.023242	23.230660	-8.530005
48179		-18.836844	23.449730	-8.845712
48180		-18.610316	23.646495	-9.141467
48181		-18.402254	23.868353	-9.429129
48182		-18.220180	24.135141	-9.722176
48183		-18.061233	24.421809	-10.023544
48184		-17.919548	24.711562	-10.338752
48185		-17.787880	24.998415	-10.668664
48186		-17.660360	25.273729	-11.012171
48187		-17.523344	25.530820	-11.366980
48188		-17.385331	25.764807	-11.726692
48189		-17.252399	25.988195	-12.096846
48190		-17.113908	26.201848	-12.471115
48191		-16.961033	26.403772	-12.843704
48192		-16.813462	26.598581	-13.206175
48193		-16.664813	26.788822	-13.552825
48194		-16.527029	26.985918	-13.893803
48195		-16.400285	27.188340	-14.232789
48196		-16.278545	27.372600	-14.558614
48197		-16.173046	27.540202	-14.873703
48198		-16.063182	27.697010	-15.169814
48199		-15.955032	27.865745	-15.459458
48200		-15.854055	28.044150	-15.745625
48201		-15.773048	28.224883	-16.025305
48202		-15.700124	28.399493	-16.296222
48203		-15.618342	28.569414	-16.554399
48204		-15.536867	28.751720	-16.809725
48205		-15.448733	28.933144	-17.068716
48206		-15.348054	29.112563	-17.331138
48207		-15.236456	29.283300	-17.596392
48208		-15.105908	29.452087	-17.865772
48209		-14.966997	29.620900	-18.141419
48210		-14.827850	29.786425	-18.423131
48211		-14.683744	29.952379	-18.708289
48212		-14.534409	30.125002	-18.992527
48213		-14.381138	30.299763	-19.272275
48214		-14.226414	30.473013	-19.547860
48215		-14.076366	30.643224	-19.819903
48216		-13.930241	30.814925	-20.090947
48217		-13.802289	30.996908	-20.357215
48218		-13.665563	31.172422	-20.617654
48219		-13.534338	31.350208	-20.873714
48220		-13.399121	31.526651	-21.121806
48221		-13.252088	31.709041	-21.361585
48222		-13.108695	31.897399	-21.602779
48223		-12.976491	32.083050	-21.847680
48224		-12.845473	32.260558	-22.095275
48225		-12.710584	32.429495	-22.348580
48226		-12.571404	32.589138	-22.602998
48227		-12.424908	32.737104	-22.854379
48228		-12.271716	32.875216	-23.103696
48229		-12.108829	33.003871	-23.346111
48230		-11.943588	33.124120	-23.582789
48231		-11.783290	33.248944	-23.814688
48232		-11.640064	33.375755	-24.038350
48233		-11.514343	33.502495	-24.258944
48234		-11.400231	33.626352	-24.478719
48235		-11.284862	33.743429	-24.700253
48236		-11.159388	33.837478	-24.919476
48237		-11.039940	33.929729	-25.130901
48238		-10.971058	34.046560	-25.347774
48239		-10.829042	34.142705	-25.551895
48240		-10.733742	34.236705	-25.747509
48241		-10.650376	34.333600	-25.950929
48242		-10.581367	34.420180	-26.154700
48243		-10.523014	34.505139	-26.360880
48244		-10.485734	34.596544	-26.563301
48245		-10.458284	34.686862	-26.760463
48246		-10.449819	34.783681	-26.956445
48247		-10.449585	34.879708	-27.146498
48248		-10.451879	34.974698	-27.330956
48249		-10.455849	35.069110	-27.505466
48250		-10.457278	35.162109	-27.666784
48251		-10.459956	35.247864	-27.806854
48252		-10.445882	35.319621	-27.923713
48253		-10.431122	35.380475	-28.012952
48254		-10.420914	35.440601	-28.064699
48255		-10.417598	35.492369	-28.083119
48256		-10.407328	35.526442	-28.075727
48257		-10.390181	35.551383	-28.044929
48258		-10.354445	35.571784	-27.995927
48259		-10.317196	35.580789	-27.932658
48260		-10.287557	35.590068	-27.871407
48261		-10.271371	35.602840	-27.815653
48262		-10.264795	35.613173	-27.771853
48263		-10.267241	35.621138	-27.740283
48264		-10.279628	35.630917	-27.722102
48265		-10.303404	35.640518	-27.714997
48266		-10.335559	35.652377	-27.716498
48267		-10.379610	35.671105	-27.725273
48268		-10.422841	35.689407	-27.737805
48269		-10.463743	35.704831	-27.754181
48270		-10.496001	35.711368	-27.770712
48271		-10.516899	35.712476	-27.782399
48272		-10.522003	35.708813	-27.784963
48273		-10.513691	35.703174	-27.777573
48274		-10.499302	35.693976	-27.766884
48275		-10.479801	35.681349	-27.755220
48276		-10.447239	35.661457	-27.737567
48277		-10.407629	35.633768	-27.719939
48278		-10.371008	35.604581	-27.710814
48279		-10.332893	35.574281	-27.704744
48280		-10.287226	35.537237	-27.701061
48281		-10.237716	35.496445	-27.690476
48282		-10.192223	35.460699	-27.680409
48283		-10.147059	35.425299	-27.664761
48284		-10.101547	35.395104	-27.642543
48285		-10.065366	35.366053	-27.619798
48286		-10.035711	35.335047	-27.596637
48287		-10.012305	35.300281	-27.580603
48288		-9.985190	35.259634	-27.575569
48289		-9.958340	35.212888	-27.581587
48290		-9.939905	35.172176	-27.598894
48291		-9.935711	35.132885	-27.627973
48292		-9.946139	35.098623	-27.665770
48293		-9.963812	35.069351	-27.709355
48294		-9.986832	35.043052	-27.762367
48295		-10.013231	35.015696	-27.822343
48296		-10.037755	34.984164	-27.888293
48297		-10.058316	34.949045	-27.955079
48298		-10.082910	34.915439	-28.028526
48299		-10.111375	34.885963	-28.100887
48300		-10.144821	34.866829	-28.172721
48301		-10.182750	34.859600	-28.245006
48302		-10.211889	34.851517	-28.314503
48303		-10.229585	34.837899	-28.383892
48304		-10.236287	34.826294	-28.452592
48305		-10.235968	34.813864	-28.515568
48306		-10.229800	34.801843	-28.573460
48307		-10.225618	34.795532	-28.626508
48308		-10.214042	34.790380	-28.672265
48309		-10.199520	34.790897	-28.708920
48310		-10.183872	34.798460	-28.734498
48311		-10.166146	34.814532	-28.747907
48312		-10.147031	34.834595	-28.752512
48313		-10.125564	34.859388	-28.746652
48314		-10.101866	34.879081	-28.731699
48315		-10.066732	34.897677	-28.705737
48316		-10.035238	34.917778	-28.684977
48317		-10.007155	34.941770	-28.666777
48318		-9.972197	34.974744	-28.642091
48319		-9.933734	35.015002	-28.610395
48320		-9.888178	35.068022	-28.569257
48321		-9.842958	35.119909	-28.515815
48322		-9.792686	35.151530	-28.455145
48323		-9.737345	35.157958	-28.393317
48324		-9.678164	35.149459	-28.337196
48325		-9.618117	35.131005	-28.274832
48326		-9.569239	35.104951	-28.213823
48327		-9.540869	35.082274	-28.153127
48328		-9.526237	35.064920	-28.094878
48329		-9.520312	35.048694	-28.042193
48330		-9.521963	35.032641	-27.996669
48331		-9.536495	35.015193	-27.962142
48332		-9.556055	35.004145	-27.940458
48333		-9.583301	34.989688	-27.926130
48334		-9.617885	34.980729	-27.921507
48335		-9.660835	34.975429	-27.920643
48336		-9.710210	34.970515	-27.925431
48337		-9.762961	34.963820	-27.931532
48338		-9.813270	34.957565	-27.938873
48339		-9.863676	34.952628	-27.948240
48340		-9.904831	34.947359	-27.959000
48341		-9.939326	34.939739	-27.969728
48342		-9.962888	34.926180	-27.977389
48343		-9.978396	34.909391	-27.987905
48344		-9.985600	34.885755	-28.003970
48345		-9.993945	34.862765	-28.025667
48346		-10.010408	34.847694	-28.056327
48347		-10.037789	34.842190	-28.092800
48348		-10.076821	34.844834	-28.134525
48349		-10.128778	34.850739	-28.179519
48350		-10.189043	34.864024	-28.222666
48351		-10.261629	34.883873	-28.261032
48352		-10.347090	34.917683	-28.296082
48353		-10.439169	34.964198	-28.326612
48354		-10.532639	35.017100	-28.356374
48355		-10.625148	35.066652	-28.384394
48356		-10.708106	35.107693	-28.412341
48357		-10.782290	35.148890	-28.434557
48358		-10.853073	35.185330	-28.459396
48359		-10.909962	35.219170	-28.479790
