// General information: 
//  MT Manager version: 2022.2.0 
//  XDA version: 2022.2.0 build 7381 rev 124627 built on 2023-07-19
// Device information: 
//  DeviceId: 00B44805
//  ProductCode: MTW2-3A7G6
//  Firmware Version: 4.3.5
//  Hardware Version: 2.0.0
// Device settings: 
//  Filter Profile: human(46.1)
//  Option Flags: Orientation Smoother Disabled, Position/Velocity Smoother Disabled, Continuous Zero Rotation Update Disabled, AHS Disabled, ICC Disabled
// Coordinate system: ENU
PacketCounter	SampleTimeFine	Roll	Pitch	Yaw
45227		12.662853	1.812214	28.517617
45228		12.664923	1.810297	28.515730
45229		12.664423	1.808271	28.512131
45230		12.668224	1.806992	28.510317
45231		12.659707	1.804649	28.505510
45232		12.652631	1.802479	28.501559
45233		12.646850	1.798760	28.498782
45234		12.641302	1.794889	28.493312
45235		12.644637	1.787370	28.485330
45236		12.647214	1.780773	28.479125
45237		12.649826	1.774827	28.470062
45238		12.658818	1.767015	28.462981
45239		12.663728	1.757775	28.453559
45240		12.670590	1.747410	28.444066
45241		12.677728	1.737453	28.433789
45242		12.711989	1.728553	28.424153
45243		12.718092	1.712865	28.410092
45244		12.722020	1.702187	28.400761
45245		12.721131	1.691676	28.387974
45246		12.722386	1.679521	28.375862
45247		12.730181	1.670576	28.366154
45248		12.728531	1.664239	28.358616
45249		12.726906	1.662340	28.354142
45250		12.730770	1.661276	28.353723
45251		12.736848	1.659670	28.358439
45252		12.747712	1.661896	28.362354
45253		12.757554	1.664651	28.372871
45254		12.772781	1.671070	28.388178
45255		12.787747	1.677376	28.404860
45256		12.799455	1.685743	28.423360
45257		12.813284	1.695681	28.443868
45258		12.829152	1.706533	28.464507
45259		12.850285	1.718584	28.486436
45260		12.867986	1.727513	28.507660
45261		12.887554	1.737756	28.526332
45262		12.908955	1.749351	28.544465
45263		12.923590	1.758404	28.558566
45264		12.931811	1.766438	28.570394
45265		12.938852	1.773114	28.578390
45266		12.944868	1.777598	28.582689
45267		12.947191	1.782185	28.584312
45268		12.944706	1.783984	28.582341
45269		12.945023	1.784866	28.578317
45270		12.946362	1.784456	28.575418
45271		12.947598	1.782613	28.569371
45272		12.949109	1.780860	28.561991
45273		12.950284	1.778084	28.550757
45274		12.953582	1.776015	28.538570
45275		12.951406	1.774086	28.527318
45276		12.944719	1.773615	28.512967
45277		12.939074	1.774405	28.497315
45278		12.937385	1.778862	28.482244
45279		12.936583	1.783173	28.469376
45280		12.939427	1.789795	28.457415
45281		12.947683	1.796873	28.446132
45282		12.959957	1.805342	28.437140
45283		12.970899	1.814089	28.429988
45284		12.968413	1.826369	28.417919
45285		12.963571	1.833802	28.407841
45286		12.957112	1.842990	28.394424
45287		12.947118	1.850152	28.381567
45288		12.944024	1.858895	28.370865
45289		12.949501	1.870634	28.360952
45290		12.958178	1.883101	28.352203
45291		12.963547	1.900697	28.345195
45292		12.975123	1.921242	28.337997
45293		12.980042	1.947483	28.331313
45294		12.977954	1.979420	28.323710
45295		12.980006	2.016194	28.309912
45296		12.967743	2.056006	28.291283
45297		12.943313	2.086402	28.267033
45298		12.881483	2.096106	28.221808
45299		12.845412	2.087983	28.174089
45300		12.827004	2.066114	28.123106
45301		12.865440	2.040835	28.077942
45302		13.004547	2.050357	28.055363
45303		13.018965	2.090637	27.994021
45304		13.106004	2.170506	27.945675
45305		13.322882	2.253699	27.908677
45306		13.583780	2.337099	27.894309
45307		13.820148	2.434379	27.898406
45308		14.024273	2.541355	27.910988
45309		14.225027	2.651876	27.929379
45310		14.471696	2.765007	27.959748
45311		14.701332	2.869056	27.997085
45312		14.891213	2.953311	28.036030
45313		15.119176	3.043695	28.086425
45314		15.305301	3.136890	28.151553
45315		15.453980	3.204591	28.230376
45316		15.561413	3.284007	28.301152
45317		15.705110	3.354147	28.370178
45318		15.912216	3.417914	28.441914
45319		16.216473	3.453413	28.522229
45320		16.608378	3.497230	28.627126
45321		16.905469	3.526500	28.710159
45322		17.073905	3.541711	28.773262
45323		17.257232	3.575534	28.884214
45324		17.223456	3.630714	28.941885
45325		17.171477	3.644539	29.037474
45326		16.809690	3.703264	29.050183
45327		16.544037	3.815595	29.079134
45328		16.306274	3.918092	29.120210
45329		16.181036	3.965433	29.103612
45330		16.041699	4.058515	29.131308
45331		15.834742	4.097975	29.109207
45332		15.596634	4.182781	29.116965
45333		15.328371	4.234870	29.080854
45334		15.152993	4.312362	29.074444
45335		14.955633	4.365333	29.030322
45336		14.851018	4.420745	29.019604
45337		14.624081	4.498945	28.973823
45338		14.536431	4.561612	28.955072
45339		14.399634	4.647183	28.918578
45340		14.399165	4.711851	28.885463
45341		14.307003	4.818118	28.853457
45342		14.256831	4.902332	28.812979
45343		14.163686	5.022607	28.790430
45344		14.091789	5.100361	28.738919
45345		13.975898	5.211380	28.732087
45346		13.743752	5.336576	28.700619
45347		13.579350	5.425252	28.698851
45348		13.287616	5.583092	28.697068
45349		13.015288	5.747218	28.681970
45350		12.768985	5.939932	28.667142
45351		12.586797	6.129080	28.627233
45352		12.480831	6.319672	28.586784
45353		12.412422	6.514957	28.536411
45354		12.359835	6.707106	28.484236
45355		12.299120	6.888288	28.429692
45356		12.195963	7.056394	28.364155
45357		12.022903	7.232707	28.285816
45358		11.814745	7.413297	28.188410
45359		11.629920	7.597288	28.086295
45360		11.466561	7.797023	27.974552
45361		11.347226	7.993169	27.855021
45362		11.271864	8.178878	27.734231
45363		11.188776	8.362675	27.607707
45364		11.088589	8.538978	27.484623
45365		10.971132	8.713497	27.360194
45366		10.868194	8.865118	27.229702
45367		10.741094	9.006327	27.094206
45368		10.585409	9.147705	26.955557
45369		10.379380	9.288402	26.803251
45370		10.160818	9.437469	26.639839
45371		9.977781	9.577162	26.468763
45372		9.823322	9.715024	26.298265
45373		9.679516	9.847220	26.120314
45374		9.545825	9.972704	25.940525
45375		9.408998	10.097746	25.752104
45376		9.272356	10.216340	25.552641
45377		9.147433	10.328678	25.344281
45378		9.032534	10.435938	25.131803
45379		8.918450	10.543984	24.913441
45380		8.798526	10.652299	24.691014
45381		8.674256	10.759797	24.464433
45382		8.554087	10.865860	24.238773
45383		8.442644	10.969765	24.009327
45384		8.337724	11.071935	23.781580
45385		8.227788	11.171381	23.552042
45386		8.120649	11.272639	23.324366
45387		8.013297	11.376002	23.099680
45388		7.916196	11.472223	22.881239
45389		7.814013	11.570138	22.665981
45390		7.695735	11.668107	22.452003
45391		7.573756	11.761958	22.234186
45392		7.462443	11.851044	22.019466
45393		7.369607	11.931458	21.805647
45394		7.288694	12.009116	21.594897
45395		7.220208	12.080353	21.390425
45396		7.152861	12.150052	21.180265
45397		7.092726	12.221954	20.972637
45398		7.047656	12.296247	20.765007
45399		7.011641	12.366052	20.561646
45400		6.980603	12.432715	20.365211
45401		6.941513	12.494816	20.175723
45402		6.882905	12.558590	19.988849
45403		6.807011	12.624134	19.806483
45404		6.731784	12.695680	19.628617
45405		6.664839	12.770189	19.454849
45406		6.601347	12.847680	19.285891
45407		6.543724	12.929768	19.123352
45408		6.482240	13.016806	18.961526
45409		6.417865	13.105390	18.798127
45410		6.341276	13.195851	18.637882
45411		6.252985	13.289683	18.479032
45412		6.142048	13.387640	18.320783
45413		6.011005	13.483287	18.164895
45414		5.857343	13.583013	18.005956
45415		5.694839	13.691182	17.842635
45416		5.537543	13.798558	17.679239
45417		5.391463	13.905952	17.513222
45418		5.244800	14.015095	17.346696
45419		5.101400	14.130124	17.180279
45420		4.961476	14.245927	17.006570
45421		4.830085	14.361854	16.836399
45422		4.699566	14.476219	16.660221
45423		4.555843	14.588931	16.478956
45424		4.409853	14.697919	16.295450
45425		4.273301	14.804993	16.114363
45426		4.146808	14.905720	15.934611
45427		4.022306	15.001429	15.762176
45428		3.899531	15.099717	15.602441
45429		3.776733	15.198987	15.447529
45430		3.656912	15.296867	15.293693
45431		3.537172	15.385743	15.142980
45432		3.416602	15.470780	14.993570
45433		3.285064	15.550490	14.846562
45434		3.139388	15.624420	14.703194
45435		2.994311	15.698962	14.569243
45436		2.853813	15.773719	14.444246
45437		2.719965	15.842933	14.321567
45438		2.605414	15.909199	14.199344
45439		2.519433	15.970680	14.070149
45440		2.465368	16.032364	13.935139
45441		2.432693	16.095922	13.789975
45442		2.415864	16.155043	13.641260
45443		2.414647	16.216295	13.488800
45444		2.408930	16.288747	13.337336
45445		2.347620	16.373279	13.188508
45446		2.197982	16.429990	13.049278
45447		2.046011	16.434953	12.923284
45448		1.942450	16.447445	12.784609
45449		1.938705	16.477753	12.630104
45450		2.021430	16.505820	12.482486
45451		2.129653	16.518387	12.350064
45452		2.235337	16.523237	12.224291
45453		2.340202	16.525082	12.114769
45454		2.499929	16.506234	12.020173
45455		2.690140	16.488505	11.958231
45456		2.865319	16.478066	11.921051
45457		2.969135	16.467390	11.902572
45458		2.999229	16.450088	11.893613
45459		2.989765	16.423061	11.904658
45460		2.966698	16.397650	11.936665
45461		2.929769	16.367930	11.990576
45462		2.905167	16.331000	12.063547
45463		2.938333	16.298977	12.142965
45464		3.032452	16.277380	12.226149
45465		3.140939	16.268241	12.312376
45466		3.228816	16.273023	12.391585
45467		3.293611	16.283822	12.456813
45468		3.370759	16.305181	12.501102
45469		3.425310	16.329457	12.533370
45470		3.440785	16.363532	12.567653
45471		3.381759	16.414254	12.567466
45472		3.406831	16.457631	12.567405
45473		3.435866	16.499955	12.565483
45474		3.449100	16.534889	12.563185
45475		3.564706	16.573153	12.574010
45476		3.576613	16.611325	12.587940
45477		3.619949	16.645351	12.597462
45478		3.621951	16.714050	12.609986
45479		3.601482	16.781747	12.592596
45480		3.631162	16.855421	12.561021
45481		3.724052	16.923148	12.521658
45482		3.863697	16.990634	12.483193
45483		4.033322	17.069604	12.432775
45484		4.248786	17.154242	12.375390
45485		4.504006	17.236097	12.312100
45486		4.786216	17.313139	12.241141
45487		5.035453	17.395799	12.158574
45488		5.224356	17.489435	12.082758
45489		5.351697	17.591879	12.018054
45490		5.443673	17.693389	11.962949
45491		5.517010	17.790113	11.916730
45492		5.587765	17.871798	11.872275
45493		5.673728	17.956385	11.828184
45494		5.744972	18.027000	11.787457
45495		5.798042	18.088701	11.748494
45496		5.817829	18.143804	11.717223
45497		5.796669	18.190685	11.682635
45498		5.755425	18.236107	11.642587
45499		5.731803	18.275648	11.602929
45500		5.711058	18.303700	11.561594
45501		5.687746	18.327430	11.521983
45502		5.672101	18.353286	11.488854
45503		5.649777	18.369545	11.461145
45504		5.640068	18.372854	11.435142
45505		5.567000	18.344480	11.387763
45506		5.443684	18.294898	11.330670
45507		5.248382	18.265573	11.265935
45508		5.086897	18.240443	11.201750
45509		4.977211	18.199701	11.156000
45510		4.893575	18.157399	11.121960
45511		4.790844	18.114845	11.090777
45512		4.663651	18.093453	11.039464
45513		4.561078	18.078042	10.979619
45514		4.496949	18.066757	10.923599
45515		4.483966	18.056648	10.886255
45516		4.473060	18.064171	10.859020
45517		4.472739	18.075041	10.821754
45518		4.493652	18.097987	10.795026
45519		4.503856	18.131271	10.780825
45520		4.530901	18.177916	10.792942
45521		4.601700	18.229316	10.834860
45522		4.700854	18.277510	10.898524
45523		4.798148	18.303585	10.970662
45524		4.866165	18.290941	11.049309
45525		4.843234	18.276282	11.125755
45526		4.729249	18.289235	11.172111
45527		4.642578	18.303844	11.229437
45528		4.571152	18.320004	11.271389
45529		4.565827	18.301989	11.311400
45530		4.594849	18.284348	11.358557
45531		4.618494	18.246055	11.396756
45532		4.622755	18.201477	11.439042
45533		4.580450	18.165748	11.465242
45534		4.519877	18.127417	11.482721
45535		4.456226	18.093766	11.498175
45536		4.378354	18.068685	11.509200
45537		4.297685	18.043253	11.519209
45538		4.216318	18.019738	11.522746
45539		4.164076	17.994185	11.525659
45540		4.151245	17.970818	11.527769
45541		4.185818	17.943196	11.530391
45542		4.235108	17.919938	11.531468
45543		4.282986	17.892072	11.534099
45544		4.310779	17.868117	11.535158
45545		4.316862	17.847864	11.542466
45546		4.317720	17.825114	11.560832
45547		4.318454	17.797463	11.584195
45548		4.294532	17.775490	11.598780
45549		4.274290	17.759916	11.615404
45550		4.269537	17.752101	11.626118
45551		4.283179	17.748156	11.635201
45552		4.288322	17.753774	11.642379
45553		4.267149	17.762473	11.643658
45554		4.223355	17.776601	11.641959
45555		4.167109	17.797578	11.633984
45556		4.119036	17.818559	11.622717
45557		4.080766	17.837398	11.608570
45558		4.057783	17.857900	11.606073
45559		4.036827	17.875640	11.605840
45560		4.009858	17.889835	11.608879
45561		3.980967	17.904099	11.611067
45562		3.949475	17.915649	11.611838
45563		3.926208	17.920769	11.619833
45564		3.906208	17.915852	11.633165
45565		3.889841	17.907234	11.651823
45566		3.885871	17.897186	11.677126
45567		3.897696	17.893654	11.718190
45568		3.909552	17.879198	11.776468
45569		3.893506	17.854190	11.837616
45570		3.864966	17.826715	11.907804
45571		3.844693	17.786457	12.000101
45572		3.805964	17.747940	12.118436
45573		3.737630	17.681348	12.230603
45574		3.719216	17.596083	12.377548
45575		3.739032	17.494467	12.542413
45576		3.765517	17.378967	12.717079
45577		3.807217	17.252882	12.894783
45578		3.891285	17.122966	13.088337
45579		4.041162	16.984332	13.319325
45580		4.198037	16.759821	13.549424
45581		4.330622	16.560303	13.829407
45582		4.368074	16.364182	14.091463
45583		4.411121	16.137431	14.363852
45584		4.432030	15.913746	14.658077
45585		4.417858	15.698318	14.953785
45586		4.406552	15.472048	15.246653
45587		4.414143	15.243002	15.544207
45588		4.460688	15.005208	15.838388
45589		4.568994	14.749601	16.141122
45590		4.717519	14.485393	16.439972
45591		4.896803	14.219812	16.734534
45592		5.086613	13.950948	17.023006
45593		5.272829	13.666527	17.309069
45594		5.402654	13.384324	17.593969
45595		5.466680	13.125233	17.871686
45596		5.465953	12.895217	18.145883
45597		5.417483	12.692305	18.417778
45598		5.358207	12.517824	18.693273
45599		5.262224	12.379606	18.973069
45600		5.158718	12.257445	19.252907
45601		5.051225	12.158199	19.535029
45602		4.951719	12.077279	19.814914
45603		4.893351	11.999501	20.094247
45604		4.883549	11.929164	20.379623
45605		4.887027	11.870515	20.669252
45606		4.866412	11.817475	20.947877
45607		4.835726	11.770123	21.220142
45608		4.797973	11.740526	21.485685
45609		4.742431	11.722705	21.737412
45610		4.678415	11.711076	21.971721
45611		4.609609	11.705688	22.189479
45612		4.545263	11.708175	22.394513
45613		4.471793	11.715641	22.588315
45614		4.391374	11.730687	22.768908
45615		4.266985	11.753697	22.934069
45616		4.096190	11.780846	23.079613
45617		3.878749	11.811155	23.210272
45618		3.635252	11.849623	23.323124
45619		3.403430	11.885063	23.428983
45620		3.216630	11.898863	23.533488
45621		3.053336	11.911074	23.626010
45622		2.913468	11.916838	23.711062
45623		2.804280	11.919139	23.793101
45624		2.716344	11.912330	23.875493
45625		2.647404	11.906807	23.960246
45626		2.589484	11.899862	24.054316
45627		2.538952	11.890829	24.157285
45628		2.489905	11.879934	24.273054
45629		2.425033	11.864630	24.401869
45630		2.368239	11.841510	24.541161
45631		2.327634	11.810985	24.689515
45632		2.306702	11.775828	24.841815
45633		2.298103	11.728423	24.989846
45634		2.305246	11.688726	25.137358
45635		2.306724	11.652746	25.281840
45636		2.313363	11.614794	25.427832
45637		2.315795	11.579497	25.570202
45638		2.282668	11.543069	25.711578
45639		2.232642	11.500532	25.848515
45640		2.176448	11.450110	25.984275
45641		2.122560	11.397813	26.117104
45642		2.079927	11.341743	26.241551
45643		2.053884	11.280380	26.358697
45644		2.050198	11.216111	26.467591
45645		2.051767	11.140142	26.570667
45646		2.058629	11.055680	26.666453
45647		2.062229	10.966406	26.761326
45648		2.027165	10.870607	26.842691
45649		1.975501	10.772356	26.919409
45650		1.920350	10.667270	26.995479
45651		1.872952	10.556258	27.076252
45652		1.850237	10.437273	27.159131
45653		1.862502	10.308983	27.245027
45654		1.907073	10.164285	27.336919
45655		1.965780	10.009376	27.425404
45656		2.022930	9.855295	27.510340
45657		2.056213	9.691351	27.590235
45658		2.062385	9.520555	27.661546
45659		2.044179	9.343256	27.732969
45660		2.009752	9.162928	27.801817
45661		1.994138	8.977038	27.875948
45662		2.002040	8.795454	27.949511
45663		2.039086	8.613358	28.029248
45664		2.096272	8.429142	28.114739
45665		2.181861	8.254995	28.199888
45666		2.282960	8.085497	28.287930
45667		2.383643	7.917070	28.372289
45668		2.483075	7.756553	28.461042
45669		2.595707	7.588163	28.548201
45670		2.754199	7.433431	28.645501
45671		2.906738	7.283378	28.759601
45672		3.025067	7.167468	28.879027
45673		3.107030	7.103837	28.983662
45674		3.158001	7.058169	29.060424
45675		3.290301	6.969465	29.137542
45676		3.464694	6.898532	29.225246
45677		3.679761	6.828615	29.306907
45678		3.905905	6.756352	29.384673
45679		4.081595	6.685578	29.453696
45680		4.217350	6.608731	29.516924
45681		4.337921	6.531570	29.573680
45682		4.455998	6.463068	29.627186
45683		4.591952	6.382872	29.685154
45684		4.744635	6.302477	29.748775
45685		4.920257	6.224342	29.821960
45686		5.180180	6.133173	29.909288
45687		5.441496	6.037464	29.987313
45688		5.704542	5.967861	30.058523
45689		5.997121	5.888279	30.122803
45690		6.223096	5.802452	30.178966
45691		6.373826	5.720457	30.238775
45692		6.497932	5.647906	30.300124
45693		6.603436	5.583442	30.359093
45694		6.689468	5.517844	30.417418
45695		6.761093	5.456814	30.478683
45696		6.829462	5.406868	30.537589
45697		6.923648	5.356481	30.596553
45698		7.012987	5.315783	30.643795
45699		7.090063	5.279946	30.686394
45700		7.159531	5.244755	30.714430
45701		7.224080	5.210686	30.743741
45702		7.267624	5.177303	30.756399
45703		7.320752	5.140298	30.765217
45704		7.353797	5.107723	30.760659
45705		7.395650	5.082569	30.756632
45706		7.432825	5.057892	30.745474
45707		7.497457	5.043825	30.740561
45708		7.582861	5.031815	30.736035
45709		7.678575	5.020809	30.740021
45710		7.743691	5.010581	30.750239
45711		7.780424	5.004779	30.760173
45712		7.806008	5.002014	30.768400
45713		7.826736	4.999717	30.774151
45714		7.854595	4.993012	30.779815
45715		7.893441	4.988336	30.785848
45716		7.936409	4.981593	30.791246
45717		7.990909	4.969761	30.794896
45718		8.050369	4.955584	30.795456
45719		8.113999	4.942085	30.793972
45720		8.163752	4.933593	30.791079
45721		8.211344	4.926471	30.786034
45722		8.258127	4.924112	30.778298
45723		8.281132	4.918296	30.765236
45724		8.336952	4.902976	30.756530
45725		8.395252	4.885774	30.748756
45726		8.453840	4.862364	30.727171
45727		8.559154	4.832195	30.715969
45728		8.672006	4.806597	30.704417
45729		8.778644	4.789539	30.688756
45730		8.886478	4.780873	30.674585
45731		8.985955	4.772626	30.662596
45732		9.060601	4.769523	30.650398
45733		9.118815	4.763482	30.636937
45734		9.161183	4.752176	30.621591
45735		9.185802	4.745970	30.603453
45736		9.202069	4.733986	30.585727
45737		9.240565	4.714264	30.572268
45738		9.276979	4.701283	30.560783
45739		9.351238	4.680835	30.559921
45740		9.415300	4.656585	30.539862
45741		9.513197	4.639237	30.527470
45742		9.603024	4.626626	30.519677
45743		9.669785	4.614237	30.516590
45744		9.734061	4.597561	30.537418
45745		9.822703	4.551305	30.529843
45746		9.856825	4.515946	30.517646
45747		9.889265	4.477167	30.499197
45748		9.939214	4.434516	30.476365
45749		9.970837	4.382110	30.436140
45750		10.014602	4.330763	30.397327
45751		10.067682	4.289674	30.355188
45752		10.144963	4.256129	30.310589
45753		10.204121	4.228829	30.262979
45754		10.237989	4.193305	30.227083
45755		10.239378	4.158050	30.201553
45756		10.222789	4.124943	30.171406
45757		10.216390	4.089299	30.146466
45758		10.224608	4.057127	30.127558
45759		10.236003	4.024642	30.112654
45760		10.268871	3.991242	30.094714
45761		10.318304	3.955713	30.077044
45762		10.344449	3.910661	30.055754
45763		10.350397	3.861019	30.038326
45764		10.352703	3.812825	30.016526
45765		10.385133	3.758627	29.984380
45766		10.467478	3.706781	29.945697
45767		10.577864	3.659746	29.909083
45768		10.698041	3.621566	29.872194
45769		10.824279	3.590094	29.835476
45770		10.950686	3.559469	29.801180
45771		11.084498	3.528016	29.771006
45772		11.263089	3.490369	29.752389
45773		11.459333	3.448516	29.737733
45774		11.675112	3.404494	29.728888
45775		11.909585	3.362595	29.720012
45776		12.184346	3.328700	29.716413
45777		12.515267	3.297438	29.723975
45778		12.862460	3.262834	29.733289
45779		13.215404	3.228928	29.739566
45780		13.564510	3.203068	29.739658
45781		13.894549	3.168837	29.728220
45782		14.224802	3.133031	29.712622
45783		14.566208	3.098077	29.698928
45784		14.914960	3.064132	29.697740
45785		15.271262	3.036843	29.708684
45786		15.605996	3.016059	29.732238
45787		15.911675	3.006379	29.777750
45788		16.171289	3.010962	29.837340
45789		16.381316	3.022245	29.893992
45790		16.517746	3.027673	29.946713
45791		16.549879	3.023980	29.994407
45792		16.482885	3.016678	30.033051
45793		16.369965	3.014867	30.068480
45794		16.265488	3.020138	30.104045
45795		16.176797	3.027899	30.131126
45796		16.103892	3.035681	30.153496
45797		16.062633	3.039558	30.161870
45798		16.065659	3.043424	30.164985
45799		16.103529	3.042212	30.165483
45800		16.151126	3.036281	30.161123
45801		16.180025	3.028247	30.150041
45802		16.189234	3.020578	30.134971
45803		16.185620	3.005182	30.124441
45804		16.166541	2.974085	30.109475
45805		16.143306	2.936834	30.090923
45806		16.127955	2.902012	30.065953
45807		16.134569	2.872973	30.040922
45808		16.162900	2.848012	30.020071
45809		16.203455	2.825050	30.008159
45810		16.239904	2.804676	30.003072
45811		16.261833	2.786032	30.002588
45812		16.272811	2.771615	30.004217
45813		16.272975	2.758843	30.006440
45814		16.266483	2.753374	30.004312
45815		16.269065	2.751236	30.001090
45816		16.270040	2.756522	29.996312
45817		16.263724	2.761676	29.990361
45818		16.247097	2.771817	29.985836
45819		16.217141	2.790609	29.984904
45820		16.175200	2.820225	29.979429
45821		16.129371	2.857572	29.981211
45822		16.079092	2.902709	29.985495
45823		16.023028	2.949650	29.993087
45824		15.961868	3.003409	30.002545
45825		15.895471	3.065343	30.016221
45826		15.827968	3.131389	30.031541
45827		15.745449	3.196288	30.042426
45828		15.643218	3.258712	30.048303
45829		15.540365	3.310623	30.049197
45830		15.452110	3.355580	30.046444
45831		15.377793	3.388370	30.040258
45832		15.316063	3.411307	30.041339
45833		15.261302	3.423095	30.042993
45834		15.244484	3.418728	30.068155
45835		15.146479	3.405144	30.071703
45836		15.067308	3.389957	30.063529
45837		14.967357	3.366701	30.057259
45838		14.851836	3.336613	30.040294
45839		14.733035	3.292992	30.006717
45840		14.621345	3.233502	29.968131
45841		14.455981	3.183753	29.889111
45842		14.392195	3.113803	29.789680
45843		14.475502	3.030354	29.724933
45844		14.537313	2.934923	29.635301
45845		14.623379	2.839927	29.570892
45846		14.676539	2.742515	29.512487
45847		14.584461	2.610179	29.461969
45848		14.485442	2.555118	29.417689
45849		14.398706	2.497087	29.394765
45850		14.381699	2.432116	29.377658
45851		14.365612	2.369863	29.378203
45852		14.288036	2.317498	29.388571
45853		14.214198	2.267700	29.413802
45854		14.131460	2.238319	29.438332
45855		14.019770	2.212264	29.453369
45856		13.861477	2.194126	29.454374
45857		13.620429	2.183721	29.440516
45858		13.335101	2.185230	29.415957
45859		13.043343	2.188154	29.385051
45860		12.760447	2.192273	29.349115
45861		12.476510	2.205597	29.313467
45862		12.149618	2.235415	29.275226
45863		11.774139	2.287761	29.235131
45864		11.403950	2.352077	29.202631
45865		11.081703	2.424657	29.179421
45866		10.832471	2.498841	29.166357
45867		10.665116	2.578266	29.164537
45868		10.560369	2.660219	29.168625
45869		10.479458	2.748921	29.178067
45870		10.423571	2.845295	29.188225
45871		10.367747	2.947991	29.182029
45872		10.308627	3.029759	29.169809
45873		10.144938	3.125911	29.165298
45874		9.899776	3.221578	29.181964
45875		9.605888	3.344106	29.225327
45876		9.241523	3.502097	29.273119
45877		8.886241	3.677720	29.314290
45878		8.630121	3.849562	29.345794
45879		8.436774	4.033876	29.370363
45880		8.268431	4.235895	29.386003
45881		8.114612	4.439414	29.402138
45882		7.970153	4.649924	29.421070
45883		7.880237	4.852849	29.448037
45884		7.842346	5.048693	29.481358
45885		7.870530	5.244584	29.525863
45886		7.946654	5.438797	29.577695
45887		8.005315	5.637158	29.640904
45888		7.968457	5.822258	29.688097
45889		7.892817	5.999630	29.738635
45890		7.779261	6.166679	29.775071
45891		7.688354	6.338135	29.804886
45892		7.604531	6.523589	29.824820
45893		7.581536	6.719508	29.832539
45894		7.611233	6.929126	29.831652
45895		7.666984	7.148144	29.820822
45896		7.734255	7.371592	29.791406
45897		7.770248	7.586116	29.736392
45898		7.735483	7.800577	29.655347
45899		7.631827	8.014116	29.551880
45900		7.498478	8.212421	29.428011
45901		7.378187	8.390796	29.291898
45902		7.292246	8.539095	29.149618
45903		7.240365	8.665572	28.999816
45904		7.209419	8.771118	28.839158
45905		7.157954	8.875012	28.661589
45906		7.049943	8.993000	28.471108
45907		6.899082	9.133354	28.268563
45908		6.742129	9.289738	28.053231
45909		6.598394	9.461529	27.829483
45910		6.477989	9.640173	27.600309
45911		6.385800	9.816703	27.369699
45912		6.331261	9.991381	27.140234
45913		6.293691	10.155696	26.904355
45914		6.210777	10.302591	26.657518
45915		6.065598	10.434316	26.402400
45916		5.892226	10.562738	26.137743
45917		5.732614	10.684276	25.864485
45918		5.586369	10.804043	25.571551
45919		5.447866	10.938642	25.259994
45920		5.324369	11.085407	24.930522
45921		5.231155	11.242735	24.588707
45922		5.170485	11.404970	24.238358
45923		5.128768	11.567962	23.888602
45924		5.106202	11.728431	23.548098
45925		5.070038	11.894420	23.212431
45926		4.980111	12.063692	22.874937
45927		4.836600	12.226160	22.537698
45928		4.638321	12.387000	22.203867
45929		4.409519	12.551798	21.869155
45930		4.184384	12.718511	21.532145
45931		3.987636	12.887504	21.200522
45932		3.819147	13.053418	20.874100
45933		3.683408	13.214044	20.561517
45934		3.549427	13.378224	20.257838
45935		3.412525	13.551364	19.964680
45936		3.287573	13.729688	19.681885
45937		3.183356	13.910333	19.408527
45938		3.067001	14.091668	19.136408
45939		2.911836	14.275578	18.866254
45940		2.700510	14.453578	18.591198
45941		2.448042	14.629828	18.318039
45942		2.161708	14.804782	18.046748
45943		1.872511	14.977350	17.779856
45944		1.596612	15.146501	17.525600
45945		1.328851	15.314810	17.275066
45946		1.065527	15.479599	17.027294
45947		0.807812	15.643892	16.785884
45948		0.562733	15.802623	16.551835
45949		0.340255	15.952266	16.326670
45950		0.142992	16.095863	16.112010
45951		-0.026641	16.230255	15.902997
45952		-0.160072	16.349375	15.702589
45953		-0.254640	16.458833	15.513460
45954		-0.309373	16.555103	15.343310
45955		-0.326861	16.635242	15.203666
45956		-0.317605	16.712081	15.090352
45957		-0.305911	16.780798	14.995039
45958		-0.296689	16.839491	14.923823
45959		-0.327031	16.883279	14.873281
45960		-0.390819	16.913077	14.837772
45961		-0.483607	16.934086	14.819714
45962		-0.568818	16.946660	14.811316
45963		-0.643067	16.962005	14.816633
45964		-0.712346	16.987598	14.825104
45965		-0.752830	17.014480	14.831335
45966		-0.769373	17.036956	14.837242
45967		-0.800880	17.058676	14.837487
45968		-0.847333	17.074356	14.832858
45969		-0.887897	17.079055	14.830239
45970		-0.899566	17.072171	14.835534
45971		-0.900594	17.054240	14.840464
45972		-0.913012	17.033627	14.844233
45973		-0.935610	17.019689	14.851348
45974		-0.956284	17.011107	14.859477
45975		-0.969716	17.000871	14.868067
45976		-0.958084	16.983325	14.880777
45977		-0.912077	16.967546	14.896097
45978		-0.827484	16.959567	14.915075
45979		-0.722057	16.962591	14.936420
45980		-0.564396	16.983501	14.962192
45981		-0.358393	17.023867	14.993576
45982		-0.121808	17.073606	15.024862
45983		0.103608	17.126439	15.053359
45984		0.283435	17.184293	15.074610
45985		0.362228	17.235134	15.099809
45986		0.389268	17.300057	15.125574
45987		0.359071	17.353466	15.156714
45988		0.318289	17.405664	15.184998
45989		0.229208	17.459599	15.196620
45990		0.204410	17.512373	15.207393
45991		0.193948	17.551431	15.227908
45992		0.162875	17.597426	15.216026
45993		0.113403	17.633721	15.177046
45994		0.059462	17.661664	15.120342
45995		-0.013416	17.695514	15.048221
45996		-0.101644	17.737734	14.977631
45997		-0.190092	17.786966	14.918288
45998		-0.279600	17.841197	14.864438
45999		-0.360089	17.895306	14.819617
46000		-0.430445	17.953848	14.776415
46001		-0.489584	18.012212	14.731826
46002		-0.537045	18.072442	14.681951
46003		-0.564491	18.132259	14.620123
46004		-0.572893	18.196686	14.550692
46005		-0.567459	18.267439	14.470052
46006		-0.547986	18.342647	14.389863
46007		-0.498380	18.420852	14.304889
46008		-0.391854	18.502426	14.221717
46009		-0.242285	18.580991	14.141336
46010		-0.065681	18.662463	14.058136
46011		0.138703	18.755479	13.976156
46012		0.397519	18.853573	13.902339
46013		0.689164	18.956235	13.828763
46014		1.006967	19.049957	13.764269
46015		1.351638	19.134382	13.725339
46016		1.667519	19.215570	13.686116
46017		2.003125	19.280993	13.648359
46018		2.413415	19.330070	13.620678
46019		2.884068	19.369468	13.598024
46020		3.358938	19.402702	13.570962
46021		3.827779	19.432512	13.544906
46022		4.272773	19.458365	13.525913
46023		4.704342	19.473220	13.503373
46024		5.124234	19.484041	13.474318
46025		5.493264	19.491047	13.439647
46026		5.751279	19.495811	13.394323
46027		5.863273	19.495196	13.324622
46028		5.872785	19.494734	13.230263
46029		5.865129	19.484949	13.139284
46030		5.887148	19.462514	13.068180
46031		5.878832	19.424254	13.003869
46032		5.823375	19.379867	12.944662
46033		5.708199	19.330327	12.885929
46034		5.583796	19.295516	12.826648
46035		5.473673	19.274262	12.755552
46036		5.433347	19.276778	12.667562
46037		5.484742	19.294727	12.565983
46038		5.626471	19.310953	12.478100
46039		5.854655	19.323410	12.431145
46040		5.977740	19.290927	12.370999
46041		6.144419	19.215261	12.342183
46042		6.175002	19.118027	12.338707
46043		6.061261	19.076500	12.304082
46044		5.895287	19.059537	12.252077
46045		5.767851	19.041251	12.200989
46046		5.697856	19.017527	12.154760
46047		5.680031	18.991597	12.122898
46048		5.648079	18.963081	12.087947
46049		5.605365	18.922645	12.064730
46050		5.498304	18.881363	12.048284
46051		5.358627	18.847699	12.027994
46052		5.244975	18.822837	12.014220
46053		5.185894	18.796498	11.999235
46054		5.186199	18.770096	11.974679
46055		5.183367	18.743199	11.957503
46056		5.137803	18.728476	11.939022
46057		5.079085	18.717351	11.918418
46058		5.031736	18.710420	11.913702
46059		4.941002	18.705420	11.911317
46060		4.818170	18.692712	11.879945
46061		4.693402	18.693096	11.843254
46062		4.621292	18.698064	11.798539
46063		4.666310	18.693130	11.774202
46064		4.694656	18.700188	11.744425
46065		4.681000	18.726973	11.710014
46066		4.710596	18.736698	11.682684
46067		4.705229	18.747921	11.666703
46068		4.653729	18.763214	11.639302
46069		4.584418	18.775933	11.614181
46070		4.528071	18.794016	11.577464
46071		4.489355	18.802888	11.558439
46072		4.466942	18.803197	11.547416
46073		4.451016	18.793239	11.540856
46074		4.432289	18.777921	11.543709
46075		4.411756	18.756792	11.551252
46076		4.393273	18.739386	11.550641
46077		4.377107	18.723833	11.555872
46078		4.359408	18.713659	11.558812
46079		4.341577	18.705834	11.564327
46080		4.311512	18.699644	11.567478
46081		4.254505	18.699687	11.565634
46082		4.183593	18.707640	11.562166
46083		4.134773	18.711465	11.562927
46084		4.128372	18.709026	11.569099
46085		4.159779	18.706108	11.574478
46086		4.195729	18.713589	11.576078
46087		4.206529	18.728177	11.576632
46088		4.187377	18.745286	11.572528
46089		4.144298	18.763929	11.563325
46090		4.088217	18.784139	11.549292
46091		4.036920	18.809485	11.531642
46092		3.992821	18.834015	11.509376
46093		3.961140	18.860162	11.489866
46094		3.938649	18.891515	11.463758
46095		3.922606	18.921295	11.439160
46096		3.904291	18.949175	11.412305
46097		3.896117	18.971899	11.391101
46098		3.899098	18.993509	11.373427
46099		3.904647	19.014461	11.363986
46100		3.892829	19.039036	11.347245
46101		3.881286	19.058037	11.335242
46102		3.885475	19.071362	11.331610
46103		3.898999	19.079501	11.327638
46104		3.916505	19.086846	11.319249
46105		3.927487	19.092592	11.309386
46106		3.916644	19.104605	11.297363
46107		3.895799	19.117520	11.281607
46108		3.877548	19.136251	11.267144
46109		3.879557	19.152511	11.254336
46110		3.892235	19.166927	11.238719
46111		3.915950	19.177106	11.223127
46112		3.937747	19.184274	11.210812
46113		3.933273	19.193310	11.197207
46114		3.904845	19.206084	11.190005
46115		3.861075	19.221138	11.195711
46116		3.816788	19.234376	11.211254
46117		3.778950	19.245660	11.234180
46118		3.807444	19.256717	11.276763
46119		3.835026	19.262826	11.318398
46120		3.908226	19.266084	11.395106
46121		3.986907	19.275008	11.481805
46122		4.047107	19.283556	11.583453
46123		4.108394	19.296490	11.695899
46124		4.186303	19.303623	11.826299
46125		4.312839	19.295802	11.968047
46126		4.477153	19.275400	12.119751
46127		4.646878	19.253343	12.281468
46128		4.797940	19.200723	12.445338
46129		4.953217	19.136818	12.624013
46130		5.075032	19.062898	12.803392
46131		5.217467	18.973319	12.993280
46132		5.398291	18.859559	13.202126
46133		5.594239	18.731207	13.429086
46134		5.785051	18.598587	13.671011
46135		5.951179	18.462001	13.933375
46136		6.053231	18.328533	14.201720
46137		6.095315	18.193059	14.472836
46138		6.116843	18.049601	14.749224
46139		6.148016	17.897422	15.028562
46140		6.220902	17.727511	15.301301
46141		6.349596	17.540039	15.579475
46142		6.525387	17.339381	15.863402
46143		6.709537	17.126844	16.150497
46144		6.866389	16.908814	16.442508
46145		6.976208	16.690535	16.743173
46146		7.034309	16.475412	17.054787
46147		7.045765	16.252853	17.375997
46148		7.027342	16.018771	17.697866
46149		7.004854	15.771268	18.026008
46150		6.973568	15.522716	18.345124
46151		6.967797	15.254677	18.653884
46152		6.997995	14.981064	18.954566
46153		7.040926	14.710197	19.252887
46154		7.074086	14.457523	19.546964
46155		7.092252	14.216492	19.842970
46156		7.055559	14.002953	20.135776
46157		6.957496	13.809422	20.413760
46158		6.832937	13.629685	20.680930
46159		6.713528	13.459231	20.936548
46160		6.616162	13.296744	21.182584
46161		6.525579	13.142566	21.421228
46162		6.425345	13.001603	21.650459
46163		6.333643	12.871903	21.867128
46164		6.250367	12.760314	22.081910
46165		6.179014	12.653229	22.297443
46166		6.122425	12.556732	22.512451
46167		6.056706	12.467847	22.724218
46168		5.988947	12.385450	22.924012
46169		5.921045	12.307919	23.106324
46170		5.865178	12.236639	23.278253
46171		5.822151	12.160960	23.437362
46172		5.793326	12.095257	23.590360
46173		5.771460	12.040971	23.734901
46174		5.743857	11.998107	23.875117
46175		5.703620	11.950833	24.003804
46176		5.659129	11.902919	24.126145
46177		5.611011	11.854163	24.244064
46178		5.568539	11.805196	24.354353
46179		5.543369	11.759738	24.461664
46180		5.517039	11.713869	24.568262
46181		5.485523	11.669243	24.672762
46182		5.451858	11.626553	24.787847
46183		5.412603	11.580393	24.908310
46184		5.376257	11.541590	25.036445
46185		5.342221	11.502191	25.170018
46186		5.315363	11.466941	25.309366
46187		5.276662	11.420125	25.449967
46188		5.229811	11.363020	25.588136
46189		5.181771	11.302888	25.729440
46190		5.154217	11.237915	25.875622
46191		5.135866	11.156500	26.030655
46192		5.123315	11.075271	26.191539
46193		5.110075	10.990189	26.357256
46194		5.086872	10.906937	26.525848
46195		5.045983	10.817713	26.691048
46196		5.003868	10.728923	26.852568
46197		4.961992	10.637163	27.009454
46198		4.936006	10.540899	27.159466
46199		4.931900	10.450051	27.309640
46200		4.956448	10.347083	27.459392
46201		5.006368	10.226382	27.611075
46202		5.081123	10.106641	27.763820
46203		5.190990	9.969069	27.916827
46204		5.344413	9.823113	28.073711
46205		5.519044	9.662925	28.232957
46206		5.734248	9.484788	28.398244
46207		6.013914	9.290146	28.578680
46208		6.305206	9.084682	28.767359
46209		6.603881	8.861310	28.964668
46210		6.887560	8.620975	29.160070
46211		7.123054	8.370402	29.354527
46212		7.278038	8.126428	29.538793
46213		7.359916	7.875304	29.700743
46214		7.427812	7.623661	29.854341
46215		7.486615	7.366743	29.999841
46216		7.571831	7.104844	30.153957
46217		7.649625	6.849592	30.304422
46218		7.730208	6.602411	30.446187
46219		7.815469	6.369603	30.583737
46220		7.905473	6.152054	30.709094
46221		8.013834	5.950051	30.837720
46222		8.162415	5.737710	30.972817
46223		8.468583	5.512206	31.119123
46224		8.696678	5.397743	31.263703
46225		8.826047	5.331437	31.347064
46226		9.069770	5.205564	31.435063
46227		9.345179	5.092589	31.528141
46228		9.542535	4.988070	31.626883
46229		9.421126	4.920276	31.688644
46230		9.272118	4.842399	31.734118
46231		9.166089	4.752332	31.774909
46232		9.253281	4.646605	31.826842
46233		9.398721	4.525044	31.873601
46234		9.560226	4.426087	31.912223
46235		9.726243	4.331670	31.931420
46236		9.919465	4.243059	31.928227
46237		10.029175	4.178505	31.912736
46238		10.242786	4.090807	31.887940
46239		10.411103	4.016534	31.853158
46240		10.530945	3.936834	31.813313
46241		10.589369	3.859594	31.767344
46242		10.602891	3.785022	31.724646
46243		10.595493	3.720848	31.686003
46244		10.571529	3.671267	31.653361
46245		10.530618	3.633313	31.630654
46246		10.508294	3.605898	31.625751
46247		10.496264	3.585804	31.627733
46248		10.477495	3.572458	31.635506
46249		10.443209	3.564053	31.651101
46250		10.397313	3.559513	31.672242
46251		10.339523	3.556580	31.693341
46252		10.283980	3.550960	31.725590
46253		10.230803	3.546311	31.759369
46254		10.187066	3.538532	31.792430
46255		10.169612	3.528209	31.823813
46256		10.174055	3.518313	31.853339
46257		10.198086	3.507719	31.880764
46258		10.220441	3.491242	31.904643
46259		10.237232	3.467619	31.929154
46260		10.247432	3.444571	31.943585
46261		10.185177	3.425402	31.943108
46262		10.111944	3.406724	31.926395
46263		10.073088	3.381275	31.902548
46264		10.047281	3.353535	31.877129
46265		10.030585	3.323960	31.849868
46266		10.015712	3.300744	31.820759
46267		10.023995	3.279720	31.785485
46268		10.046056	3.270936	31.751884
46269		10.074626	3.257732	31.708530
46270		10.084596	3.243795	31.659798
46271		10.102220	3.239081	31.606217
46272		10.129686	3.222038	31.549535
46273		10.159963	3.198581	31.502947
46274		10.180549	3.183506	31.469887
46275		10.224009	3.167435	31.437390
46276		10.207325	3.131984	31.386727
46277		10.270746	3.111627	31.346333
46278		10.304124	3.063967	31.330284
46279		10.368990	3.032784	31.320185
46280		10.579773	2.986160	31.330754
46281		10.831436	2.947688	31.354101
46282		10.991887	2.924545	31.373814
46283		11.058685	2.912249	31.396692
46284		11.128787	2.892237	31.418662
46285		11.236130	2.854427	31.430247
46286		11.403905	2.801024	31.436529
46287		11.575473	2.752916	31.434650
46288		11.743759	2.710823	31.441963
46289		11.892846	2.674732	31.456181
46290		12.071098	2.625012	31.469304
46291		12.306484	2.580398	31.489303
46292		12.602149	2.540158	31.518155
46293		12.898414	2.490186	31.526044
46294		13.229838	2.420748	31.536517
46295		13.601202	2.341111	31.557361
46296		14.005059	2.251942	31.570244
46297		14.434828	2.156614	31.584993
46298		14.845087	2.066549	31.586192
46299		15.182422	1.972594	31.564887
46300		15.479856	1.858870	31.533998
46301		15.710731	1.736269	31.482441
46302		15.987456	1.618227	31.415527
46303		16.393445	1.517969	31.363826
46304		16.825013	1.412681	31.295342
46305		17.212157	1.290576	31.267412
46306		17.378500	1.181930	31.217891
46307		17.408880	1.089409	31.158274
46308		17.366785	1.007804	31.108852
46309		17.278406	0.935950	31.073254
46310		17.170983	0.867480	31.050842
46311		17.046970	0.807220	31.042458
46312		16.940850	0.755078	31.039434
46313		16.889135	0.708321	31.042437
46314		16.888001	0.668327	31.050623
46315		16.908594	0.630730	31.074289
46316		16.900573	0.609817	31.120584
46317		16.752325	0.603550	31.168329
46318		16.572003	0.607787	31.208631
46319		16.402498	0.626786	31.251778
46320		16.231070	0.651191	31.286216
46321		16.063101	0.666714	31.309369
46322		15.928352	0.684473	31.317841
46323		15.875570	0.703388	31.320046
46324		15.870132	0.721884	31.319679
46325		15.894097	0.741755	31.319599
46326		15.928075	0.762297	31.322968
46327		15.953291	0.778962	31.325023
46328		15.965640	0.794695	31.329270
46329		15.938788	0.809795	31.334174
46330		15.897059	0.821050	31.336162
46331		15.859224	0.828388	31.336135
46332		15.828854	0.820847	31.324785
46333		15.815893	0.804035	31.305901
46334		15.815897	0.787652	31.287647
46335		15.841776	0.769111	31.271147
46336		15.874795	0.751273	31.259626
46337		15.891245	0.740462	31.250835
46338		15.883213	0.733740	31.244810
46339		15.857630	0.739581	31.244324
46340		15.821961	0.750283	31.247359
46341		15.779660	0.762618	31.257007
46342		15.748777	0.774329	31.267899
46343		15.739664	0.787569	31.285871
46344		15.743191	0.799784	31.308027
46345		15.741845	0.816132	31.329280
46346		15.744046	0.834577	31.351374
46347		15.750204	0.859426	31.369524
46348		15.744137	0.889479	31.389442
46349		15.725055	0.922164	31.410774
46350		15.711619	0.956168	31.428758
46351		15.710972	0.990884	31.439946
46352		15.723986	1.023940	31.450301
46353		15.741020	1.055881	31.462817
46354		15.746655	1.084920	31.471439
46355		15.711741	1.121543	31.472809
46356		15.693432	1.167226	31.475753
46357		15.708990	1.216844	31.492630
46358		15.762054	1.267731	31.523276
46359		15.844102	1.328228	31.571362
46360		15.924828	1.396873	31.629696
46361		15.962597	1.470550	31.692788
46362		15.969307	1.534767	31.761310
46363		15.949122	1.592986	31.840509
46364		15.918350	1.649952	31.926819
46365		15.896777	1.708736	32.022154
46366		15.879738	1.770045	32.123003
46367		15.876610	1.827859	32.228701
46368		15.872519	1.894409	32.332521
46369		15.884634	1.951687	32.446007
46370		15.803183	1.979788	32.575544
46371		15.739863	2.041741	32.666303
46372		15.681396	2.109426	32.775853
46373		15.644824	2.166255	32.876465
46374		15.589329	2.228962	32.964110
46375		15.519569	2.292825	33.048379
46376		15.411769	2.357301	33.129355
46377		15.244895	2.441042	33.197021
46378		15.091750	2.523513	33.253065
46379		14.949676	2.611217	33.296413
46380		14.823372	2.706489	33.337334
46381		14.711619	2.808797	33.369792
46382		14.602693	2.919052	33.398190
46383		14.477821	3.042989	33.420010
46384		14.332418	3.180165	33.439025
46385		14.169309	3.328700	33.458644
46386		14.020764	3.475214	33.484080
46387		13.901191	3.612878	33.516887
46388		13.790148	3.745813	33.551236
46389		13.707204	3.882933	33.589550
46390		13.678308	4.027099	33.628815
46391		13.714883	4.174132	33.668345
46392		13.770326	4.329055	33.698450
46393		13.846850	4.493260	33.681704
46394		14.005469	4.641346	33.629372
46395		14.187308	4.765240	33.590345
46396		14.325473	4.906812	33.582335
46397		14.460918	5.051178	33.605153
46398		14.569815	5.260097	33.641581
46399		14.695695	5.501514	33.655535
46400		14.880500	5.750954	33.655322
46401		15.042413	6.023877	33.645515
46402		15.137569	6.304382	33.606013
46403		15.161453	6.561558	33.555890
46404		15.082663	6.821343	33.505716
46405		14.955024	7.073500	33.458323
46406		14.809644	7.323248	33.405596
46407		14.692038	7.567119	33.349392
46408		14.588001	7.797453	33.276635
46409		14.471818	8.010184	33.185437
46410		14.270667	8.230893	33.062486
46411		14.033003	8.440482	32.911717
46412		13.776731	8.643281	32.739179
46413		13.519181	8.843261	32.536636
46414		13.269026	9.038366	32.319012
46415		13.035438	9.225089	32.082823
46416		12.824912	9.405572	31.835773
46417		12.633017	9.578554	31.582021
46418		12.453829	9.746058	31.323007
46419		12.274349	9.915149	31.052685
46420		12.095157	10.080614	30.771005
46421		11.900190	10.236355	30.469562
46422		11.708101	10.382534	30.144155
46423		11.549630	10.520890	29.796992
46424		11.449834	10.658698	29.446788
46425		11.380291	10.812523	29.107098
46426		11.317943	10.974457	28.783969
46427		11.248741	11.137775	28.467553
46428		11.166809	11.297816	28.160689
46429		11.095511	11.450919	27.845883
46430		11.053733	11.601777	27.530372
46431		11.041883	11.747377	27.205913
46432		11.042701	11.885912	26.879689
46433		11.034852	12.028470	26.555120
46434		11.016662	12.172590	26.234947
46435		10.989861	12.315314	25.914399
46436		10.950968	12.456644	25.597760
46437		10.898580	12.593927	25.280622
46438		10.835387	12.727446	24.968279
46439		10.783631	12.856930	24.664595
46440		10.729617	12.982288	24.366289
46441		10.650584	13.105571	24.064810
46442		10.548884	13.232666	23.761784
46443		10.436831	13.360967	23.456760
46444		10.309496	13.488490	23.145948
46445		10.187134	13.609951	22.836222
46446		10.080188	13.735472	22.533436
46447		9.978565	13.860226	22.235962
46448		9.862453	13.981640	21.940421
46449		9.731277	14.112382	21.651251
46450		9.572072	14.252694	21.366213
46451		9.387466	14.399293	21.086199
46452		9.204948	14.548818	20.815297
46453		9.056779	14.700554	20.557994
46454		8.943023	14.850095	20.315848
46455		8.840756	15.001169	20.092889
46456		8.718324	15.153417	19.888551
46457		8.523955	15.302791	19.695659
46458		8.268980	15.457978	19.515042
46459		7.978347	15.612933	19.344010
46460		7.695349	15.766017	19.174167
46461		7.452951	15.915968	19.006844
46462		7.242761	16.058554	18.846398
46463		7.039121	16.195719	18.692460
46464		6.825331	16.329667	18.543529
46465		6.585709	16.460370	18.402257
46466		6.329363	16.585989	18.252329
46467		6.098494	16.709044	18.106433
46468		5.901226	16.820093	17.959756
46469		5.752394	16.921284	17.810814
46470		5.659281	17.016797	17.657118
46471		5.608569	17.103177	17.498522
46472		5.579918	17.184213	17.339875
46473		5.560608	17.256289	17.183210
46474		5.522158	17.321411	17.035008
46475		5.438729	17.386010	16.894568
46476		5.309667	17.442603	16.748800
46477		5.175066	17.506078	16.612248
46478		5.057418	17.569265	16.474900
46479		4.978153	17.628258	16.338987
46480		4.946134	17.687119	16.207493
46481		4.957277	17.744872	16.081245
46482		4.980393	17.803116	15.952393
46483		4.959843	17.862661	15.813437
46484		4.886853	17.930634	15.669220
46485		4.771186	18.002071	15.524075
46486		4.643324	18.070388	15.378615
46487		4.535610	18.140450	15.242686
46488		4.444162	18.209279	15.119624
46489		4.359959	18.274960	15.009981
46490		4.287694	18.339901	14.917137
46491		4.222507	18.406704	14.847278
46492		4.177337	18.471754	14.800658
46493		4.136982	18.528182	14.761537
46494		4.099136	18.577611	14.725917
46495		4.092419	18.615578	14.704223
46496		4.024564	18.642671	14.673717
46497		3.965196	18.659181	14.673350
46498		3.866213	18.674151	14.679908
46499		3.743553	18.678796	14.703140
46500		3.621554	18.676784	14.731207
46501		3.523916	18.661375	14.760759
46502		3.476736	18.643832	14.790701
46503		3.471019	18.635820	14.829266
46504		3.468216	18.632410	14.867490
46505		3.462327	18.632296	14.907408
46506		3.427868	18.634525	14.945221
46507		3.357567	18.643139	14.967863
46508		3.275005	18.656120	14.975028
46509		3.189389	18.667077	14.980125
46510		3.103467	18.684072	14.980902
46511		3.016922	18.703895	14.972476
46512		2.969243	18.725735	14.959784
46513		2.985025	18.752820	14.947724
46514		3.059066	18.786410	14.933335
46515		3.171587	18.810660	14.914216
46516		3.287101	18.836922	14.886507
46517		3.367840	18.869389	14.846884
46518		3.424572	18.902729	14.796126
46519		3.495121	18.936258	14.746464
46520		3.590435	18.974762	14.705736
46521		3.704082	19.017454	14.667906
46522		3.807486	19.074737	14.639333
46523		3.892334	19.129451	14.616913
46524		3.965960	19.181395	14.593276
46525		4.035734	19.226960	14.577328
46526		4.112920	19.274169	14.566722
46527		4.207510	19.313923	14.564181
46528		4.342690	19.353094	14.568984
46529		4.535222	19.381790	14.576196
46530		4.801778	19.402004	14.586190
46531		5.094243	19.412761	14.589686
46532		5.355412	19.424917	14.580885
46533		5.555597	19.441775	14.565882
46534		5.688533	19.465975	14.555705
46535		5.777649	19.489098	14.541212
46536		5.833152	19.510341	14.524078
46537		5.859231	19.533185	14.502474
46538		5.886147	19.554867	14.483806
46539		5.936132	19.567432	14.470883
46540		6.027066	19.577987	14.464304
46541		6.167508	19.594102	14.456913
46542		6.345057	19.620605	14.465597
46543		6.545722	19.653461	14.476849
46544		6.803469	19.690063	14.493076
46545		7.079264	19.732068	14.515045
46546		7.322269	19.777993	14.534883
46547		7.504731	19.820436	14.542658
46548		7.635463	19.844093	14.555477
46549		7.674032	19.840558	14.569240
46550		7.641906	19.817691	14.587193
46551		7.535844	19.803012	14.608022
46552		7.381896	19.792986	14.622849
46553		7.204526	19.778486	14.626325
46554		7.032433	19.757921	14.619170
46555		6.862998	19.731320	14.606449
46556		6.689449	19.700584	14.584436
46557		6.522886	19.664462	14.558372
46558		6.350769	19.619596	14.526818
46559		6.190703	19.564649	14.494834
46560		6.050534	19.510106	14.468552
46561		5.913286	19.465970	14.439113
46562		5.778629	19.439778	14.396964
46563		5.672841	19.414069	14.349700
46564		5.592660	19.384356	14.303428
46565		5.518468	19.356336	14.253191
46566		5.454858	19.335042	14.215506
46567		5.388500	19.320218	14.187095
46568		5.336545	19.307953	14.164316
46569		5.278375	19.310265	14.141701
46570		5.216945	19.334453	14.123765
46571		5.140846	19.381870	14.099569
46572		5.085754	19.445627	14.095768
46573		5.032256	19.498936	14.105889
46574		4.938491	19.541905	14.109242
46575		4.819835	19.587979	14.116822
46576		4.695718	19.623966	14.119403
46577		4.599557	19.647332	14.122541
46578		4.557740	19.670215	14.128041
46579		4.567283	19.682571	14.130193
46580		4.604218	19.677680	14.131944
46581		4.633927	19.648022	14.128011
46582		4.668774	19.581864	14.127796
46583		4.698765	19.509749	14.129607
46584		4.717325	19.446837	14.128691
46585		4.730469	19.401590	14.134057
46586		4.731960	19.370492	14.142693
46587		4.743414	19.336882	14.156008
46588		4.759580	19.306340	14.168172
46589		4.790463	19.272347	14.177335
46590		4.835575	19.239447	14.180628
46591		4.889754	19.211907	14.184045
46592		4.910558	19.194160	14.180820
46593		4.885561	19.184831	14.173243
46594		4.816319	19.185731	14.159515
46595		4.724312	19.189925	14.139618
46596		4.648980	19.196011	14.123715
46597		4.597974	19.203805	14.108240
46598		4.586784	19.206939	14.099142
46599		4.603505	19.209544	14.097667
46600		4.627183	19.214305	14.096969
46601		4.627221	19.220460	14.093950
46602		4.607878	19.227166	14.086701
46603		4.575587	19.231551	14.076333
46604		4.547435	19.243251	14.064506
46605		4.530982	19.254839	14.050153
46606		4.526801	19.270150	14.036032
46607		4.526665	19.287156	14.022763
46608		4.528970	19.302286	14.015543
46609		4.536750	19.312392	14.010697
46610		4.544522	19.316849	14.006593
46611		4.542241	19.318118	14.003650
46612		4.533379	19.319247	14.001824
46613		4.522480	19.316127	14.000505
46614		4.519692	19.311957	14.011463
46615		4.528361	19.302953	14.023593
46616		4.561430	19.285804	14.040759
46617		4.627116	19.254368	14.081447
46618		4.715039	19.214495	14.134076
46619		4.818785	19.156950	14.205231
46620		4.908117	19.094004	14.298663
46621		4.969289	19.016290	14.406870
46622		5.011279	18.933086	14.546824
46623		5.019734	18.835574	14.725399
46624		5.023058	18.712248	14.919408
46625		5.065927	18.571078	15.150768
46626		5.187707	18.442196	15.442103
46627		5.297633	18.265400	15.755465
46628		5.412851	18.092543	16.103280
46629		5.332741	17.936838	16.456885
46630		5.222526	17.770523	16.786765
46631		5.192964	17.597848	17.145965
46632		5.198082	17.425782	17.503192
46633		5.228502	17.252963	17.851813
46634		5.286462	17.072381	18.189932
46635		5.384719	16.884426	18.531013
46636		5.481411	16.700638	18.870280
46637		5.538680	16.521911	19.225868
46638		5.531575	16.340526	19.585383
46639		5.472079	16.155058	19.972673
46640		5.340797	15.968536	20.374612
46641		5.191026	15.775787	20.788410
46642		5.043317	15.583378	21.204649
46643		4.925551	15.382791	21.612970
46644		4.841270	15.172349	22.015056
46645		4.792173	14.960579	22.408399
46646		4.791048	14.731370	22.792875
46647		4.823519	14.467764	23.175725
46648		4.846805	14.192899	23.543152
46649		4.848377	13.901811	23.899578
46650		4.809622	13.600330	24.241483
46651		4.717029	13.302323	24.568520
46652		4.588974	13.015687	24.879037
46653		4.459506	12.741886	25.178009
46654		4.342840	12.486914	25.480327
46655		4.235818	12.243864	25.776138
46656		4.157134	12.029220	26.071229
46657		4.096736	11.836119	26.362467
46658		4.045646	11.647358	26.642496
46659		4.010060	11.479937	26.912265
46660		3.996327	11.339191	27.171184
46661		3.973271	11.230896	27.421610
46662		3.958989	11.141548	27.663171
46663		3.931235	11.069177	27.899494
46664		3.881145	11.022963	28.118120
46665		3.808652	10.995584	28.317462
46666		3.744909	10.981332	28.501000
46667		3.714880	10.974168	28.674038
46668		3.706076	10.968793	28.838629
46669		3.713318	10.968797	28.992168
46670		3.729301	10.981616	29.140807
46671		3.741848	10.994845	29.282530
46672		3.755429	11.012202	29.417272
46673		3.767847	11.034206	29.545060
46674		3.786111	11.056592	29.672589
46675		3.785309	11.074403	29.789684
46676		3.769361	11.088184	29.903269
46677		3.760475	11.098526	30.019748
46678		3.734798	11.109945	30.129882
46679		3.698434	11.109433	30.236534
46680		3.672316	11.097335	30.338059
46681		3.655597	11.073370	30.435133
46682		3.652264	11.035468	30.528093
46683		3.639151	10.989469	30.615235
46684		3.609317	10.936025	30.692873
46685		3.571088	10.874902	30.774487
46686		3.529957	10.799690	30.858246
46687		3.499821	10.708974	30.945348
46688		3.494634	10.610516	31.035645
46689		3.482498	10.503139	31.123958
46690		3.482427	10.393295	31.212691
46691		3.461206	10.284153	31.286162
46692		3.444381	10.175002	31.349632
46693		3.462141	10.055660	31.413684
46694		3.490938	9.921668	31.478401
46695		3.530531	9.783098	31.543180
46696		3.577084	9.647246	31.609747
46697		3.628503	9.492876	31.679958
46698		3.673583	9.333475	31.757598
46699		3.689916	9.174024	31.834518
46700		3.658180	9.019212	31.901928
46701		3.605099	8.867567	31.965114
46702		3.550692	8.722768	32.026035
46703		3.524663	8.575927	32.090246
46704		3.530936	8.430204	32.159455
46705		3.569243	8.276768	32.235208
46706		3.618527	8.122159	32.316970
46707		3.670230	7.968079	32.398070
46708		3.706428	7.815272	32.483601
46709		3.732600	7.659216	32.569958
46710		3.705505	7.513179	32.660645
46711		3.581834	7.410023	32.737152
46712		3.413733	7.342478	32.797304
46713		3.292640	7.284149	32.834380
46714		3.324824	7.200048	32.886992
46715		3.372609	7.126597	32.928207
46716		3.431044	7.056043	32.959744
46717		3.461149	6.990051	32.979732
46718		3.538522	6.909659	32.995314
46719		3.637335	6.813590	33.012161
46720		3.767297	6.714308	33.037664
46721		3.913502	6.613334	33.067199
46722		4.076267	6.521863	33.101579
46723		4.211834	6.442250	33.131156
46724		4.325078	6.367050	33.159931
46725		4.453532	6.298556	33.184464
46726		4.614652	6.216775	33.198624
46727		4.780619	6.133579	33.213925
46728		4.935823	6.042389	33.236403
46729		5.074115	5.957782	33.273312
46730		5.205482	5.881985	33.319874
46731		5.337633	5.815361	33.377570
46732		5.455149	5.760261	33.438324
46733		5.544798	5.712395	33.495525
46734		5.598602	5.681448	33.542664
46735		5.632846	5.659072	33.582538
46736		5.657513	5.641952	33.610603
46737		5.674157	5.623326	33.627756
46738		5.717980	5.604897	33.632299
46739		5.794516	5.587832	33.634382
46740		5.877060	5.569989	33.629355
46741		5.963345	5.561751	33.611405
46742		6.062430	5.565664	33.594084
46743		6.145556	5.573503	33.575251
46744		6.193120	5.589341	33.556725
46745		6.188733	5.610771	33.542131
46746		6.139576	5.638019	33.527036
46747		6.095775	5.659201	33.516936
46748		6.054290	5.681082	33.509197
46749		6.039566	5.706339	33.506513
46750		6.057871	5.736350	33.509351
46751		6.097902	5.779144	33.511940
46752		6.155303	5.828623	33.520623
46753		6.210122	5.880600	33.526591
46754		6.257154	5.927035	33.529827
46755		6.308977	5.962772	33.534657
46756		6.344726	5.989443	33.529833
46757		6.374803	6.012799	33.519267
46758		6.403161	6.034042	33.509677
46759		6.415587	6.059642	33.490338
46760		6.426565	6.082556	33.462124
46761		6.436598	6.101020	33.431605
46762		6.443804	6.117123	33.399853
46763		6.444089	6.121158	33.356602
46764		6.429448	6.101736	33.300146
46765		6.460571	6.083482	33.251227
46766		6.499422	6.053981	33.192710
46767		6.536870	6.023398	33.129403
46768		6.571660	5.995102	33.064149
46769		6.639390	5.962959	33.008271
46770		6.720808	5.936914	32.969900
46771		6.786879	5.918972	32.932215
46772		6.839928	5.901568	32.892060
46773		6.896005	5.872992	32.853135
46774		6.942131	5.837521	32.813962
46775		6.989081	5.790944	32.763355
46776		7.057734	5.746514	32.704330
46777		7.130115	5.691622	32.645737
46778		7.197079	5.626917	32.591416
46779		7.260826	5.564115	32.534993
46780		7.373295	5.498147	32.481789
46781		7.531206	5.437263	32.438564
46782		7.718217	5.378095	32.401918
46783		7.870155	5.319350	32.379812
46784		7.960959	5.264117	32.352930
46785		8.074669	5.215731	32.326392
46786		8.201486	5.162755	32.300627
46787		8.335928	5.094392	32.264531
46788		8.485376	5.010029	32.235376
46789		8.629609	4.916916	32.215225
46790		8.759101	4.830134	32.174407
46791		8.923290	4.748513	32.112578
46792		9.123287	4.665604	32.041819
46793		9.395265	4.582986	31.971314
46794		9.791128	4.505450	31.912706
46795		10.303771	4.453945	31.851049
46796		10.961983	4.415108	31.801650
46797		11.735141	4.386700	31.768007
46798		12.548525	4.359317	31.748517
46799		13.383458	4.323847	31.757814
46800		14.106312	4.285737	31.788938
46801		14.638657	4.242109	31.842961
46802		14.888661	4.214461	31.902176
46803		14.828892	4.202236	31.936299
46804		14.655664	4.209170	31.981869
46805		14.466226	4.230421	32.015629
46806		14.341040	4.242316	32.047458
46807		14.275040	4.255614	32.089269
46808		14.270540	4.275000	32.130609
46809		14.330940	4.297001	32.170210
46810		14.442915	4.311404	32.203795
46811		14.584427	4.312525	32.230811
46812		14.706312	4.306202	32.253582
46813		14.756744	4.287231	32.262334
46814		14.733342	4.266644	32.257622
46815		14.691563	4.241427	32.248294
46816		14.653254	4.210252	32.237029
46817		14.617972	4.175076	32.225220
46818		14.595267	4.143648	32.212443
46819		14.585040	4.108773	32.197520
46820		14.594210	4.075028	32.181531
46821		14.612190	4.045887	32.168854
46822		14.634173	4.017682	32.157445
46823		14.638829	3.989797	32.141204
46824		14.624102	3.962301	32.122470
46825		14.596865	3.930523	32.102206
46826		14.550264	3.896540	32.080041
46827		14.482179	3.867387	32.061910
46828		14.408416	3.839272	32.047158
46829		14.348230	3.813756	32.038435
46830		14.305236	3.791760	32.040315
46831		14.285300	3.775267	32.044755
46832		14.282703	3.760789	32.052161
46833		14.290934	3.748002	32.061920
46834		14.290402	3.738858	32.072528
46835		14.265899	3.732456	32.080492
46836		14.228343	3.725183	32.086822
46837		14.193175	3.715500	32.091456
46838		14.154184	3.706197	32.093309
46839		14.118287	3.701175	32.098757
46840		14.084902	3.695548	32.103539
46841		14.042688	3.691257	32.105596
46842		13.987515	3.696418	32.107027
46843		13.932666	3.707243	32.106519
46844		13.884452	3.722158	32.105733
46845		13.838474	3.740831	32.107136
46846		13.796934	3.764141	32.107701
46847		13.762138	3.784202	32.108940
46848		13.737307	3.804548	32.109430
46849		13.717059	3.824514	32.108196
46850		13.674743	3.838802	32.105273
46851		13.598066	3.846200	32.094432
46852		13.512489	3.849826	32.068714
46853		13.444699	3.854299	32.040922
46854		13.418126	3.856899	31.998421
46855		13.417777	3.850852	31.935080
46856		13.456176	3.835431	31.850279
46857		13.511252	3.840231	31.766731
46858		13.622856	3.824900	31.679713
46859		13.708119	3.804777	31.633862
46860		13.711109	3.779276	31.616298
46861		13.449520	3.739931	31.590850
46862		13.134604	3.775611	31.577270
46863		12.829811	3.802810	31.589967
46864		12.663747	3.833662	31.632100
46865		12.552718	3.887886	31.695644
46866		12.469500	3.958201	31.765495
46867		12.402023	4.033143	31.833289
46868		12.326742	4.123722	31.900241
46869		12.222329	4.217081	31.957702
46870		12.057680	4.348819	32.005744
46871		11.923382	4.469598	32.034300
46872		11.815191	4.579472	32.039917
46873		11.698207	4.688951	32.030174
46874		11.572369	4.798343	32.008886
46875		11.468250	4.901376	31.982871
46876		11.369127	5.004800	31.950181
46877		11.255285	5.110857	31.905420
46878		11.099485	5.222469	31.847080
46879		10.923236	5.345101	31.785048
46880		10.758368	5.469393	31.719822
46881		10.629887	5.593981	31.656169
46882		10.526849	5.718654	31.596408
46883		10.425068	5.847998	31.526751
46884		10.380113	5.961706	31.443614
46885		10.349606	6.079423	31.385443
46886		10.280218	6.219209	31.359857
46887		10.111822	6.380264	31.338318
46888		9.927369	6.543209	31.306444
46889		9.815757	6.712895	31.267188
46890		9.753512	6.890667	31.223513
46891		9.706540	7.083006	31.172610
46892		9.676023	7.283930	31.118274
46893		9.676020	7.484474	31.060631
46894		9.729894	7.682146	31.010087
46895		9.823700	7.878284	30.965314
46896		9.934193	8.061208	30.920374
46897		10.022190	8.234778	30.870727
46898		10.074085	8.410940	30.813426
46899		10.083025	8.583232	30.739828
46900		10.042992	8.752985	30.641620
46901		9.947521	8.931156	30.525437
46902		9.831524	9.120105	30.389693
46903		9.733277	9.311458	30.240658
46904		9.688853	9.487950	30.082479
46905		9.638269	9.662728	29.912908
46906		9.558302	9.829394	29.728642
46907		9.466378	9.989649	29.535934
46908		9.374898	10.137379	29.329532
46909		9.286578	10.262777	29.109823
46910		9.193700	10.372689	28.873925
46911		9.078757	10.475964	28.628780
46912		8.931622	10.580369	28.373055
46913		8.759872	10.692461	28.108311
46914		8.584722	10.810245	27.840074
46915		8.436101	10.927366	27.572143
46916		8.324840	11.045803	27.310399
46917		8.232281	11.161477	27.055802
46918		8.129611	11.272853	26.802361
46919		8.008817	11.381931	26.554066
46920		7.868094	11.492309	26.312431
46921		7.710419	11.608050	26.074481
46922		7.537072	11.734230	25.840121
46923		7.347773	11.873801	25.609081
46924		7.153467	12.018675	25.377313
46925		6.965571	12.164618	25.144984
46926		6.796474	12.301545	24.909397
46927		6.662620	12.427185	24.668532
46928		6.591920	12.539845	24.424928
46929		6.550647	12.648324	24.188926
46930		6.513661	12.759202	23.948362
46931		6.455270	12.864886	23.703782
46932		6.358893	12.973930	23.457142
46933		6.230392	13.096927	23.207589
46934		6.067529	13.232275	22.946935
46935		5.898572	13.370820	22.680418
46936		5.739443	13.504199	22.415152
46937		5.592025	13.633515	22.152316
46938		5.461409	13.759426	21.892691
46939		5.343511	13.878596	21.637616
46940		5.243239	14.001772	21.387264
46941		5.144521	14.131301	21.140385
46942		5.039127	14.269647	20.898752
46943		4.919787	14.416687	20.667548
46944		4.770888	14.564921	20.438102
46945		4.606274	14.720167	20.212516
46946		4.424664	14.877914	19.983319
46947		4.234803	15.037044	19.750480
46948		4.045257	15.194633	19.520756
46949		3.874903	15.356228	19.298464
46950		3.712303	15.518152	19.074494
46951		3.559225	15.676604	18.852341
46952		3.412655	15.837266	18.631705
46953		3.253267	15.995569	18.414757
46954		3.082198	16.153772	18.201723
46955		2.907910	16.310034	17.993626
46956		2.739983	16.466772	17.786222
46957		2.592361	16.623587	17.580148
46958		2.465995	16.773721	17.378405
46959		2.351834	16.918630	17.179188
46960		2.247062	17.055160	16.979163
46961		2.159948	17.185117	16.782374
46962		2.073199	17.305294	16.591092
46963		1.980912	17.418212	16.406251
46964		1.877075	17.521723	16.230570
46965		1.770269	17.617813	16.065953
46966		1.645243	17.719110	15.910098
46967		1.507465	17.829403	15.762168
46968		1.375835	17.939796	15.621956
46969		1.261381	18.045852	15.486371
46970		1.156302	18.153580	15.350137
46971		1.062068	18.262999	15.216590
46972		0.962668	18.367642	15.081785
46973		0.829381	18.472919	14.946430
46974		0.674454	18.580028	14.812330
46975		0.507961	18.689836	14.680966
46976		0.328053	18.807363	14.547543
46977		0.126926	18.928385	14.412266
46978		-0.098252	19.037055	14.284556
46979		-0.324918	19.132411	14.156400
46980		-0.520353	19.223222	14.015068
46981		-0.609705	19.305710	13.866578
46982		-0.626135	19.371382	13.724205
46983		-0.622311	19.423787	13.589382
46984		-0.625397	19.459370	13.467014
46985		-0.598308	19.474413	13.364545
46986		-0.538944	19.479236	13.286162
46987		-0.459140	19.473891	13.238579
46988		-0.409028	19.469949	13.212740
46989		-0.389407	19.463013	13.210469
46990		-0.372054	19.445287	13.232531
46991		-0.319684	19.413149	13.278310
46992		-0.239779	19.384671	13.334014
46993		-0.143954	19.363272	13.390630
46994		-0.053027	19.349094	13.448775
46995		0.019527	19.336015	13.508272
46996		0.051155	19.334732	13.564825
46997		0.051104	19.337093	13.613180
46998		0.050744	19.342393	13.651111
46999		0.072965	19.344990	13.680373
47000		0.116116	19.352697	13.698217
47001		0.189810	19.364970	13.709361
47002		0.301648	19.387159	13.721734
47003		0.417724	19.417238	13.734044
47004		0.505136	19.448261	13.753089
47005		0.553113	19.471133	13.773927
47006		0.550085	19.497319	13.800947
47007		0.487707	19.504923	13.838851
47008		0.468779	19.526425	13.875134
47009		0.413711	19.543254	13.920345
47010		0.391792	19.557031	13.959088
47011		0.364320	19.574364	13.988842
47012		0.401479	19.597943	14.006330
47013		0.464712	19.628426	14.000764
47014		0.568236	19.662484	13.987073
47015		0.707816	19.700866	13.977085
47016		0.877941	19.740796	13.979802
47017		1.059884	19.779393	13.987966
47018		1.238846	19.816423	14.003420
47019		1.404912	19.851979	14.018015
47020		1.557190	19.892307	14.028523
47021		1.706492	19.930445	14.029930
47022		1.872821	19.967822	14.031221
47023		2.055212	20.008432	14.029463
47024		2.265473	20.064719	14.026603
47025		2.492361	20.127292	14.025490
47026		2.727425	20.184692	14.018600
47027		2.961851	20.235219	13.996890
47028		3.192030	20.284308	13.971899
47029		3.438080	20.323834	13.941493
47030		3.709347	20.358469	13.908752
47031		4.025468	20.386610	13.873054
47032		4.402241	20.408837	13.843718
47033		4.834519	20.424554	13.822578
47034		5.295666	20.426893	13.802264
47035		5.742073	20.411131	13.775764
47036		6.131057	20.384520	13.732128
47037		6.459055	20.339910	13.666040
47038		6.753531	20.290160	13.576148
47039		7.097341	20.244618	13.488867
47040		7.413086	20.190898	13.408593
47041		7.681837	20.115205	13.329375
47042		7.927746	20.055972	13.292775
47043		8.030895	20.050958	13.251192
47044		8.190550	20.044689	13.167232
47045		8.548179	19.987415	13.087924
47046		8.975824	19.924050	13.016037
47047		9.382929	19.895302	12.946219
47048		9.571760	19.885629	12.871109
47049		9.488574	19.823734	12.757378
47050		9.192916	19.719519	12.678006
47051		8.730693	19.624973	12.620068
47052		8.366125	19.551106	12.607776
47053		8.117731	19.479663	12.597272
47054		7.983952	19.399867	12.562808
47055		7.929023	19.326539	12.496197
47056		7.889810	19.291563	12.403344
47057		7.823290	19.307568	12.295811
47058		7.683121	19.373021	12.180243
47059		7.485895	19.479334	12.068474
47060		7.202752	19.610139	11.957485
47061		6.790316	19.746852	11.856874
47062		6.164995	19.894974	11.758900
47063		5.376752	20.041952	11.669198
47064		4.501004	20.174654	11.593697
47065		3.779056	20.273716	11.553269
47066		3.181817	20.365415	11.526645
47067		2.766209	20.438448	11.473795
47068		2.618307	20.475874	11.438499
47069		2.711167	20.481583	11.424549
47070		2.942195	20.480040	11.419425
47071		3.221198	20.478074	11.411375
47072		3.459258	20.465558	11.410115
47073		3.566515	20.452474	11.406353
47074		3.544484	20.444657	11.400466
47075		3.428001	20.444187	11.395756
47076		3.281298	20.446556	11.393409
47077		3.160864	20.449345	11.400670
47078		3.092552	20.454358	11.417046
47079		3.067797	20.461597	11.435624
47080		3.034470	20.473363	11.448915
47081		2.975800	20.485862	11.454246
47082		2.889336	20.504054	11.454728
47083		2.794000	20.524762	11.447968
47084		2.723926	20.538485	11.435735
47085		2.685270	20.544320	11.421451
47086		2.665569	20.549784	11.409359
47087		2.630589	20.558102	11.387826
47088		2.587230	20.565210	11.366840
47089		2.522475	20.577817	11.343434
47090		2.430169	20.592129	11.318146
47091		2.323452	20.608403	11.294811
47092		2.219098	20.623999	11.279361
47093		2.138938	20.633210	11.269662
47094		2.121271	20.629597	11.269105
47095		2.147569	20.622484	11.273381
47096		2.206795	20.618371	11.279040
47097		2.277282	20.612913	11.287829
47098		2.342870	20.609924	11.298690
47099		2.372635	20.603292	11.311441
47100		2.356010	20.602130	11.322605
47101		2.339679	20.595551	11.338671
47102		2.341099	20.581107	11.371568
47103		2.347741	20.563582	11.409191
47104		2.458548	20.560075	11.481730
47105		2.471853	20.538193	11.521052
47106		2.648972	20.506864	11.613922
47107		2.796474	20.465083	11.704491
47108		2.971502	20.429673	11.815335
47109		3.172156	20.385266	11.925860
47110		3.406218	20.326304	12.049722
47111		3.685852	20.251981	12.200975
47112		3.986267	20.162199	12.374106
47113		4.310657	20.047788	12.565169
47114		4.627577	19.923160	12.755035
47115		4.988970	19.847987	12.972388
47116		5.290959	19.698366	13.184295
47117		5.748145	19.506299	13.450691
47118		5.938311	19.395190	13.699654
47119		6.190983	19.237954	13.895610
47120		6.567808	19.041914	14.173775
47121		6.841903	18.849684	14.487413
47122		6.990332	18.642550	14.824018
47123		7.022408	18.427822	15.172327
47124		6.995937	18.200878	15.523448
47125		7.008483	17.970396	15.880280
47126		7.133738	17.739575	16.230406
47127		7.383752	17.491724	16.566895
47128		7.705805	17.221346	16.898364
47129		8.056918	16.955605	17.230516
47130		8.288551	16.714254	17.547640
47131		8.371841	16.485673	17.856959
47132		8.340002	16.275040	18.167945
47133		8.251170	16.078656	18.475617
47134		8.156484	15.892002	18.777727
47135		8.056197	15.716189	19.076851
47136		7.958818	15.545453	19.373671
47137		7.864100	15.375139	19.668909
47138		7.791297	15.198764	19.963725
47139		7.735707	15.007995	20.263901
47140		7.680246	14.805800	20.565950
47141		7.612039	14.602542	20.864916
47142		7.543738	14.394899	21.157980
47143		7.483554	14.180127	21.443270
47144		7.410654	13.960666	21.720603
47145		7.297915	13.742342	21.983270
47146		7.155206	13.523282	22.232692
47147		7.002936	13.305020	22.477993
47148		6.860765	13.088935	22.716342
47149		6.742689	12.877667	22.948578
47150		6.649719	12.679177	23.177902
47151		6.573759	12.490081	23.402591
47152		6.507093	12.314767	23.624225
47153		6.450417	12.151464	23.842808
47154		6.375802	12.003131	24.057465
47155		6.274479	11.865332	24.264832
47156		6.182105	11.741240	24.470400
47157		6.094129	11.629881	24.675733
47158		6.028011	11.532078	24.875685
47159		5.990496	11.448574	25.076835
47160		5.980808	11.376831	25.278283
47161		5.980293	11.310374	25.479056
47162		5.985801	11.262795	25.679879
47163		5.979865	11.223195	25.879646
47164		5.967023	11.204751	26.080913
47165		5.934896	11.199205	26.277165
47166		5.896360	11.211344	26.466609
47167		5.871209	11.228108	26.645250
47168		5.877130	11.242465	26.820677
47169		5.901101	11.254726	26.995055
47170		5.934498	11.266971	27.165654
47171		5.968644	11.270994	27.336714
47172		5.998728	11.271709	27.505750
47173		6.023210	11.255821	27.675379
47174		6.034017	11.228376	27.842105
47175		6.042391	11.184998	28.012910
47176		6.048342	11.127644	28.181601
47177		6.049613	11.060558	28.345573
47178		6.039960	10.984121	28.505474
47179		6.018547	10.902563	28.654396
47180		5.986584	10.815297	28.798936
47181		5.969954	10.717288	28.934886
47182		5.972104	10.606687	29.067089
47183		5.990615	10.493795	29.182045
47184		6.016210	10.378324	29.291924
47185		6.033964	10.260473	29.383636
47186		6.038537	10.147393	29.455954
47187		6.037363	10.028334	29.512637
47188		6.049948	9.908873	29.567489
47189		6.078635	9.792786	29.618719
47190		6.126729	9.671721	29.665649
47191		6.194569	9.549825	29.722749
47192		6.277218	9.433014	29.789199
47193		6.332945	9.325030	29.856394
47194		6.364682	9.216138	29.924102
47195		6.390262	9.109758	29.999819
47196		6.434604	9.006108	30.084738
47197		6.485781	8.896821	30.174292
47198		6.555963	8.796944	30.274275
47199		6.616405	8.698322	30.374175
47200		6.683084	8.603366	30.475357
47201		6.756080	8.509897	30.577349
47202		6.853848	8.422327	30.676041
47203		6.975217	8.337750	30.774863
47204		7.114245	8.243550	30.875183
47205		7.288720	8.142619	30.975473
47206		7.463232	8.058805	31.090545
47207		7.574190	7.999206	31.209419
47208		7.633404	7.967508	31.317208
47209		7.686019	7.955199	31.408992
47210		7.817069	7.912951	31.509322
47211		7.969740	7.849571	31.613027
47212		8.110893	7.794778	31.710443
47213		8.244015	7.727468	31.798301
47214		8.361115	7.658956	31.884414
47215		8.473827	7.583594	31.959581
47216		8.596729	7.507256	32.028126
47217		8.747205	7.420716	32.094670
47218		8.882665	7.336675	32.164660
47219		8.994378	7.258893	32.229190
47220		9.067178	7.185772	32.292824
47221		9.101683	7.115186	32.358134
47222		9.126846	7.050747	32.416122
47223		9.156513	6.995031	32.472484
47224		9.166717	6.941152	32.521682
47225		9.158243	6.896395	32.564896
47226		9.161050	6.858120	32.600389
47227		9.174972	6.820212	32.626232
47228		9.202024	6.785817	32.641595
47229		9.252717	6.754627	32.644130
47230		9.308610	6.729601	32.636830
47231		9.367808	6.709022	32.625550
47232		9.427425	6.694143	32.616167
47233		9.489076	6.671048	32.610834
47234		9.539515	6.643563	32.610831
47235		9.544525	6.627292	32.608064
47236		9.507394	6.624371	32.605584
47237		9.465805	6.624914	32.606335
47238		9.413321	6.628416	32.603695
47239		9.366924	6.644948	32.597363
47240		9.334058	6.668879	32.582799
47241		9.332698	6.697781	32.570959
47242		9.353599	6.729109	32.561813
47243		9.349534	6.759044	32.546339
47244		9.299951	6.787982	32.532948
47245		9.219802	6.812269	32.525503
47246		9.129574	6.838093	32.519189
47247		9.056496	6.862481	32.514667
47248		9.017862	6.887522	32.508268
47249		9.020710	6.914141	32.501378
47250		9.048259	6.946390	32.493555
47251		9.079473	6.990805	32.483733
47252		9.115686	7.032960	32.472501
47253		9.151759	7.069884	32.462717
47254		9.190098	7.115023	32.455214
47255		9.197347	7.167895	32.435793
47256		9.189470	7.212038	32.404495
47257		9.209142	7.250449	32.362778
47258		9.255484	7.295400	32.313069
47259		9.333060	7.352105	32.249537
47260		9.410184	7.378609	32.199418
47261		9.477837	7.366118	32.131275
47262		9.534508	7.343358	32.099655
47263		9.570003	7.316997	32.062405
47264		9.631851	7.285139	32.026551
47265		9.743006	7.228348	31.962169
47266		9.788986	7.189144	31.904241
47267		9.786293	7.150709	31.838746
47268		9.782212	7.102774	31.766912
47269		9.831874	7.039875	31.692264
47270		9.912152	6.963117	31.618241
47271		10.028718	6.879961	31.537872
47272		10.210718	6.789747	31.469814
47273		10.431065	6.699104	31.424155
47274		10.691228	6.620192	31.389105
47275		10.950042	6.547033	31.369734
47276		11.147331	6.475044	31.349084
47277		11.310507	6.404797	31.332935
47278		11.535433	6.331619	31.359359
47279		11.882884	6.243867	31.390919
47280		12.268998	6.182439	31.451191
47281		12.626225	6.130569	31.514817
47282		12.957506	6.087400	31.582322
47283		13.275001	6.042372	31.649161
47284		13.578837	5.993680	31.727298
47285		13.870202	5.945078	31.805974
47286		14.130504	5.888786	31.873764
47287		14.370212	5.823870	31.928516
47288		14.593316	5.755536	31.977350
47289		14.731098	5.698396	31.997746
47290		14.852374	5.651521	31.983353
47291		15.053422	5.598622	31.969524
47292		15.343893	5.540207	31.935426
47293		15.658242	5.456915	31.887631
47294		15.921185	5.362533	31.833387
47295		16.114383	5.281371	31.768801
47296		16.304628	5.203864	31.708419
47297		16.466849	5.123455	31.686985
47298		16.492703	5.047596	31.663741
47299		16.390557	5.001064	31.631913
47300		16.233307	4.969492	31.616583
47301		16.087249	4.942481	31.613222
47302		15.972342	4.918400	31.630406
47303		15.882002	4.896773	31.658181
47304		15.786986	4.881589	31.694886
47305		15.644121	4.881135	31.726859
47306		15.504843	4.887174	31.758100
47307		15.383803	4.898927	31.795790
47308		15.303278	4.917455	31.834470
47309		15.238078	4.943448	31.873262
47310		15.189064	4.975737	31.908035
47311		15.159049	5.016412	31.945488
47312		15.143993	5.067329	31.983756
47313		15.153339	5.110872	32.032193
47314		15.126637	5.150641	32.063198
47315		15.106457	5.181934	32.089510
47316		15.066625	5.217064	32.114078
47317		15.029246	5.237412	32.122579
47318		15.001362	5.248293	32.126699
47319		14.979624	5.251054	32.122005
47320		14.968569	5.251449	32.112871
47321		14.972571	5.252146	32.102863
47322		14.989243	5.254025	32.096005
47323		15.001596	5.261395	32.089557
47324		15.006079	5.270078	32.084484
47325		15.002862	5.277702	32.079294
47326		15.003118	5.281607	32.070435
47327		15.007115	5.282308	32.060426
47328		15.003971	5.284290	32.047290
47329		14.978006	5.288934	32.031907
47330		14.938954	5.293145	32.017171
47331		14.896663	5.300368	32.005642
47332		14.861352	5.308433	31.997449
47333		14.835769	5.318406	31.990858
47334		14.826991	5.329149	31.989086
47335		14.829636	5.336925	31.985780
47336		14.842786	5.331225	31.986631
47337		14.870056	5.318299	31.987533
47338		14.910232	5.297302	31.985819
47339		14.942777	5.275005	31.982710
47340		14.955121	5.255565	31.980590
47341		14.936165	5.233682	31.980261
47342		14.910764	5.208615	31.977331
47343		14.911627	5.172391	31.973320
47344		14.961253	5.140107	31.978207
47345		15.068973	5.106039	31.989885
47346		15.211016	5.067734	32.011786
47347		15.333843	5.032514	32.028042
47348		15.404159	5.004566	32.036057
47349		15.472408	4.979580	32.068172
47350		15.413931	4.936467	32.121580
47351		15.298385	4.931099	32.137593
47352		15.211527	4.939565	32.187761
47353		15.162672	4.943946	32.233582
47354		15.140999	4.949058	32.282330
47355		15.117125	4.952523	32.335642
47356		15.055845	4.958325	32.393118
47357		14.984371	4.967364	32.447660
47358		14.885849	4.977705	32.492796
47359		14.750223	4.998887	32.519454
47360		14.615592	5.023232	32.531486
47361		14.475958	5.040594	32.529384
47362		14.268674	5.075380	32.511747
47363		14.080358	5.125817	32.488854
47364		13.913097	5.188983	32.462436
47365		13.796504	5.259454	32.435717
47366		13.696066	5.338546	32.412158
47367		13.588348	5.426688	32.388621
47368		13.469348	5.518851	32.369298
47369		13.325823	5.607062	32.353987
47370		13.158397	5.691266	32.341971
47371		12.980018	5.773925	32.332284
47372		12.817335	5.866315	32.325234
47373		12.683895	5.962419	32.323621
47374		12.586045	6.061427	32.319690
47375		12.513708	6.168849	32.319982
47376		12.435922	6.279469	32.319251
47377		12.351722	6.399033	32.315912
47378		12.262213	6.522221	32.316073
47379		12.164388	6.647124	32.317004
47380		12.082017	6.775804	32.324908
47381		12.035448	6.901517	32.336626
47382		12.013056	7.021417	32.356107
47383		12.037598	7.139504	32.376646
47384		12.114646	7.255278	32.396332
47385		12.193904	7.371759	32.408528
47386		12.213634	7.489272	32.405380
47387		12.170598	7.619357	32.386366
47388		12.120371	7.757857	32.358440
47389		12.118192	7.897917	32.327155
47390		12.184122	8.036830	32.300875
47391		12.298187	8.168168	32.276082
47392		12.418206	8.288082	32.249247
47393		12.520302	8.394173	32.212542
47394		12.578359	8.494904	32.165635
47395		12.583890	8.604090	32.104112
47396		12.571333	8.711727	32.033672
47397		12.527133	8.814649	31.951142
47398		12.432783	8.912622	31.859613
47399		12.317301	9.016474	31.768258
47400		12.223140	9.124547	31.675542
47401		12.168573	9.230815	31.581371
47402		12.158412	9.334753	31.483802
47403		12.183623	9.436871	31.380629
47404		12.217853	9.534637	31.274927
47405		12.224887	9.623623	31.157860
47406		12.178794	9.702886	31.024587
47407		12.100031	9.782971	30.875655
47408		12.010333	9.871149	30.715262
47409		11.915706	9.972476	30.544387
47410		11.817581	10.080226	30.363016
47411		11.730680	10.195792	30.174229
47412		11.652686	10.310422	29.980329
47413		11.605939	10.420187	29.786781
47414		11.583903	10.514877	29.595245
47415		11.565347	10.589329	29.404903
47416		11.543187	10.651702	29.220074
47417		11.509778	10.706739	29.040831
47418		11.450337	10.760245	28.865902
47419		11.358021	10.812811	28.688578
47420		11.249612	10.878777	28.512670
47421		11.131362	10.957315	28.336902
47422		11.016054	11.051290	28.156465
47423		10.903574	11.155618	27.975603
47424		10.792320	11.268827	27.794084
47425		10.697106	11.383055	27.613257
47426		10.612226	11.492100	27.430439
47427		10.534003	11.589994	27.248536
47428		10.453379	11.678955	27.060706
47429		10.374453	11.762645	26.863884
47430		10.305515	11.842263	26.658008
47431		10.262325	11.923983	26.445538
47432		10.229723	12.007103	26.224705
47433		10.208447	12.093015	25.990082
47434		10.196010	12.184257	25.741354
47435		10.199011	12.275549	25.478214
47436		10.219968	12.363973	25.202837
47437		10.235772	12.446813	24.919272
47438		10.244404	12.531016	24.630754
47439		10.236959	12.616316	24.343560
47440		10.198816	12.701954	24.053764
47441		10.113842	12.789975	23.755659
47442		10.011186	12.874299	23.455871
47443		9.914165	12.962082	23.157063
47444		9.842999	13.051548	22.859329
47445		9.797545	13.142022	22.565138
47446		9.760328	13.237457	22.273068
47447		9.714696	13.342444	21.983286
47448		9.649428	13.451708	21.698344
47449		9.556944	13.563361	21.417005
47450		9.436019	13.671354	21.137721
47451		9.306781	13.777695	20.870747
47452		9.199345	13.876984	20.623054
47453		9.121500	13.978582	20.396696
47454		9.080025	14.081252	20.188975
47455		9.067388	14.184401	19.991482
47456		9.087511	14.287494	19.799601
47457		9.140121	14.388763	19.613236
47458		9.199744	14.485545	19.435559
47459		9.215119	14.584602	19.268110
47460		9.153220	14.692147	19.106292
47461		9.014858	14.803813	18.945150
47462		8.839872	14.914476	18.781999
47463		8.676351	15.024345	18.626708
47464		8.534526	15.135176	18.475549
47465		8.408093	15.249309	18.326259
47466		8.289799	15.362113	18.179223
47467		8.174796	15.477653	18.034139
47468		8.069748	15.594965	17.888241
47469		7.983643	15.713774	17.745603
47470		7.897554	15.834728	17.595677
47471		7.813121	15.955432	17.436996
47472		7.736904	16.074387	17.274645
47473		7.677960	16.189670	17.108436
47474		7.645840	16.293691	16.940425
47475		7.634260	16.392410	16.778210
47476		7.602368	16.491085	16.624350
47477		7.531693	16.583352	16.475920
47478		7.438366	16.667145	16.327102
47479		7.359003	16.744821	16.180451
47480		7.314162	16.812814	16.044530
47481		7.298959	16.871759	15.924302
47482		7.300116	16.930135	15.826738
47483		7.291027	16.991874	15.754209
47484		7.237957	17.057306	15.700689
47485		7.130988	17.123436	15.655353
47486		7.001569	17.180599	15.621111
47487		6.880959	17.234694	15.582630
47488		6.791484	17.284358	15.547216
47489		6.728786	17.337248	15.513958
47490		6.687173	17.386455	15.483225
47491		6.652012	17.441025	15.450221
47492		6.596999	17.498643	15.411883
47493		6.535561	17.549230	15.361996
47494		6.482532	17.601767	15.307018
47495		6.436846	17.648169	15.251280
47496		6.391761	17.696963	15.194271
47497		6.339741	17.748196	15.138414
47498		6.285457	17.798379	15.078510
47499		6.239784	17.843621	15.017259
47500		6.225339	17.884316	14.958170
47501		6.230393	17.915557	14.900227
47502		6.255453	17.937071	14.850317
47503		6.322296	17.940392	14.813601
47504		6.369783	17.929172	14.777160
47505		6.426093	17.903787	14.759672
47506		6.485611	17.866380	14.749211
47507		6.585109	17.816106	14.762556
47508		6.731052	17.766160	14.795061
47509		6.906333	17.728054	14.836155
47510		7.077569	17.705897	14.890523
47511		7.223808	17.691896	14.948041
47512		7.350778	17.680166	15.009167
47513		7.450523	17.674339	15.071350
47514		7.521950	17.675653	15.129192
47515		7.567613	17.682533	15.179729
47516		7.609551	17.693226	15.222713
47517		7.659138	17.712262	15.254447
47518		7.723014	17.733284	15.278597
47519		7.766501	17.766008	15.301881
47520		7.799495	17.811645	15.321038
47521		7.816737	17.863939	15.341456
47522		7.827925	17.911753	15.363255
47523		7.784951	17.959687	15.386023
47524		7.701081	17.995572	15.404569
47525		7.551162	18.008473	15.439783
47526		7.482495	18.067299	15.468986
47527		7.317958	18.118377	15.508277
47528		7.160325	18.174640	15.530842
47529		7.004190	18.224552	15.562883
47530		6.847597	18.268902	15.603619
47531		6.689337	18.306834	15.649146
47532		6.461483	18.352227	15.695679
47533		6.160616	18.400253	15.738142
47534		5.813834	18.442286	15.768652
47535		5.443289	18.484925	15.780793
47536		5.077217	18.522848	15.774693
47537		4.730729	18.559864	15.746543
47538		4.430389	18.604469	15.697314
47539		4.189732	18.653667	15.632976
47540		4.008820	18.708471	15.557753
47541		3.895422	18.777313	15.489434
47542		3.820206	18.868368	15.415107
47543		3.777703	18.976776	15.340623
47544		3.747318	19.098438	15.266144
47545		3.710766	19.232377	15.182798
47546		3.661470	19.373322	15.092699
47547		3.590734	19.517440	14.996233
47548		3.521989	19.662545	14.902146
47549		3.493975	19.794880	14.815905
47550		3.523060	19.909740	14.748817
47551		3.625682	20.002457	14.704101
47552		3.799608	20.066322	14.680023
47553		4.059208	20.097130	14.681942
47554		4.387669	20.105992	14.704600
47555		4.767757	20.103310	14.738998
47556		5.182055	20.094763	14.784630
47557		5.603610	20.092242	14.834547
47558		6.046312	20.092756	14.888756
47559		6.545161	20.099518	14.947858
47560		7.236739	20.119723	15.063082
47561		7.905799	20.146581	15.176121
47562		8.579322	20.139913	15.266470
47563		9.202791	20.149377	15.379582
47564		9.650862	20.172891	15.483622
47565		9.820421	20.178224	15.503067
47566		9.873840	20.159733	15.446451
47567		9.967330	20.128818	15.381970
47568		10.188942	20.080702	15.366216
47569		10.386863	20.020544	15.358462
47570		10.445589	19.959725	15.338435
47571		10.342483	19.900884	15.294964
47572		10.102252	19.847684	15.233382
47573		9.761366	19.797197	15.144351
47574		9.388248	19.758042	15.060099
47575		8.952252	19.741079	14.992985
47576		8.455553	19.751294	14.941180
47577		7.916498	19.790741	14.893817
47578		7.337325	19.850376	14.844644
47579		6.698550	19.926946	14.788718
47580		6.037281	20.022045	14.712206
47581		5.432703	20.136342	14.637091
47582		4.985209	20.229726	14.587802
47583		4.659782	20.289483	14.563107
47584		4.395358	20.338563	14.544781
47585		4.198938	20.379897	14.520649
47586		4.123202	20.397625	14.486747
47587		4.151212	20.401220	14.463288
47588		4.218025	20.396777	14.447760
47589		4.287562	20.382161	14.424361
47590		4.346326	20.365919	14.403412
47591		4.401752	20.340798	14.375002
47592		4.466893	20.310702	14.345689
47593		4.538285	20.281570	14.319220
47594		4.594461	20.260241	14.300382
47595		4.637747	20.244362	14.283682
47596		4.663638	20.229583	14.267035
47597		4.674527	20.219664	14.247600
47598		4.661663	20.221115	14.220929
47599		4.638129	20.226673	14.190065
47600		4.597978	20.239134	14.155988
47601		4.545930	20.250546	14.124778
47602		4.487139	20.267531	14.095795
47603		4.430215	20.284249	14.063246
47604		4.393423	20.303078	14.036628
47605		4.377555	20.313237	14.020743
47606		4.365653	20.324865	14.009037
47607		4.341759	20.338344	14.002602
47608		4.313398	20.352606	14.006890
47609		4.255683	20.375911	14.016811
47610		4.145154	20.408866	14.030778
47611		4.009805	20.436536	14.053424
47612		3.863103	20.460169	14.081980
47613		3.786863	20.488764	14.117792
47614		3.718636	20.501746	14.137702
47615		3.816340	20.487385	14.193575
47616		3.957339	20.462359	14.266847
47617		4.085889	20.444020	14.343822
47618		4.187978	20.422095	14.424230
47619		4.261504	20.401919	14.504729
47620		4.324496	20.366990	14.597061
47621		4.373428	20.323855	14.696024
47622		4.410240	20.274196	14.804432
47623		4.450815	20.216324	14.922182
47624		4.505289	20.151791	15.042889
47625		4.625469	20.089856	15.186040
47626		4.779208	20.030903	15.356436
47627		4.950720	19.922846	15.508935
47628		5.038274	19.861681	15.693659
47629		5.099068	19.801327	15.847945
47630		5.196248	19.732898	16.023383
47631		5.300813	19.668016	16.219020
47632		5.382590	19.591231	16.429184
47633		5.426761	19.508937	16.665929
47634		5.408009	19.415094	16.926588
47635		5.352377	19.303054	17.204238
47636		5.293736	19.177649	17.504711
47637		5.235772	19.042580	17.800159
47638		5.197417	18.901532	18.096900
47639		5.168249	18.753227	18.391119
47640		5.146907	18.592429	18.679946
47641		5.122024	18.422898	18.963015
47642		5.103411	18.241161	19.244147
47643		5.060237	18.049889	19.531040
47644		5.000044	17.843548	19.821887
47645		4.939001	17.625867	20.109155
47646		4.899250	17.395647	20.401266
47647		4.867264	17.157486	20.695965
47648		4.805697	16.918731	20.980490
47649		4.738396	16.670153	21.254184
47650		4.698240	16.420109	21.526609
47651		4.695886	16.159138	21.785426
47652		4.742029	15.894390	22.031164
47653		4.816482	15.623776	22.266317
47654		4.897042	15.351613	22.494967
47655		4.953811	15.083121	22.715327
47656		4.973079	14.826281	22.930362
47657		4.945730	14.575402	23.140443
47658		4.876897	14.324003	23.343239
47659		4.773319	14.063633	23.534646
47660		4.656437	13.821719	23.716187
47661		4.557544	13.582591	23.884976
47662		4.474620	13.343095	24.032393
47663		4.410528	13.113135	24.177884
47664		4.359287	12.898917	24.317110
47665		4.312493	12.695161	24.450384
47666		4.247557	12.514196	24.571871
47667		4.167851	12.342682	24.684788
47668		4.095705	12.184314	24.792597
47669		4.040637	12.038584	24.900023
47670		4.005095	11.902585	25.001906
47671		3.987267	11.770987	25.107122
47672		3.964443	11.646090	25.210686
47673		3.938240	11.523315	25.319678
47674		3.912078	11.412605	25.429547
47675		3.893799	11.322058	25.541404
47676		3.881850	11.240935	25.652961
47677		3.866206	11.165436	25.765133
47678		3.860292	11.091509	25.880897
47679		3.874349	11.020816	26.003714
47680		3.901153	10.959272	26.140054
47681		3.935273	10.908985	26.286074
47682		3.953599	10.882588	26.444933
47683		3.931269	10.866864	26.604519
47684		3.881663	10.869868	26.764812
47685		3.839112	10.876925	26.922814
47686		3.817801	10.880413	27.076718
47687		3.812939	10.876149	27.227273
47688		3.830461	10.866019	27.374897
47689		3.885059	10.848526	27.522784
47690		3.952822	10.825504	27.662543
47691		4.017025	10.803779	27.789284
47692		4.054188	10.786368	27.906845
47693		4.057820	10.769581	28.011902
47694		4.007577	10.750024	28.109537
47695		3.911385	10.729360	28.201102
47696		3.801067	10.705978	28.292978
47697		3.695314	10.675299	28.385905
47698		3.602737	10.636349	28.482181
47699		3.545537	10.582832	28.580802
47700		3.530326	10.517288	28.681427
47701		3.537006	10.443533	28.781904
47702		3.559876	10.367769	28.878096
47703		3.586905	10.295073	28.970668
47704		3.607603	10.215489	29.056446
47705		3.627184	10.127360	29.136352
47706		3.629858	10.044991	29.209941
47707		3.627589	9.954333	29.279869
47708		3.626555	9.855983	29.351157
47709		3.633284	9.755819	29.429251
47710		3.630175	9.656466	29.514635
47711		3.612116	9.554824	29.602199
47712		3.596051	9.463047	29.693998
47713		3.575138	9.386691	29.784716
47714		3.578536	9.314731	29.877305
47715		3.594687	9.239501	29.971806
47716		3.639990	9.162470	30.077886
47717		3.695582	9.092009	30.192493
47718		3.746313	9.025678	30.318047
47719		3.794217	8.964510	30.455598
47720		3.845039	8.910238	30.603341
47721		3.904410	8.864720	30.761689
47722		3.976088	8.816798	30.925939
47723		4.049141	8.782802	31.092729
47724		4.121557	8.753932	31.267861
47725		4.199384	8.702983	31.446406
47726		4.233055	8.647161	31.620926
47727		4.136475	8.659672	31.769417
47728		3.993375	8.682595	31.891622
47729		3.892924	8.714845	32.006023
47730		3.892745	8.723597	32.135095
47731		3.912005	8.733359	32.260879
47732		3.937551	8.750223	32.373156
47733		3.963818	8.770890	32.467661
47734		3.979693	8.789557	32.554645
47735		4.005053	8.799624	32.638965
47736		3.997243	8.796423	32.713293
47737		3.988428	8.800859	32.785102
47738		3.971404	8.799313	32.854840
47739		3.957527	8.792996	32.923568
47740		3.948058	8.783449	32.996911
47741		3.943829	8.767823	33.065541
47742		3.964483	8.755216	33.138932
47743		3.996717	8.742608	33.214709
47744		4.061028	8.723284	33.289786
47745		4.124622	8.703735	33.363824
47746		4.182045	8.681987	33.441769
47747		4.228371	8.663743	33.519221
47748		4.276406	8.640107	33.597129
47749		4.313289	8.619803	33.682761
47750		4.368650	8.602792	33.771136
47751		4.443613	8.595744	33.862578
47752		4.519893	8.596491	33.952424
47753		4.573453	8.605558	34.033525
47754		4.604181	8.620782	34.103572
47755		4.651272	8.633772	34.156372
47756		4.736415	8.644408	34.198257
47757		4.829968	8.637042	34.221451
47758		4.928241	8.630501	34.231509
47759		5.015629	8.608809	34.218602
47760		5.102637	8.582617	34.190937
47761		5.172694	8.561511	34.156061
47762		5.210730	8.546855	34.110223
47763		5.232390	8.540623	34.065055
47764		5.266674	8.536323	34.022043
47765		5.298412	8.530113	33.988429
47766		5.302345	8.520300	33.957929
47767		5.279010	8.518171	33.934885
47768		5.244368	8.523176	33.913088
47769		5.223227	8.529497	33.895184
47770		5.229699	8.535804	33.882879
47771		5.260194	8.541443	33.872633
47772		5.292437	8.548507	33.863101
47773		5.313067	8.557160	33.855207
47774		5.312390	8.566625	33.843253
47775		5.291113	8.584083	33.827575
47776		5.263251	8.610421	33.807745
47777		5.241418	8.640004	33.784334
47778		5.229109	8.668938	33.761780
47779		5.231835	8.693325	33.745576
47780		5.212118	8.726103	33.723698
47781		5.169000	8.759212	33.700559
47782		5.154150	8.781153	33.675605
47783		5.161070	8.795057	33.651290
47784		5.176741	8.806203	33.621612
47785		5.199066	8.816492	33.579119
47786		5.224985	8.821964	33.531218
47787		5.261521	8.829518	33.471949
47788		5.274012	8.825498	33.402556
47789		5.309776	8.821696	33.340878
47790		5.322699	8.816348	33.280186
47791		5.316253	8.808286	33.207483
47792		5.294565	8.789797	33.136860
47793		5.234585	8.752495	33.059873
47794		5.091658	8.716885	32.973360
47795		5.000991	8.672174	32.880098
47796		5.012765	8.630058	32.801818
47797		5.089063	8.588900	32.737133
47798		5.201985	8.543583	32.680045
47799		5.361156	8.499988	32.636485
47800		5.536997	8.449050	32.598602
47801		5.664172	8.396604	32.558336
47802		5.740665	8.342700	32.520042
47803		5.749649	8.287113	32.478448
47804		5.728920	8.230172	32.429798
47805		5.711223	8.161384	32.376438
47806		5.722972	8.092069	32.323938
47807		5.791145	8.033793	32.285204
47808		5.871384	7.991740	32.260585
47809		5.951668	7.950389	32.251936
47810		6.002147	7.911665	32.251878
47811		6.025564	7.871139	32.255125
47812		6.024885	7.834598	32.259315
47813		6.033269	7.800875	32.269058
47814		6.077591	7.770883	32.282637
47815		6.169144	7.724880	32.300739
47816		6.347748	7.658239	32.341766
47817		6.665703	7.580628	32.400458
47818		7.099519	7.512423	32.470719
47819		7.642429	7.455043	32.562472
47820		8.304388	7.412828	32.687962
47821		9.048233	7.367498	32.829520
47822		9.793452	7.330572	32.957790
47823		10.446616	7.287834	33.062806
47824		10.921525	7.244795	33.112043
47825		11.251682	7.204413	33.144761
47826		11.490240	7.167756	33.158533
47827		11.699770	7.118930	33.143402
47828		11.865788	7.062673	33.089271
47829		12.028815	7.007538	33.015081
47830		12.227610	6.946105	32.941226
47831		12.452689	6.877475	32.872778
47832		12.698957	6.813858	32.828528
47833		12.957631	6.754261	32.793126
47834		13.211433	6.709571	32.770217
47835		13.454087	6.679299	32.754477
47836		13.703609	6.662073	32.741374
47837		13.950025	6.654804	32.744725
47838		14.167219	6.643340	32.752041
47839		14.313300	6.639157	32.771780
47840		14.342522	6.643979	32.787449
47841		14.294247	6.671901	32.806760
47842		14.181128	6.713563	32.829084
47843		14.051358	6.757258	32.866105
47844		13.940211	6.807261	32.909184
47845		13.884464	6.845340	32.948518
47846		13.869046	6.875345	32.990322
47847		13.869864	6.899553	33.028155
47848		13.862189	6.927892	33.058894
47849		13.838432	6.959533	33.088843
47850		13.798505	6.990617	33.115727
47851		13.751343	7.021904	33.140744
47852		13.710788	7.056579	33.163136
47853		13.679437	7.085754	33.179809
47854		13.656903	7.113184	33.198436
47855		13.635815	7.137810	33.212102
47856		13.609868	7.155186	33.223877
47857		13.587448	7.164195	33.230680
47858		13.569933	7.167355	33.229603
47859		13.543362	7.166848	33.221250
47860		13.512520	7.164912	33.208947
47861		13.474807	7.164841	33.195759
47862		13.448257	7.167142	33.184696
47863		13.433740	7.168157	33.176863
47864		13.432863	7.167710	33.172123
47865		13.440540	7.164854	33.170070
47866		13.447912	7.161845	33.173362
47867		13.429130	7.153371	33.179703
47868		13.384343	7.143238	33.190200
47869		13.350093	7.134413	33.210886
47870		13.343097	7.123414	33.246851
47871		13.373043	7.106547	33.300015
47872		13.416535	7.086181	33.359424
47873		13.507905	7.057656	33.427872
47874		13.632687	7.022163	33.507512
47875		13.758863	6.978862	33.584687
47876		13.859201	6.921322	33.658606
47877		13.945589	6.851737	33.721507
47878		14.033648	6.776219	33.774253
47879		14.149260	6.697507	33.820846
47880		14.291067	6.609544	33.859841
47881		14.439109	6.511013	33.895375
47882		14.550890	6.422527	33.897623
47883		14.740977	6.332344	33.934838
47884		14.833159	6.243782	33.954653
47885		14.889090	6.149157	33.980777
47886		14.874954	6.069614	34.005560
47887		14.819011	5.999350	34.036399
47888		14.772524	5.925504	34.075681
47889		14.696621	5.851088	34.124429
47890		14.605783	5.784294	34.180563
47891		14.514070	5.731381	34.247018
47892		14.465923	5.679450	34.326471
47893		14.461430	5.639508	34.427388
47894		14.497378	5.621571	34.534398
47895		14.568387	5.623126	34.636302
47896		14.685440	5.634654	34.730616
47897		14.825930	5.650843	34.805054
47898		14.952256	5.671594	34.859132
47899		15.036294	5.689524	34.885917
47900		15.099327	5.708531	34.881801
47901		15.186043	5.746641	34.866331
47902		15.314357	5.803373	34.838911
47903		15.476793	5.875615	34.812805
47904		15.661152	5.969659	34.794912
47905		15.844617	6.070711	34.786657
47906		15.907704	6.178299	34.786229
47907		15.704568	6.294803	34.750584
47908		15.281832	6.434174	34.681439
47909		14.797983	6.594244	34.589988
47910		14.369510	6.759259	34.496135
47911		14.024322	6.917858	34.398787
47912		13.753598	7.078083	34.300769
47913		13.568683	7.254522	34.208948
47914		13.496027	7.442372	34.139301
47915		13.499382	7.630108	34.078225
47916		13.528808	7.794996	34.015607
47917		13.402008	7.962535	33.960045
47918		13.114791	8.121779	33.889039
47919		12.746563	8.283429	33.801764
47920		12.422607	8.445826	33.702675
47921		12.201417	8.599823	33.604092
47922		12.064248	8.748410	33.508016
47923		11.977733	8.894323	33.413667
47924		11.918437	9.040302	33.316024
47925		11.847067	9.181839	33.205674
47926		11.720825	9.317598	33.075170
47927		11.547692	9.455889	32.924939
47928		11.351126	9.594761	32.756633
47929		11.148627	9.729899	32.567097
47930		10.973449	9.864288	32.366279
47931		10.826723	9.997127	32.155215
47932		10.708671	10.138571	31.934750
47933		10.629455	10.291417	31.712102
47934		10.534741	10.450208	31.480616
47935		10.370103	10.620762	31.235848
47936		10.134872	10.805028	30.981433
47937		9.876413	10.990089	30.719505
47938		9.635552	11.168044	30.456665
47939		9.419219	11.334458	30.186814
47940		9.236904	11.492714	29.906214
47941		9.073477	11.655728	29.619614
47942		8.941126	11.817061	29.327816
47943		8.856975	11.972816	29.035945
47944		8.834516	12.125322	28.751502
47945		8.809143	12.271216	28.473599
47946		8.709124	12.415507	28.188362
47947		8.541907	12.555757	27.896110
47948		8.351414	12.693138	27.605080
47949		8.181796	12.818833	27.318420
47950		8.047841	12.935096	27.036013
47951		7.938560	13.040698	26.756579
47952		7.859414	13.138927	26.481381
47953		7.806002	13.237923	26.209448
47954		7.740281	13.331394	25.938855
47955		7.631439	13.423879	25.665458
47956		7.480647	13.516588	25.396984
47957		7.320258	13.606316	25.128457
47958		7.189973	13.694686	24.872688
47959		7.084590	13.778521	24.623203
47960		6.999205	13.862568	24.377272
47961		6.918718	13.943829	24.131668
47962		6.863810	14.026268	23.882435
47963		6.837035	14.111127	23.640706
47964		6.800167	14.199810	23.397211
47965		6.719802	14.292685	23.149071
47966		6.595387	14.398099	22.896224
47967		6.444742	14.512709	22.643389
47968		6.289717	14.627067	22.388958
47969		6.152803	14.740729	22.135906
47970		6.042375	14.858364	21.886971
47971		5.954798	14.976741	21.640199
47972		5.867185	15.096690	21.397172
47973		5.768927	15.218486	21.146353
47974		5.649114	15.340864	20.892895
47975		5.512297	15.467571	20.633711
47976		5.362846	15.594557	20.375129
47977		5.206033	15.724247	20.119057
47978		5.042334	15.854661	19.862709
47979		4.881853	15.987371	19.608825
47980		4.737128	16.109147	19.356568
47981		4.619902	16.219638	19.110255
47982		4.530342	16.316065	18.866861
47983		4.476585	16.397979	18.632870
47984		4.449516	16.467742	18.409503
47985		4.429220	16.537088	18.203600
47986		4.397010	16.603814	18.014141
47987		4.358210	16.666839	17.839463
47988		4.295276	16.720656	17.670335
47989		4.217111	16.770123	17.513402
47990		4.141598	16.805112	17.372718
47991		4.078092	16.831257	17.254192
47992		4.037243	16.852546	17.156568
47993		4.005846	16.865165	17.074454
47994		3.985890	16.873379	17.006486
47995		3.976976	16.885493	16.947119
47996		3.961510	16.899559	16.890754
47997		3.933044	16.919851	16.832264
47998		3.890598	16.941993	16.776584
47999		3.853410	16.967814	16.718003
48000		3.834211	17.003442	16.656047
48001		3.823558	17.040353	16.585678
48002		3.820302	17.080958	16.505678
48003		3.816851	17.121607	16.417676
48004		3.809403	17.159935	16.324010
48005		3.804845	17.193332	16.236135
48006		3.794482	17.225455	16.146412
48007		3.771519	17.260580	16.062218
48008		3.729606	17.297231	15.981670
48009		3.667778	17.334796	15.902215
48010		3.586342	17.375443	15.819069
48011		3.496286	17.415330	15.744436
48012		3.401146	17.466679	15.676718
48013		3.285210	17.525836	15.619676
48014		3.152436	17.582606	15.565608
48015		2.990113	17.637774	15.515647
48016		2.818737	17.688993	15.470354
48017		2.678485	17.729849	15.440597
48018		2.571046	17.757654	15.418607
48019		2.538458	17.764491	15.410353
48020		2.584148	17.757480	15.417718
48021		2.688672	17.741774	15.443490
48022		2.800658	17.717791	15.477223
48023		2.881133	17.696737	15.518181
48024		2.924202	17.671386	15.564252
48025		2.937319	17.645336	15.610471
48026		2.937625	17.624506	15.655061
48027		2.940261	17.609305	15.703231
48028		2.945406	17.600359	15.749460
48029		2.952992	17.596191	15.793251
48030		2.993794	17.605234	15.829726
48031		3.093553	17.633146	15.872223
48032		3.243538	17.670666	15.924508
48033		3.384028	17.715456	15.979714
48034		3.477617	17.758960	16.043436
48035		3.500903	17.797860	16.110353
48036		3.455255	17.830448	16.178433
48037		3.340336	17.841013	16.245501
48038		3.299881	17.847892	16.301591
48039		3.242868	17.837819	16.367072
48040		3.257320	17.839701	16.413518
48041		3.251640	17.857944	16.424376
48042		3.312534	17.874919	16.390217
48043		3.429092	17.867823	16.321449
48044		3.606281	17.864589	16.230724
48045		3.847538	17.846019	16.130161
48046		4.136799	17.804847	16.038440
48047		4.442045	17.750470	15.958626
48048		4.752496	17.682208	15.895685
48049		5.060821	17.607346	15.852732
48050		5.329235	17.545306	15.812685
48051		5.561443	17.490887	15.765664
48052		5.778666	17.453035	15.719524
48053		5.988227	17.443535	15.669457
48054		6.222011	17.451232	15.613043
48055		6.484587	17.480235	15.568306
48056		6.777174	17.517235	15.518763
48057		7.069398	17.577527	15.465585
48058		7.345050	17.658477	15.394864
48059		7.618058	17.764047	15.300362
48060		7.873602	17.896666	15.183181
48061		8.096105	18.070034	15.049866
48062		8.226907	18.272097	14.898387
48063		8.277358	18.481940	14.733935
48064		8.257406	18.691893	14.560835
48065		8.193413	18.904906	14.388479
48066		8.166387	19.121145	14.218023
48067		8.296336	19.362519	14.097967
48068		8.542283	19.623336	14.008313
48069		8.874530	19.839572	13.943009
48070		9.120468	20.031357	13.892120
48071		9.193535	20.197758	13.821680
48072		9.152744	20.337796	13.764477
48073		9.093099	20.426150	13.737531
48074		9.166065	20.440901	13.766068
48075		9.233143	20.354424	13.815965
48076		9.234091	20.166423	13.855472
48077		8.972251	20.048983	13.853708
48078		8.674757	19.951728	13.813773
48079		8.483739	19.793243	13.819403
48080		8.361461	19.640195	13.883731
48081		8.095381	19.509622	13.936675
48082		7.693905	19.379930	13.955017
48083		7.294079	19.254383	13.976205
48084		6.886492	19.145368	13.990500
48085		6.492171	19.067269	13.989127
48086		6.155831	19.021232	13.980089
48087		5.905669	19.000523	13.967733
48088		5.745506	19.003248	13.963193
48089		5.655763	19.004978	13.974196
48090		5.591603	19.002979	13.982756
48091		5.532120	18.992170	13.985148
48092		5.495054	18.980603	13.984079
48093		5.484239	18.972496	13.974407
48094		5.469342	18.971502	13.968958
48095		5.488771	18.963823	13.965753
48096		5.495593	18.975182	13.954350
48097		5.471409	19.004897	13.935339
48098		5.486235	19.015544	13.928381
48099		5.501412	19.029896	13.933551
48100		5.510458	19.044797	13.935323
48101		5.523580	19.058972	13.940387
48102		5.538814	19.077693	13.959050
48103		5.535068	19.094044	13.978776
48104		5.513565	19.113241	13.997044
48105		5.479011	19.139969	14.013758
48106		5.451781	19.168435	14.032423
48107		5.427373	19.201092	14.044844
48108		5.391454	19.241782	14.042984
48109		5.333713	19.290345	14.031316
48110		5.257881	19.346367	14.011890
48111		5.156063	19.407372	13.984667
48112		5.030365	19.477821	13.949094
48113		4.883851	19.554726	13.905083
48114		4.721092	19.632300	13.857094
48115		4.565327	19.702448	13.808142
48116		4.443186	19.764280	13.767904
48117		4.354881	19.821486	13.736970
48118		4.284035	19.875803	13.702842
48119		4.216215	19.928979	13.675228
48120		4.117735	19.986135	13.657442
48121		3.967577	20.045020	13.645520
48122		3.787994	20.094712	13.644703
48123		3.600805	20.119453	13.662067
48124		3.480620	20.128840	13.725030
48125		3.292063	20.134072	13.774310
48126		3.137756	20.137629	13.867699
48127		2.914309	20.138225	13.978645
48128		2.603724	20.155834	14.099850
48129		2.266772	20.173184	14.212926
48130		1.975846	20.196280	14.328032
48131		1.755677	20.181122	14.452752
48132		1.657001	20.162938	14.609284
48133		1.576301	20.137538	14.758106
48134		1.553631	20.087406	14.921704
48135		1.567283	20.023328	15.113610
48136		1.601406	19.936739	15.323550
48137		1.664077	19.829264	15.562966
48138		1.744076	19.707795	15.826565
48139		1.843303	19.572875	16.101275
48140		1.963630	19.439479	16.388019
48141		2.097022	19.313462	16.672155
48142		2.228849	19.189613	16.957215
48143		2.357357	19.053488	17.233346
48144		2.493215	18.900798	17.505549
48145		2.637326	18.727612	17.774895
48146		2.760074	18.542575	18.039403
48147		2.867758	18.352163	18.299187
48148		2.966320	18.159320	18.539580
48149		3.117152	17.969231	18.767235
48150		3.339566	17.787806	18.973552
48151		3.633991	17.618929	19.159421
48152		3.971954	17.456868	19.321469
48153		4.328772	17.292589	19.459818
48154		4.666722	17.134678	19.588317
48155		4.946402	16.988439	19.708978
48156		5.140096	16.855606	19.833856
48157		5.223623	16.745709	19.958717
48158		5.220217	16.661165	20.091735
48159		5.134017	16.607852	20.220653
48160		5.033698	16.569512	20.343042
48161		4.973203	16.534222	20.469147
48162		4.957139	16.501910	20.593094
48163		4.962070	16.465740	20.717249
48164		4.984914	16.423046	20.842079
48165		5.028307	16.375735	20.973431
48166		5.074452	16.322267	21.113975
48167		5.117554	16.263906	21.262339
48168		5.140479	16.198729	21.407746
48169		5.138483	16.126613	21.544954
48170		5.127940	16.051754	21.685782
48171		5.113506	15.970200	21.825805
48172		5.127592	15.876464	21.964204
48173		5.181017	15.766611	22.102237
48174		5.279560	15.646797	22.241072
48175		5.414451	15.514743	22.370994
48176		5.567727	15.377408	22.489484
48177		5.731496	15.232027	22.594447
48178		5.897663	15.079139	22.695147
48179		6.063053	14.921128	22.801937
48180		6.223320	14.756021	22.920892
48181		6.367564	14.584592	23.061529
48182		6.508339	14.414706	23.232634
48183		6.642189	14.241688	23.430359
48184		6.777830	14.074389	23.656139
48185		6.901834	13.905585	23.893798
48186		7.036805	13.732386	24.142756
48187		7.150841	13.566612	24.399986
48188		7.217836	13.398149	24.642250
48189		7.277326	13.226297	24.878142
48190		7.377327	13.051752	25.112277
48191		7.502128	12.868384	25.335567
48192		7.653699	12.671389	25.553623
48193		7.794672	12.478370	25.762127
48194		7.917296	12.292783	25.953391
48195		8.040370	12.109768	26.134699
48196		8.155623	11.935546	26.304064
48197		8.252993	11.769708	26.465298
48198		8.329264	11.612263	26.624366
48199		8.363538	11.459303	26.774639
48200		8.364168	11.310656	26.917692
48201		8.359969	11.156903	27.055021
48202		8.387297	11.001515	27.194217
48203		8.426538	10.840132	27.330430
48204		8.476718	10.680723	27.470205
48205		8.513523	10.532058	27.609947
48206		8.553206	10.385584	27.753410
48207		8.580554	10.238797	27.896780
48208		8.583382	10.094111	28.039658
48209		8.543716	9.949692	28.173264
48210		8.468442	9.805927	28.298308
48211		8.379453	9.662017	28.409556
48212		8.312764	9.514098	28.520424
48213		8.266958	9.366726	28.626252
48214		8.252443	9.214503	28.729006
48215		8.267218	9.064827	28.829714
48216		8.322394	8.919714	28.930761
48217		8.392908	8.771892	29.027106
48218		8.434566	8.626971	29.110731
48219		8.475714	8.489779	29.184426
48220		8.539266	8.347571	29.245160
48221		8.640128	8.209897	29.302320
48222		8.748755	8.074889	29.352590
48223		8.837651	7.969486	29.402198
48224		8.895001	7.889671	29.445695
48225		8.923190	7.817636	29.476771
48226		9.003627	7.740637	29.516793
48227		9.097004	7.660378	29.552875
48228		9.194870	7.597101	29.589675
48229		9.232464	7.525886	29.622749
48230		9.274929	7.446019	29.649850
48231		9.342632	7.361187	29.680387
48232		9.450434	7.274725	29.713005
48233		9.563104	7.194573	29.752030
48234		9.675621	7.121782	29.795526
48235		9.761865	7.051836	29.845559
48236		9.823745	6.990126	29.898074
48237		9.884308	6.921773	29.960141
48238		9.967532	6.850653	30.025157
48239		10.045451	6.772408	30.097383
48240		10.112355	6.696638	30.174106
48241		10.166743	6.621024	30.254601
48242		10.225427	6.556346	30.340446
48243		10.289699	6.495232	30.427056
48244		10.357173	6.442288	30.515481
48245		10.424987	6.400168	30.599064
48246		10.472715	6.365730	30.671068
48247		10.497231	6.335390	30.724708
48248		10.514616	6.309260	30.762445
48249		10.544045	6.281253	30.786090
48250		10.595512	6.251286	30.797148
48251		10.649739	6.207050	30.799496
48252		10.707593	6.165950	30.795769
48253		10.748020	6.109447	30.781168
48254		10.767355	6.071632	30.764367
48255		10.774838	6.035725	30.747937
48256		10.778683	6.012838	30.737555
48257		10.785702	5.997272	30.735259
48258		10.774490	5.988552	30.733029
48259		10.730488	5.985222	30.731583
48260		10.660939	5.987676	30.732017
48261		10.587741	5.992231	30.738986
48262		10.536732	5.998742	30.748389
48263		10.508926	6.006502	30.764049
48264		10.495249	6.017015	30.783915
48265		10.486642	6.031713	30.805824
48266		10.470023	6.055168	30.830514
48267		10.441458	6.085357	30.852738
48268		10.399055	6.118694	30.873835
48269		10.353995	6.157824	30.893767
48270		10.294772	6.192454	30.905278
48271		10.240600	6.222543	30.909902
48272		10.190648	6.251608	30.908480
48273		10.136180	6.280575	30.901756
48274		10.083697	6.307144	30.891542
48275		10.047386	6.332194	30.883242
48276		10.021467	6.353933	30.873961
48277		9.996622	6.369124	30.860127
48278		9.985478	6.380416	30.847060
48279		9.982704	6.379663	30.831706
48280		9.989570	6.367790	30.815568
48281		10.011541	6.342958	30.803943
48282		10.038426	6.306883	30.793705
48283		10.078233	6.265820	30.788995
48284		10.139866	6.218492	30.789890
48285		10.217435	6.182828	30.795344
48286		10.312135	6.141363	30.798176
48287		10.402037	6.107337	30.808225
48288		10.518437	6.081995	30.840124
48289		10.814775	6.088855	30.935797
48290		11.107830	5.965324	31.075855
48291		11.361607	5.916227	31.168000
48292		11.525158	5.882020	31.276487
48293		11.588440	5.858498	31.390035
48294		11.650705	5.843040	31.503648
48295		11.720310	5.843042	31.621196
48296		11.763258	5.850986	31.731083
48297		11.769228	5.855038	31.840136
48298		11.758366	5.850533	31.948188
48299		11.756284	5.829773	32.055650
48300		11.779272	5.781445	32.152488
48301		11.817215	5.714805	32.242051
48302		11.852786	5.635751	32.320471
48303		11.857771	5.554528	32.383735
48304		11.850123	5.484495	32.429911
48305		11.823296	5.422600	32.453439
48306		11.783893	5.372265	32.440935
48307		11.725690	5.326264	32.401603
48308		11.668671	5.267018	32.355019
48309		11.668738	5.239548	32.318497
48310		11.760234	5.241369	32.285056
48311		12.007248	5.264970	32.266382
48312		12.398858	5.317781	32.273226
48313		12.841191	5.396674	32.306483
48314		13.183847	5.509622	32.339146
48315		13.260233	5.636329	32.356718
48316		13.035366	5.758237	32.336417
48317		12.699923	5.851577	32.325838
48318		12.461083	5.877950	32.272068
48319		12.461109	5.836783	32.186834
48320		12.553640	5.748254	32.080716
48321		12.768274	5.634300	31.986694
48322		13.025172	5.552818	31.895424
48323		13.389257	5.459975	31.780351
48324		13.723116	5.361478	31.699756
48325		13.937876	5.284351	31.666077
48326		14.019031	5.244263	31.655304
48327		13.998786	5.243664	31.654592
48328		13.949676	5.262314	31.670693
48329		13.916588	5.279586	31.716554
48330		13.902354	5.298483	31.781986
48331		13.911774	5.321438	31.853982
48332		13.978896	5.339405	31.932455
48333		14.121447	5.366557	32.006307
48334		14.286278	5.387354	32.063665
48335		14.467666	5.417538	32.125730
48336		14.574334	5.451747	32.167543
48337		14.609492	5.497307	32.204009
48338		14.597765	5.546947	32.236268
48339		14.545038	5.596711	32.265991
48340		14.473617	5.642093	32.286334
48341		14.420814	5.688351	32.304112
48342		14.389577	5.729127	32.317810
48343		14.378144	5.764789	32.325529
48344		14.375058	5.796163	32.325039
48345		14.381225	5.822367	32.320090
48346		14.397059	5.843874	32.312073
48347		14.414064	5.861601	32.303984
48348		14.429375	5.872177	32.299456
48349		14.445352	5.880387	32.295690
48350		14.471057	5.881781	32.294137
48351		14.515600	5.865976	32.291659
48352		14.593181	5.835512	32.292388
48353		14.690945	5.800219	32.299178
48354		14.801845	5.762350	32.315783
48355		14.890893	5.723816	32.342593
48356		14.948006	5.681871	32.380686
48357		14.987831	5.643381	32.437774
48358		14.994536	5.606629	32.500559
48359		15.012538	5.583046	32.567219
48360		15.059806	5.562224	32.640768
48361		15.112326	5.546461	32.706133
48362		15.173420	5.530583	32.763491
48363		15.229212	5.496464	32.839683
48364		15.271836	5.477368	32.889408
48365		15.347396	5.434042	32.939749
48366		15.452028	5.380235	32.993505
48367		15.550603	5.321370	33.047661
48368		15.679106	5.244258	33.105941
48369		15.808850	5.178694	33.165312
48370		15.948672	5.102094	33.238242
48371		16.125157	5.016815	33.318117
48372		16.266286	4.964632	33.401915
48373		16.343520	4.917296	33.463170
48374		16.306773	4.873220	33.503727
48375		16.173335	4.837642	33.519048
48376		15.971839	4.815775	33.510132
48377		15.752124	4.813287	33.477467
48378		15.528571	4.832295	33.427466
48379		15.326514	4.873109	33.367216
48380		15.133919	4.935530	33.294386
48381		14.955011	5.027496	33.207333
48382		14.777473	5.139068	33.112137
48383		14.575355	5.263649	33.005287
48384		14.355269	5.401692	32.888376
48385		14.143144	5.550330	32.761148
48386		13.940667	5.713293	32.630668
48387		13.758410	5.891126	32.500382
48388		13.595109	6.081964	32.372184
48389		13.451833	6.293270	32.244051
48390		13.337175	6.517912	32.121134
48391		13.263067	6.750296	31.999235
48392		13.235319	6.976191	31.886391
48393		13.222097	7.192249	31.773382
48394		13.149897	7.395869	31.652798
48395		12.979269	7.600850	31.524498
48396		12.764799	7.813939	31.392514
48397		12.570345	8.036851	31.260842
48398		12.441950	8.250731	31.121594
48399		12.378717	8.469465	30.982886
48400		12.343967	8.696010	30.840386
48401		12.308304	8.931121	30.684278
48402		12.250306	9.168580	30.511183
48403		12.161766	9.412501	30.315804
48404		12.074251	9.656988	30.109563
48405		11.973728	9.893091	29.892226
48406		11.831235	10.106827	29.659581
48407		11.646151	10.311765	29.415669
48408		11.428075	10.511342	29.164196
48409		11.202327	10.707538	28.902972
48410		10.989792	10.903293	28.635552
48411		10.796474	11.095911	28.361838
48412		10.612249	11.285072	28.085899
48413		10.435132	11.469646	27.812822
48414		10.261747	11.652121	27.538274
48415		10.089247	11.829324	27.260856
48416		9.903222	12.005267	26.982309
48417		9.691534	12.184754	26.697495
48418		9.477741	12.367892	26.410675
48419		9.260348	12.553411	26.123589
48420		9.044391	12.745128	25.825838
48421		8.825956	12.945297	25.521941
48422		8.596392	13.156375	25.208190
48423		8.347808	13.365555	24.881684
48424		8.084254	13.578936	24.541718
48425		7.808059	13.799275	24.189808
48426		7.536762	14.018094	23.826191
48427		7.277122	14.234036	23.452929
48428		7.014587	14.447032	23.072620
48429		6.742564	14.661987	22.687757
48430		6.451141	14.880488	22.298287
48431		6.160155	15.102920	21.898594
48432		5.894144	15.321962	21.493251
48433		5.651670	15.540584	21.084132
48434		5.426595	15.753631	20.670528
48435		5.201092	15.964532	20.257343
48436		4.961378	16.176846	19.850644
48437		4.690556	16.392396	19.452316
48438		4.399027	16.614737	19.064554
48439		4.103123	16.826663	18.686800
48440		3.809810	17.022810	18.313221
48441		3.518542	17.207543	17.940929
48442		3.266878	17.380914	17.582107
48443		3.066602	17.534216	17.248187
48444		2.909963	17.677860	16.934849
48445		2.768216	17.813066	16.633378
48446		2.628557	17.951994	16.333930
48447		2.505356	18.093792	16.031949
48448		2.433147	18.233889	15.738756
48449		2.424613	18.365272	15.465467
48450		2.461036	18.487946	15.216181
48451		2.506428	18.599416	14.990448
48452		2.538708	18.713065	14.787257
48453		2.564087	18.829493	14.612689
48454		2.589431	18.943895	14.471164
48455		2.606412	19.054435	14.352441
48456		2.587182	19.168196	14.246850
48457		2.514906	19.289456	14.148264
48458		2.349799	19.414432	14.029281
48459		2.157851	19.512565	13.910585
48460		2.036069	19.562472	13.846053
48461		2.076393	19.540719	13.834041
48462		2.250088	19.479168	13.869081
48463		2.437885	19.406300	13.924079
48464		2.555277	19.347734	13.983190
48465		2.600864	19.306906	14.043537
48466		2.573699	19.285580	14.102325
48467		2.504008	19.284693	14.156830
48468		2.423267	19.299715	14.202053
48469		2.365838	19.322329	14.233053
48470		2.332407	19.351565	14.255182
48471		2.312288	19.381514	14.265710
48472		2.279748	19.426699	14.264387
48473		2.209051	19.488030	14.236571
48474		2.162989	19.561760	14.232846
48475		2.076433	19.648949	14.224049
48476		1.952813	19.737792	14.212505
48477		1.790812	19.827096	14.221376
48478		1.536004	19.924328	14.208045
48479		1.373130	20.008167	14.213715
48480		1.188128	20.074643	14.219126
48481		1.054886	20.125407	14.201158
48482		0.993699	20.161056	14.180965
48483		1.020586	20.181402	14.167498
48484		1.155931	20.204893	14.165514
48485		1.385472	20.243087	14.172492
48486		1.700811	20.284795	14.189334
48487		2.067729	20.323661	14.201003
48488		2.473031	20.356044	14.216495
48489		2.903617	20.382965	14.239726
48490		3.353786	20.406285	14.268701
48491		3.829930	20.430596	14.304217
48492		4.318890	20.450945	14.340122
48493		4.822494	20.467892	14.366110
48494		5.322067	20.485040	14.387319
48495		5.790084	20.502213	14.401317
48496		6.205220	20.511421	14.411140
48497		6.556740	20.512296	14.416431
48498		6.840314	20.507201	14.416084
48499		7.076213	20.496050	14.415633
48500		7.263721	20.473191	14.412857
48501		7.400276	20.445360	14.411834
48502		7.493233	20.412706	14.406060
48503		7.560391	20.380063	14.395842
48504		7.619460	20.342545	14.386730
48505		7.646001	20.294662	14.375530
48506		7.621386	20.247870	14.356359
48507		7.554319	20.197164	14.328401
48508		7.483804	20.137701	14.293079
48509		7.455925	20.067842	14.259046
48510		7.469816	19.999316	14.237279
48511		7.492604	19.941408	14.223850
48512		7.414180	19.868242	14.185973
48513		7.203187	19.767787	14.110703
48514		6.899125	19.674558	14.042389
48515		6.601107	19.597597	13.995355
48516		6.388333	19.528599	13.955238
48517		6.294573	19.464361	13.914537
48518		6.304511	19.405809	13.888366
48519		6.372564	19.358890	13.882552
48520		6.456282	19.326861	13.882266
48521		6.532779	19.311446	13.870222
48522		6.594119	19.302940	13.843266
48523		6.599670	19.304343	13.806454
48524		6.556048	19.334958	13.764816
48525		6.534452	19.396170	13.736817
48526		6.567329	19.482840	13.730383
48527		6.642211	19.583804	13.733450
48528		6.677166	19.687049	13.713172
48529		6.614421	19.809531	13.676346
48530		6.432308	19.937696	13.645339
48531		6.117193	20.062348	13.597468
48532		5.738272	20.196815	13.559560
48533		5.295778	20.324814	13.525177
48534		4.850043	20.438412	13.497766
48535		4.394019	20.543822	13.477193
48536		3.955336	20.628827	13.445043
48537		3.534631	20.709950	13.407029
48538		3.167130	20.776456	13.360150
48539		2.966661	20.789542	13.319503
48540		3.084594	20.691847	13.318343
48541		3.362457	20.600365	13.347144
48542		3.678466	20.535712	13.394286
48543		3.859021	20.503020	13.429414
48544		3.926462	20.490154	13.458613
48545		3.910033	20.489919	13.479558
48546		3.859517	20.496392	13.492216
48547		3.814641	20.497755	13.495063
48548		3.800647	20.495518	13.494498
48549		3.792677	20.491160	13.488813
48550		3.777450	20.486059	13.476675
48551		3.741280	20.476865	13.458478
48552		3.695322	20.465588	13.433195
48553		3.647973	20.453712	13.403025
48554		3.612552	20.436243	13.370088
