// General information: 
//  MT Manager version: 2022.2.0 
//  XDA version: 2022.2.0 build 7381 rev 124627 built on 2023-07-19
// Device information: 
//  DeviceId: 00B447F7
//  ProductCode: MTW2-3A7G6
//  Firmware Version: 4.3.5
//  Hardware Version: 2.0.0
// Device settings: 
//  Filter Profile: human(46.1)
//  Option Flags: Orientation Smoother Disabled, Position/Velocity Smoother Disabled, Continuous Zero Rotation Update Disabled, AHS Disabled, ICC Disabled
// Coordinate system: ENU
PacketCounter	SampleTimeFine	Roll	Pitch	Yaw
59161		22.003133	9.053507	168.169933
59162		21.995261	9.065743	168.168977
59163		21.978923	9.088578	168.152782
59164		21.918818	9.121613	168.134270
59165		21.877144	9.142323	168.129284
59166		21.851656	9.167415	168.115264
59167		21.754258	9.236373	168.075739
59168		21.615779	9.334227	168.042276
59169		21.531166	9.436073	167.992159
59170		21.433410	9.563996	167.878599
59171		21.159615	9.740587	167.755801
59172		20.899686	9.894990	167.678154
59173		20.697662	10.070423	167.566581
59174		20.424504	10.276082	167.441513
59175		20.226715	10.445466	167.386353
59176		20.165509	10.504445	167.390307
59177		20.188466	10.519447	167.397886
59178		20.199462	10.535033	167.399515
59179		20.189886	10.531445	167.398935
59180		20.181544	10.527609	167.389215
59181		20.140440	10.539230	167.380676
59182		20.142911	10.515895	167.382299
59183		20.210132	10.451590	167.391555
59184		20.224910	10.415077	167.396388
59185		20.176218	10.440702	167.391833
59186		20.172245	10.461189	167.378856
59187		20.140205	10.506917	167.346896
59188		19.999312	10.623554	167.306609
59189		19.878503	10.750674	167.263425
59190		19.764540	10.900809	167.209429
59191		19.544188	11.041321	167.106653
59192		19.497192	11.110957	167.136082
59193		19.419633	11.293303	167.071052
59194		19.287694	11.538007	166.989926
59195		19.037996	11.834183	166.962156
59196		18.816599	12.030306	166.929264
59197		18.590507	12.207229	166.881217
59198		18.507888	12.414783	166.937187
59199		18.440482	12.660832	166.944373
59200		18.309534	12.924425	166.944911
59201		18.149380	13.127346	166.973037
59202		17.998165	13.232779	166.955872
59203		17.856937	13.372106	166.941314
59204		17.739243	13.485270	166.900370
59205		17.711715	13.511291	166.788325
59206		17.652173	13.620700	166.691966
59207		17.563891	13.794146	166.660357
59208		17.462793	13.910101	166.533109
59209		17.399308	14.057338	166.432810
59210		17.300646	14.338439	166.419601
59211		17.212718	14.603024	166.503021
59212		17.197099	14.600275	166.514438
59213		17.268730	14.601497	166.619097
59214		17.233582	14.582094	166.667211
59215		17.197006	14.634639	166.731238
59216		17.190248	14.644390	166.778543
59217		17.227896	14.638692	166.798198
59218		17.184341	14.558113	166.742492
59219		17.181441	14.529159	166.768693
59220		17.224923	14.504611	166.789679
59221		17.328654	14.440663	166.745984
59222		17.396363	14.330517	166.589399
59223		17.417980	14.344657	166.430899
59224		17.399437	14.392313	166.320318
59225		17.420713	14.333168	166.254899
59226		17.419757	14.258678	166.228619
59227		17.417517	14.253134	166.305246
59228		17.463643	14.163152	166.391000
59229		17.578907	13.997694	166.433272
59230		17.609885	13.948657	166.406385
59231		17.582763	13.920632	166.361096
59232		17.663053	13.833708	166.350162
59233		17.765787	13.766702	166.287409
59234		17.763516	13.698070	166.167928
59235		17.712130	13.671813	166.129807
59236		17.715892	13.610714	166.132843
59237		17.824604	13.408575	166.125132
59238		17.899773	13.141921	166.106264
59239		17.967831	12.885944	166.126086
59240		18.218626	12.594849	166.167003
59241		18.565212	12.289235	166.256011
59242		18.846484	12.121281	166.372734
59243		19.044670	12.040112	166.475156
59244		19.282115	11.890557	166.574111
59245		19.616632	11.662887	166.675665
59246		19.974438	11.431888	166.800891
59247		20.488974	11.052977	166.927125
59248		21.013684	10.543474	167.114821
59249		21.359005	10.060960	167.205013
59250		21.802952	9.529856	167.112936
59251		22.264232	8.413625	166.724040
59252		22.744774	6.823741	166.178504
59253		23.072852	6.258398	165.990443
59254		23.142904	5.815305	165.802020
59255		22.856880	4.073909	165.750997
59256		22.805213	2.037593	165.576641
59257		22.798492	1.424088	165.552047
59258		22.811304	1.391048	165.607540
59259		22.936153	1.344060	165.705076
59260		23.403417	1.599782	166.128788
59261		23.897399	1.890636	166.446529
59262		24.331538	2.186440	166.506619
59263		24.868953	2.544089	166.583533
59264		25.298167	2.929463	166.717313
59265		25.226011	2.908589	166.850388
59266		24.906370	2.912933	166.965113
59267		24.692314	2.885036	166.951447
59268		24.548285	2.757384	166.941823
59269		24.595323	2.473355	167.040212
59270		24.711092	2.158315	167.143503
59271		24.727968	2.113587	167.233624
59272		24.732396	2.123771	167.300331
59273		24.767195	2.107859	167.288740
59274		24.751023	2.052130	167.244036
59275		24.701439	2.002881	167.246375
59276		24.749872	2.011895	167.272994
59277		24.954514	2.027610	167.324007
59278		25.152955	2.055902	167.372804
59279		25.271668	2.091081	167.431154
59280		25.295855	2.110156	167.486177
59281		25.288246	2.147565	167.523261
59282		25.203210	2.243256	167.542634
59283		25.138933	2.281723	167.540222
59284		25.205531	2.241715	167.514983
59285		25.342210	2.179004	167.522368
59286		25.434556	2.148853	167.552533
59287		25.466423	2.149127	167.552587
59288		25.382190	2.177326	167.570441
59289		25.312386	2.181653	167.605068
59290		25.336977	2.178326	167.631269
59291		25.380115	2.188471	167.635037
59292		25.316441	2.206155	167.635670
59293		25.232892	2.197568	167.643186
59294		25.245081	2.174885	167.650159
59295		25.365533	2.153810	167.633529
59296		25.411482	2.133002	167.639755
59297		25.457627	2.077438	167.658942
59298		25.596803	2.006431	167.716248
59299		25.780188	1.960387	167.780852
59300		25.788358	1.937315	167.808503
59301		25.457408	2.016456	167.809700
59302		25.132216	2.026376	167.809901
59303		25.113201	2.032652	167.833462
59304		25.231266	2.019574	167.889563
59305		25.220768	2.054903	167.967682
59306		25.141284	2.138057	168.070131
59307		25.094041	2.169145	168.120029
59308		24.899382	2.189013	168.106841
59309		24.615823	2.224625	168.037720
59310		24.347360	2.270205	167.918892
59311		24.124152	2.276482	167.851951
59312		24.018664	2.345630	167.806345
59313		24.048959	2.421140	167.782721
59314		23.997410	2.536306	167.714632
59315		23.690000	2.721940	167.532722
59316		23.355950	2.856595	167.306957
59317		23.228792	2.871912	167.216175
59318		23.248889	2.896347	167.201869
59319		23.244087	3.000296	167.242708
59320		23.228270	3.091755	167.409737
59321		23.353392	3.055291	167.548040
59322		23.469337	2.950951	167.478183
59323		23.318960	2.987598	167.311419
59324		22.987361	3.111284	167.153021
59325		22.693401	3.220506	167.073644
59326		22.544444	3.291569	166.974104
59327		22.518716	3.331653	166.875861
59328		22.489495	3.403876	166.691386
59329		22.455598	3.465755	166.454475
59330		22.416203	3.445868	166.203583
59331		22.713518	2.983500	165.925829
59332		23.438460	2.531433	165.688453
59333		23.795453	2.430769	165.535901
59334		23.821595	2.460218	165.403126
59335		23.645088	2.593522	165.226371
59336		23.409190	2.688036	165.084199
59337		23.321940	2.653724	165.018479
59338		23.438407	2.569209	165.047272
59339		23.561909	2.529256	165.161091
59340		23.504473	2.572653	165.329717
59341		23.464612	2.569121	165.558832
59342		23.592032	2.511991	165.770594
59343		23.743747	2.464662	165.924452
59344		23.787767	2.467109	165.992880
59345		23.769679	2.488577	166.017730
59346		23.822076	2.471892	166.011796
59347		23.913552	2.449012	166.022719
59348		23.967651	2.390228	166.047274
59349		24.014608	2.288585	166.069319
59350		24.097895	2.226904	166.095374
59351		24.344326	2.215572	166.161904
59352		24.587604	2.207116	166.225408
59353		24.330495	1.977834	166.133802
59354		24.364899	1.939082	166.176327
59355		24.390264	1.833447	166.383662
59356		23.914031	1.554553	166.641196
59357		22.816462	1.330313	166.902942
59358		21.868827	1.815269	167.276580
59359		21.739739	3.070800	167.606213
59360		22.747005	5.007756	168.070158
59361		22.944769	6.883243	168.243960
59362		22.032845	8.384705	168.347068
59363		21.020195	9.468635	168.305495
59364		19.998120	10.471969	168.259922
59365		19.148547	11.415177	168.383143
59366		18.657640	12.185873	168.521533
59367		18.642909	12.466088	168.798982
59368		18.640072	12.627138	168.911280
59369		18.564840	12.642046	168.961990
59370		18.441888	12.751239	168.956831
59371		18.292228	12.901411	168.923634
59372		18.168922	12.905813	168.884024
59373		18.123152	12.778679	168.860888
59374		18.129881	12.655772	168.850431
59375		18.098049	12.602211	168.841789
59376		18.050486	12.621478	168.836109
59377		18.043951	12.659454	168.821172
59378		18.019758	12.669360	168.808379
59379		17.995418	12.670595	168.799176
59380		17.965776	12.649967	168.794778
59381		17.969618	12.613038	168.795207
59382		18.005986	12.605829	168.802727
59383		18.025317	12.583729	168.804933
59384		18.044966	12.553070	168.803404
59385		18.022439	12.575213	168.801489
59386		17.982558	12.622231	168.790348
59387		17.943784	12.643038	168.784023
59388		17.958107	12.619685	168.785397
59389		17.990221	12.585719	168.791436
59390		18.009229	12.563174	168.786242
59391		18.010503	12.546557	168.763444
59392		17.971394	12.542552	168.733894
59393		17.925085	12.548333	168.723265
59394		17.941029	12.540274	168.727556
59395		17.983354	12.538149	168.732282
59396		18.002231	12.535161	168.731001
59397		18.009512	12.543906	168.731468
59398		18.005040	12.550846	168.720160
59399		17.982351	12.576763	168.703620
59400		17.957327	12.610812	168.685092
59401		17.931831	12.673876	168.666521
59402		17.893277	12.796617	168.613039
59403		17.760508	12.967757	168.532723
59404		17.573983	13.165462	168.482355
59405		17.583706	13.365207	168.471070
59406		17.767730	13.479320	168.519705
59407		17.941487	13.554201	168.508550
59408		17.943192	13.730824	168.577256
59409		17.888011	14.040805	168.687043
59410		17.768810	14.405705	168.756508
59411		17.663295	14.705883	168.773386
59412		17.495801	14.915129	168.736893
59413		17.379726	15.067219	168.732849
59414		17.363643	15.155870	168.726275
59415		17.307014	15.401255	168.681223
59416		17.183957	15.719655	168.607098
59417		17.096933	15.925855	168.533214
59418		17.005717	16.029199	168.447236
59419		17.034139	16.104028	168.406080
59420		17.095579	16.155291	168.303814
59421		17.077575	16.127408	168.101844
59422		17.049852	16.114459	167.877976
59423		17.005065	16.317091	167.700935
59424		16.921701	16.576942	167.550020
59425		16.871014	16.724983	167.489858
59426		16.831718	16.780185	167.434415
59427		16.757149	16.813019	167.302631
59428		16.655911	17.008214	167.076236
59429		16.558870	17.269414	166.939377
59430		16.558772	17.460592	166.865361
59431		16.550439	17.116851	167.026117
59432		16.590827	16.784715	167.177322
59433		16.626861	16.759508	167.340564
59434		16.631922	16.870024	167.480470
59435		16.589136	16.824850	167.483385
59436		16.546812	16.728018	167.438968
59437		16.501158	16.720027	167.457565
59438		16.506063	16.732145	167.498085
59439		16.525488	16.659524	167.516268
59440		16.521484	16.585086	167.480389
59441		16.505078	16.552140	167.397740
59442		16.522008	16.477637	167.352392
59443		16.610810	16.342204	167.357641
59444		16.685456	16.210523	167.267960
59445		16.723720	16.135715	167.128146
59446		16.742326	16.098381	167.044642
59447		16.777321	16.077897	167.106707
59448		16.928608	15.988674	167.204308
59449		17.081153	15.768772	167.111816
59450		17.108025	15.625678	166.944092
59451		16.992604	15.638973	166.886891
59452		16.951883	15.593814	166.881806
59453		16.968286	15.409340	166.851237
59454		16.978523	15.217928	166.804202
59455		16.906503	15.096604	166.775054
59456		16.897762	14.944903	166.760898
59457		17.030149	14.618477	166.775581
59458		17.385516	14.124044	166.850791
59459		18.045128	13.599629	166.993175
59460		18.938389	13.030171	167.250713
59461		19.764596	12.468209	167.635299
59462		20.394787	11.987325	167.898329
59463		21.121140	11.404135	167.998876
59464		21.622272	10.569892	168.008273
59465		21.617414	10.051629	167.936700
59466		21.346516	9.864935	167.949675
59467		21.028227	8.680921	167.834165
59468		20.823987	6.842884	167.506895
59469		20.973567	5.639999	167.339227
59470		20.640141	4.945332	167.388414
59471		20.173358	3.646540	167.594568
59472		19.956638	2.488110	167.861698
59473		19.913852	2.167053	167.930497
59474		20.201852	2.227906	167.932343
59475		20.845943	2.611019	168.127603
59476		21.709286	3.085011	168.460692
59477		22.358441	3.493736	168.605507
59478		22.782452	3.983771	168.622897
59479		23.117036	4.233979	168.797828
59480		23.122857	4.405865	169.072302
59481		23.092314	4.504696	169.233920
59482		23.057823	4.314064	169.269944
59483		23.122629	4.221432	169.254616
59484		23.175731	4.194419	169.235727
59485		23.264781	4.190535	169.253026
59486		23.310311	4.225590	169.279356
59487		23.389689	4.308537	169.332956
59488		23.460469	4.415036	169.377971
59489		23.507832	4.528062	169.402469
59490		23.648277	4.591355	169.421998
59491		23.797285	4.594079	169.437589
59492		23.936691	4.599100	169.462278
59493		23.993623	4.601580	169.473828
59494		24.004153	4.606190	169.478426
59495		23.959807	4.608253	169.477595
59496		23.942772	4.609021	169.484472
59497		23.966442	4.594554	169.480776
59498		23.939918	4.585788	169.464009
59499		23.848560	4.599972	169.449839
59500		23.781961	4.613250	169.443009
59501		23.749175	4.625146	169.436244
59502		23.740693	4.594647	169.422722
59503		23.762920	4.534428	169.422207
59504		23.793971	4.456909	169.425433
59505		23.787336	4.404990	169.432191
59506		23.748031	4.363395	169.429711
59507		23.626492	4.276953	169.400104
59508		23.513490	4.297421	169.238021
59509		23.406918	4.339203	169.145729
59510		23.367742	4.349531	169.059495
59511		23.344439	4.351320	168.992034
59512		23.284645	4.371183	168.981030
59513		23.216689	4.381698	168.982666
59514		23.251535	4.322889	169.006431
59515		23.294290	4.317186	169.015261
59516		23.220553	4.357470	169.048421
59517		23.120311	4.391106	169.056363
59518		23.010120	4.432217	169.028019
59519		22.965504	4.442812	169.026152
59520		22.997347	4.430352	169.070740
59521		23.010946	4.416447	169.081127
59522		22.874452	4.456336	169.026930
59523		22.719584	4.485684	168.975415
59524		22.705675	4.511368	168.935371
59525		22.759191	4.529101	168.915799
59526		22.741088	4.564213	168.843203
59527		22.685219	4.606295	168.727324
59528		22.523548	4.703333	168.665756
59529		22.339661	4.799976	168.645544
59530		22.293316	4.842656	168.659754
59531		22.326398	4.887472	168.683692
59532		22.284887	5.015516	168.678090
59533		22.053414	5.131254	168.645482
59534		21.903688	5.179449	168.678989
59535		21.915091	5.210505	168.804006
59536		21.898694	5.240734	168.933552
59537		21.847257	5.258431	169.024169
59538		21.753502	5.301090	169.084159
59539		21.631711	5.346114	169.147038
59540		21.590686	5.386915	169.210490
59541		21.660999	5.394438	169.283847
59542		21.744409	5.425392	169.365799
59543		21.759523	5.478819	169.426319
59544		21.685110	5.535309	169.454993
59545		21.638496	5.572308	169.465627
59546		21.610895	5.620356	169.477673
59547		21.570117	5.672962	169.483910
59548		21.459347	5.696213	169.445884
59549		21.401620	5.697782	169.387707
59550		21.469359	5.639277	169.360593
59551		21.787367	5.207321	169.249583
59552		22.226061	4.975344	169.159102
59553		22.116955	4.988263	169.077712
59554		22.154024	4.925330	168.945895
59555		22.373888	4.865989	168.847913
59556		22.560419	4.790768	168.741140
59557		22.693051	4.699095	168.566059
59558		22.729197	4.660328	168.304717
59559		22.686256	4.638174	168.064478
59560		22.745156	4.584988	167.915710
59561		22.931992	4.474839	167.872330
59562		23.160702	4.424121	167.913664
59563		23.287409	4.455419	167.951543
59564		23.214457	4.535367	167.951978
59565		23.024932	4.648319	167.932644
59566		22.859750	4.674569	167.934370
59567		22.844416	4.578848	167.938144
59568		23.019278	4.419474	167.927536
59569		23.189838	4.249769	167.940342
59570		23.349612	4.143475	167.922699
59571		23.415806	3.986840	167.907297
59572		23.414494	3.940355	167.991076
59573		23.150878	3.459728	168.012915
59574		23.138142	3.227098	168.062683
59575		23.074827	2.866330	168.140425
59576		22.689992	2.422195	168.198269
59577		22.068254	2.140787	168.397885
59578		21.484348	2.311895	168.798773
59579		21.090019	2.932120	169.025506
59580		21.375671	4.063179	169.145457
59581		22.234862	5.384820	169.147494
59582		22.668893	6.749933	169.083186
59583		22.337989	7.921718	169.059402
59584		21.751451	8.756438	169.192370
59585		21.224747	9.528736	168.984451
59586		20.691033	10.423202	168.529841
59587		20.228599	11.013514	168.432257
59588		19.865797	11.477507	168.531167
59589		19.607174	11.890431	168.521478
59590		19.661877	11.885770	168.448335
59591		19.675310	11.807174	168.356138
59592		19.616835	11.820322	168.302852
59593		19.518106	11.848971	168.248384
59594		19.423515	11.817103	168.207212
59595		19.396611	11.780557	168.198175
59596		19.398198	11.752246	168.192873
59597		19.379869	11.745024	168.185591
59598		19.344435	11.734730	168.183674
59599		19.312236	11.760918	168.180927
59600		19.311250	11.760396	168.171942
59601		19.307387	11.727272	168.170669
59602		19.294772	11.703567	168.173177
59603		19.270026	11.714334	168.176091
59604		19.240605	11.734742	168.172865
59605		19.224853	11.745905	168.165852
59606		19.216226	11.717375	168.170203
59607		19.233461	11.690923	168.179971
59608		19.229256	11.696315	168.180967
59609		19.204258	11.711123	168.179774
59610		19.197957	11.706407	168.185460
59611		19.204796	11.714117	168.186332
59612		19.201693	11.721231	168.183996
59613		19.201540	11.699895	168.189958
59614		19.228247	11.663739	168.202669
59615		19.251438	11.646864	168.208706
59616		19.222929	11.680939	168.200827
59617		19.144199	11.719831	168.185993
59618		19.102627	11.719192	168.178561
59619		19.114114	11.720436	168.182807
59620		19.111557	11.750338	168.185835
59621		19.089410	11.776380	168.191605
59622		19.091783	11.757216	168.205306
59623		19.117923	11.750059	168.209138
59624		19.086773	11.799898	168.199557
59625		19.021929	11.842287	168.189048
59626		18.974490	11.869491	168.180059
59627		18.920148	11.915938	168.188266
59628		18.859576	12.028516	168.189304
59629		18.833000	12.189579	168.164574
59630		18.749568	12.358583	168.087887
59631		18.586124	12.543158	168.061825
59632		18.471671	12.766040	167.964173
59633		18.356064	13.094919	167.833234
59634		18.190811	13.441075	167.765798
59635		18.099971	13.712022	167.845206
59636		18.107652	13.793240	167.806405
59637		18.147098	13.812464	167.841072
59638		18.072400	13.977887	167.854724
59639		17.853482	14.326690	167.896919
59640		17.649156	14.614964	167.987879
59641		17.530224	14.715900	168.053086
59642		17.340930	14.914965	168.100228
59643		17.192944	15.205035	168.182490
59644		17.061566	15.436861	168.154289
59645		16.941805	15.596003	168.118740
59646		16.896687	15.713676	168.144653
59647		16.833701	15.841456	168.059179
59648		16.696439	16.059382	167.948829
59649		16.633588	16.430986	167.948264
59650		16.662240	16.812841	167.991893
59651		16.713332	17.121556	168.035943
59652		16.793471	17.296890	168.129386
59653		16.736447	17.317962	168.171938
59654		16.546461	17.397442	168.252470
59655		16.368645	17.301814	168.515865
59656		16.277800	17.339802	168.754140
59657		16.231021	17.483098	168.860560
59658		16.198645	17.582504	168.944583
59659		16.114578	17.520513	169.027957
59660		16.042241	17.475897	169.110305
59661		16.028283	17.465653	169.149413
59662		15.998584	17.412117	169.127309
59663		15.999960	17.334861	169.209839
59664		16.082464	17.256306	169.345590
59665		16.151954	17.158970	169.354260
59666		16.217469	17.061176	169.250988
59667		16.213026	17.001261	169.129231
59668		16.268072	16.978284	169.045452
59669		16.388324	16.923051	168.950020
59670		16.430121	16.834371	168.698736
59671		16.421218	16.771545	168.394306
59672		16.449842	16.715921	168.221788
59673		16.517725	16.589248	168.056751
59674		16.516992	16.440342	167.866219
59675		16.510415	16.345916	167.766300
59676		16.509484	16.325785	167.756670
59677		16.498460	16.285992	167.749079
59678		16.501590	16.221802	167.751724
59679		16.578674	16.181056	167.788183
59680		16.725526	16.112915	167.786257
59681		16.850340	16.032737	167.699295
59682		16.876054	15.945889	167.597438
59683		16.899507	15.794717	167.512852
59684		16.949510	15.703011	167.460046
59685		16.947603	15.651818	167.453230
59686		16.919268	15.576362	167.459078
59687		16.924355	15.472798	167.480156
59688		16.974692	15.328774	167.504164
59689		17.001623	15.234390	167.544160
59690		17.045179	15.132781	167.602392
59691		17.281834	14.945254	167.677791
59692		17.727233	14.602847	167.777271
59693		18.372522	14.028581	167.942152
59694		19.172137	13.271837	168.149809
59695		20.179943	12.365389	168.501760
59696		20.970499	11.678091	168.731024
59697		21.719938	11.100676	168.788600
59698		22.315503	10.431381	168.686893
59699		22.537000	9.546146	168.437924
59700		22.556002	8.895223	168.208139
59701		22.498373	8.436657	168.043897
59702		22.454401	7.511336	167.794638
59703		22.689488	5.994772	167.589065
59704		22.653173	4.496934	167.234003
59705		22.391741	3.372622	166.991413
59706		22.331846	2.290518	167.016548
59707		22.511788	1.412528	167.202287
59708		22.621187	1.140148	167.160416
59709		22.874274	1.316928	167.075686
59710		23.259434	1.580728	167.205477
59711		23.749030	1.885977	167.434741
59712		24.419836	2.419007	167.792524
59713		25.065094	2.912304	168.073985
59714		25.280500	2.999631	168.268951
59715		25.099044	2.878910	168.407142
59716		25.258020	2.727192	168.614044
59717		25.579524	2.304168	168.825796
59718		25.901045	1.854387	168.984767
59719		26.145498	1.659620	169.026679
59720		26.157111	1.562404	169.012116
59721		26.073265	1.538121	168.993194
59722		25.932758	1.569395	169.005635
59723		25.918193	1.611631	169.040250
59724		26.012185	1.646408	169.091510
59725		26.072819	1.733929	169.141090
59726		26.011014	1.837768	169.180240
59727		25.960311	1.874021	169.206948
59728		25.953301	1.885028	169.228797
59729		25.952268	1.874052	169.262982
59730		26.024008	1.868409	169.275513
59731		26.064048	1.896432	169.272920
59732		26.077576	1.919130	169.264640
59733		26.078756	1.918955	169.274315
59734		26.060253	1.910465	169.290127
59735		26.025848	1.909109	169.307868
59736		25.989842	1.945331	169.304762
59737		25.911585	2.009388	169.296505
59738		25.845699	2.050840	169.287252
59739		25.896812	2.037889	169.298371
59740		26.006015	1.996389	169.328307
59741		26.056041	1.954785	169.343971
59742		26.035239	1.951646	169.334196
59743		26.017890	1.986180	169.348375
59744		26.030655	1.999996	169.361323
59745		26.053313	1.960776	169.349972
59746		26.044173	1.908661	169.325427
59747		26.014791	1.884736	169.307948
59748		25.947210	1.850925	169.278473
59749		25.871246	1.800843	169.211703
59750		25.715917	1.839880	169.143890
59751		25.642170	1.833896	169.127295
59752		25.642830	1.796425	169.103754
59753		25.689826	1.768496	169.094318
59754		25.718334	1.734044	169.119112
59755		25.772466	1.718194	169.145023
59756		25.852217	1.730630	169.171135
59757		25.934922	1.725162	169.190544
59758		25.979186	1.710527	169.150174
59759		25.963199	1.722669	169.059419
59760		25.827296	1.758599	168.950699
59761		25.745997	1.787950	168.926649
59762		25.765309	1.790590	168.967569
59763		25.849411	1.765413	169.011989
59764		25.954761	1.788702	169.032490
59765		25.940759	1.857291	168.995090
59766		25.881438	1.896679	168.932427
59767		25.917855	1.910475	168.893963
59768		25.965746	1.926102	168.885939
59769		25.944067	1.943939	168.854525
59770		25.845246	2.014103	168.816703
59771		25.699963	2.089746	168.780223
59772		25.564153	2.153022	168.778330
59773		25.582246	2.161376	168.757870
59774		25.640868	2.175350	168.692799
59775		25.583098	2.198913	168.547506
59776		25.530599	2.226106	168.474137
59777		25.621249	2.243339	168.518145
59778		25.708562	2.276472	168.544884
59779		25.685111	2.312573	168.511130
59780		25.569128	2.362099	168.483142
59781		25.482402	2.423141	168.454077
59782		25.438566	2.464709	168.431142
59783		25.277105	2.561437	168.325333
59784		25.040649	2.638889	168.189537
59785		25.000755	2.597177	168.086308
59786		24.973118	2.621034	168.004688
59787		24.852360	2.690981	167.948285
59788		24.899556	2.714685	168.028303
59789		25.117058	2.631675	168.168499
59790		25.524438	2.369373	168.234052
59791		25.724206	2.330041	168.273631
59792		25.539720	2.350126	168.269378
59793		25.413199	2.329807	168.166110
59794		25.370257	2.291152	168.007362
59795		25.329561	2.319740	167.803229
59796		25.128537	2.407383	167.534571
59797		24.934446	2.459249	167.242174
59798		24.939861	2.422731	167.010340
59799		25.107335	2.359890	166.936605
59800		25.294967	2.343396	166.975686
59801		25.392262	2.330226	167.012518
59802		25.363023	2.360614	167.033950
59803		25.248352	2.419941	167.063176
59804		25.252820	2.427139	167.084795
59805		25.309512	2.405210	167.106456
59806		25.313394	2.408725	167.129494
59807		25.343843	2.404616	167.138077
59808		25.422402	2.360020	167.153932
59809		25.500930	2.316093	167.206999
59810		25.602999	2.291486	167.294924
59811		25.887347	2.250576	167.412607
59812		26.141330	2.249919	167.613796
59813		26.435877	2.213466	167.808418
59814		26.504416	1.979764	167.959689
59815		26.710207	1.792353	168.170686
59816		26.781115	1.294516	168.344710
59817		26.707722	0.889162	168.615409
59818		26.563922	0.747079	168.886304
59819		26.198791	0.839403	169.253247
59820		25.818567	1.465822	169.521905
59821		25.873926	2.437499	169.753272
59822		26.113669	3.340109	169.930583
59823		26.047860	4.234117	170.081163
59824		25.821183	4.994436	170.286351
59825		25.448374	5.706345	170.472480
59826		25.205782	6.526052	170.197312
59827		24.866901	7.415539	169.918275
59828		24.241516	8.387807	169.756749
59829		23.384411	9.427365	169.668955
59830		22.754684	9.913415	169.756222
59831		22.153203	10.346871	169.785512
59832		21.798098	10.585874	169.764267
59833		21.456117	10.761472	169.722420
59834		21.238416	10.787727	169.676137
59835		21.076688	10.778675	169.646017
59836		20.916305	10.842760	169.631508
59837		20.830751	10.831082	169.607054
59838		20.753238	10.791161	169.589121
59839		20.661419	10.830435	169.578694
59840		20.603731	10.804074	169.551657
59841		20.585394	10.719136	169.538200
59842		20.589798	10.717382	169.539878
59843		20.546333	10.739151	169.528930
59844		20.494072	10.750743	169.511516
59845		20.491259	10.713085	169.504905
59846		20.508605	10.671711	169.506964
59847		20.511127	10.679801	169.509420
59848		20.487743	10.694404	169.506707
59849		20.482764	10.684151	169.500394
59850		20.494147	10.660024	169.493150
59851		20.478733	10.677177	169.477618
59852		20.401808	10.737253	169.468128
59853		20.320024	10.800057	169.452435
59854		20.271401	10.873205	169.461703
59855		20.240938	11.004948	169.481096
59856		20.237902	11.168797	169.499903
59857		20.245270	11.324424	169.502129
59858		20.232033	11.450828	169.491466
59859		20.268097	11.574275	169.501852
59860		20.426707	11.728354	169.529668
59861		20.553101	11.838626	169.521274
59862		20.621665	11.878695	169.392503
59863		20.581555	11.973357	169.231955
59864		20.497858	12.155932	169.163010
59865		20.653554	12.357243	169.315935
59866		20.767853	12.464412	169.389101
59867		20.777278	12.582736	169.516475
59868		20.656334	12.819706	169.525235
59869		20.531471	13.105090	169.452705
59870		20.431252	13.328507	169.443880
59871		20.409269	13.427987	169.436165
59872		20.297197	13.516569	169.363033
59873		20.163445	13.661851	169.331613
59874		20.120399	13.852629	169.368197
59875		20.098885	14.118536	169.399927
59876		20.117841	14.402616	169.392998
59877		20.061257	14.604666	169.321854
59878		19.999129	14.701256	169.290487
59879		19.900428	14.888948	169.239849
59880		19.881356	15.233974	169.260051
59881		19.842143	15.607891	169.283943
59882		19.735658	15.875596	169.332795
59883		19.595040	15.808128	169.426323
59884		19.479678	15.873974	169.543313
59885		19.512370	15.947014	169.655830
59886		19.532896	16.051988	169.687216
59887		19.424660	16.077411	169.795341
59888		19.308320	15.979578	169.905364
59889		19.225896	15.914441	169.997227
59890		19.208783	15.882391	170.139367
59891		19.252313	15.805647	170.280839
59892		19.252208	15.760596	170.322678
59893		19.218710	15.780501	170.339547
59894		19.194405	15.795192	170.385223
59895		19.279359	15.706969	170.445969
59896		19.331636	15.621805	170.421842
59897		19.290511	15.675651	170.329444
59898		19.304171	15.731190	170.269374
59899		19.357259	15.666677	170.186018
59900		19.402086	15.539029	170.017475
59901		19.403611	15.537066	169.859894
59902		19.405300	15.607022	169.781723
59903		19.378516	15.588571	169.724427
59904		19.381754	15.545188	169.701576
59905		19.434819	15.557650	169.723230
59906		19.483070	15.564689	169.713350
59907		19.500022	15.491882	169.602801
59908		19.543425	15.374359	169.485887
59909		19.544296	15.284288	169.303989
59910		19.479313	15.228537	169.097804
59911		19.543852	15.126212	168.958348
59912		19.721187	14.961547	168.765262
59913		19.802947	14.765224	168.588571
59914		19.790753	14.627330	168.456117
59915		19.711218	14.624100	168.396318
59916		19.767284	14.579094	168.390167
59917		19.904417	14.376934	168.335552
59918		19.958249	14.122132	168.248257
59919		19.838826	14.006997	168.160273
59920		19.713067	14.020033	168.166517
59921		19.725501	13.957831	168.198457
59922		19.873369	13.804085	168.246888
59923		20.058759	13.663566	168.309259
59924		20.187511	13.594105	168.395723
59925		20.342789	13.492606	168.455953
59926		20.525521	13.323570	168.490608
59927		20.754290	13.077326	168.552151
59928		21.071440	12.727714	168.636309
59929		21.359358	12.441308	168.691381
59930		21.394000	12.431550	168.710808
59931		21.497760	12.273294	168.750868
59932		21.709687	11.851423	168.809907
59933		22.184120	11.239519	168.717571
59934		22.705872	10.360566	168.354913
59935		22.952737	8.913141	167.827477
59936		22.843726	7.986940	167.369664
59937		22.989364	7.404764	167.250482
59938		22.879515	6.313063	167.049992
59939		22.555761	4.554937	166.778032
59940		22.514519	2.902305	166.951239
59941		21.973250	1.874862	167.117720
59942		21.264297	1.032565	167.409202
59943		20.907311	0.332763	167.757779
59944		21.007639	0.082805	167.924163
59945		21.664106	0.403729	168.062607
59946		22.642783	0.951078	168.532730
59947		23.293560	1.075051	169.005286
59948		23.506986	1.188385	169.191953
59949		24.022694	1.834267	169.324761
59950		24.235132	2.009945	169.490438
59951		24.136182	1.554623	169.775523
59952		24.030543	1.184846	169.969946
59953		23.904069	1.027823	170.098087
59954		23.792002	0.904668	170.161414
59955		23.709313	0.829456	170.268362
59956		23.578501	0.960518	170.411833
59957		23.424147	1.140404	170.503087
59958		23.258537	1.271255	170.555092
59959		23.092359	1.413080	170.600393
59960		22.896428	1.550611	170.659756
59961		22.781366	1.638360	170.691942
59962		22.800888	1.684324	170.721892
59963		22.858021	1.765512	170.745692
59964		22.779980	1.872896	170.772441
59965		22.606859	1.961701	170.780626
59966		22.511053	2.000290	170.772008
59967		22.522490	2.032548	170.749231
59968		22.435157	2.106419	170.753753
59969		22.311472	2.173833	170.767541
59970		22.266520	2.194780	170.777965
59971		22.242772	2.191824	170.790048
59972		22.167474	2.169950	170.825334
59973		22.098021	2.126206	170.845375
59974		22.026335	2.067840	170.817200
59975		21.930297	2.032832	170.719141
59976		21.812770	2.025531	170.633861
59977		21.713885	2.007993	170.568435
59978		21.688492	1.960360	170.559139
59979		21.705262	1.889615	170.526447
59980		21.719267	1.818741	170.483424
59981		21.764329	1.770302	170.501947
59982		21.783489	1.733999	170.561446
59983		21.814959	1.707975	170.622304
59984		21.859361	1.709411	170.678579
59985		21.821867	1.751314	170.695659
59986		21.804031	1.739432	170.650065
59987		21.731870	1.729384	170.609734
59988		21.550740	1.776790	170.588475
59989		21.446381	1.826791	170.640260
59990		21.488255	1.809910	170.695024
59991		21.520505	1.826598	170.656150
59992		21.436791	1.891954	170.547554
59993		21.292636	1.956975	170.429836
59994		21.199770	2.000649	170.355699
59995		21.167830	2.046543	170.308797
59996		21.137927	2.078981	170.219413
59997		21.133769	2.064537	170.133495
59998		21.234902	2.079919	170.076676
59999		21.300657	2.109526	170.053259
60000		21.331546	2.130638	170.072714
60001		21.394634	2.132120	170.114096
60002		21.514719	2.170484	170.151055
60003		21.455743	2.235509	170.144636
60004		21.385573	2.265738	170.091518
60005		21.353200	2.296179	169.999551
60006		21.295587	2.371076	169.977007
60007		21.224054	2.447927	169.993425
60008		21.193355	2.502542	170.022842
60009		21.172598	2.576298	170.064887
60010		21.129740	2.639295	170.122484
60011		21.119897	2.685788	170.150175
60012		21.039550	2.806503	170.099384
60013		20.849862	3.008048	170.037133
60014		20.678156	3.193672	170.040464
60015		20.603194	3.318202	170.063317
60016		20.611678	3.426561	170.062563
60017		20.591345	3.566307	170.087895
60018		20.559616	3.680446	170.164122
60019		20.596690	3.694558	170.235761
60020		20.679739	3.703419	170.275192
60021		20.659569	3.740488	170.282216
60022		20.582958	3.739054	170.256163
60023		20.723174	3.435416	170.224208
60024		21.140072	3.237507	170.231634
60025		21.225381	3.258928	170.285127
60026		21.256086	3.286665	170.275852
60027		21.203830	3.437515	170.211459
60028		21.132704	3.514937	170.181000
60029		21.410714	3.319698	170.215691
60030		21.966532	2.948885	170.179740
60031		22.515818	2.693337	170.095037
60032		22.768524	2.662169	170.044492
60033		22.689155	2.778642	169.998500
60034		22.420097	2.882079	169.938529
60035		22.173992	2.973904	169.863631
60036		21.910959	3.023412	169.807724
60037		21.687291	3.037396	169.789817
60038		21.668140	3.019307	169.812760
60039		21.824210	2.969818	169.854705
60040		21.962729	2.909841	169.931489
60041		22.117740	2.863257	169.976494
60042		22.249874	2.892050	170.039522
60043		22.308027	2.938976	170.044663
60044		22.358845	2.970871	170.027974
60045		22.566463	2.962952	169.970198
60046		22.942298	3.035612	169.812558
60047		23.373698	3.113130	169.660762
60048		23.479124	2.873754	169.755888
60049		23.525961	2.774991	169.876306
60050		23.536886	2.487437	169.882085
60051		23.494673	2.258193	169.932437
60052		23.247353	2.089977	170.055976
60053		22.840921	1.996199	170.253247
60054		22.622993	2.261157	170.575232
60055		22.171350	2.852038	170.567891
60056		21.937238	3.484502	170.378426
60057		22.286812	4.639551	170.412426
60058		23.044901	6.475624	170.522145
60059		22.552379	8.094089	170.279679
60060		22.130476	9.081110	170.102506
60061		21.675000	10.018067	170.112583
60062		21.288430	10.914843	169.907799
60063		20.935084	11.430021	169.894911
60064		20.578605	11.795777	169.859626
60065		20.309263	11.958640	169.846011
60066		20.060053	12.196094	169.774665
60067		19.830002	12.316994	169.714582
60068		19.692161	12.277865	169.672663
60069		19.632357	12.232708	169.673347
60070		19.624069	12.213929	169.690090
60071		19.598938	12.158647	169.696238
60072		19.549631	12.144443	169.699546
60073		19.496845	12.202391	169.696448
60074		19.471363	12.202121	169.684994
60075		19.482019	12.130502	169.684291
60076		19.496295	12.070096	169.688254
60077		19.478934	12.104580	169.688766
60078		19.456162	12.121481	169.680206
60079		19.472212	12.093433	169.675185
60080		19.508046	12.034030	169.677059
60081		19.536097	11.987475	169.682253
60082		19.535783	12.022485	169.686172
60083		19.534318	12.032993	169.682880
60084		19.529189	12.030371	169.678677
60085		19.545167	12.022562	169.681576
60086		19.572465	12.005816	169.682150
60087		19.578252	12.021347	169.675099
60088		19.570322	12.054709	169.674006
60089		19.565321	12.080303	169.686747
60090		19.589467	12.079121	169.694561
60091		19.633405	12.071956	169.700503
60092		19.676925	12.076379	169.699994
60093		19.713492	12.100296	169.705752
60094		19.759393	12.106296	169.703252
60095		19.800896	12.093809	169.697704
60096		19.839281	12.051891	169.695577
60097		19.862220	12.083305	169.684607
60098		19.855601	12.209171	169.683010
60099		19.753792	12.370222	169.681182
60100		19.650579	12.477437	169.699238
60101		19.600691	12.577709	169.739183
60102		19.589330	12.673575	169.778759
60103		19.645191	12.689935	169.816234
60104		19.765904	12.729209	169.839260
60105		19.844181	12.839737	169.872400
60106		19.869949	12.942591	169.912694
60107		20.026729	12.950855	169.942966
60108		20.085570	12.936948	169.945021
60109		20.118975	12.990011	169.924515
60110		20.036435	13.197744	169.933070
60111		20.031707	13.328617	169.967018
60112		20.081134	13.290327	170.003967
60113		20.198971	13.209729	170.047058
60114		20.328972	13.180061	170.084259
60115		20.466060	13.159610	170.054745
60116		20.734680	12.887013	170.057461
60117		20.913794	12.500100	170.011149
60118		21.067791	12.260781	169.990397
60119		21.176615	12.174734	170.013020
60120		21.194702	12.130302	170.035044
60121		21.192245	11.977458	170.026879
60122		21.317150	11.776487	170.007832
60123		21.494899	11.634482	170.009354
60124		21.523192	11.573059	170.022362
60125		21.515067	11.555112	170.025174
60126		21.467987	11.611795	170.006156
60127		21.425571	11.691079	170.019070
60128		21.401631	11.748981	170.021073
60129		21.366649	11.744063	170.036792
60130		21.327037	11.752720	170.063364
60131		21.310898	11.761194	170.106051
60132		21.381902	11.789795	170.153440
60133		21.558426	11.812922	170.129574
60134		21.563867	11.906226	170.045567
60135		21.525178	12.029773	170.122000
60136		21.450788	11.983300	170.179438
60137		21.359584	12.035998	170.212010
60138		21.223831	12.177673	170.245360
60139		21.221046	12.272334	170.145105
60140		21.003638	12.707749	170.036889
60141		20.981208	12.790169	170.029742
60142		20.883584	12.982953	169.992752
60143		20.775618	13.142300	170.044951
60144		20.575120	13.414681	170.141869
60145		20.350527	13.848192	170.315454
60146		19.911036	14.479802	170.386230
60147		19.571482	15.039336	170.500590
60148		19.421332	15.083332	170.735802
60149		19.314121	15.220928	170.949980
60150		19.059469	15.322276	171.086069
60151		18.791905	15.477724	171.170589
60152		18.629515	15.437725	171.344530
60153		18.620380	15.125479	171.558276
60154		18.636461	14.953754	171.734675
60155		18.486549	14.921861	171.789810
60156		18.204501	14.764883	171.676033
60157		18.523855	14.352439	171.814710
60158		18.521410	14.029905	171.827090
60159		18.784847	13.584185	171.782664
60160		19.059868	13.425634	171.748613
60161		19.448964	13.207071	171.593900
60162		19.677358	12.980813	171.398455
60163		19.887859	12.918504	171.268263
60164		20.048471	12.840754	171.139659
60165		20.098708	12.468826	171.069447
60166		20.173786	12.073667	171.124293
60167		20.307397	12.028234	171.111862
60168		20.398521	12.174118	170.874520
60169		20.384214	12.198051	170.619029
60170		20.510208	11.929796	170.426737
60171		20.413521	12.059776	170.216205
60172		20.260202	12.250562	170.066022
60173		20.195058	12.365278	169.923488
60174		20.252082	12.253755	169.772532
60175		20.281274	12.159687	169.636554
60176		20.352161	12.066881	169.484967
60177		20.380860	12.015565	169.320284
60178		20.283490	11.856444	169.243513
60179		20.253863	11.864381	169.275975
60180		20.240545	11.825829	169.246305
60181		20.325228	11.654753	169.147574
60182		20.322363	11.562619	169.144953
60183		20.345072	11.514168	169.200271
60184		20.454099	11.488002	169.294616
60185		20.603802	11.409454	169.354589
60186		20.766219	11.227084	169.408860
60187		20.997956	10.968017	169.432501
60188		21.172850	10.744310	169.407092
60189		21.343956	10.498527	169.371667
60190		21.466465	10.348173	169.358963
60191		21.716840	10.065458	169.386373
60192		22.093900	9.322483	169.309878
60193		22.233439	8.358643	169.100730
60194		22.612025	7.524827	168.936826
60195		22.792490	6.857255	168.754003
60196		22.628762	6.304934	168.504136
60197		22.378284	5.196727	168.354027
60198		21.835725	3.474440	168.187203
60199		21.478314	2.570650	168.026645
60200		21.264076	2.369304	167.886485
60201		20.980683	1.623608	167.768212
60202		21.070999	0.775603	167.908281
60203		21.261428	0.478933	168.085072
60204		21.366067	0.402978	168.181867
60205		21.603229	0.496315	168.353729
60206		21.956680	0.754928	168.856089
60207		22.001145	0.881534	169.412085
60208		21.874615	1.005504	169.890865
60209		21.855727	1.116468	170.251815
60210		22.043879	1.173789	170.496828
60211		22.227440	1.014589	170.626567
60212		22.632647	1.199302	170.719822
60213		22.637420	0.927386	170.766235
60214		22.602127	0.590153	170.834975
60215		22.586374	0.355558	170.776740
60216		22.362287	0.299334	170.610308
60217		21.963086	0.229373	170.533576
60218		21.578288	0.192096	170.461494
60219		21.241694	0.120734	170.366483
60220		20.889544	0.125905	170.348976
60221		20.548512	0.339402	170.399581
60222		20.363804	0.571028	170.425031
60223		20.224048	0.689342	170.442418
60224		20.136078	0.743547	170.441754
60225		20.122470	0.752324	170.448609
60226		20.117061	0.745818	170.448908
60227		20.074677	0.759815	170.485173
60228		20.030908	0.798898	170.528341
60229		20.011961	0.834657	170.549928
60230		19.965984	0.850952	170.577075
60231		19.894639	0.858805	170.613425
60232		19.798795	0.867621	170.640329
60233		19.766488	0.819339	170.635234
60234		19.796765	0.706723	170.576949
60235		19.835546	0.617898	170.520803
60236		19.768141	0.645395	170.448230
60237		19.611156	0.653597	170.339731
60238		19.511019	0.548360	170.171147
60239		19.616345	0.382127	169.928326
60240		19.817917	0.277360	169.732129
60241		20.065653	0.217043	169.632093
60242		20.253970	0.172839	169.574687
60243		20.328214	0.150282	169.558029
60244		20.324082	0.122808	169.520826
60245		20.339965	0.089701	169.445422
60246		20.342255	0.048098	169.414478
60247		20.354884	0.028360	169.407149
60248		20.444744	0.003656	169.419741
60249		20.534801	-0.071902	169.426501
60250		20.569166	-0.121605	169.393869
60251		20.617145	-0.063615	169.455810
60252		20.691916	0.041180	169.632304
60253		20.751311	0.106877	169.770464
60254		20.766072	0.112523	169.843220
60255		20.696159	0.136613	169.883078
60256		20.547437	0.215935	170.018011
60257		20.465180	0.292292	170.197117
60258		20.371038	0.374502	170.405104
60259		20.221716	0.422785	170.563014
60260		20.218020	0.438769	170.627684
60261		20.294783	0.462566	170.621522
60262		20.311906	0.571676	170.598835
60263		20.224202	0.722821	170.566399
60264		20.076429	0.839537	170.557248
60265		19.936154	0.920881	170.573439
60266		19.912421	0.994639	170.641979
60267		19.992088	1.079116	170.685715
60268		20.015805	1.158845	170.671063
60269		19.937979	1.332357	170.643020
60270		19.701588	1.546951	170.662312
60271		19.393256	1.742170	170.704380
60272		19.195614	1.948885	170.719015
60273		19.151225	2.154048	170.734915
60274		19.215479	2.345519	170.766561
60275		19.153860	2.563677	170.731148
60276		18.883004	2.742504	170.689008
60277		18.675598	2.870670	170.678228
60278		18.601631	2.973341	170.638410
60279		18.600793	3.043728	170.544795
60280		18.798351	2.758303	170.450745
60281		19.298170	2.531801	170.403323
60282		19.581246	2.492912	170.382896
60283		19.697952	2.553668	170.310467
60284		19.621431	2.592364	170.193695
60285		19.547396	2.607593	170.040807
60286		19.569622	2.614539	169.890112
60287		19.587632	2.639515	169.765901
60288		19.601009	2.685548	169.656115
60289		19.590070	2.754026	169.552738
60290		19.553074	2.774927	169.473815
60291		19.560708	2.801534	169.397654
60292		19.524511	2.866795	169.331146
60293		19.490923	2.913716	169.271653
60294		19.543290	2.910669	169.215649
60295		19.669185	2.878589	169.190643
60296		19.779539	2.886471	169.185749
60297		19.772115	2.922192	169.186969
60298		19.735375	2.945800	169.185603
60299		19.790041	2.920478	169.194281
60300		19.919922	2.854900	169.234485
60301		20.149267	2.770699	169.301463
60302		20.452992	2.642002	169.423135
60303		20.809665	2.471548	169.557919
60304		21.304805	2.398491	169.713614
60305		21.850823	2.327948	169.924833
60306		22.510725	2.191349	170.075998
60307		23.285429	2.052641	170.151812
60308		24.062989	1.989326	170.257140
60309		24.224545	1.862305	170.421562
60310		24.410252	1.662683	170.613984
60311		24.509187	1.229101	170.738428
60312		24.512248	0.827614	170.858262
60313		24.404233	0.784673	170.982519
60314		24.182807	0.754582	171.162605
60315		23.987922	0.794140	171.396762
60316		23.682384	1.486621	171.704802
60317		23.855602	2.723539	171.931995
60318		24.568045	4.005870	172.113195
60319		25.387731	5.310197	172.094034
60320		25.564510	6.560792	171.798126
60321		25.098927	7.737217	171.650034
60322		24.670722	8.697046	171.623330
60323		24.172556	9.441501	171.737222
60324		23.668773	9.905137	171.919128
60325		23.162936	10.128478	172.099595
60326		22.464884	10.430086	172.203093
60327		21.722939	10.869495	172.197934
60328		21.241412	11.313221	172.000002
60329		20.830296	11.906190	171.761026
60330		20.195288	12.554774	171.653213
60331		19.748005	12.871256	171.628259
60332		19.538835	12.890031	171.572397
60333		19.515768	12.846715	171.566697
60334		19.534948	12.853112	171.589913
60335		19.458312	12.870735	171.594162
60336		19.399418	12.859536	171.595752
60337		19.394628	12.840684	171.600465
60338		19.414630	12.796664	171.599160
60339		19.405365	12.741318	171.591296
60340		19.377501	12.714144	171.585994
60341		19.388591	12.720272	171.592412
60342		19.383166	12.711876	171.600452
60343		19.369186	12.685612	171.593511
60344		19.355455	12.652697	171.587546
60345		19.347164	12.652846	171.581019
60346		19.332705	12.658414	171.579881
60347		19.350207	12.651718	171.576545
60348		19.376668	12.631970	171.580974
60349		19.397809	12.609118	171.583604
60350		19.409740	12.595131	171.582986
60351		19.415031	12.586747	171.575325
60352		19.418696	12.581382	171.572935
60353		19.441762	12.554893	171.580558
60354		19.456936	12.537735	171.597435
60355		19.522026	12.516298	171.621721
60356		19.633177	12.515268	171.626947
60357		19.726782	12.449226	171.627380
60358		19.825679	12.329512	171.621844
60359		19.918420	12.255830	171.637213
60360		19.953049	12.238522	171.647421
60361		19.908588	12.276997	171.637615
60362		19.859133	12.327806	171.634822
60363		19.848435	12.336995	171.631469
60364		19.891362	12.293714	171.627478
60365		19.905086	12.312345	171.609664
60366		19.874363	12.332118	171.599385
60367		19.892183	12.376293	171.584043
60368		19.931782	12.429030	171.578215
60369		19.994502	12.435174	171.587658
60370		20.040603	12.447508	171.573559
60371		20.067539	12.442576	171.581151
60372		20.123832	12.419991	171.586055
60373		20.160238	12.417249	171.574623
60374		20.164921	12.440318	171.570529
60375		20.248372	12.433090	171.571097
60376		20.374933	12.396497	171.576426
60377		20.447954	12.365064	171.593142
60378		20.529876	12.351105	171.611708
60379		20.573659	12.382309	171.620112
60380		20.551552	12.396990	171.601630
60381		20.508037	12.401597	171.594236
60382		20.525234	12.391332	171.591424
60383		20.547514	12.385429	171.592170
60384		20.538434	12.439514	171.593707
60385		20.509439	12.507546	171.595161
60386		20.462969	12.562214	171.604206
60387		20.470586	12.560423	171.606086
60388		20.477044	12.544790	171.598372
60389		20.474583	12.535847	171.587103
60390		20.467755	12.525771	171.574863
60391		20.408450	12.566481	171.578561
60392		20.356880	12.643355	171.607101
60393		20.408797	12.737296	171.628143
60394		20.650427	12.776750	171.695840
60395		20.710244	12.807081	171.651351
60396		20.615552	12.949418	171.443056
60397		20.680438	13.074222	171.209678
60398		20.869088	13.015635	170.996072
60399		21.071105	12.995575	170.956863
60400		21.020088	13.202648	170.977930
60401		20.879571	13.521108	170.987689
60402		20.756780	13.828254	170.935453
60403		20.702629	14.065163	170.945242
60404		20.596541	14.349007	171.008436
60405		20.435163	14.770341	171.067670
60406		20.288131	15.141606	171.188624
60407		20.145589	15.431289	171.257079
60408		19.945362	15.631995	171.321665
60409		19.770796	15.823098	171.356542
60410		19.653328	16.147900	171.341980
60411		19.494654	16.504777	171.269937
60412		19.348967	16.593138	171.235106
60413		19.306660	16.409985	171.255372
60414		19.251721	16.435344	171.272757
60415		19.172658	16.695176	171.212507
60416		19.134098	16.818352	171.159499
60417		19.153917	16.748500	171.213623
60418		19.136175	16.658646	171.289472
60419		19.122741	16.688896	171.263367
60420		19.228386	16.629584	171.162283
60421		19.289014	16.497504	170.992743
60422		19.252695	16.403426	170.876389
60423		19.197632	16.496540	170.789899
60424		19.246692	16.518143	170.632224
60425		19.206841	16.439194	170.460831
60426		19.212064	16.299553	170.394155
60427		19.296382	16.230556	170.407274
60428		19.451622	16.181744	170.330861
60429		19.525764	16.072138	170.073104
60430		19.583996	15.956503	169.788619
60431		19.650097	15.954070	169.570009
60432		19.758523	15.877261	169.368967
60433		19.880514	15.636409	169.161977
60434		20.056491	15.258068	169.057080
60435		20.167960	14.993650	168.965100
60436		20.174399	14.969723	168.883898
60437		20.174305	14.978349	168.854676
60438		20.169479	14.914691	168.836098
60439		20.128432	14.901370	168.722865
60440		20.026474	14.998057	168.543745
60441		19.962392	15.047194	168.498836
60442		19.966428	15.013751	168.547620
60443		20.038060	14.849786	168.609722
60444		20.024202	14.868522	168.612476
60445		20.024584	15.003084	168.618387
60446		20.062099	14.945116	168.620418
60447		20.138711	14.758620	168.586440
60448		20.184771	14.589583	168.617092
60449		20.280231	14.525414	168.765534
60450		20.454164	14.384407	168.898364
60451		20.559494	14.219130	168.954160
60452		20.568157	14.168162	169.001651
60453		20.591222	14.228566	169.096693
60454		20.659397	14.190893	169.163905
60455		20.682761	14.120940	169.158462
60456		20.659266	14.147532	169.171698
60457		20.660054	14.166341	169.223767
60458		20.680894	14.140498	169.278458
60459		20.678825	14.143841	169.284499
60460		20.656689	14.169410	169.290513
60461		20.679280	14.086619	169.310579
60462		20.807792	13.878666	169.378632
60463		21.073325	13.635287	169.464510
60464		21.321733	13.447540	169.565508
60465		21.496521	13.278946	169.650827
60466		21.818657	12.820959	169.761961
60467		22.464024	11.936613	169.831644
60468		23.119563	10.849284	169.919492
60469		23.743553	9.861416	169.786541
60470		24.247494	9.068433	169.578201
60471		24.332507	8.581563	169.452812
60472		24.313286	7.990637	169.378460
60473		24.218616	7.109624	169.185052
60474		23.899680	6.128687	168.823098
60475		23.546359	5.273950	168.531936
60476		23.494205	4.649715	168.399035
60477		23.545306	3.927234	168.283891
60478		23.424927	2.823850	168.249706
60479		23.103438	1.612748	168.224911
60480		22.869283	1.119567	168.291587
60481		22.703721	0.827782	168.298628
60482		22.546470	0.076436	168.341547
60483		22.578838	-0.452072	168.559531
60484		22.719176	-0.469962	168.676174
60485		22.805302	-0.266506	168.643779
60486		23.083000	0.169144	168.749107
60487		23.360632	0.511220	169.117933
60488		23.488489	0.720462	169.459283
60489		23.553822	0.961433	169.556029
60490		23.802650	1.383647	169.519682
60491		24.004863	1.720024	169.575030
60492		23.868019	1.655019	169.634529
60493		23.751773	1.433074	169.649309
60494		23.615286	1.346363	169.665509
60495		23.380507	1.396532	169.666456
60496		23.101226	1.470890	169.713171
60497		22.909152	1.513750	169.727990
60498		22.760563	1.541137	169.720577
60499		22.618744	1.530653	169.665385
60500		22.474499	1.450258	169.612735
60501		22.514767	1.470031	169.600882
60502		22.654035	1.481979	169.610733
60503		22.769852	1.456277	169.648180
60504		22.836732	1.515323	169.694106
60505		22.801705	1.608131	169.754529
60506		22.696386	1.680959	169.791657
60507		22.552024	1.753744	169.795962
60508		22.435992	1.784012	169.785946
60509		22.325526	1.775426	169.779102
60510		22.255332	1.746624	169.785697
60511		22.310171	1.669998	169.783409
60512		22.367781	1.598655	169.795367
60513		22.265357	1.530444	169.837653
60514		22.133350	1.455637	169.852047
60515		22.177323	1.408331	169.816320
60516		22.218990	1.316441	169.764975
60517		22.200731	1.159380	169.647489
60518		22.170824	1.042650	169.514479
60519		22.074773	0.973287	169.314408
60520		21.947564	0.794651	169.043026
60521		22.131968	0.596433	168.806334
60522		22.432537	0.489226	168.644459
60523		22.595959	0.439162	168.599498
60524		22.551764	0.353084	168.568875
60525		22.383768	0.215347	168.410535
60526		22.267024	0.160827	168.184384
60527		22.173062	0.068940	168.022562
60528		22.149232	-0.024073	168.106742
60529		22.204299	-0.041480	168.404796
60530		22.128363	-0.014077	168.622617
60531		21.933786	0.031912	168.808468
60532		21.719186	0.059907	169.061237
60533		21.587908	0.081149	169.296631
60534		21.487671	0.108116	169.484601
60535		21.395769	0.108088	169.710565
60536		21.398081	0.174789	169.947625
60537		21.404526	0.262800	170.128007
60538		21.339525	0.348787	170.184523
60539		21.189523	0.432654	170.173184
60540		20.997802	0.501720	170.266939
60541		20.874623	0.544649	170.402411
60542		20.876562	0.588766	170.547504
60543		21.005308	0.649265	170.625054
60544		21.092259	0.709090	170.700443
60545		20.986336	0.840677	170.794401
60546		20.755055	0.969380	170.873373
60547		20.656687	1.007095	170.968169
60548		20.728713	1.103374	171.112804
60549		20.797519	1.272834	171.237114
60550		20.725768	1.403264	171.326705
60551		20.616311	1.559799	171.458098
60552		20.410590	1.783931	171.556275
60553		20.076912	2.015697	171.617588
60554		19.718646	2.256492	171.609653
60555		19.467285	2.510519	171.543345
60556		19.364273	2.674966	171.517753
60557		19.489286	2.687013	171.557328
60558		19.856337	2.298846	171.575752
60559		20.530209	2.101413	171.550983
60560		21.115055	2.018639	171.571064
60561		21.515077	2.034841	171.513789
60562		21.568402	2.076703	171.382818
60563		21.404255	2.136158	171.224249
60564		21.158118	2.229605	171.060411
60565		20.935987	2.383691	170.895741
60566		20.777415	2.488452	170.760006
60567		20.835962	2.519360	170.678639
60568		21.056184	2.458735	170.640853
60569		21.351476	2.305022	170.637998
60570		21.614937	2.116847	170.593448
60571		21.829816	2.002906	170.560550
60572		21.988568	2.008379	170.530839
60573		22.041337	2.030357	170.531760
60574		22.103482	1.975956	170.515546
60575		22.258983	1.897165	170.473083
60576		22.305228	1.928938	170.452726
60577		22.151000	1.977613	170.448885
60578		22.089516	1.893997	170.443024
60579		22.379859	1.693564	170.460176
60580		22.876364	1.486839	170.548252
60581		23.380580	1.207877	170.688662
60582		24.112148	0.914688	170.847967
60583		24.685993	0.891176	171.193100
60584		24.684033	0.738306	171.500220
60585		24.821733	0.712058	171.964743
60586		24.888448	0.392846	172.456063
60587		24.722420	-0.050574	172.903857
60588		24.338544	-0.041157	173.347568
60589		23.884133	0.374939	173.868330
60590		23.700231	1.091333	174.223042
60591		23.853797	1.905637	174.437393
60592		24.234796	2.855955	174.510061
60593		24.666779	4.039916	174.521270
60594		25.009334	5.325960	174.442697
60595		24.765746	6.370399	174.211238
60596		24.191211	7.127110	173.816999
60597		23.436440	8.343349	173.468364
60598		22.232205	9.724156	173.188648
60599		21.311672	10.569777	173.002782
60600		20.840876	10.950725	172.883927
60601		20.686103	11.346897	172.760735
60602		20.466133	11.697661	172.691708
60603		20.147066	11.828786	172.622936
60604		19.905147	11.807788	172.552084
60605		19.856209	11.711551	172.508592
60606		19.903491	11.610717	172.517469
60607		19.957400	11.541072	172.532688
60608		19.926236	11.537514	172.526295
60609		19.862945	11.552239	172.510450
60610		19.851351	11.535648	172.498720
60611		19.854377	11.530167	172.504911
60612		19.836150	11.534208	172.504597
60613		19.785722	11.528577	172.484818
60614		19.769353	11.494467	172.462687
60615		19.770537	11.449715	172.456464
60616		19.756589	11.443662	172.454070
60617		19.758260	11.439677	172.454817
60618		19.777031	11.430925	172.460316
60619		19.800796	11.404519	172.471003
60620		19.819261	11.377601	172.475631
60621		19.810010	11.402687	172.474550
60622		19.778178	11.414745	172.466085
60623		19.751346	11.418162	172.466609
60624		19.743839	11.398007	172.469821
60625		19.763607	11.370997	172.474937
60626		19.781432	11.346093	172.486651
60627		19.790858	11.358642	172.499060
60628		19.791215	11.384103	172.504265
60629		19.783223	11.394565	172.508414
60630		19.789255	11.389028	172.514438
60631		19.833558	11.357942	172.528708
60632		19.871103	11.338951	172.546956
60633		19.838340	11.399079	172.545888
60634		19.804998	11.434638	172.542591
60635		19.812748	11.428213	172.549451
60636		19.865281	11.389522	172.558717
60637		19.872132	11.382392	172.565512
60638		19.863657	11.393675	172.563520
60639		19.860379	11.405514	172.561859
60640		19.892586	11.386965	172.566949
60641		19.999853	11.368687	172.577667
60642		19.993140	11.498778	172.569348
60643		19.912868	11.690050	172.540492
60644		19.826847	11.838911	172.523577
60645		19.794068	11.877743	172.534857
60646		19.891791	11.808942	172.557950
60647		20.002989	11.761679	172.582454
60648		20.062048	11.737875	172.600282
60649		20.072697	11.741944	172.594267
60650		20.054687	11.770539	172.591178
60651		20.066061	11.752147	172.582759
60652		20.101232	11.765670	172.524717
60653		20.117974	11.871844	172.421473
60654		20.013713	12.084704	172.304989
60655		19.882217	12.435510	172.116463
60656		19.742927	12.852118	171.801356
60657		19.650507	13.194603	171.757130
60658		19.969174	13.350168	171.804792
60659		19.990708	13.550388	171.797440
60660		19.873860	13.814463	171.761985
60661		19.767422	14.109141	171.727205
60662		19.744535	14.274431	171.766864
60663		19.739764	14.391718	171.900383
60664		19.558629	14.761236	172.006786
60665		19.196207	15.309431	172.075629
60666		18.970537	15.680774	172.205687
60667		18.903496	15.806853	172.495873
60668		18.940009	15.848737	172.742474
60669		18.860872	15.979291	172.796808
60670		18.905260	16.087019	172.871787
60671		18.885092	16.150257	172.887796
60672		18.776415	16.130687	172.744057
60673		18.731233	16.141730	172.534749
60674		18.630196	16.314039	172.378133
60675		18.477674	16.468944	172.267284
60676		18.434427	16.335296	172.171296
60677		18.473928	16.176879	172.092819
60678		18.461260	16.234830	171.985805
60679		18.362492	16.455817	171.799402
60680		18.190318	16.647281	171.611523
60681		18.179214	16.609333	171.536003
60682		18.277347	16.387838	171.480671
60683		18.406627	16.131200	171.382382
60684		18.533306	15.964416	171.217789
60685		18.655643	15.817924	170.997140
60686		18.765644	15.629974	170.713260
60687		18.939259	15.360189	170.423706
60688		19.070029	15.183377	170.136331
60689		19.179597	15.128490	169.916580
60690		19.287795	14.992477	169.760701
60691		19.337165	14.888856	169.679731
60692		19.233410	14.979974	169.577629
60693		19.118515	15.003836	169.447763
60694		19.191403	14.784801	169.326043
60695		19.289461	14.544042	169.271119
60696		19.335473	14.478721	169.184070
60697		19.397664	14.389952	168.998185
60698		19.521489	14.183861	168.858911
60699		19.486922	14.142522	168.756243
60700		19.327690	14.150018	168.668693
60701		19.180156	14.093513	168.621183
60702		19.212823	13.960288	168.676575
60703		19.369641	13.777166	168.802311
60704		19.528190	13.616961	168.948305
60705		19.684962	13.418584	169.128954
60706		19.864510	13.204618	169.291932
60707		20.253644	12.878149	169.465001
60708		20.826685	12.407231	169.662178
60709		21.676975	11.659586	169.877052
60710		22.579559	10.744148	170.066422
60711		23.461816	9.926548	170.249126
60712		24.248822	9.055386	170.340276
60713		24.777335	8.132031	170.209872
60714		25.055943	7.029707	169.686509
60715		25.104919	5.682599	169.038807
60716		24.875681	4.377305	168.537837
60717		24.825513	3.256667	168.382285
60718		24.630805	1.864637	168.349865
60719		24.054481	-0.053553	168.270931
60720		23.628353	-1.295438	168.234727
60721		23.356671	-1.645528	168.270566
60722		23.592393	-1.803589	168.381587
60723		23.956466	-1.784821	168.751905
60724		24.218243	-1.612091	169.100100
60725		24.087277	-1.665233	169.201281
60726		24.092423	-1.552451	169.237881
60727		24.437899	-1.053040	169.336114
60728		24.985843	-0.588088	169.444306
60729		25.165064	-0.634829	169.565237
60730		25.126599	-0.523091	169.770651
60731		24.911030	-0.386539	169.881008
60732		24.586365	-0.514762	169.937046
60733		24.428593	-0.535040	169.841412
60734		24.212771	-0.415614	169.748573
60735		23.840295	-0.281300	169.737726
60736		23.516499	-0.176858	169.724251
60737		23.344480	-0.054133	169.651665
60738		23.156792	0.071189	169.594898
60739		22.972876	0.149366	169.568349
60740		22.987828	0.176853	169.588615
60741		23.117515	0.154307	169.640572
60742		23.258552	0.112412	169.699887
60743		23.322931	0.090857	169.740305
60744		23.305038	0.087074	169.756179
60745		23.247698	0.084329	169.762854
60746		23.190681	0.066258	169.773266
60747		23.126290	0.037599	169.775599
60748		23.070508	0.010411	169.778348
60749		23.030449	0.004343	169.798166
60750		22.886230	-0.023028	169.861747
60751		22.684641	-0.160436	169.891142
60752		22.643187	-0.376828	169.832246
60753		22.777299	-0.536620	169.715657
60754		22.869853	-0.634533	169.649259
60755		22.805105	-0.683176	169.461163
60756		22.839139	-0.776417	169.261755
60757		22.896436	-0.983938	169.098775
60758		22.967281	-1.085462	168.983865
60759		23.037912	-1.118678	168.894430
60760		23.074354	-1.153067	168.876616
60761		23.045487	-1.206741	168.881804
60762		22.976180	-1.193920	168.788018
60763		22.930207	-1.150057	168.763238
60764		22.983543	-1.101552	168.860971
60765		23.063793	-1.044109	168.950427
60766		22.988152	-0.993220	169.022941
60767		22.855606	-0.967899	169.129340
60768		22.913784	-0.972731	169.226134
60769		23.022258	-0.968093	169.281005
60770		23.027770	-0.989211	169.283759
60771		22.989177	-0.998310	169.276969
60772		23.058335	-0.973974	169.408492
60773		23.222531	-0.964660	169.604172
60774		23.315757	-0.959344	169.754008
60775		23.430143	-0.918524	169.885717
60776		23.659149	-0.884671	170.055225
60777		23.947850	-0.858144	170.246130
60778		24.255963	-0.807642	170.395961
60779		24.402594	-0.763391	170.487218
60780		24.398845	-0.714875	170.517836
60781		24.248977	-0.623314	170.585776
60782		24.083201	-0.493927	170.674186
60783		23.968230	-0.392342	170.710875
60784		23.871254	-0.342628	170.616383
60785		23.818498	-0.261141	170.552247
60786		23.790913	-0.146433	170.606228
60787		23.804697	-0.029441	170.695541
60788		23.860287	0.018952	170.771046
60789		24.068436	0.023467	170.896030
60790		24.280861	0.116807	171.006732
60791		24.410980	0.298185	171.058843
60792		24.422392	0.442554	171.061152
60793		24.326113	0.506058	171.026486
60794		24.233748	0.593742	170.990812
60795		24.154900	0.576828	170.961936
60796		24.459089	0.101577	170.977179
60797		24.804698	-0.056040	170.985328
60798		24.895503	-0.002236	171.043094
60799		24.792621	0.163510	171.067619
60800		24.518155	0.271686	171.017619
60801		24.245374	0.374579	170.853991
60802		23.949266	0.480171	170.719054
60803		23.799307	0.587634	170.630527
60804		23.717127	0.667619	170.601155
60805		23.667091	0.662755	170.568410
60806		23.756774	0.577543	170.529298
60807		23.909273	0.543985	170.504132
60808		23.995290	0.543710	170.495492
60809		23.994826	0.593736	170.487849
60810		23.869739	0.697411	170.461921
60811		23.632811	0.769961	170.432458
60812		23.506235	0.769569	170.392597
60813		23.590239	0.696055	170.354258
60814		23.726783	0.604793	170.355803
60815		23.897581	0.514582	170.392069
60816		24.124928	0.395625	170.434297
60817		24.477118	0.289433	170.483824
60818		24.770303	0.111610	170.529570
60819		25.080876	-0.017758	170.606145
60820		25.378233	-0.071868	170.708478
60821		25.764350	-0.126588	170.836346
60822		26.101144	-0.076534	171.073130
60823		26.156287	-0.212788	171.365217
60824		26.313023	-0.152751	171.656684
60825		26.540484	-0.284063	171.854430
60826		26.639493	-0.507565	171.955792
60827		26.529248	-0.714937	172.045875
60828		26.444533	-0.790386	172.161456
60829		26.426443	-0.905752	172.331536
60830		26.275176	-0.817136	172.543393
60831		26.008865	-0.369161	172.903962
60832		25.820935	0.401068	173.161430
60833		26.123124	1.387425	173.313827
60834		26.651693	2.505632	173.403387
60835		26.986715	3.360870	173.498914
60836		26.880168	3.985884	173.647593
60837		26.599328	4.647202	173.668223
60838		25.975658	5.523884	173.641667
60839		25.433576	6.542490	173.553226
60840		25.016131	7.259585	173.595141
60841		24.681333	7.550156	173.575938
60842		24.372068	7.761961	173.452348
60843		24.333268	7.873161	173.405912
60844		24.292513	7.928069	173.414723
60845		24.037192	8.131838	173.407145
60846		23.661981	8.367175	173.302555
60847		23.300225	8.455110	173.153056
60848		23.029683	8.582956	173.009705
60849		22.825293	8.829239	172.909299
60850		22.582816	9.009792	172.832273
60851		22.394807	9.118635	172.760687
60852		22.326156	9.164637	172.716303
60853		22.285106	9.247472	172.678094
60854		22.129678	9.444276	172.601461
60855		21.887266	9.727925	172.482983
60856		21.646440	9.907333	172.385506
60857		21.460973	10.014854	172.337255
60858		21.210734	10.236456	172.348887
60859		21.000942	10.377216	172.352160
60860		20.900830	10.390125	172.325450
60861		20.880388	10.385704	172.299847
60862		20.736114	10.548093	172.250693
60863		20.539335	10.760072	172.194801
60864		20.353610	10.844868	172.153646
60865		20.337088	10.732371	172.153140
60866		20.427682	10.638253	172.164673
60867		20.461177	10.630778	172.178932
60868		20.439861	10.627793	172.179491
60869		20.447477	10.600263	172.182262
60870		20.464830	10.596024	172.193747
60871		20.454794	10.583654	172.203592
60872		20.445790	10.579905	172.210173
60873		20.464862	10.565149	172.222749
60874		20.456790	10.577344	172.231912
60875		20.431355	10.620505	172.230820
60876		20.407516	10.621784	172.232484
60877		20.431144	10.575290	172.244393
60878		20.461531	10.525849	172.261821
60879		20.460861	10.535316	172.264468
60880		20.434181	10.546299	172.260145
60881		20.408990	10.543929	172.255994
60882		20.397436	10.532938	172.255951
60883		20.392408	10.548419	172.257828
60884		20.390681	10.564925	172.268414
60885		20.396485	10.566284	172.281731
60886		20.420424	10.541537	172.297177
60887		20.472311	10.490564	172.311000
60888		20.483940	10.499743	172.321703
60889		20.480256	10.529016	172.315230
60890		20.460423	10.555530	172.301087
60891		20.429240	10.617247	172.268185
60892		20.368488	10.713017	172.249857
60893		20.356787	10.800788	172.234048
60894		20.365348	10.834928	172.236709
60895		20.418681	10.808386	172.246130
60896		20.485319	10.795794	172.247391
60897		20.536165	10.800411	172.241581
60898		20.551825	10.785130	172.226685
60899		20.565774	10.757756	172.213105
60900		20.659645	10.719448	172.174175
60901		20.667393	10.773617	172.095187
60902		20.550448	10.934962	172.024275
60903		20.426591	11.139173	171.852089
60904		20.484389	11.382683	171.591687
60905		20.379486	11.810671	171.169307
60906		20.436925	12.172467	170.831053
60907		20.330228	12.489777	170.576501
60908		20.004535	12.912954	170.374808
60909		19.866640	13.317197	170.523654
60910		19.738024	13.813085	170.698864
60911		19.679119	14.091650	170.841753
60912		19.703405	14.300281	171.041802
60913		19.672953	14.642549	171.215568
60914		19.594312	14.943292	171.268620
60915		19.492841	15.092486	171.310241
60916		19.577018	15.109051	171.521932
60917		19.550221	15.265009	171.654365
60918		19.471580	15.500108	171.685957
60919		19.480591	15.684922	171.796884
60920		19.615757	15.671080	172.016018
60921		19.739602	15.621936	172.090071
60922		19.759873	15.645383	171.906559
60923		19.720801	15.657559	171.660879
60924		19.753668	15.549494	171.493100
60925		19.794909	15.499210	171.389915
60926		19.841261	15.504683	171.242557
60927		19.986102	15.561125	171.093419
60928		19.997123	15.413454	170.949276
60929		19.908605	15.165625	170.831644
60930		20.067016	14.930134	170.860188
60931		20.191521	14.773673	170.864919
60932		20.281636	14.610058	170.815312
60933		20.310818	14.531261	170.736930
60934		20.314221	14.509730	170.706846
60935		20.406838	14.416512	170.737648
60936		20.546898	14.163971	170.664617
60937		20.565684	14.013828	170.446490
60938		20.507039	14.024602	170.231167
60939		20.580585	13.946970	170.077410
60940		20.711299	13.658038	169.883338
60941		20.796058	13.468544	169.640576
60942		20.815308	13.440557	169.469217
60943		20.853089	13.373351	169.335874
60944		20.845592	13.242896	169.210210
60945		20.789650	13.155407	169.111748
60946		20.825021	13.012323	169.135431
60947		20.809194	12.881247	169.121444
60948		20.725456	12.767074	168.989867
60949		20.759785	12.654808	168.863485
60950		20.707845	12.581673	168.705904
60951		20.675498	12.486268	168.660827
60952		20.670821	12.360117	168.642691
60953		20.709818	12.259347	168.686099
60954		20.815945	12.113034	168.736758
60955		20.977643	11.909099	168.831406
60956		21.226197	11.686025	168.965934
60957		21.483216	11.516563	169.101015
60958		21.619718	11.425842	169.244077
60959		21.795895	11.276525	169.390680
60960		22.154479	10.935647	169.511100
60961		22.695289	10.479417	169.583552
60962		23.275083	9.931320	169.692398
60963		23.826630	9.302826	169.788229
60964		24.308257	8.589485	169.872766
60965		25.049941	7.520747	169.777268
60966		25.483431	6.237938	169.436517
60967		25.715534	5.412715	169.481407
60968		25.732696	4.918259	169.641284
60969		25.745171	4.340364	169.606397
60970		25.508727	3.534831	169.495659
60971		25.324692	2.837765	169.450601
60972		25.252587	2.041649	169.492696
60973		25.052776	1.100024	169.689063
60974		24.640274	0.094011	170.134601
60975		24.225718	-0.760266	170.376532
60976		23.924418	-1.538733	170.355085
60977		23.678796	-2.262760	170.253364
60978		23.750028	-2.499350	170.166434
60979		24.042477	-2.348135	170.152642
60980		24.243740	-2.073966	170.163028
60981		24.375159	-1.726813	170.143282
60982		24.482980	-1.332911	170.165301
60983		24.611328	-0.879089	170.230055
60984		25.011775	-0.236640	170.427308
60985		25.370307	0.168961	170.513323
60986		25.365810	0.336684	170.534814
60987		25.097575	0.529698	170.527363
60988		24.866794	0.717846	170.410124
60989		24.759415	0.772317	170.223937
60990		24.790472	0.614449	170.068062
60991		24.784278	0.538145	169.986876
60992		24.868586	0.519908	169.952210
60993		24.964173	0.491709	169.928660
60994		24.950367	0.527049	169.905493
60995		24.914827	0.547547	169.848773
60996		25.071250	0.522022	169.829154
60997		25.320397	0.547541	169.794251
60998		25.495615	0.570116	169.774008
60999		25.577954	0.593377	169.768296
61000		25.655033	0.638490	169.785094
61001		25.712939	0.687924	169.818315
61002		25.774901	0.683087	169.852153
61003		25.898369	0.650916	169.879291
61004		25.922444	0.608336	169.900813
61005		25.841144	0.571825	169.907635
61006		25.749959	0.552579	169.907606
61007		25.661075	0.539008	169.893963
61008		25.470221	0.485848	169.918771
61009		25.272225	0.422223	169.945481
61010		25.203258	0.392422	169.918734
61011		25.162488	0.354301	169.872439
61012		24.964845	0.280140	169.766741
61013		24.592687	0.129060	169.531456
61014		24.458717	-0.037439	169.233751
61015		24.576536	-0.088198	169.078754
61016		24.641501	-0.075030	169.058542
61017		24.550701	-0.066482	169.036454
61018		24.449347	-0.062482	168.997200
61019		24.337005	-0.085225	168.937204
61020		24.316449	-0.079392	168.898687
61021		24.414804	-0.043167	168.930957
61022		24.417868	-0.028473	168.990786
61023		24.445022	-0.007957	169.007938
61024		24.488612	0.033855	169.065563
61025		24.448959	0.065574	169.135446
61026		24.387766	0.096174	169.170207
61027		24.317637	0.104827	169.189953
61028		24.216289	0.073754	169.163818
61029		24.156211	0.102740	169.193101
61030		24.065990	0.165653	169.234472
61031		23.931027	0.257171	169.242252
61032		23.785148	0.330534	169.233092
61033		23.638688	0.388426	169.230983
61034		23.561365	0.476799	169.188035
61035		23.500641	0.582117	169.147698
61036		23.401145	0.667638	169.166780
61037		23.315810	0.718201	169.198725
61038		23.295569	0.792123	169.232804
61039		23.238791	0.873054	169.280978
61040		23.085881	0.964850	169.265511
61041		22.837066	1.130398	169.215637
61042		22.553833	1.367409	169.156562
61043		22.362285	1.636446	169.138381
61044		22.300814	1.810657	169.083446
61045		22.395632	1.963548	169.011419
61046		22.406963	2.108410	169.019858
61047		22.379519	2.231397	169.081249
61048		22.392167	2.325389	169.110759
61049		22.548691	2.109610	169.071560
61050		22.916220	1.923483	169.079855
61051		23.098705	1.831729	169.018851
61052		23.212614	1.885397	168.801457
61053		23.115589	2.083386	168.477410
61054		22.983987	2.149591	168.060675
61055		22.951825	2.096376	167.774167
61056		23.112957	1.949468	167.697525
61057		23.465210	1.828643	167.714279
61058		23.688907	1.832699	167.748996
61059		23.654851	1.921947	167.775273
61060		23.460105	2.024236	167.736444
61061		23.130117	2.141845	167.693194
61062		22.813336	2.234749	167.689749
61063		22.747491	2.250814	167.739507
61064		22.992995	2.167435	167.853940
61065		23.471107	2.004306	168.023050
61066		23.925580	1.823662	168.236714
61067		24.258763	1.613336	168.389889
61068		24.463337	1.478894	168.555649
61069		24.644850	1.417324	168.725885
61070		25.044509	1.407348	168.854727
61071		25.390834	1.461967	169.101481
61072		25.339801	1.259016	169.423402
61073		25.228245	1.255971	169.730988
61074		25.120741	1.083723	169.996583
61075		24.822682	0.872414	170.262867
61076		24.583203	0.873595	170.616985
61077		24.361430	1.093450	171.052552
61078		24.102527	1.509922	171.442816
61079		24.028050	2.344496	171.765710
61080		24.671928	3.604900	172.110984
61081		25.349409	5.015793	172.327578
61082		25.491090	6.149084	172.299759
61083		25.420782	7.062701	172.347924
61084		24.869489	8.157021	172.306618
61085		24.224357	9.048327	171.719459
61086		23.702769	9.819280	171.374656
61087		23.250224	10.475615	171.309244
61088		22.865172	10.947341	171.267288
61089		22.581911	11.101135	171.204314
61090		22.431130	10.977865	171.084719
61091		22.284207	10.854455	170.926653
61092		22.049220	10.916800	170.732971
61093		21.694537	11.047521	170.592381
61094		21.415711	11.119035	170.521627
61095		21.309260	11.053227	170.488143
61096		21.373551	10.875683	170.483283
61097		21.456054	10.688804	170.487762
61098		21.490092	10.603417	170.496179
61099		21.498524	10.530554	170.492674
61100		21.483001	10.456952	170.494387
61101		21.463294	10.466278	170.503852
61102		21.428174	10.490818	170.506930
61103		21.363594	10.529715	170.503874
61104		21.286437	10.555444	170.517268
61105		21.237794	10.600189	170.516818
61106		21.210441	10.590244	170.526486
61107		21.197577	10.574256	170.532082
61108		21.201227	10.538313	170.531669
61109		21.220282	10.462128	170.533872
61110		21.262270	10.455220	170.545105
61111		21.284336	10.440613	170.550047
61112		21.304130	10.430407	170.550265
61113		21.313593	10.461803	170.550661
61114		21.283121	10.465374	170.554615
61115		21.263695	10.465401	170.561243
61116		21.255581	10.445464	170.564830
61117		21.255896	10.425295	170.568273
61118		21.237655	10.441852	170.571066
61119		21.189914	10.490269	170.561975
61120		21.144067	10.543646	170.555723
61121		21.119992	10.553378	170.556744
61122		21.124817	10.531971	170.569671
61123		21.141176	10.507197	170.584309
61124		21.145339	10.507346	170.589621
61125		21.134401	10.510035	170.592325
61126		21.137581	10.506047	170.594802
61127		21.140948	10.486964	170.602040
61128		21.141944	10.473172	170.608361
61129		21.144724	10.468551	170.614652
61130		21.132424	10.487313	170.615471
61131		21.121712	10.502850	170.622932
61132		21.134543	10.497649	170.627179
61133		21.164135	10.489118	170.630228
61134		21.154208	10.564272	170.605402
61135		21.102086	10.661443	170.583151
61136		21.067032	10.705573	170.582481
61137		21.118283	10.737325	170.569303
61138		21.191390	10.826724	170.517256
61139		21.104505	10.950443	170.449132
61140		20.972516	11.130550	170.347608
61141		21.070504	11.291996	170.163814
61142		21.103593	11.513686	169.915668
61143		21.056605	11.768693	169.910930
61144		21.174579	11.803887	169.984202
61145		21.318586	11.924233	170.106481
61146		21.197961	12.183463	170.145600
61147		20.973190	12.614031	170.126258
61148		20.811944	13.020394	170.134144
61149		20.754310	13.290271	170.180381
61150		20.603625	13.679435	170.215185
61151		20.359956	14.157935	170.199859
61152		20.169646	14.457319	170.148876
61153		20.139458	14.624298	170.203195
61154		20.265637	14.933939	170.312912
61155		20.260408	15.290239	170.209344
61156		20.040830	15.496000	169.942307
61157		19.868674	15.601780	169.808935
61158		19.809859	15.725868	169.818277
61159		19.728300	15.751021	169.850683
61160		19.691396	15.545990	169.902697
61161		19.657593	15.381607	169.947234
61162		19.594491	15.398582	169.920800
61163		19.604430	15.504760	169.775373
61164		19.583803	15.768357	169.645196
61165		19.301663	16.069076	169.603654
61166		18.957289	15.773122	169.740509
61167		18.795363	15.371940	169.922603
61168		18.804734	15.203264	170.032416
61169		18.860015	15.014054	170.048773
61170		18.904101	14.744332	170.081250
61171		18.810350	14.673781	170.158824
61172		18.789904	14.659103	170.199256
61173		18.816616	14.539586	170.159324
61174		18.811262	14.434732	170.048154
61175		18.795850	14.460528	169.887562
61176		18.894821	14.427288	169.691740
61177		19.189652	14.167368	169.493521
61178		19.326773	14.035409	169.261535
61179		19.321284	14.069490	169.022773
61180		19.311470	14.047207	168.759042
61181		19.367130	13.957516	168.561080
61182		19.387113	13.900785	168.469407
61183		19.444271	13.797038	168.454065
61184		19.522416	13.649474	168.429839
61185		19.589772	13.559753	168.415832
61186		19.566886	13.569715	168.350229
61187		19.554157	13.545984	168.246052
61188		19.564948	13.489270	168.181766
61189		19.609049	13.395098	168.217809
61190		19.680502	13.277196	168.309626
61191		19.803456	13.136164	168.428648
61192		19.982502	13.004412	168.581021
61193		20.140801	12.932883	168.702490
61194		20.292399	12.854905	168.858390
61195		20.498241	12.690983	169.007018
61196		20.730728	12.461561	169.114643
61197		21.122968	12.069124	169.250321
61198		21.730135	11.432424	169.456331
61199		22.292491	10.867009	169.715361
61200		22.632928	10.539029	169.885074
61201		23.111285	10.127376	170.029160
61202		23.832598	9.204166	170.153108
61203		24.203600	8.003377	170.117102
61204		24.478772	7.552072	169.760535
61205		24.603810	7.226258	169.305264
61206		24.221140	6.268136	168.740720
61207		23.684821	4.589027	168.414750
61208		23.525561	3.126336	168.508540
61209		23.101256	1.973834	168.623430
61210		22.693431	0.880202	168.789972
61211		22.504946	-0.119644	168.962563
61212		22.682358	-0.738180	169.221971
61213		22.897922	-0.692335	169.447082
61214		23.274727	-0.293301	169.705877
61215		23.639561	-0.007890	170.186063
61216		24.113513	0.338536	170.956585
61217		24.143680	0.573092	171.331964
61218		24.316950	1.036264	171.562629
61219		24.447911	1.345165	171.710288
61220		24.463600	1.343941	171.763782
61221		24.574073	1.281978	171.725963
61222		24.582513	1.181551	171.700601
61223		24.627202	0.995510	171.631390
61224		24.847484	0.746302	171.507896
61225		25.076100	0.494147	171.352756
61226		25.201913	0.341583	171.200069
61227		25.168760	0.345059	171.150636
61228		25.096433	0.359267	171.134142
61229		25.000062	0.333392	171.073645
61230		24.859687	0.226674	171.014706
61231		24.821885	0.190603	170.994147
61232		24.830368	0.199364	170.988095
61233		24.885203	0.207114	171.022595
61234		24.954719	0.207176	171.049446
61235		25.023259	0.196366	171.064012
61236		25.025751	0.196092	171.073700
61237		25.048931	0.179523	171.089863
61238		25.106193	0.153067	171.098484
61239		25.047497	0.166526	171.107454
61240		24.926623	0.197057	171.121199
61241		24.859422	0.203691	171.120815
61242		24.826044	0.168531	171.133409
61243		24.820532	0.117136	171.163329
61244		24.752453	0.038607	171.198985
61245		24.590915	-0.015020	171.101255
61246		24.550185	-0.060081	170.884663
61247		24.623916	-0.115531	170.702198
61248		24.698544	-0.142580	170.585792
61249		24.706065	-0.153121	170.486711
61250		24.743455	-0.191763	170.392625
61251		24.827571	-0.242625	170.355212
61252		24.868823	-0.285033	170.265016
61253		24.870522	-0.346093	170.097939
61254		24.847960	-0.396083	169.895850
61255		24.818758	-0.411558	169.719837
61256		24.800946	-0.400374	169.636198
61257		24.813355	-0.372028	169.661790
61258		24.905983	-0.374700	169.732232
61259		24.986233	-0.372189	169.819580
61260		24.924376	-0.357784	169.898326
61261		24.868491	-0.334015	169.996487
61262		24.834974	-0.283485	170.121443
61263		24.802350	-0.231062	170.261138
61264		24.800597	-0.228717	170.392529
61265		24.788468	-0.220660	170.455888
61266		24.727834	-0.161614	170.487947
61267		24.660666	-0.041698	170.565544
61268		24.615932	0.058952	170.685017
61269		24.551835	0.160862	170.786061
61270		24.519678	0.198817	170.829398
61271		24.490335	0.222409	170.927248
61272		24.405981	0.278016	171.013722
61273		24.290834	0.382999	171.070891
61274		24.044759	0.577135	171.128848
61275		23.792459	0.739725	171.211524
61276		23.677624	0.793457	171.342914
61277		23.661194	0.833203	171.479030
61278		23.596622	0.950043	171.630720
61279		23.424018	1.169202	171.728428
61280		23.256739	1.336760	171.732846
61281		23.196615	1.446033	171.728261
61282		23.244800	1.500051	171.808012
61283		23.455083	1.491315	171.868406
61284		23.727998	1.348593	171.870265
61285		24.126619	1.118960	171.862650
61286		24.251448	1.172982	171.794136
61287		24.150718	1.264123	171.675457
61288		24.098914	1.306475	171.534304
61289		24.141465	1.295304	171.448476
61290		24.138857	1.345255	171.378040
61291		23.856644	1.565305	171.321298
61292		23.508427	1.771569	171.223311
61293		23.411293	1.794868	171.103278
61294		23.483951	1.753526	171.022065
61295		23.563162	1.765754	170.990799
61296		23.628611	1.736098	170.972455
61297		23.775737	1.640969	170.947137
61298		23.935800	1.563498	170.927976
61299		23.986075	1.512099	170.911315
61300		24.068307	1.435682	170.885562
61301		24.401800	1.265572	170.861803
61302		24.792792	1.122648	170.908528
61303		25.292215	1.024112	171.084533
61304		25.747884	0.965787	171.223728
61305		26.275546	0.910008	171.413510
61306		26.426020	0.769505	171.630482
61307		26.587718	0.719291	171.860419
61308		26.753986	0.435139	172.005508
61309		26.628057	0.030819	172.137465
61310		26.139453	0.041266	172.373834
61311		25.652159	0.398900	172.912750
61312		25.363688	0.937362	173.272799
61313		25.439947	1.797829	173.423201
61314		25.780749	2.946414	173.573543
61315		26.211547	4.011430	173.811951
61316		26.051821	4.844966	173.848372
61317		25.756501	5.711367	173.814103
61318		25.602975	6.495322	173.795991
61319		25.302324	7.075351	173.915634
61320		24.890679	7.546617	174.035989
61321		24.404791	8.107154	174.117076
61322		23.885853	8.689607	174.164415
61323		23.448007	9.129476	174.207672
61324		23.112926	9.341867	174.241836
61325		23.014547	9.286744	174.154755
61326		22.888602	9.510625	173.939461
61327		22.403797	9.888146	173.741882
61328		21.836361	10.132611	173.619477
61329		21.481904	10.215882	173.549306
61330		21.340592	10.258219	173.495549
61331		21.180381	10.380338	173.443982
61332		20.968005	10.496624	173.369394
61333		20.770511	10.565383	173.301110
61334		20.667055	10.598471	173.263645
61335		20.642224	10.565035	173.262820
61336		20.650524	10.506261	173.265025
61337		20.677796	10.475561	173.271795
61338		20.661538	10.476895	173.272611
61339		20.638293	10.487052	173.267713
61340		20.636728	10.459331	173.274072
61341		20.639230	10.421228	173.285127
61342		20.628620	10.411861	173.293528
61343		20.599726	10.424358	173.291440
61344		20.586060	10.415912	173.286427
61345		20.570791	10.413443	173.292951
61346		20.564530	10.439955	173.293350
61347		20.542116	10.472590	173.292633
61348		20.530373	10.493318	173.293837
61349		20.543742	10.479073	173.297810
61350		20.588044	10.432589	173.309467
61351		20.608762	10.424588	173.321302
61352		20.605950	10.419481	173.329902
61353		20.609606	10.414531	173.329064
61354		20.590539	10.456541	173.328556
61355		20.568214	10.489080	173.323077
61356		20.566717	10.479086	173.328774
61357		20.609597	10.420631	173.343117
61358		20.682904	10.365294	173.364762
61359		20.718150	10.363911	173.390379
61360		20.735306	10.355861	173.395484
61361		20.739485	10.382028	173.402822
61362		20.728568	10.393846	173.401982
61363		20.735259	10.378566	173.404861
61364		20.749556	10.353735	173.413462
61365		20.741290	10.360941	173.419278
61366		20.717059	10.388079	173.418427
61367		20.695399	10.408875	173.414663
61368		20.681539	10.413161	173.406011
61369		20.672548	10.401603	173.402919
61370		20.657425	10.425509	173.390771
61371		20.611096	10.474423	173.356461
61372		20.545308	10.554690	173.320399
61373		20.509352	10.625888	173.307750
61374		20.580373	10.656796	173.278741
61375		20.615782	10.722826	173.263998
61376		20.595480	10.802103	173.245373
61377		20.656711	10.893184	173.158780
61378		20.689185	11.035310	173.016832
61379		20.647811	11.182510	172.941633
61380		20.616339	11.349100	172.866500
61381		20.663145	11.495108	172.806966
61382		20.922878	11.501465	172.795916
61383		21.096961	11.650460	172.777516
61384		21.087838	11.885349	172.714749
61385		21.028165	12.127854	172.713151
61386		20.959533	12.405011	172.748997
61387		21.030254	12.556597	172.846558
61388		21.022420	12.668408	172.858346
61389		20.952702	12.830077	172.861834
61390		20.952492	13.027901	172.958177
61391		21.012264	13.186342	173.061141
61392		21.111111	13.352976	173.124494
61393		21.224445	13.453923	173.142049
61394		21.335055	13.409587	173.137513
61395		21.367532	13.422763	173.067785
61396		21.300921	13.596541	172.901341
61397		21.381624	13.634493	172.805027
61398		21.397125	13.639462	172.720943
61399		21.345060	13.707294	172.542547
61400		21.461484	13.660678	172.416937
61401		21.545756	13.501821	172.328370
61402		21.680233	13.373654	172.235580
61403		21.761024	13.668149	172.113184
61404		21.764807	13.949653	172.056469
61405		21.674500	13.658663	172.096412
61406		21.632932	13.143430	172.134095
61407		21.785134	13.019368	172.160541
61408		21.787389	13.160657	172.168385
61409		21.581260	13.251663	172.225834
61410		21.545785	13.128584	172.375982
61411		21.722014	12.822047	172.512907
61412		21.884310	12.558828	172.458217
61413		21.966439	12.249006	172.270718
61414		22.092585	12.032531	171.989206
61415		22.083532	12.031293	171.710805
61416		22.071694	11.988234	171.463679
61417		22.176950	11.754637	171.260251
61418		22.238115	11.582085	171.120642
61419		22.204098	11.552608	171.041158
61420		22.216120	11.468461	170.927011
61421		22.267281	11.358877	170.769050
61422		22.254165	11.388060	170.662181
61423		22.217468	11.435290	170.673696
61424		22.281340	11.329374	170.691283
61425		22.295830	11.226914	170.650833
61426		22.221347	11.249865	170.680315
61427		22.163424	11.292418	170.809338
61428		22.246634	11.236677	170.963037
61429		22.351851	11.154714	171.074547
61430		22.383847	11.097195	171.135668
61431		22.353970	11.082942	171.193121
61432		22.265882	11.133569	171.250802
61433		22.189328	11.147972	171.309614
61434		22.156246	11.137740	171.416346
61435		22.153568	11.109618	171.527907
61436		22.293129	10.963558	171.647533
61437		23.095617	10.288189	171.941983
61438		24.312249	9.213700	172.236364
61439		25.080641	8.597544	172.321213
61440		25.761451	7.822638	172.295486
61441		26.418595	6.447515	172.057323
61442		26.720975	4.733315	171.786497
61443		26.899930	3.079136	171.505103
61444		26.927595	1.706792	171.353410
61445		26.961003	0.428237	171.282937
61446		26.810977	-0.724444	171.248633
61447		26.718976	-2.160907	171.287949
61448		26.378876	-3.640163	171.310153
61449		26.120586	-4.194486	171.345544
61450		26.202520	-4.142617	171.295026
61451		26.444149	-4.114206	171.198875
61452		26.724848	-3.979927	171.186162
61453		26.802324	-3.839830	171.128732
61454		26.864115	-3.541416	171.205559
61455		26.983464	-3.082316	171.316105
61456		27.287941	-2.288928	171.483621
61457		27.656606	-1.603316	171.583720
61458		27.754407	-1.986159	171.656240
61459		27.583061	-2.783813	171.694130
61460		27.389231	-3.080972	171.594736
61461		27.181817	-3.240723	171.449217
61462		26.982152	-3.328729	171.330277
61463		26.774085	-3.334732	171.220527
61464		26.517923	-3.266426	171.209561
61465		26.385503	-3.175590	171.224033
61466		26.262374	-3.021643	171.220057
61467		25.947674	-2.766123	171.230101
61468		25.603967	-2.534408	171.263436
61469		25.358917	-2.386565	171.259327
61470		25.223836	-2.298427	171.236062
61471		25.141531	-2.228542	171.209883
61472		25.037647	-2.177867	171.202787
61473		24.946244	-2.147468	171.227712
61474		24.962177	-2.145290	171.245235
61475		24.996226	-2.114812	171.239608
61476		24.951897	-2.082059	171.244010
61477		24.856547	-2.053002	171.258120
61478		24.837136	-2.038025	171.270308
61479		24.847572	-2.033628	171.280576
61480		24.780538	-2.017140	171.291104
61481		24.683643	-2.002607	171.313496
61482		24.658250	-2.037591	171.334394
61483		24.697685	-2.083574	171.362558
61484		24.731421	-2.098617	171.393558
61485		24.721830	-2.140325	171.437354
61486		24.692704	-2.214958	171.471815
61487		24.684767	-2.243520	171.486415
61488		24.665543	-2.240212	171.516727
61489		24.701855	-2.328732	171.545855
61490		24.809724	-2.370976	171.462136
61491		24.916071	-2.421274	171.443135
61492		25.080611	-2.503492	171.444863
61493		25.357805	-2.613898	171.385468
61494		25.594492	-2.723357	171.244060
61495		25.744584	-2.768959	171.143008
61496		25.820722	-2.807817	171.096947
61497		25.819740	-2.858096	171.005612
61498		25.753470	-2.913441	170.900465
61499		25.678860	-2.944294	170.811546
61500		25.665878	-2.960296	170.801517
61501		25.626179	-3.017217	170.882727
61502		25.623509	-3.049416	170.989986
61503		25.701715	-3.034260	171.094633
61504		25.755455	-3.022939	171.137228
61505		25.706625	-3.010005	171.176289
61506		25.693417	-3.016216	171.311661
61507		25.781234	-3.015180	171.518002
61508		25.886589	-3.022673	171.659010
61509		25.834201	-3.021099	171.798831
61510		25.679077	-3.002181	171.961780
61511		25.517302	-2.944188	172.121050
61512		25.319941	-2.867545	172.270116
61513		25.188124	-2.809379	172.387888
61514		25.191770	-2.745296	172.446238
61515		25.204632	-2.693691	172.449871
61516		25.124956	-2.610531	172.383361
61517		24.999386	-2.500736	172.323596
61518		24.919433	-2.384800	172.362152
61519		24.882046	-2.245494	172.411490
61520		24.733128	-2.132848	172.469195
61521		24.578407	-2.059310	172.542350
61522		24.522364	-1.939573	172.620182
61523		24.366410	-1.850260	172.729568
61524		24.207946	-1.795015	172.862537
61525		24.131668	-1.678195	172.989423
61526		24.046529	-1.450579	173.061886
61527		23.891599	-1.328447	173.044621
61528		24.111126	-1.627181	173.033063
61529		24.703938	-1.704391	172.945202
61530		25.164672	-1.779356	172.830750
61531		25.380866	-1.847608	172.741555
61532		25.517802	-1.941601	172.689602
61533		25.778145	-2.000645	172.614972
61534		25.994107	-1.944273	172.493282
61535		26.068890	-1.853579	172.365515
61536		26.046101	-1.746899	172.212651
61537		25.877951	-1.639783	171.997656
61538		25.618111	-1.558947	171.789032
61539		25.526209	-1.549373	171.647868
61540		25.504064	-1.489245	171.598618
61541		25.457706	-1.351610	171.610958
61542		25.463141	-1.324751	171.588831
61543		25.570707	-1.364469	171.544919
61544		25.643539	-1.347737	171.472251
61545		25.589825	-1.316289	171.387949
61546		25.521417	-1.329508	171.285536
61547		25.551530	-1.373184	171.209200
61548		25.647908	-1.409851	171.143650
61549		25.728993	-1.444781	171.120806
61550		25.869774	-1.575084	171.152033
61551		26.263533	-1.767114	171.194042
61552		26.787899	-2.006715	171.303945
61553		27.234642	-2.183841	171.417375
61554		27.463946	-2.281006	171.561861
61555		27.589554	-2.199310	171.852271
61556		27.744800	-2.156331	172.117070
61557		27.867345	-2.313791	172.298144
61558		28.051819	-2.424998	172.568579
61559		28.021562	-2.489291	172.855758
61560		27.739863	-2.649357	173.073758
61561		27.225436	-2.610354	173.282077
61562		26.823626	-2.203552	173.569568
61563		26.727526	-1.588288	173.783984
61564		26.752470	-0.729119	173.891069
61565		27.073700	0.302976	173.857194
61566		27.331609	1.492292	173.936073
61567		27.458662	2.824453	174.111834
61568		27.145414	4.109712	174.204485
61569		26.624395	4.881787	174.169261
61570		26.275308	5.301431	174.192967
61571		25.923828	5.704236	174.293189
61572		25.432273	6.545197	174.411094
61573		24.801745	7.457652	174.309136
61574		24.226562	7.937539	174.006751
61575		23.668811	8.467371	173.672415
61576		22.920100	9.068400	173.353380
61577		22.196071	9.613803	173.094922
61578		21.750755	9.977301	173.015572
61579		21.667643	10.006243	172.985479
61580		21.616273	9.895283	172.950773
61581		21.534282	9.859216	172.927930
61582		21.488310	9.858876	172.898549
61583		21.467654	9.820606	172.883541
61584		21.484895	9.746260	172.889373
61585		21.508857	9.675630	172.895781
61586		21.509552	9.631739	172.895960
61587		21.487551	9.636769	172.887861
61588		21.443610	9.664121	172.872545
61589		21.414044	9.655698	172.860763
61590		21.402929	9.633323	172.855325
61591		21.396117	9.623290	172.858903
61592		21.383180	9.633817	172.861794
61593		21.356211	9.674540	172.851731
61594		21.327877	9.694269	172.845570
61595		21.323560	9.705940	172.851865
61596		21.344801	9.700039	172.862078
61597		21.371783	9.675860	172.873022
61598		21.383382	9.664164	172.884268
61599		21.369938	9.673188	172.891726
61600		21.356018	9.680800	172.892621
61601		21.357518	9.685669	172.890754
61602		21.352397	9.695576	172.897880
61603		21.343768	9.707505	172.904839
61604		21.340966	9.720640	172.907600
61605		21.332878	9.726402	172.914404
61606		21.325554	9.724182	172.922855
61607		21.328369	9.703834	172.928624
61608		21.336359	9.685409	172.930172
61609		21.345506	9.674129	172.926472
61610		21.336579	9.677794	172.925735
61611		21.324824	9.694157	172.927073
61612		21.310637	9.714563	172.931163
61613		21.315173	9.733678	172.935581
61614		21.326258	9.757002	172.942461
61615		21.334317	9.763029	172.953197
61616		21.347008	9.773862	172.950532
61617		21.323363	9.816587	172.929744
61618		21.260412	9.885977	172.913597
61619		21.233383	9.954580	172.869449
61620		21.230975	10.037146	172.811903
61621		21.199377	10.141672	172.771637
61622		21.179419	10.228571	172.684536
61623		21.160249	10.381503	172.619542
61624		21.111794	10.567014	172.575080
61625		21.058069	10.755547	172.414365
61626		21.024257	10.933960	172.300355
61627		21.069252	11.066304	172.236150
61628		21.217550	11.178516	172.189226
61629		21.132684	11.328799	172.077098
61630		20.944778	11.481830	171.949157
61631		20.960624	11.597772	171.944318
61632		20.979127	11.692107	171.963631
61633		21.006139	11.836160	172.037811
61634		21.007942	12.041415	172.130804
61635		20.964908	12.245308	172.191621
61636		20.984934	12.484091	172.266271
61637		21.009061	12.782247	172.381668
61638		21.078955	13.078523	172.515734
61639		21.068812	13.360188	172.581020
61640		20.968275	13.632149	172.589783
61641		20.909951	13.894254	172.634221
61642		20.847550	14.202827	172.660901
61643		20.767621	14.448014	172.633343
61644		20.726916	14.551637	172.698733
61645		20.688305	14.764603	172.821297
61646		20.709470	15.041091	172.883103
61647		20.686060	15.125638	172.807527
61648		20.632025	14.938042	172.696111
61649		20.639114	14.819813	172.592169
61650		20.669463	14.844026	172.452366
61651		20.709908	14.769986	172.326531
61652		20.803528	14.744602	172.181368
61653		20.734508	14.838001	172.042657
61654		20.709893	14.941953	171.892685
61655		20.595760	15.099655	171.833167
61656		20.459528	14.868337	171.862750
61657		20.485539	14.444090	171.998492
61658		20.610755	14.071748	172.154645
61659		20.653523	14.016158	172.242740
61660		20.580571	14.161241	172.159485
61661		20.431457	14.242600	171.990772
61662		20.369078	14.172204	171.911040
61663		20.374225	14.023864	171.927021
61664		20.490175	13.835552	172.021108
61665		20.655035	13.650911	172.098656
61666		20.815907	13.445959	172.056892
61667		20.903299	13.310499	171.864545
61668		20.901042	13.304060	171.601328
61669		20.929974	13.271467	171.457066
61670		21.058477	13.109351	171.406286
61671		21.121396	12.994186	171.299765
61672		21.161678	12.967678	171.181276
61673		21.113774	13.013579	171.032765
61674		21.102306	13.001102	170.901830
61675		21.084723	12.925739	170.838824
61676		21.016316	12.931770	170.849840
61677		20.958002	12.940864	170.841324
61678		21.028250	12.865784	170.799587
61679		21.061390	12.741785	170.670482
61680		21.028773	12.711328	170.559341
61681		20.943506	12.731876	170.474740
61682		20.885139	12.710985	170.423922
61683		20.863718	12.636540	170.391885
61684		20.847688	12.591502	170.385605
61685		20.779442	12.602757	170.403333
61686		20.804777	12.552780	170.427200
61687		20.929868	12.392780	170.542422
61688		21.149879	12.152366	170.741304
61689		21.517506	11.853598	170.997348
61690		22.151775	11.300286	171.250184
61691		22.962303	10.520380	171.478523
61692		23.743616	9.764341	171.665755
61693		24.552686	9.009471	171.821150
61694		25.145748	8.330432	171.861521
61695		25.404297	7.718816	171.905317
61696		25.756112	7.097585	171.914958
61697		26.067314	6.116426	171.897028
61698		26.257307	4.962207	171.768440
61699		26.383731	3.906562	171.652610
61700		26.402841	3.067011	171.820922
61701		26.276376	2.241521	172.112884
61702		26.144881	0.909510	172.395966
61703		25.904279	-0.517776	172.799897
61704		25.152767	-1.612035	172.987624
61705		24.666814	-2.232570	173.085487
61706		24.661987	-2.733543	173.013079
61707		25.049205	-3.058828	173.054540
61708		25.399739	-3.223482	173.255886
61709		25.589126	-3.382965	173.337294
61710		25.881992	-3.416269	173.434595
61711		26.327542	-3.718849	173.758847
61712		26.268441	-4.348292	174.025348
61713		26.074720	-4.576080	174.115964
61714		25.892684	-4.123201	173.919742
61715		26.061098	-3.065634	173.401160
61716		25.970340	-2.680605	173.071131
61717		25.386985	-2.554856	172.887074
61718		24.872122	-2.445992	172.669803
61719		24.525173	-2.474571	172.504740
61720		24.395824	-2.544280	172.444236
61721		24.307373	-2.607123	172.425920
61722		24.115675	-2.604353	172.454634
61723		23.744653	-2.481387	172.463684
61724		23.384086	-2.364260	172.455515
61725		23.194580	-2.268551	172.442981
61726		23.035107	-2.141986	172.464336
61727		22.818675	-2.002157	172.485839
61728		22.598434	-1.867983	172.510498
61729		22.463646	-1.769626	172.520943
61730		22.394709	-1.730242	172.533888
61731		22.303005	-1.681704	172.549056
61732		22.218876	-1.660899	172.578586
61733		22.203109	-1.704965	172.595492
61734		22.243727	-1.775311	172.610258
61735		22.251023	-1.809566	172.669362
61736		22.163507	-1.807733	172.807591
61737		22.057488	-1.787735	172.866524
61738		22.027130	-1.827594	172.756650
61739		22.082176	-1.845739	172.612619
61740		22.056649	-1.894813	172.446346
61741		21.956817	-1.922510	172.303807
61742		21.848375	-1.939774	172.180009
61743		21.857096	-1.899886	172.006205
61744		21.910159	-1.843682	171.810852
61745		21.898198	-1.810906	171.669827
61746		21.814383	-1.826989	171.577186
61747		21.752002	-1.851555	171.477952
61748		21.750947	-1.849930	171.446254
61749		21.865857	-1.874137	171.455397
61750		22.032564	-1.850537	171.533710
61751		22.116304	-1.776052	171.659839
61752		22.315523	-1.692891	171.801559
61753		22.513183	-1.618746	171.962727
61754		22.579811	-1.543842	172.152614
61755		22.557682	-1.486750	172.284241
61756		22.513358	-1.464169	172.284384
61757		22.396006	-1.366038	172.222985
61758		22.240095	-1.243521	172.152844
61759		22.175120	-1.146797	172.111994
61760		22.147056	-1.060402	172.105503
61761		22.163764	-0.995724	172.120486
61762		22.249056	-0.906078	172.119750
61763		22.256874	-0.762004	172.088640
61764		22.207273	-0.586045	172.050089
61765		22.200227	-0.481926	172.028234
61766		22.279697	-0.440420	172.019684
61767		22.302902	-0.321873	172.088296
61768		22.133830	-0.067382	172.215681
61769		21.943455	0.121958	172.379997
61770		21.881401	0.227659	172.571387
61771		21.885281	0.380191	172.685451
61772		21.788064	0.602910	172.652359
61773		21.503055	0.858903	172.561353
61774		21.253806	1.062676	172.416208
61775		21.144858	1.161338	172.235861
61776		21.227658	0.964915	172.101032
61777		21.514908	0.877467	172.046203
61778		21.700729	0.860999	171.989498
61779		21.742474	0.911212	171.901821
61780		21.685212	1.008070	171.821801
61781		21.546143	1.129078	171.741583
61782		21.334159	1.331972	171.612718
61783		21.157272	1.479447	171.415977
61784		21.181030	1.409427	171.249312
61785		21.333917	1.233868	171.184766
61786		21.542828	1.086303	171.175394
61787		21.810645	0.938182	171.186547
61788		22.121532	0.789221	171.207234
61789		22.426221	0.670296	171.260217
61790		22.697928	0.578855	171.303620
61791		22.827427	0.556460	171.277817
61792		22.706349	0.615671	171.236586
61793		22.545672	0.648094	171.237737
61794		22.576290	0.590793	171.265890
61795		22.790334	0.472013	171.311916
61796		23.007451	0.392035	171.363395
61797		23.160906	0.346337	171.444945
61798		23.382853	0.219543	171.525929
61799		23.713525	0.064245	171.608506
61800		24.154705	-0.024223	171.674171
61801		24.583056	-0.065964	171.714525
61802		24.968210	-0.038871	171.774710
61803		25.314469	0.054270	171.855285
61804		25.830361	0.241767	171.956683
61805		26.470348	0.284373	172.109548
61806		26.948693	0.344518	172.282966
61807		27.188415	0.313344	172.366652
61808		27.190862	0.202805	172.382092
61809		27.129733	0.063753	172.459481
61810		26.773905	-0.207256	172.525976
61811		26.586503	-0.422144	172.721514
61812		26.568250	-0.303507	172.975562
61813		26.017827	0.069210	173.093594
61814		25.642570	0.732605	173.248557
61815		25.773695	1.466660	173.341937
61816		25.990072	2.449642	173.413124
61817		26.366268	3.557376	173.484709
61818		26.352894	4.759349	173.180612
61819		26.211728	5.633073	172.940916
61820		25.780548	6.652259	173.073720
61821		24.866716	7.718895	173.241849
61822		24.301049	8.108358	173.205848
61823		23.857136	8.457759	173.175407
61824		23.470223	8.964035	173.247568
61825		23.178626	9.483868	173.305503
61826		22.847024	9.740334	173.341952
61827		22.500805	9.894764	173.377085
61828		22.342514	10.028349	173.374579
61829		22.293554	10.134736	173.364491
61830		22.161377	10.225101	173.360760
61831		22.007331	10.247410	173.328518
61832		21.841046	10.297419	173.288404
61833		21.703106	10.434531	173.280505
61834		21.591403	10.550968	173.295503
61835		21.493628	10.589702	173.301251
61836		21.436688	10.602964	173.303990
61837		21.395247	10.619866	173.296025
61838		21.353304	10.625435	173.288267
61839		21.328271	10.607266	173.287520
61840		21.302610	10.562887	173.284308
61841		21.273751	10.572029	173.285602
61842		21.260707	10.554678	173.279055
61843		21.252086	10.505187	173.260296
61844		21.239574	10.474361	173.253076
61845		21.229344	10.468998	173.249366
61846		21.222553	10.447562	173.248806
61847		21.223818	10.416148	173.252274
61848		21.231139	10.390588	173.259502
61849		21.228394	10.374506	173.269722
61850		21.189146	10.403414	173.280000
61851		21.139976	10.407733	173.279593
61852		21.119328	10.398274	173.283571
61853		21.123705	10.397470	173.294567
61854		21.134178	10.399604	173.301887
61855		21.136457	10.412104	173.313377
61856		21.130817	10.428895	173.326917
61857		21.135143	10.422635	173.331252
61858		21.118328	10.420903	173.335185
61859		21.098414	10.433828	173.335020
61860		21.082407	10.430986	173.330806
61861		21.076051	10.440931	173.335710
61862		21.071480	10.435535	173.342706
61863		21.093129	10.418337	173.343945
61864		21.112596	10.409797	173.344500
61865		21.106397	10.415895	173.342846
61866		21.107919	10.413436	173.346177
61867		21.135829	10.392702	173.344338
61868		21.154228	10.365843	173.342851
61869		21.152117	10.335989	173.337858
61870		21.159031	10.319384	173.327403
61871		21.165717	10.320958	173.307945
61872		21.145310	10.353860	173.297015
61873		21.157135	10.380368	173.293217
61874		21.199865	10.413909	173.264507
61875		21.175546	10.471800	173.239154
61876		21.176005	10.508349	173.239192
61877		21.370683	10.473392	173.145459
61878		21.487752	10.560844	172.954875
61879		21.476293	10.850128	172.730760
61880		21.257997	11.246784	172.469134
61881		21.239584	11.386848	172.327261
61882		21.144599	11.631339	172.236592
61883		20.980883	11.805128	172.212309
61884		20.849362	12.033026	172.244604
61885		20.823054	12.325745	172.377789
61886		20.834393	12.634711	172.488569
61887		20.791362	12.949199	172.596886
61888		20.712049	13.261983	172.725209
61889		20.678014	13.466178	172.944422
61890		20.601165	13.724641	173.162757
61891		20.443696	14.108698	173.280827
61892		20.322592	14.510789	173.349505
61893		20.245188	14.866932	173.501434
61894		20.214104	15.256356	173.707177
61895		20.125904	15.766156	173.936036
61896		19.968323	16.157516	174.108091
61897		19.824586	16.296692	174.187761
61898		19.678233	16.397955	174.243760
61899		19.589194	16.538244	174.283415
61900		19.561560	16.589408	174.352932
61901		19.591527	16.649790	174.496741
61902		19.583461	16.693350	174.607112
61903		19.474553	16.581993	174.615093
61904		19.438274	16.397170	174.600242
61905		19.532090	16.229318	174.621824
61906		19.640610	16.043358	174.640844
61907		19.723558	15.838672	174.708266
61908		19.852483	15.665247	174.803509
61909		19.883479	15.549079	174.791574
61910		19.898788	15.374850	174.728711
61911		19.956879	15.235929	174.709015
61912		20.056999	15.140130	174.724987
61913		20.153242	15.023611	174.717965
61914		20.272446	14.853142	174.660843
61915		20.388395	14.707889	174.527082
61916		20.428379	14.649877	174.267757
61917		20.363758	14.700927	173.979311
61918		20.436196	14.610282	173.843437
61919		20.689969	14.270613	173.830007
61920		20.832902	13.997761	173.729232
61921		20.771052	13.978478	173.548709
61922		20.711129	13.963299	173.385186
61923		20.741858	13.827987	173.275027
61924		20.750763	13.722427	173.233164
61925		20.726433	13.700395	173.215341
61926		20.728841	13.652056	173.183935
61927		20.753516	13.599805	173.134810
61928		20.803418	13.563693	173.075615
61929		20.815997	13.458889	172.986760
61930		20.939747	13.248469	172.935670
61931		21.044732	13.075347	172.905741
61932		21.151022	12.928108	172.898059
61933		21.243494	12.741740	172.870631
61934		21.205875	12.710505	172.858189
61935		21.158999	12.712209	172.884009
61936		21.143663	12.652268	172.897794
61937		21.134025	12.568798	172.951967
61938		21.097063	12.542962	173.032941
61939		21.157499	12.465050	173.125115
61940		21.397041	12.257408	173.240652
61941		21.653362	12.029797	173.354412
61942		21.857036	11.930625	173.441963
61943		22.054045	11.798998	173.536779
61944		22.239583	11.574966	173.610485
61945		22.532309	11.218149	173.678634
61946		22.958358	10.702175	173.780235
61947		23.422087	10.151521	173.931993
61948		23.923622	9.669534	174.068101
61949		24.368267	8.889438	173.949076
61950		24.733584	7.917731	173.795548
61951		24.970618	7.009154	173.595406
61952		25.086446	6.101091	173.426192
61953		25.020759	5.293451	173.256130
61954		25.002200	4.657928	173.117423
61955		24.792282	3.318397	172.868562
61956		24.482711	1.618267	172.735806
61957		24.384429	0.393975	172.929217
61958		23.949008	-0.097550	172.994336
61959		23.440364	-1.044782	172.925464
61960		23.047573	-2.127480	172.824784
61961		23.117003	-2.353812	172.810958
61962		23.309711	-2.110487	172.842459
61963		23.601697	-1.827095	172.914567
61964		23.950053	-1.376905	173.000170
61965		24.112322	-1.013200	172.940042
61966		24.264433	-0.655197	172.959097
61967		24.516269	-0.123408	173.080366
61968		24.414793	-0.005363	173.196897
61969		24.289766	-0.099891	173.212033
61970		24.367413	-0.334299	173.020282
61971		24.261025	-0.677754	172.801193
61972		24.041885	-0.953662	172.564390
61973		23.708506	-1.249878	172.339902
61974		23.396605	-1.383393	172.180487
61975		23.238129	-1.430263	172.087293
61976		23.065322	-1.418950	172.050069
61977		22.821410	-1.334523	172.000381
61978		22.521955	-1.154163	171.943697
61979		22.256676	-0.994908	171.907254
61980		22.078362	-0.840528	171.841501
61981		21.892176	-0.685104	171.798504
61982		21.726889	-0.590732	171.780576
61983		21.626486	-0.537829	171.779442
61984		21.567300	-0.484564	171.823726
61985		21.517987	-0.479268	171.917916
61986		21.547081	-0.529512	171.984717
61987		21.548405	-0.624145	172.048109
61988		21.547196	-0.741136	172.112209
61989		21.563573	-0.843455	172.132243
61990		21.548008	-0.913401	172.121325
61991		21.406724	-0.863585	172.058072
61992		21.268970	-0.849100	171.974151
61993		21.274453	-0.909138	171.895638
61994		21.323265	-0.977662	171.791853
61995		21.309135	-1.043003	171.666799
61996		21.380131	-1.107316	171.607387
61997		21.537336	-1.134929	171.598164
61998		21.594997	-1.075755	171.656032
61999		21.445087	-1.022284	171.642071
62000		21.364316	-1.021118	171.515400
62001		21.469687	-1.030941	171.402732
62002		21.646009	-0.963743	171.390741
62003		21.722376	-0.934603	171.532047
62004		21.809059	-0.945409	171.724943
62005		21.832995	-0.910554	171.932320
62006		21.826639	-0.817773	172.140367
62007		21.856589	-0.733494	172.356308
62008		21.913675	-0.739217	172.533057
62009		21.934649	-0.754475	172.676315
62010		21.784233	-0.639978	172.896343
62011		21.615053	-0.466020	173.125713
62012		21.431907	-0.287077	173.299897
62013		21.321214	-0.200467	173.434177
62014		21.201693	-0.095467	173.616199
62015		21.048814	-0.016236	173.866968
62016		21.028749	0.003583	174.194959
62017		20.928038	0.170157	174.415417
62018		20.652382	0.516941	174.519064
62019		20.279893	0.905026	174.609295
62020		19.921612	1.249058	174.660968
62021		19.754148	1.437944	174.691213
62022		19.800561	1.469641	174.745779
62023		19.868401	1.511168	174.837764
62024		19.865907	1.618609	174.863254
62025		19.916717	1.435386	174.755637
62026		20.118115	1.230518	174.646411
62027		20.359342	1.119963	174.558051
62028		20.554088	1.162506	174.454520
62029		20.674978	1.101863	174.322187
62030		20.778980	0.974678	174.213116
62031		20.804094	0.970604	174.101071
62032		20.676907	1.090653	173.974323
62033		20.521431	1.156470	173.872473
62034		20.490339	1.131836	173.793933
62035		20.564674	1.112948	173.761341
62036		20.582839	1.175424	173.737938
62037		20.445549	1.262894	173.721467
62038		20.327175	1.281670	173.741919
62039		20.414285	1.190155	173.796413
62040		20.709464	1.008571	173.886562
62041		21.032770	0.636103	173.979271
62042		21.354943	0.362341	174.137494
62043		21.730168	0.215087	174.300396
62044		22.269850	0.139640	174.449772
62045		22.675134	0.245932	174.570969
62046		22.981897	0.536659	174.720828
62047		23.398772	0.760400	174.765826
62048		23.755510	0.678625	174.936167
62049		23.768649	0.761872	175.096441
62050		23.831102	0.758447	175.109298
62051		23.867357	0.560994	175.209418
62052		23.787107	0.321077	175.397098
62053		23.685838	0.221263	175.564430
62054		23.283459	0.168304	175.563246
62055		22.814625	0.429125	175.465945
62056		22.608159	1.002472	175.292523
62057		22.612712	1.827206	175.127275
62058		22.903189	2.900747	175.044694
62059		23.335777	4.457512	175.252764
62060		24.058775	5.916171	175.391916
62061		24.053068	6.900313	175.186226
62062		23.724402	7.307909	175.010113
62063		23.377921	8.075630	175.000663
62064		22.853533	8.796885	174.894553
62065		22.419914	9.322149	174.706291
62066		21.997934	9.732550	174.585308
62067		21.665183	10.053637	174.462095
62068		21.334149	10.261562	174.341207
62069		21.123494	10.265289	174.266122
62070		20.958062	10.265523	174.224113
62071		20.764286	10.367567	174.209235
62072		20.542358	10.614859	174.177495
62073		20.329480	10.828301	174.143111
62074		20.173909	10.889120	174.092667
62075		20.100966	10.778396	174.057659
62076		20.154818	10.649960	174.050314
62077		20.224756	10.596064	174.062787
62078		20.206844	10.644435	174.072526
62079		20.140310	10.705984	174.065144
62080		20.092305	10.708702	174.057577
62081		20.081615	10.656568	174.059180
62082		20.081173	10.653143	174.058265
62083		20.067914	10.638440	174.047538
62084		20.041261	10.578126	174.037315
62085		20.034282	10.552129	174.025914
62086		20.036682	10.572928	174.025166
62087		20.012560	10.582637	174.022505
62088		20.000237	10.580331	174.030702
62089		20.018308	10.571914	174.044790
62090		20.039447	10.539324	174.058687
62091		20.048945	10.531551	174.070651
62092		20.042754	10.534795	174.080998
62093		20.060975	10.531540	174.087362
62094		20.061263	10.539830	174.091813
62095		20.054325	10.542198	174.089423
62096		20.043788	10.533147	174.088460
62097		20.054824	10.498450	174.094447
62098		20.085478	10.429502	174.102054
62099		20.106989	10.403763	174.102085
62100		20.091237	10.424530	174.099549
62101		20.059334	10.453925	174.094270
62102		20.030632	10.458233	174.089664
62103		20.028008	10.448312	174.097908
62104		20.044947	10.445601	174.105042
62105		20.037630	10.502440	174.107010
62106		20.031109	10.539126	174.106926
62107		20.044276	10.535473	174.110781
62108		20.056306	10.506834	174.115532
62109		20.082417	10.475275	174.115034
62110		20.126922	10.495340	174.082121
62111		20.163248	10.551415	174.036084
62112		20.182235	10.592430	173.990987
62113		20.290838	10.558380	173.958226
62114		20.444389	10.456429	173.920698
62115		20.626177	10.383811	173.913788
62116		20.810937	10.472792	173.928771
62117		20.853403	10.646233	173.916257
62118		20.759251	10.792743	173.881931
62119		20.678118	10.868647	173.871320
62120		20.742884	10.910895	173.873710
62121		20.721635	11.111527	173.795709
62122		20.539441	11.387152	173.766181
62123		20.484500	11.569478	173.846088
62124		20.690186	11.564317	173.831390
62125		20.628049	11.629133	173.669666
62126		20.755121	11.675845	173.631286
62127		20.910185	11.831783	173.587698
62128		20.953456	12.104907	173.536691
62129		20.904716	12.363155	173.385378
62130		20.907889	12.652828	173.409579
62131		20.939797	12.969181	173.488718
62132		21.034847	13.234435	173.657719
62133		21.051593	13.423861	173.862052
62134		21.081166	13.582847	174.045052
62135		21.033858	13.674132	174.159271
62136		20.968515	13.727213	174.269309
62137		21.046787	13.730173	174.467912
62138		21.128451	13.720028	174.545304
62139		21.029394	13.843131	174.428505
62140		20.875094	14.086786	174.345131
62141		20.895135	14.210045	174.424579
62142		20.954455	14.066488	174.563546
62143		21.072465	13.909034	174.684573
62144		21.095529	13.912787	174.702555
62145		21.053009	13.864132	174.676443
62146		21.088432	13.649904	174.637138
62147		21.050100	13.687883	174.611778
62148		20.987517	13.954668	174.544226
62149		21.004427	14.351474	174.468295
62150		20.959902	14.357511	174.499677
62151		20.878012	14.226020	174.592593
62152		20.847503	13.812758	174.691763
62153		20.890115	13.618628	174.726593
62154		20.911409	13.597872	174.666036
62155		20.899847	13.581394	174.599034
62156		21.003003	13.336261	174.646182
62157		21.190767	12.996228	174.704687
62158		21.283200	12.745602	174.667578
62159		21.440058	12.518969	174.599933
62160		21.607939	12.258446	174.465291
62161		21.764649	12.096809	174.385908
62162		21.849614	11.980773	174.308352
62163		21.885940	11.915321	174.085914
62164		21.889971	11.875116	173.796983
62165		21.854939	11.881035	173.634582
62166		21.841112	11.780836	173.608897
62167		21.869945	11.655347	173.638470
62168		21.969409	11.479989	173.679117
62169		22.075507	11.331899	173.735999
62170		22.129898	11.245761	173.817561
62171		22.159468	11.100168	173.888128
62172		22.238707	10.910853	173.986994
62173		22.411721	10.680462	174.101168
62174		22.620532	10.431505	174.222956
62175		22.857320	10.206097	174.329840
62176		23.152005	9.987649	174.404411
62177		23.430853	9.760762	174.425435
62178		23.864075	9.252567	174.388521
62179		24.409908	8.539829	174.206312
62180		24.733472	8.166672	173.981656
62181		24.894263	7.739096	173.661225
62182		25.025666	7.097216	173.232736
62183		25.182107	6.567960	172.891355
62184		25.223316	5.767087	172.615145
62185		25.144507	4.641047	172.414855
62186		24.885967	3.755692	172.266748
62187		24.805649	2.862116	172.183574
62188		24.704173	1.687260	172.274795
62189		24.280599	0.473242	172.242384
62190		24.066673	-0.747955	172.178342
62191		23.873282	-2.035863	172.223795
62192		24.069961	-2.788911	172.724859
62193		24.427494	-2.983716	173.350723
62194		24.558795	-2.939523	173.700886
62195		24.620527	-2.720968	173.816680
62196		24.890930	-2.187377	173.898846
62197		25.330336	-1.551083	173.999563
62198		25.323298	-1.172768	174.117121
62199		24.926316	-1.024132	174.258921
62200		24.499096	-1.004312	174.254932
62201		24.314071	-1.052039	174.123517
62202		24.230534	-1.083624	173.915809
62203		24.086672	-1.045553	173.632410
62204		23.730275	-0.904751	173.397065
62205		23.287789	-0.706710	173.249060
62206		22.815087	-0.487787	173.035324
62207		22.282932	-0.332625	172.801615
62208		21.897306	-0.194603	172.641911
62209		21.643784	-0.067421	172.544029
62210		21.426280	0.037218	172.469108
62211		21.176278	0.173066	172.445693
62212		20.953806	0.290696	172.415317
62213		20.803421	0.384705	172.373955
62214		20.713778	0.442621	172.359326
62215		20.657841	0.472524	172.376000
62216		20.694525	0.459603	172.403762
62217		20.741451	0.408206	172.429325
62218		20.751298	0.389667	172.453955
62219		20.678434	0.434083	172.475125
62220		20.607459	0.479994	172.487669
62221		20.573588	0.491062	172.492410
62222		20.544065	0.480198	172.497785
62223		20.506919	0.483988	172.500583
62224		20.492070	0.483673	172.497457
62225		20.463643	0.479680	172.505500
62226		20.459014	0.479829	172.512037
62227		20.473170	0.462722	172.513383
62228		20.483947	0.434957	172.514566
62229		20.490115	0.401456	172.524199
62230		20.526243	0.405279	172.524559
62231		20.521247	0.424104	172.524690
62232		20.501913	0.442478	172.527969
62233		20.482460	0.436319	172.528017
62234		20.516368	0.406167	172.517217
62235		20.534734	0.386318	172.503183
62236		20.509699	0.398698	172.491111
62237		20.479292	0.415798	172.489922
62238		20.461627	0.407909	172.493661
62239		20.483859	0.410271	172.512192
62240		20.480193	0.420180	172.529238
62241		20.472496	0.413174	172.551387
62242		20.512786	0.379996	172.578968
62243		20.524415	0.357599	172.631102
62244		20.479262	0.321244	172.688050
62245		20.395267	0.293046	172.685326
62246		20.361061	0.280384	172.668367
62247		20.322582	0.241681	172.673374
62248		20.233694	0.255561	172.546032
62249		20.185318	0.251441	172.417374
62250		20.177541	0.247301	172.306375
62251		20.173096	0.257063	172.226189
62252		20.177032	0.285416	172.183247
62253		20.111148	0.317076	172.149989
62254		20.034907	0.355891	172.176051
62255		20.030948	0.430641	172.219220
62256		20.012541	0.495982	172.249953
62257		19.985830	0.538657	172.301280
62258		20.006648	0.568110	172.354376
62259		20.135576	0.514023	172.409442
62260		20.328173	0.488262	172.474410
62261		20.417671	0.559154	172.569529
62262		20.329634	0.647993	172.680645
62263		20.247830	0.682097	172.808764
62264		20.262183	0.687565	172.952394
62265		20.355744	0.688742	173.098389
62266		20.401256	0.729851	173.255597
62267		20.395233	0.781559	173.398325
62268		20.474799	0.775832	173.518131
62269		20.538353	0.804911	173.638960
62270		20.421146	0.918576	173.756701
62271		20.273827	1.065426	173.874916
62272		20.263674	1.130484	174.018839
62273		20.283312	1.215093	174.171164
62274		20.162331	1.369913	174.279915
62275		20.032873	1.529767	174.337214
62276		19.955556	1.675635	174.405265
62277		19.886850	1.807226	174.439644
62278		19.828185	1.931551	174.505402
62279		19.710992	2.166660	174.609474
62280		19.523424	2.488634	174.701867
62281		19.401655	2.734456	174.765864
62282		19.348481	2.929720	174.863283
62283		19.263093	3.162086	174.965628
62284		19.169453	3.428581	175.047004
62285		19.189027	3.489767	175.035637
62286		19.400221	2.960984	175.007921
62287		20.007257	2.249457	174.900616
62288		20.820638	1.797719	174.714928
62289		21.305525	1.673074	174.550709
62290		21.536745	1.443344	174.399607
62291		21.862487	1.172974	174.252253
62292		22.147069	1.024527	174.105071
62293		22.218662	1.067247	173.957247
62294		22.033147	1.153286	173.819400
62295		21.804358	1.283449	173.671056
62296		21.455372	1.447199	173.628407
62297		21.070539	1.502052	173.665922
62298		21.020606	1.418265	173.707579
62299		21.248334	1.289486	173.783919
62300		21.521574	1.262349	173.897346
62301		21.633804	1.212199	174.016176
62302		21.787378	1.131250	174.081289
62303		21.955782	1.039249	174.136623
62304		22.272017	1.045177	174.188853
62305		22.715787	1.115647	174.191777
62306		23.178420	1.166237	174.180535
62307		23.687876	1.287214	174.234008
62308		24.176750	1.361021	174.375300
62309		24.533165	1.356456	174.673341
62310		24.611098	1.240170	174.919103
62311		24.645943	1.135325	175.121106
62312		24.554690	0.992320	175.283386
62313		24.442766	0.902645	175.480854
62314		24.385641	0.846613	175.676089
62315		24.194162	0.886370	175.747500
62316		23.860839	1.201710	175.638718
62317		23.513662	1.879293	175.506723
62318		23.534936	2.645448	175.338681
62319		24.012014	3.528173	175.271401
62320		24.589632	4.680512	175.269296
62321		24.991800	5.878273	174.981346
62322		24.779922	6.907684	174.521498
62323		24.276086	7.862481	174.232327
62324		23.647593	8.483182	173.931975
62325		22.854438	9.132016	173.583167
62326		21.990524	9.516837	173.273798
62327		21.471155	9.575084	173.017080
62328		21.178430	9.555452	172.808409
62329		20.987307	9.683690	172.711314
62330		20.716273	9.790032	172.673362
62331		20.484069	9.864211	172.652529
62332		20.359442	9.903483	172.646444
62333		20.232949	9.941725	172.673917
62334		20.128350	9.970179	172.707346
62335		20.029429	10.021374	172.732246
62336		19.877907	10.155537	172.747621
62337		19.712685	10.273224	172.743624
62338		19.589732	10.294521	172.723749
62339		19.523182	10.194006	172.707129
