// General information: 
//  MT Manager version: 2022.2.0 
//  XDA version: 2022.2.0 build 7381 rev 124627 built on 2023-07-19
// Device information: 
//  DeviceId: 00B447F8
//  ProductCode: MTW2-3A7G6
//  Firmware Version: 4.3.5
//  Hardware Version: 2.0.0
// Device settings: 
//  Filter Profile: human(46.1)
//  Option Flags: Orientation Smoother Disabled, Position/Velocity Smoother Disabled, Continuous Zero Rotation Update Disabled, AHS Disabled, ICC Disabled
// Coordinate system: ENU
PacketCounter	SampleTimeFine	Roll	Pitch	Yaw
59161		28.358845	49.503051	155.928951
59162		28.338208	49.493099	155.908986
59163		28.321256	49.469772	155.903460
59164		28.310754	49.428101	155.906026
59165		28.297725	49.417244	155.898828
59166		28.260778	49.390448	155.855796
59167		28.203179	49.310394	155.800798
59168		28.112983	49.237594	155.741951
59169		27.987469	49.168612	155.670595
59170		27.910829	49.017858	155.621567
59171		27.889521	48.886998	155.627993
59172		27.838414	48.834755	155.610429
59173		27.677923	48.731640	155.483488
59174		27.493228	48.570311	155.359054
59175		27.298853	48.453229	155.262821
59176		27.054266	48.432040	155.137743
59177		26.832802	48.437630	155.015123
59178		26.718728	48.412999	154.939497
59179		26.665349	48.409064	154.882222
59180		26.699271	48.414009	154.842166
59181		26.826450	48.422281	154.865668
59182		26.973368	48.481075	154.926404
59183		27.051737	48.542648	154.962720
59184		27.073460	48.555372	154.981318
59185		27.078422	48.553754	154.981164
59186		27.059254	48.544740	154.898345
59187		27.163079	48.504880	154.786922
59188		27.343923	48.492646	154.740702
59189		27.299552	48.485472	154.650812
59190		27.121698	48.403095	154.495519
59191		26.967537	48.283497	154.382215
59192		26.887922	48.133131	154.293161
59193		26.921432	47.860695	154.240218
59194		27.015633	47.574956	154.335704
59195		26.918889	47.294309	154.426576
59196		26.551822	46.992893	154.457580
59197		26.009041	46.692119	154.510375
59198		25.412450	46.380955	154.596164
59199		24.895155	46.007665	154.690095
59200		24.517054	45.621952	154.825293
59201		24.195464	45.273700	154.981099
59202		23.885892	44.913060	155.152158
59203		23.614501	44.544554	155.333173
59204		23.315872	44.134786	155.523142
59205		23.065919	43.705960	155.782251
59206		22.908786	43.301794	156.102716
59207		22.789433	42.924345	156.424364
59208		22.598053	42.607940	156.688660
59209		22.370364	42.372512	156.935956
59210		22.175263	42.017162	157.172447
59211		21.973305	41.535852	157.393868
59212		21.728881	40.997661	157.624101
59213		21.529266	40.512192	157.857926
59214		21.228081	40.011793	158.078007
59215		21.005623	39.532415	158.351801
59216		20.835945	39.119312	158.645773
59217		20.733554	38.741810	158.933661
59218		20.619487	38.273361	159.211979
59219		20.458513	37.866090	159.536226
59220		20.308027	37.476579	159.874719
59221		20.314493	37.116389	160.253478
59222		20.467041	36.705071	160.609376
59223		20.700771	36.279695	161.003016
59224		20.792932	35.893661	161.367867
59225		20.701798	35.523798	161.687803
59226		20.623317	35.222873	161.983277
59227		20.531304	34.977469	162.198044
59228		20.445326	34.673301	162.355845
59229		20.476989	34.412338	162.524237
59230		20.545124	34.211938	162.702471
59231		20.646268	33.987919	162.883525
59232		20.784869	33.782642	163.085462
59233		20.838339	33.623345	163.260419
59234		20.838297	33.469422	163.377399
59235		20.835720	33.343630	163.474929
59236		20.812607	33.279155	163.573141
59237		20.806045	33.301867	163.639989
59238		20.835513	33.394569	163.637137
59239		20.843584	33.536838	163.587763
59240		20.875699	33.632725	163.514790
59241		20.985003	33.684846	163.494856
59242		21.053310	33.759116	163.477684
59243		21.037492	33.801515	163.445248
59244		20.974914	33.843517	163.414706
59245		20.890712	33.896100	163.379408
59246		20.808536	33.947801	163.337360
59247		20.792378	33.966646	163.298021
59248		20.798250	34.011706	163.290706
59249		20.725678	34.086169	163.253098
59250		20.640328	34.119341	163.234463
59251		20.586352	34.160852	163.231123
59252		20.556408	34.239360	163.231820
59253		20.503484	34.356677	163.198950
59254		20.406835	34.315229	163.124098
59255		20.424474	34.290231	163.135391
59256		20.438384	34.360886	163.153806
59257		20.383223	34.441094	163.119626
59258		20.291746	34.369806	163.067818
59259		20.266800	34.355809	163.084497
59260		20.271158	34.359636	163.084335
59261		20.255820	34.295815	163.073916
59262		20.214936	34.259728	163.082476
59263		20.177515	34.263994	163.081773
59264		20.131124	34.259520	163.056454
59265		20.105036	34.227664	163.050211
59266		20.041843	34.205403	163.078789
59267		19.914385	34.196611	163.092326
59268		19.742748	34.195525	163.073027
59269		19.569542	34.170302	163.033120
59270		19.506509	34.162962	163.007323
59271		19.501095	34.173808	162.994644
59272		19.469953	34.130958	162.965926
59273		19.409157	34.131334	162.960941
59274		19.278703	34.139707	162.956217
59275		19.131220	34.142265	162.947102
59276		19.035413	34.160796	162.949565
59277		18.986139	34.193386	162.941201
59278		18.968043	34.243858	162.917716
59279		18.977337	34.236991	162.903992
59280		19.038918	34.217759	162.917877
59281		19.045664	34.227494	162.924880
59282		19.008593	34.233699	162.924146
59283		18.960169	34.223052	162.943365
59284		18.953017	34.235362	162.965382
59285		18.951811	34.264496	162.948817
59286		18.960275	34.276398	162.931021
59287		19.012357	34.266786	162.958199
59288		19.054244	34.263221	162.976457
59289		19.018546	34.241442	162.954828
59290		18.962812	34.220824	162.926040
59291		18.930865	34.208691	162.912660
59292		18.939608	34.218414	162.922897
59293		18.951761	34.239867	162.929167
59294		18.938191	34.254184	162.914331
59295		18.932781	34.257205	162.903735
59296		18.969225	34.283068	162.907960
59297		19.020859	34.315044	162.911946
59298		19.040104	34.343824	162.882671
59299		19.022027	34.363733	162.839302
59300		19.034362	34.377831	162.830543
59301		19.100577	34.381203	162.838303
59302		19.131817	34.416391	162.817930
59303		19.054172	34.455534	162.757974
59304		19.033108	34.457023	162.657947
59305		19.112239	34.538198	162.509981
59306		19.204392	34.658207	162.366344
59307		19.275756	34.729086	162.214157
59308		19.365589	34.799852	162.061938
59309		19.394970	34.915268	161.882066
59310		19.391057	35.109987	161.667072
59311		19.394247	35.332887	161.424006
59312		19.445177	35.531204	161.139305
59313		19.557358	35.812094	160.822764
59314		19.715657	36.057273	160.487209
59315		19.975073	36.314940	160.202650
59316		20.232934	36.624210	159.945691
59317		20.329332	36.846527	159.642732
59318		20.378522	37.076532	159.363337
59319		20.350325	37.355111	159.027956
59320		20.198020	37.541080	158.653446
59321		20.066520	37.671064	158.335713
59322		19.996494	37.786290	158.075904
59323		19.960564	37.844027	157.849635
59324		19.906172	37.892355	157.632653
59325		19.802302	38.000648	157.400408
59326		19.739673	38.178980	157.142102
59327		19.714151	38.359342	156.865792
59328		19.845689	38.588943	156.623161
59329		20.154638	38.897677	156.326142
59330		20.547541	39.323456	155.969065
59331		20.805401	39.741753	155.574776
59332		21.057187	40.151093	155.246383
59333		21.367100	40.528743	154.957960
59334		21.652030	40.729492	154.613077
59335		22.000265	40.918576	154.294950
59336		22.314377	41.185984	154.008721
59337		22.553769	41.485150	153.731136
59338		22.692120	41.806571	153.440531
59339		22.727812	42.126606	153.068718
59340		22.668965	42.518055	152.610861
59341		22.492350	42.877688	152.123977
59342		22.432370	43.081893	151.789650
59343		22.557903	43.231100	151.609549
59344		22.744715	43.352429	151.463845
59345		22.999435	43.401871	151.411204
59346		23.264222	43.404425	151.502949
59347		23.420507	43.411983	151.658657
59348		23.441685	43.406981	151.798975
59349		23.414190	43.367377	151.870327
59350		23.381655	43.373710	151.875795
59351		23.365027	43.439475	151.834713
59352		23.359523	43.570925	151.689259
59353		23.361675	43.746006	151.544122
59354		23.475435	43.885110	151.485064
59355		23.621473	44.037710	151.313312
59356		23.743872	44.328307	151.005168
59357		23.784145	44.637782	150.690112
59358		23.806807	44.918607	150.510037
59359		23.812916	45.140008	150.378675
59360		23.860804	45.385526	150.197666
59361		23.986365	45.645349	149.919427
59362		24.204985	45.824654	149.643873
59363		24.279587	45.977526	149.416225
59364		24.232568	46.256705	149.292325
59365		24.113847	46.510199	149.195241
59366		24.052845	46.685822	149.105766
59367		24.072739	46.841474	149.000621
59368		24.137116	46.955701	148.894160
59369		24.139068	47.090806	148.821790
59370		24.132780	47.195828	148.856177
59371		24.144925	47.263891	148.960819
59372		24.088556	47.355082	149.010660
59373		23.981996	47.481935	149.008642
59374		23.943130	47.561857	149.021469
59375		23.992338	47.602457	149.075585
59376		24.054325	47.666925	149.126501
59377		24.103182	47.719741	149.147380
59378		24.116099	47.759379	149.156193
59379		24.118104	47.786715	149.160410
59380		24.115572	47.808099	149.176381
59381		24.110383	47.831325	149.187558
59382		24.136542	47.844097	149.177732
59383		24.189801	47.850836	149.184868
59384		24.216418	47.867314	149.198459
59385		24.203478	47.879804	149.207096
59386		24.205161	47.878793	149.234509
59387		24.221231	47.885981	149.251446
59388		24.248464	47.896256	149.246209
59389		24.310771	47.909712	149.245895
59390		24.361191	47.920752	149.249981
59391		24.429527	47.920530	149.262880
59392		24.488529	47.934254	149.300116
59393		24.503191	47.962642	149.329479
59394		24.465692	47.975757	149.319922
59395		24.441404	47.973529	149.308353
59396		24.457570	47.961488	149.296523
59397		24.500837	47.951730	149.275357
59398		24.559558	47.962489	149.245657
59399		24.575657	47.973867	149.233381
59400		24.601966	47.985076	149.216810
59401		24.651647	47.993915	149.189471
59402		24.785627	47.957915	149.181880
59403		24.914529	47.903244	149.251351
59404		24.936082	47.888501	149.316055
59405		24.786627	47.829070	149.246303
59406		24.614829	47.678326	149.158227
59407		24.560121	47.471499	149.137516
59408		24.586041	47.255219	149.149621
59409		24.597191	46.970408	149.197089
59410		24.525556	46.633115	149.301763
59411		24.390074	46.315535	149.450637
59412		24.203050	45.984252	149.638087
59413		23.996074	45.644192	149.884710
59414		23.780005	45.275265	150.161383
59415		23.634098	44.906010	150.393952
59416		23.483688	44.563617	150.641835
59417		23.386034	44.162657	150.936910
59418		23.415598	43.775351	151.297959
59419		23.438911	43.449184	151.641128
59420		23.379960	43.110879	151.952227
59421		23.366201	42.696319	152.321461
59422		23.446263	42.278805	152.768915
59423		23.501911	41.909158	153.164318
59424		23.409037	41.541597	153.502985
59425		23.248208	41.116732	153.867338
59426		23.122335	40.696317	154.294410
59427		22.931024	40.299735	154.669493
59428		22.728784	39.918209	154.997058
59429		22.532003	39.566432	155.345735
59430		22.350653	39.222417	155.695824
59431		22.202062	38.806988	156.077508
59432		22.129899	38.455717	156.422220
59433		22.044579	38.146933	156.677756
59434		21.911863	37.790264	156.909260
59435		21.741792	37.440466	157.206395
59436		21.556674	37.129233	157.539708
59437		21.292348	36.865769	157.870187
59438		20.942245	36.593661	158.174072
59439		20.679550	36.276651	158.481302
59440		20.587933	36.046652	158.790926
59441		20.572880	35.867035	159.041759
59442		20.609300	35.634058	159.286403
59443		20.700342	35.415860	159.574709
59444		20.813381	35.229411	159.866627
59445		20.847086	35.060729	160.156153
59446		20.831735	34.871301	160.387433
59447		20.721874	34.703725	160.587810
59448		20.610843	34.589416	160.821193
59449		20.543531	34.491668	161.044420
59450		20.493388	34.404508	161.218316
59451		20.395521	34.315854	161.307192
59452		20.303614	34.211929	161.400299
59453		20.278406	34.183716	161.500345
59454		20.277432	34.205676	161.576089
59455		20.203627	34.294480	161.622400
59456		20.120532	34.455303	161.602985
59457		20.179417	34.598544	161.550876
59458		20.334951	34.722672	161.488377
59459		20.442271	34.824953	161.410361
59460		20.522710	34.915441	161.321957
59461		20.528280	34.997321	161.237767
59462		20.460256	35.043511	161.162338
59463		20.403126	35.079325	161.136524
59464		20.390393	35.121674	161.130279
59465		20.367764	35.148981	161.131724
59466		20.350405	35.144455	161.134822
59467		20.331984	35.117738	161.142940
59468		20.266872	35.154340	161.160009
59469		20.170806	35.233219	161.152234
59470		20.112592	35.237592	161.117859
59471		20.104064	35.196562	161.111073
59472		20.113533	35.184095	161.135644
59473		20.052263	35.175190	161.144077
59474		19.983575	35.127939	161.141005
59475		19.960750	35.107971	161.131049
59476		20.004732	35.075230	161.122153
59477		20.044356	35.002317	161.135089
59478		19.965437	34.935403	161.152867
59479		19.793439	34.897556	161.155404
59480		19.612403	34.829861	161.140353
59481		19.446373	34.716292	161.142845
59482		19.315502	34.604105	161.185905
59483		19.164139	34.520693	161.252707
59484		18.992617	34.483049	161.283303
59485		18.843910	34.443877	161.276997
59486		18.760036	34.436741	161.270291
59487		18.726301	34.424382	161.276193
59488		18.730452	34.380378	161.285349
59489		18.725564	34.323691	161.293491
59490		18.684839	34.307998	161.302302
59491		18.605449	34.337804	161.298284
59492		18.544835	34.346315	161.272042
59493		18.541122	34.349811	161.258235
59494		18.584724	34.348004	161.258836
59495		18.617293	34.336904	161.263610
59496		18.605764	34.328440	161.260984
59497		18.587507	34.316120	161.266262
59498		18.590185	34.322042	161.270849
59499		18.592462	34.316665	161.276383
59500		18.598618	34.292572	161.293773
59501		18.588541	34.310843	161.302473
59502		18.566408	34.323851	161.286644
59503		18.587380	34.319603	161.274566
59504		18.639286	34.318282	161.275843
59505		18.668909	34.334105	161.271593
59506		18.687930	34.319285	161.258230
59507		18.738263	34.317440	161.228666
59508		18.768392	34.379969	161.213040
59509		18.752168	34.430545	161.182889
59510		18.741500	34.441896	161.147261
59511		18.742800	34.495409	161.096936
59512		18.707850	34.574186	161.023029
59513		18.686698	34.639187	160.936046
59514		18.697609	34.720924	160.834663
59515		18.728541	34.820466	160.711151
59516		18.717011	34.914601	160.557469
59517		18.682072	34.993926	160.399372
59518		18.664006	35.125638	160.231191
59519		18.634295	35.269829	160.020539
59520		18.609624	35.382835	159.804963
59521		18.688473	35.543565	159.593650
59522		18.837309	35.744989	159.369995
59523		18.954444	35.870504	159.170276
59524		19.044134	35.979869	158.991248
59525		19.126291	36.118076	158.808805
59526		19.188694	36.254129	158.633797
59527		19.257394	36.400907	158.480223
59528		19.287189	36.563592	158.294538
59529		19.243144	36.706398	158.074346
59530		19.194009	36.870090	157.836023
59531		19.177438	37.056074	157.582323
59532		19.173344	37.238620	157.273521
59533		19.141693	37.439743	156.897955
59534		19.033399	37.600618	156.511275
59535		18.838306	37.694156	156.183938
59536		18.656701	37.823441	155.894309
59537		18.502901	37.974384	155.580369
59538		18.396856	38.089778	155.288044
59539		18.323726	38.214000	155.021880
59540		18.238185	38.356007	154.758545
59541		18.197039	38.476602	154.544482
59542		18.270912	38.587086	154.393770
59543		18.465697	38.677992	154.250877
59544		18.716096	38.832751	154.077535
59545		18.814459	39.085515	153.841733
59546		18.725395	39.280852	153.591882
59547		18.637654	39.390003	153.402797
59548		18.645239	39.539686	153.211915
59549		18.664601	39.793264	152.985793
59550		18.712759	40.070281	152.734752
59551		18.824581	40.391476	152.484842
59552		19.071926	40.760765	152.265881
59553		19.361601	41.157014	151.998081
59554		19.713857	41.490225	151.826216
59555		20.177877	41.916662	151.729290
59556		20.577365	42.386182	151.595496
59557		20.936691	42.887544	151.449521
59558		21.275526	43.381307	151.280771
59559		21.476729	43.768705	151.102383
59560		21.638115	44.068034	151.001176
59561		21.773763	44.310576	150.940344
59562		21.973607	44.451908	150.951216
59563		22.133437	44.485879	150.971297
59564		22.143696	44.471295	151.004728
59565		22.053045	44.463166	151.061788
59566		21.901554	44.457803	151.068705
59567		21.789358	44.493421	151.048306
59568		21.804373	44.549556	151.010782
59569		21.929533	44.584424	150.957579
59570		22.084501	44.636600	150.922221
59571		22.188215	44.759056	150.860615
59572		22.286628	44.933665	150.742816
59573		22.411238	45.095759	150.666345
59574		22.599647	45.232556	150.672758
59575		22.752952	45.365771	150.625554
59576		22.933655	45.529175	150.559905
59577		23.071144	45.743957	150.476027
59578		23.139073	45.968920	150.387977
59579		23.188110	46.147492	150.309251
59580		23.274774	46.335692	150.280109
59581		23.417366	46.533702	150.240677
59582		23.621631	46.748147	150.160711
59583		23.803062	46.926782	150.036572
59584		23.858387	47.097156	149.900861
59585		23.883293	47.288703	149.845109
59586		24.005249	47.510085	149.858339
59587		24.109542	47.703865	149.827236
59588		24.238331	47.911293	149.799790
59589		24.405669	48.057443	149.800379
59590		24.583001	48.151732	149.847521
59591		24.753023	48.277950	149.935114
59592		24.877341	48.382313	150.034408
59593		24.940338	48.445222	150.124179
59594		24.932543	48.502252	150.168053
59595		24.890381	48.562426	150.182958
59596		24.858379	48.606426	150.209987
59597		24.877731	48.638481	150.247040
59598		24.904465	48.670303	150.260520
59599		24.920158	48.695201	150.258182
59600		24.925227	48.712174	150.265193
59601		24.917249	48.738388	150.268155
59602		24.896787	48.769243	150.262341
59603		24.889033	48.791446	150.261754
59604		24.881982	48.809973	150.267662
59605		24.871422	48.826298	150.262212
59606		24.852400	48.841996	150.242986
59607		24.830744	48.856962	150.222245
59608		24.814682	48.863663	150.224468
59609		24.810049	48.861298	150.220031
59610		24.815094	48.868445	150.206535
59611		24.811076	48.890717	150.189403
59612		24.795860	48.899944	150.188756
59613		24.774233	48.900229	150.183837
59614		24.776714	48.900556	150.172116
59615		24.786548	48.902931	150.157217
59616		24.806246	48.908423	150.162577
59617		24.829571	48.910860	150.171317
59618		24.814876	48.921543	150.162626
59619		24.769425	48.938320	150.137246
59620		24.740325	48.937029	150.131953
59621		24.735162	48.930074	150.125893
59622		24.742187	48.943574	150.105559
59623		24.758476	48.960040	150.098719
59624		24.771246	48.944455	150.103415
59625		24.766295	48.930972	150.103720
59626		24.735080	48.933338	150.075922
59627		24.726904	48.912077	150.058482
59628		24.675768	48.863911	150.033800
59629		24.578940	48.773040	149.982585
59630		24.483607	48.682327	149.950832
59631		24.387066	48.607475	149.936016
59632		24.317036	48.526210	149.924529
59633		24.300165	48.394101	149.924083
59634		24.312223	48.218896	149.934003
59635		24.264271	48.014933	149.939579
59636		24.263602	47.718068	150.037149
59637		24.267062	47.441406	150.211836
59638		24.152306	47.117996	150.369478
59639		24.026091	46.717664	150.540254
59640		23.821099	46.329715	150.697346
59641		23.522789	45.944089	150.857595
59642		23.331658	45.587670	151.101296
59643		23.214202	45.233821	151.374793
59644		23.106112	44.815724	151.617126
59645		23.085746	44.404415	151.928505
59646		23.026240	44.058520	152.229601
59647		22.803965	43.750748	152.410256
59648		22.495167	43.439860	152.601710
59649		22.221130	43.083048	152.833988
59650		22.007443	42.675861	153.078127
59651		21.850487	42.312815	153.339819
59652		21.641890	41.955411	153.586578
59653		21.417752	41.573438	153.794538
59654		21.186497	41.071186	154.041457
59655		20.993724	40.369016	154.441394
59656		20.796349	39.858062	154.866650
59657		20.508616	39.424694	155.232911
59658		20.277574	39.003093	155.590640
59659		20.084150	38.531033	155.993758
59660		19.883159	38.082376	156.415440
59661		19.575327	37.681943	156.815007
59662		19.362735	37.290003	157.211558
59663		19.273775	36.909684	157.624527
59664		19.242814	36.556096	158.028261
59665		19.176603	36.229105	158.379252
59666		19.125783	35.932862	158.694816
59667		19.102923	35.631810	158.964901
59668		19.093423	35.421553	159.203166
59669		19.104110	35.251330	159.419215
59670		19.287643	35.023579	159.650328
59671		19.526187	34.845432	159.910303
59672		19.669752	34.712467	160.119551
59673		19.788191	34.529712	160.306378
59674		19.867354	34.334247	160.512595
59675		19.848559	34.159227	160.685923
59676		19.726692	34.037902	160.800824
59677		19.590556	33.917998	160.904849
59678		19.518202	33.763656	161.043619
59679		19.465606	33.660646	161.173985
59680		19.451872	33.565891	161.289143
59681		19.564350	33.494296	161.435953
59682		19.717483	33.434658	161.581342
59683		19.806033	33.308427	161.677621
59684		19.838652	33.204659	161.773237
59685		19.735519	33.155367	161.835198
59686		19.545666	33.127349	161.868113
59687		19.346103	33.171411	161.854365
59688		19.228448	33.226363	161.818724
59689		19.196405	33.291727	161.770540
59690		19.240875	33.348446	161.718564
59691		19.340351	33.389000	161.666393
59692		19.397777	33.438419	161.602434
59693		19.416759	33.505336	161.524527
59694		19.395587	33.589997	161.460485
59695		19.379283	33.692346	161.389970
59696		19.393114	33.757583	161.314363
59697		19.406418	33.758977	161.246086
59698		19.455620	33.741377	161.216635
59699		19.455748	33.754239	161.206119
59700		19.326163	33.766645	161.179637
59701		19.214558	33.762248	161.150456
59702		19.175142	33.740830	161.141724
59703		19.160822	33.723007	161.149422
59704		19.065557	33.764124	161.109200
59705		18.926849	33.791816	161.031675
59706		18.844191	33.775273	160.990398
59707		18.809995	33.794461	160.981396
59708		18.735510	33.806848	160.976231
59709		18.627222	33.786269	160.977922
59710		18.556316	33.760648	160.972178
59711		18.457715	33.748300	160.962791
59712		18.348711	33.746173	160.947644
59713		18.224855	33.737550	160.934418
59714		18.099867	33.706717	160.944310
59715		17.934193	33.608941	160.964111
59716		17.748176	33.481213	161.009259
59717		17.564419	33.378421	161.054651
59718		17.372446	33.327567	161.076159
59719		17.175038	33.306575	161.083322
59720		17.023203	33.299947	161.060048
59721		16.972824	33.328187	161.070160
59722		16.932366	33.345933	161.090095
59723		16.888364	33.317577	161.094686
59724		16.877063	33.312437	161.095045
59725		16.831963	33.330901	161.089500
59726		16.748790	33.317845	161.091050
59727		16.690857	33.311449	161.094489
59728		16.663046	33.324180	161.083703
59729		16.655704	33.332754	161.075485
59730		16.676918	33.340355	161.074940
59731		16.699872	33.341906	161.075216
59732		16.725807	33.336643	161.081206
59733		16.743057	33.346120	161.073599
59734		16.737540	33.349491	161.068486
59735		16.725342	33.351689	161.065087
59736		16.728680	33.352878	161.064728
59737		16.755625	33.322209	161.081907
59738		16.756569	33.307820	161.101527
59739		16.732852	33.317872	161.094053
59740		16.724919	33.311796	161.072558
59741		16.762582	33.289058	161.066922
59742		16.820619	33.289846	161.071992
59743		16.840789	33.287063	161.064858
59744		16.803433	33.287002	161.042357
59745		16.773551	33.295152	161.035327
59746		16.797944	33.316326	161.046181
59747		16.846083	33.326523	161.043979
59748		16.900394	33.315997	161.045913
59749		16.942537	33.333273	161.054845
59750		16.957738	33.378008	161.036467
59751		16.907996	33.423389	160.974522
59752		16.889857	33.480388	160.909284
59753		16.941104	33.568976	160.840818
59754		17.020479	33.658331	160.758351
59755		17.109669	33.751323	160.685483
59756		17.181780	33.853667	160.600447
59757		17.181675	33.945457	160.485277
59758		17.204091	34.039665	160.389767
59759		17.279078	34.139843	160.292743
59760		17.416038	34.274854	160.178392
59761		17.534412	34.428309	160.049965
59762		17.637593	34.556465	159.926333
59763		17.766066	34.712627	159.793466
59764		17.935664	34.881035	159.633574
59765		18.150383	35.066267	159.458866
59766		18.367222	35.301845	159.310898
59767		18.507100	35.490684	159.157361
59768		18.609646	35.660635	159.004011
59769		18.697008	35.872226	158.806389
59770		18.742817	36.047188	158.561422
59771		18.742409	36.145810	158.319489
59772		18.761595	36.313179	158.122946
59773		18.779553	36.534062	157.920762
59774		18.843474	36.763523	157.693053
59775		18.995037	37.067776	157.436282
59776		19.086870	37.333410	157.132615
59777		19.151656	37.485965	156.893042
59778		19.289170	37.688027	156.681915
59779		19.408328	37.968297	156.434618
59780		19.430254	38.133516	156.173889
59781		19.455823	38.209794	155.980594
59782		19.510671	38.340001	155.821789
59783		19.516822	38.594157	155.605980
59784		19.384191	38.927229	155.287445
59785		19.210862	39.169912	154.961211
59786		19.246191	39.423072	154.712147
59787		19.238167	39.804848	154.412510
59788		19.129714	40.122672	154.067752
59789		19.079837	40.269975	153.843757
59790		19.199263	40.348153	153.713872
59791		19.394386	40.408734	153.613588
59792		19.485467	40.416600	153.488405
59793		19.497138	40.447579	153.416300
59794		19.557165	40.597550	153.441151
59795		19.708026	40.736068	153.457402
59796		19.898929	40.918513	153.406145
59797		20.106446	41.145528	153.352071
59798		20.277295	41.397204	153.280379
59799		20.387737	41.558749	153.174322
59800		20.516286	41.673748	153.064656
59801		20.617511	41.749554	152.936390
59802		20.679393	41.850837	152.824378
59803		20.666398	41.946443	152.744524
59804		20.625953	41.986156	152.738732
59805		20.624988	42.028694	152.750314
59806		20.620508	42.081167	152.706634
59807		20.596201	42.102949	152.652387
59808		20.635980	42.123882	152.523038
59809		20.727881	42.258688	152.303258
59810		20.747725	42.532712	152.049901
59811		20.712485	42.803932	151.730923
59812		20.721771	43.135569	151.399639
59813		20.698117	43.517478	151.009960
59814		20.782426	43.946413	150.622022
59815		20.904344	44.414124	150.213322
59816		20.921858	44.908152	149.742914
59817		20.952312	45.393629	149.301716
59818		20.958857	45.835104	148.892070
59819		20.892735	46.246192	148.489400
59820		20.825470	46.622509	148.083018
59821		20.828186	46.924796	147.727102
59822		20.963611	47.195949	147.483377
59823		21.098342	47.493749	147.235587
59824		21.124928	47.799537	146.933756
59825		21.059585	48.059859	146.665497
59826		21.041621	48.249411	146.533300
59827		21.089619	48.448264	146.489125
59828		21.149496	48.634617	146.438553
59829		21.181012	48.747930	146.374884
59830		21.214412	48.815093	146.362137
59831		21.252581	48.892066	146.413493
59832		21.250609	48.939376	146.481175
59833		21.243838	49.005498	146.544989
59834		21.224354	49.078880	146.604952
59835		21.258373	49.173477	146.689836
59836		21.314665	49.254401	146.779201
59837		21.369422	49.319028	146.858888
59838		21.418402	49.410315	146.928748
59839		21.464588	49.480713	146.992527
59840		21.499762	49.513897	147.028303
59841		21.483104	49.567373	147.003170
59842		21.459103	49.613445	146.966288
59843		21.427748	49.623517	146.946950
59844		21.388934	49.644538	146.937491
59845		21.343744	49.674148	146.902038
59846		21.333505	49.702384	146.872474
59847		21.347168	49.720254	146.851025
59848		21.336950	49.719587	146.832054
59849		21.330073	49.740957	146.817700
59850		21.331983	49.758066	146.800355
59851		21.352725	49.752272	146.768586
59852		21.365586	49.734656	146.739884
59853		21.354453	49.695949	146.709025
59854		21.336195	49.637022	146.681007
59855		21.346543	49.533243	146.642820
59856		21.386170	49.424383	146.583955
59857		21.427109	49.347382	146.555153
59858		21.442180	49.277962	146.554873
59859		21.474622	49.193171	146.571167
59860		21.594092	49.122063	146.583937
59861		21.723739	49.085162	146.626330
59862		21.878760	49.037823	146.648774
59863		22.047226	48.994577	146.727638
59864		22.176896	48.917069	146.804338
59865		22.322294	48.766613	146.886160
59866		22.497409	48.526711	147.002160
59867		22.695060	48.277358	147.122250
59868		22.820941	47.988173	147.248582
59869		22.797649	47.670313	147.410511
59870		22.637342	47.376470	147.596462
59871		22.477367	47.103006	147.813022
59872		22.403656	46.840627	148.059400
59873		22.361899	46.514896	148.271250
59874		22.351685	46.125761	148.472668
59875		22.338415	45.750289	148.634721
59876		22.275356	45.422040	148.862584
59877		22.202815	45.083662	149.170349
59878		22.136613	44.725889	149.499256
59879		22.052931	44.384737	149.782593
59880		21.833791	44.144697	149.972965
59881		21.502946	43.844570	150.111458
59882		21.262101	43.423326	150.353008
59883		21.092729	42.862999	150.633783
59884		20.761480	42.507881	150.839898
59885		20.347854	42.190607	150.976033
59886		20.089870	41.910139	151.100578
59887		19.953017	41.583985	151.289135
59888		19.797990	41.178982	151.496053
59889		19.521372	40.820132	151.721433
59890		19.208800	40.481284	151.933730
59891		18.992247	40.157336	152.199691
59892		18.899273	39.826419	152.486151
59893		18.859936	39.512912	152.822108
59894		18.830205	39.177995	153.221485
59895		18.848477	38.860488	153.709360
59896		18.891112	38.530789	154.162801
59897		18.895785	38.240849	154.543508
59898		18.824342	37.969767	154.911187
59899		18.813612	37.688825	155.312371
59900		18.882328	37.426870	155.694774
59901		19.019444	37.200653	156.057707
59902		19.063390	36.989809	156.382744
59903		19.057424	36.726986	156.682693
59904		19.050422	36.458435	156.988651
59905		18.922560	36.240353	157.274086
59906		18.806289	36.049330	157.567651
59907		18.763960	35.826107	157.919904
59908		18.738518	35.623140	158.260637
59909		18.729654	35.388719	158.537129
59910		18.722366	35.194911	158.811676
59911		18.708796	35.053444	159.073880
59912		18.750045	34.929553	159.326847
59913		18.834354	34.852688	159.536236
59914		18.875342	34.818414	159.694847
59915		18.813292	34.799091	159.775129
59916		18.759395	34.759052	159.829477
59917		18.789092	34.742133	159.898442
59918		18.851084	34.759773	159.967146
59919		18.880185	34.777790	160.010807
59920		18.837571	34.798534	160.011655
59921		18.790872	34.838068	159.988602
59922		18.795954	34.881477	159.956476
59923		18.849655	34.876849	159.909977
59924		18.935639	34.880299	159.871978
59925		18.999041	34.885969	159.859285
59926		19.026169	34.896449	159.843095
59927		19.018538	34.909483	159.810685
59928		19.002172	34.917890	159.780277
59929		19.000438	34.941014	159.777467
59930		18.992939	34.933232	159.750964
59931		19.009463	34.863851	159.739293
59932		18.983007	34.837738	159.732823
59933		18.930392	34.790209	159.729464
59934		18.895822	34.742547	159.737670
59935		18.816010	34.742144	159.767324
59936		18.685292	34.761869	159.788466
59937		18.596773	34.712550	159.779829
59938		18.622200	34.671294	159.793431
59939		18.604110	34.640121	159.802335
59940		18.501808	34.663108	159.805538
59941		18.356679	34.710556	159.753914
59942		18.221635	34.657880	159.711671
59943		18.166142	34.622699	159.752753
59944		18.088517	34.632700	159.790464
59945		18.025880	34.600962	159.820504
59946		17.991276	34.538076	159.822413
59947		17.947361	34.442717	159.797401
59948		17.839745	34.359661	159.789923
59949		17.683314	34.288962	159.813468
59950		17.533605	34.227018	159.839420
59951		17.425447	34.110570	159.850798
59952		17.318940	33.997723	159.884195
59953		17.155534	33.923756	159.905935
59954		17.008026	33.867459	159.947060
59955		16.854278	33.844233	159.976709
59956		16.713080	33.845463	159.980167
59957		16.636626	33.823047	159.964500
59958		16.640929	33.782924	159.974575
59959		16.624886	33.780201	159.987732
59960		16.549478	33.793706	159.991362
59961		16.441219	33.796707	159.990448
59962		16.366634	33.801924	159.995226
59963		16.326124	33.818743	159.993509
59964		16.280634	33.812742	159.979679
59965		16.244514	33.809908	159.974295
59966		16.188130	33.802471	159.966046
59967		16.131770	33.820125	159.970225
59968		16.046525	33.817931	159.966899
59969		15.983762	33.800972	159.964607
59970		15.962144	33.806624	159.962146
59971		15.965730	33.822019	159.953217
59972		15.968534	33.844559	159.935585
59973		15.960998	33.855226	159.917821
59974		15.946881	33.858694	159.888427
59975		15.952906	33.906085	159.869375
59976		15.956733	33.954355	159.838819
59977		15.918004	34.000617	159.778368
59978		15.862050	34.066155	159.683907
59979		15.858895	34.176117	159.583982
59980		15.907901	34.310263	159.476619
59981		15.977171	34.417356	159.362138
59982		16.030373	34.517664	159.253449
59983		16.065045	34.621365	159.134439
59984		16.097028	34.714039	158.992121
59985		16.155723	34.843058	158.845074
59986		16.205230	34.992195	158.697756
59987		16.180656	35.080282	158.522426
59988		16.106299	35.166083	158.331944
59989		16.004931	35.303807	158.123442
59990		15.945986	35.446836	157.917256
59991		15.996816	35.575909	157.737043
59992		16.126549	35.705118	157.583261
59993		16.271520	35.817650	157.433780
59994		16.353925	35.951370	157.263926
59995		16.414711	36.074163	157.090407
59996		16.510718	36.246252	156.912752
59997		16.604717	36.447960	156.706025
59998		16.730131	36.612415	156.499754
59999		16.926061	36.764705	156.314422
60000		17.127841	36.904952	156.130619
60001		17.262650	37.001880	155.949503
60002		17.354270	37.045264	155.778876
60003		17.472354	37.137168	155.606680
60004		17.539216	37.276568	155.433701
60005		17.553599	37.433465	155.280398
60006		17.508271	37.583949	155.090647
60007		17.462831	37.685059	154.894562
60008		17.519342	37.812813	154.718203
60009		17.681203	37.989954	154.519858
60010		17.833726	38.162685	154.288054
60011		17.926268	38.268719	154.056061
60012		18.073846	38.445264	153.815618
60013		18.193512	38.763271	153.547245
60014		18.223015	39.023175	153.262743
60015		18.281928	39.221223	153.055156
60016		18.416198	39.463942	152.890495
60017		18.529158	39.725055	152.674432
60018		18.662644	39.909218	152.451706
60019		18.881183	40.071633	152.273469
60020		19.125006	40.262924	152.125874
60021		19.296210	40.481144	151.944182
60022		19.258618	40.745393	151.702028
60023		19.132035	40.965109	151.496033
60024		19.173726	41.152626	151.395043
60025		19.255091	41.335595	151.263988
60026		19.427424	41.502109	151.098933
60027		19.887991	41.971323	150.835183
60028		19.932309	42.552778	150.234083
60029		19.622548	43.122943	149.664282
60030		19.498212	43.635004	149.381417
60031		19.517628	43.930701	149.235680
60032		19.929517	44.062086	149.262185
60033		20.465870	44.100802	149.355773
60034		20.682066	44.032991	149.406008
60035		20.510303	43.977165	149.465014
60036		20.241306	43.988898	149.574485
60037		20.015925	44.002945	149.652361
60038		19.933614	43.983456	149.648161
60039		20.026876	43.966036	149.615377
60040		20.193323	43.961020	149.584609
60041		20.352248	43.970902	149.558987
60042		20.497523	44.088425	149.503596
60043		20.590288	44.280882	149.352344
60044		20.630672	44.519368	149.208212
60045		20.759112	44.770273	149.122692
60046		21.012720	45.039844	149.070486
60047		21.271120	45.354792	148.954602
60048		21.467304	45.749489	148.771783
60049		21.697241	46.113133	148.657717
60050		21.870352	46.468176	148.556036
60051		22.071783	46.869653	148.438100
60052		22.196618	47.341989	148.242124
60053		22.289592	47.784557	148.065579
60054		22.416589	48.187029	147.974701
60055		22.492479	48.560886	147.855764
60056		22.465846	48.914953	147.702310
60057		22.517984	49.222649	147.604502
60058		22.675285	49.498168	147.522379
60059		22.804372	49.732262	147.399391
60060		22.895441	49.902496	147.300526
60061		22.994816	50.086097	147.281995
60062		23.083448	50.243984	147.296503
60063		23.140798	50.400546	147.312514
60064		23.125133	50.524167	147.323284
60065		23.069853	50.598380	147.346929
60066		23.063680	50.623068	147.395927
60067		23.076267	50.636702	147.443150
60068		23.026448	50.696545	147.458251
60069		22.938044	50.767597	147.448568
60070		22.863812	50.804238	147.444833
60071		22.844588	50.844665	147.454014
60072		22.833661	50.875444	147.458790
60073		22.835935	50.873543	147.465232
60074		22.847824	50.873654	147.479927
60075		22.836081	50.897746	147.473484
60076		22.848588	50.919189	147.473842
60077		22.879544	50.922011	147.487547
60078		22.884531	50.924072	147.491769
60079		22.890132	50.944387	147.485089
60080		22.892319	50.957812	147.474400
60081		22.895854	50.960488	147.474936
60082		22.886384	50.964621	147.474026
60083		22.875784	50.957853	147.466935
60084		22.880618	50.968818	147.467278
60085		22.863630	50.969185	147.446075
60086		22.841376	50.965062	147.417902
60087		22.810299	50.952333	147.380942
60088		22.775959	50.920429	147.354506
60089		22.749303	50.895947	147.331763
60090		22.718515	50.867580	147.295065
60091		22.716835	50.842018	147.268899
60092		22.747376	50.815452	147.254250
60093		22.748791	50.798254	147.216196
60094		22.727333	50.779943	147.179428
60095		22.709731	50.764230	147.161464
60096		22.672440	50.756020	147.126013
60097		22.638382	50.722706	147.081038
60098		22.632402	50.645008	147.068171
60099		22.613732	50.560380	147.070422
60100		22.561061	50.485165	147.051584
60101		22.517715	50.437870	147.029706
60102		22.437011	50.388936	146.985670
60103		22.340320	50.350703	146.919440
60104		22.315998	50.312921	146.864269
60105		22.326393	50.242524	146.824353
60106		22.322739	50.148841	146.803733
60107		22.295706	50.052280	146.799988
60108		22.315654	49.957149	146.850415
60109		22.277866	49.851598	146.892663
60110		22.166647	49.722060	146.935724
60111		22.031724	49.605141	146.964789
60112		21.982467	49.499173	146.980915
60113		21.993002	49.389936	146.988948
60114		22.030360	49.269215	147.007627
60115		22.057304	49.148665	147.035446
60116		22.028213	49.073787	147.091683
60117		21.954981	49.058396	147.141129
60118		21.908912	49.095041	147.147118
60119		21.849244	49.118089	147.089689
60120		21.836336	49.125722	147.054946
60121		21.864883	49.149527	147.057776
60122		21.927474	49.183316	147.067614
60123		22.002359	49.202907	147.066694
60124		22.010789	49.212916	147.047782
60125		21.983841	49.205062	147.050321
60126		21.946602	49.183975	147.092963
60127		21.886528	49.154564	147.085073
60128		21.826758	49.122935	147.039365
60129		21.753527	49.109227	146.994864
60130		21.686290	49.099203	146.980454
60131		21.618170	49.098726	146.960033
60132		21.581345	49.066721	146.942005
60133		21.621297	48.979829	146.938622
60134		21.655111	48.852946	146.942925
60135		21.604839	48.749980	146.900209
60136		21.392699	48.651219	146.823005
60137		21.139587	48.543944	146.803080
60138		20.929806	48.468991	146.777955
60139		20.863911	48.383356	146.754517
60140		20.919639	48.202463	146.742142
60141		21.066883	47.970857	146.822898
60142		21.059324	47.656305	146.823312
60143		21.006282	47.236293	146.835584
60144		20.848414	46.785461	146.894322
60145		20.563311	46.262823	146.901007
60146		20.183213	45.680257	146.963088
60147		19.681534	45.041589	147.130070
60148		19.161831	44.399354	147.301747
60149		18.674601	43.732945	147.393324
60150		18.234951	43.115243	147.536991
60151		17.745159	42.492789	147.710347
60152		17.379617	41.840860	147.961055
60153		17.109500	41.289424	148.257349
60154		16.741448	40.768139	148.510547
60155		16.381318	40.201270	148.831844
60156		16.116397	39.635069	149.283614
60157		15.910581	39.116484	149.767500
60158		15.675426	38.649513	150.185349
60159		15.475357	38.291508	150.653278
60160		15.397071	37.864925	151.129387
60161		15.484786	37.453619	151.637944
60162		15.566178	37.180022	152.117323
60163		15.595483	36.925883	152.564612
60164		15.678168	36.616552	153.038724
60165		15.760011	36.385910	153.532433
60166		15.722866	36.159249	154.007799
60167		15.674717	35.881156	154.464681
60168		15.646054	35.621060	154.910376
60169		15.618805	35.397429	155.326516
60170		15.624606	35.172271	155.696803
60171		15.728040	34.925432	156.038949
60172		15.771257	34.746566	156.359757
60173		15.845398	34.554876	156.643604
60174		15.971865	34.363038	156.927414
60175		16.100624	34.221197	157.179111
60176		16.163414	34.060708	157.400079
60177		16.256870	33.908256	157.601900
60178		16.267436	33.861131	157.760322
60179		16.192002	33.851806	157.855326
60180		16.188592	33.855403	157.949474
60181		16.176059	33.915740	158.009170
60182		16.189459	33.955781	158.015257
60183		16.201844	33.943532	158.010548
60184		16.202128	33.936519	158.011787
60185		16.219265	33.942465	158.005605
60186		16.202680	33.972481	158.002063
60187		16.183192	33.999301	157.984533
60188		16.181976	34.008822	157.978566
60189		16.203116	34.021104	157.995469
60190		16.215410	34.029142	158.009774
60191		16.205961	34.009714	158.008436
60192		16.184746	33.982462	157.997451
60193		16.124558	33.973445	157.987629
60194		16.126838	33.975971	158.000196
60195		16.122480	33.986965	157.979433
60196		16.124790	33.985150	157.976481
60197		16.104850	33.953784	158.002264
60198		16.020435	33.960697	158.020680
60199		15.832326	34.010048	158.029771
60200		15.654228	34.005802	157.998049
60201		15.667106	33.959522	157.986735
60202		15.680306	33.931005	157.995225
60203		15.581958	33.939998	157.982233
60204		15.445560	33.876919	157.950894
60205		15.369143	33.795819	157.978411
60206		15.301822	33.730104	158.000441
60207		15.205435	33.636969	157.997053
60208		15.052703	33.505263	158.010222
60209		14.880602	33.381566	158.051603
60210		14.711672	33.279842	158.112799
60211		14.591109	33.218745	158.174691
60212		14.506834	33.186369	158.229786
60213		14.487922	33.101199	158.264688
60214		14.511366	33.009972	158.326740
60215		14.467817	32.963023	158.398810
60216		14.374167	32.945044	158.450670
60217		14.243144	32.920078	158.467072
60218		14.125409	32.932837	158.469764
60219		14.056773	32.992425	158.455878
60220		14.060756	33.034090	158.437920
60221		14.043302	33.046718	158.430193
60222		13.933465	33.057512	158.426247
60223		13.815201	33.065273	158.429898
60224		13.716111	33.087150	158.437843
60225		13.642847	33.104743	158.442817
60226		13.595982	33.119009	158.442893
60227		13.580196	33.108722	158.438169
60228		13.595694	33.108070	158.439693
60229		13.599416	33.107637	158.444019
60230		13.592066	33.110300	158.440098
60231		13.596687	33.109825	158.433436
60232		13.604968	33.105139	158.422593
60233		13.628013	33.085667	158.419593
60234		13.692551	33.111328	158.423887
60235		13.745361	33.145791	158.427999
60236		13.755209	33.174163	158.390563
60237		13.713940	33.225992	158.324148
60238		13.670209	33.318754	158.265667
60239		13.664956	33.445174	158.201866
60240		13.723803	33.546924	158.128064
60241		13.848134	33.631618	158.061894
60242		13.976997	33.725661	157.985733
60243		14.034434	33.802029	157.877634
60244		13.985668	33.893909	157.750340
60245		13.876062	34.033795	157.594345
60246		13.775097	34.192400	157.411660
60247		13.715658	34.370510	157.211590
60248		13.696999	34.540779	156.976042
60249		13.755680	34.702954	156.718790
60250		13.864524	34.869806	156.465746
60251		13.989351	35.014186	156.224800
60252		14.128831	35.123330	155.993883
60253		14.266145	35.241962	155.770248
60254		14.357250	35.398575	155.521607
60255		14.394858	35.566533	155.240238
60256		14.337336	35.719397	154.899356
60257		14.225463	35.866492	154.524202
60258		14.175371	36.136873	154.104683
60259		14.082272	36.474491	153.673549
60260		13.985681	36.684785	153.268166
60261		14.031387	36.911389	152.905313
60262		14.135791	37.244322	152.501357
60263		14.326830	37.520228	152.086667
60264		14.561780	37.720344	151.741848
60265		14.761457	37.970754	151.437321
60266		14.869304	38.216147	151.110798
60267		14.958906	38.475452	150.781665
60268		15.037334	38.797288	150.421108
60269		15.114532	39.094579	150.065636
60270		15.171620	39.342114	149.748976
60271		15.223812	39.597587	149.440731
60272		15.279243	39.875634	149.124027
60273		15.353780	40.107676	148.810097
60274		15.561988	40.318729	148.557915
60275		15.838349	40.527895	148.322890
60276		15.958735	40.713455	148.045324
60277		15.899129	40.883389	147.736285
60278		15.818988	41.078640	147.457264
60279		15.823352	41.334697	147.251283
60280		15.824909	41.597357	147.045414
60281		15.886933	41.795132	146.931877
60282		16.022841	41.873322	146.895861
60283		16.320934	41.919735	146.897835
60284		16.589787	42.037256	146.879835
60285		16.777726	42.173180	146.893059
60286		16.907747	42.271675	146.929178
60287		17.036007	42.382718	146.966653
60288		17.124383	42.514138	146.958362
60289		17.193894	42.633548	146.910717
60290		17.253539	42.723757	146.879681
60291		17.400644	42.809787	146.907636
60292		17.589322	42.927633	146.929361
60293		17.689539	43.037677	146.913793
60294		17.751277	43.092649	146.934651
60295		17.817748	43.119773	146.995151
60296		17.899552	43.148736	147.046197
60297		17.939082	43.158379	147.061578
60298		17.941797	43.167387	147.077970
60299		17.948974	43.197829	147.084442
60300		17.968612	43.243973	147.061966
60301		17.993908	43.289289	147.028407
60302		18.059758	43.388416	146.947495
60303		18.159424	43.556188	146.779445
60304		18.244433	43.830503	146.542588
60305		18.288350	44.161676	146.277315
60306		18.301384	44.483884	146.025101
60307		18.349240	44.847949	145.783714
60308		18.460994	45.276484	145.497379
60309		18.558573	45.718197	145.095692
60310		18.623751	46.134248	144.660353
60311		18.688942	46.582413	144.288087
60312		18.740484	47.114866	143.906219
60313		18.696992	47.681742	143.432289
60314		18.588744	48.190052	142.970388
60315		18.569718	48.683882	142.608047
60316		18.530195	49.183486	142.215024
60317		18.435380	49.660509	141.806624
60318		18.458930	50.087467	141.489918
60319		18.593951	50.538314	141.231832
60320		18.560551	51.018336	140.884015
60321		18.541387	51.472462	140.503203
60322		18.594030	51.869146	140.187605
60323		18.656732	52.216550	139.995137
60324		18.639116	52.513279	139.870576
60325		18.571199	52.755050	139.791447
60326		18.433917	52.923909	139.713413
60327		18.304831	53.004256	139.693365
60328		18.239063	52.994402	139.740901
60329		18.233780	52.990006	139.814216
60330		18.203165	52.978950	139.889691
60331		18.016247	52.961124	139.934883
60332		17.796483	52.987354	139.931563
60333		17.619530	53.032788	139.859693
60334		17.547999	53.041756	139.798678
60335		17.570401	53.023795	139.799387
60336		17.584928	53.020204	139.805439
60337		17.584418	53.038662	139.811838
60338		17.614239	53.065900	139.843294
60339		17.634550	53.071745	139.865516
60340		17.659433	53.078186	139.884966
60341		17.701283	53.081871	139.886467
60342		17.737653	53.092992	139.886069
60343		17.736253	53.090432	139.888049
60344		17.709076	53.090775	139.869306
60345		17.695540	53.102256	139.859072
60346		17.702822	53.101998	139.860173
60347		17.715519	53.097682	139.867011
60348		17.724474	53.096489	139.879908
60349		17.745419	53.097605	139.910819
60350		17.779176	53.103093	139.927186
60351		17.824040	53.106142	139.936664
60352		17.843620	53.114532	139.950547
60353		17.863621	53.124347	139.968414
60354		17.900569	53.122972	139.973115
60355		17.970927	53.113272	139.980201
60356		18.042117	53.118005	140.012909
60357		18.046272	53.120187	140.024444
60358		18.039897	53.157516	140.023762
60359		18.047400	53.184653	140.011583
60360		18.080043	53.189327	140.021083
60361		18.123308	53.168084	140.055204
60362		18.142719	53.165588	140.069076
60363		18.153255	53.179539	140.071848
60364		18.158081	53.181462	140.072201
60365		18.167524	53.179180	140.082452
60366		18.149957	53.177232	140.072997
60367		18.163755	53.180420	140.071961
60368		18.201850	53.165467	140.099691
60369		18.256203	53.124140	140.141419
60370		18.300606	53.095547	140.192062
60371		18.339152	53.089958	140.210181
60372		18.389273	53.093217	140.205881
60373		18.439550	53.091947	140.216858
60374		18.482168	53.094006	140.248871
60375		18.507232	53.074097	140.279980
60376		18.532115	53.069860	140.302134
60377		18.542785	53.078621	140.307822
60378		18.561560	53.081914	140.292820
60379		18.567442	53.074608	140.272918
60380		18.581255	53.044350	140.290802
60381		18.589887	53.043215	140.308865
60382		18.590345	53.057726	140.294239
60383		18.589789	53.057047	140.285980
60384		18.605771	53.054014	140.294163
60385		18.624783	53.049756	140.296386
60386		18.599588	53.049330	140.268820
60387		18.573641	53.051428	140.234581
60388		18.539541	53.051056	140.214876
60389		18.481619	53.062502	140.187061
60390		18.446769	53.062256	140.155400
60391		18.416188	53.050125	140.132449
60392		18.356656	53.028431	140.104127
60393		18.324842	52.966280	140.107863
60394		18.336547	52.879667	140.159927
60395		18.386442	52.768932	140.264533
60396		18.453924	52.650052	140.405851
60397		18.545059	52.526070	140.558013
60398		18.728629	52.370029	140.773783
60399		18.867400	52.203401	140.938590
60400		18.904435	52.006843	141.064617
60401		18.892964	51.753535	141.218638
60402		18.853188	51.426522	141.376229
60403		18.788858	51.109609	141.498734
60404		18.654471	50.756608	141.540815
60405		18.486263	50.369678	141.601252
60406		18.260303	49.980416	141.726126
60407		18.099947	49.523629	141.889596
60408		17.937954	49.040763	142.043402
60409		17.730283	48.561281	142.209178
60410		17.562855	48.100021	142.429171
60411		17.405758	47.649986	142.703467
60412		17.269185	47.200824	143.065415
60413		17.136657	46.742821	143.435075
60414		17.039169	46.256120	143.756290
60415		16.971387	45.795727	144.125252
60416		16.826598	45.272519	144.577648
60417		16.750722	44.757267	145.150143
60418		16.752708	44.247299	145.692061
60419		16.751672	43.738138	146.156518
60420		16.705445	43.275394	146.652494
60421		16.707681	42.821513	147.240357
60422		16.752523	42.281256	147.816862
60423		16.728140	41.784956	148.304217
60424		16.602752	41.298712	148.753539
60425		16.623228	40.818558	149.329442
60426		16.777211	40.376562	149.971204
60427		16.922133	39.911522	150.548036
60428		17.074434	39.500488	151.136386
60429		17.268460	39.064019	151.723550
60430		17.452021	38.701771	152.291907
60431		17.509466	38.401871	152.773368
60432		17.597404	38.109950	153.224205
60433		17.809314	37.832798	153.729312
60434		17.983580	37.560540	154.235860
60435		18.155050	37.215278	154.660066
60436		18.223976	36.928992	155.037661
60437		18.151350	36.652381	155.391891
60438		18.060871	36.351587	155.730110
60439		17.937602	36.119368	156.046127
60440		17.775311	35.946524	156.303431
60441		17.607369	35.795370	156.467880
60442		17.448767	35.659045	156.556155
60443		17.331812	35.541185	156.631794
60444		17.301031	35.455808	156.714730
60445		17.301946	35.381772	156.763739
60446		17.338719	35.305530	156.807538
60447		17.397941	35.285653	156.889497
60448		17.406416	35.319095	156.919065
60449		17.366685	35.308258	156.902473
60450		17.396788	35.283784	156.907525
60451		17.492670	35.285700	156.953564
60452		17.565721	35.235155	157.001805
60453		17.572825	35.158422	157.037478
60454		17.602178	35.059165	157.113762
60455		17.708778	34.990040	157.276470
60456		17.744406	34.914456	157.414429
60457		17.679161	34.779494	157.533743
60458		17.609149	34.662595	157.681706
60459		17.553545	34.588494	157.784302
60460		17.508201	34.544393	157.827749
60461		17.491192	34.565659	157.829930
60462		17.512536	34.602453	157.786806
60463		17.605283	34.597452	157.750937
60464		17.707304	34.596623	157.734112
60465		17.751100	34.594153	157.726914
60466		17.748045	34.577618	157.693001
60467		17.652696	34.626050	157.641634
60468		17.512659	34.714775	157.571877
60469		17.472069	34.723029	157.524080
60470		17.492810	34.771966	157.507549
60471		17.455973	34.803679	157.471369
60472		17.425338	34.761801	157.457309
60473		17.388036	34.784860	157.463625
60474		17.259514	34.843423	157.441011
60475		17.156708	34.853800	157.416893
60476		17.150876	34.841138	157.416899
60477		17.154474	34.819041	157.407374
60478		17.089351	34.799099	157.384871
60479		16.949832	34.780507	157.357143
60480		16.819488	34.788970	157.344315
60481		16.742601	34.776456	157.343284
60482		16.705520	34.740155	157.353820
60483		16.634255	34.712897	157.350622
60484		16.497885	34.674788	157.341671
60485		16.344371	34.626255	157.349744
60486		16.255259	34.558455	157.374489
60487		16.175700	34.485043	157.394625
60488		16.098211	34.399317	157.416440
60489		15.968687	34.314758	157.445918
60490		15.831026	34.274154	157.491053
60491		15.749392	34.254224	157.522204
60492		15.725706	34.171967	157.559238
60493		15.685584	34.079203	157.627425
60494		15.570367	34.029095	157.671462
60495		15.369259	33.965357	157.674883
60496		15.165662	33.901558	157.683488
60497		15.016081	33.853125	157.709045
60498		14.912503	33.826020	157.726904
60499		14.846496	33.797561	157.758352
60500		14.777191	33.796859	157.795450
60501		14.700155	33.823569	157.812414
60502		14.639995	33.841366	157.783437
60503		14.629548	33.856137	157.725797
60504		14.656401	33.885770	157.691174
60505		14.680591	33.864537	157.692241
60506		14.662638	33.836801	157.711856
60507		14.606361	33.833199	157.714477
60508		14.562244	33.837740	157.709846
60509		14.554926	33.833657	157.688080
60510		14.566047	33.833298	157.661711
60511		14.610573	33.847982	157.644950
60512		14.689273	33.869947	157.612654
60513		14.764417	33.884140	157.557775
60514		14.775800	33.884370	157.533731
60515		14.770289	33.880962	157.522425
60516		14.760507	33.890093	157.472330
60517		14.734459	33.950900	157.399198
60518		14.726251	34.002955	157.316887
60519		14.774942	34.087034	157.207600
60520		14.827256	34.231796	157.051767
60521		14.842656	34.362441	156.875891
60522		14.850182	34.475143	156.712340
60523		14.874812	34.584824	156.532729
60524		14.867455	34.705737	156.319153
60525		14.791664	34.863367	156.062611
60526		14.651588	35.099339	155.752519
60527		14.493785	35.343627	155.374590
60528		14.418816	35.518534	155.022260
60529		14.434177	35.659079	154.693834
60530		14.455125	35.820424	154.315993
60531		14.345269	36.042374	153.880680
60532		14.079549	36.231052	153.431309
60533		13.805072	36.384607	153.021329
60534		13.616689	36.586546	152.614658
60535		13.489867	36.802333	152.196824
60536		13.488575	36.952348	151.858460
60537		13.682603	37.034366	151.594731
60538		13.971416	37.177790	151.369484
60539		14.078368	37.470681	151.075661
60540		13.909527	37.693952	150.690201
60541		13.714555	37.823707	150.391676
60542		13.694701	37.972992	150.209147
60543		13.840030	38.194437	150.024215
60544		13.947876	38.426678	149.733442
60545		14.013741	38.621535	149.403641
60546		14.003696	38.929941	149.029592
60547		13.888700	39.265826	148.585373
60548		13.930410	39.549397	148.220113
60549		14.156745	39.870769	147.901316
60550		14.315113	40.210331	147.514003
60551		14.355902	40.408265	147.142610
60552		14.427588	40.597424	146.829748
60553		14.422750	40.884666	146.499385
60554		14.330861	41.212065	146.122760
60555		14.127499	41.534601	145.684870
60556		13.902403	41.905705	145.213377
60557		13.800273	42.311714	144.757626
60558		13.923211	42.766393	144.344948
60559		14.093717	43.254130	143.941711
60560		14.339311	43.512772	143.667241
60561		14.787015	43.621497	143.586161
60562		15.176810	43.774585	143.560493
60563		15.394975	43.937396	143.576134
60564		15.529489	44.069045	143.636283
60565		15.598256	44.244597	143.676048
60566		15.534268	44.523990	143.605783
60567		15.410537	44.877805	143.414497
60568		15.377530	45.256464	143.174243
60569		15.547142	45.619190	142.980280
60570		15.836716	45.971589	142.817576
60571		16.157587	46.198391	142.693940
60572		16.478608	46.381841	142.619661
60573		16.619752	46.557841	142.546835
60574		16.656421	46.690959	142.544594
60575		16.725528	46.748364	142.620761
60576		16.870693	46.777596	142.696016
60577		16.944625	46.773896	142.733564
60578		17.001672	46.770487	142.774755
60579		17.102276	46.851233	142.765936
60580		17.177101	47.103864	142.645261
60581		17.103109	47.433485	142.411074
60582		17.147778	47.760241	142.208177
60583		17.177494	48.136451	141.968262
60584		17.174415	48.499821	141.656419
60585		17.272684	48.851797	141.381332
60586		17.283748	49.176553	141.069554
60587		17.262867	49.500601	140.755919
60588		17.196279	49.796200	140.450984
60589		17.081706	50.097040	140.145395
60590		16.971429	50.381343	139.862259
60591		16.946854	50.653931	139.675506
60592		16.943628	50.909903	139.539559
60593		16.981637	51.148660	139.426062
60594		17.069129	51.364428	139.354098
60595		17.129985	51.488033	139.311141
60596		17.205905	51.561604	139.351309
60597		17.351020	51.683233	139.485849
60598		17.492801	51.781133	139.636484
60599		17.619502	51.849177	139.782585
60600		17.708593	51.949765	139.897530
60601		17.784095	52.036452	139.974534
60602		17.849339	52.102333	140.027617
60603		17.919791	52.168529	140.085983
60604		18.012364	52.255438	140.170068
60605		18.070180	52.346015	140.222918
60606		18.091645	52.423686	140.241491
60607		18.132192	52.482344	140.265031
60608		18.182311	52.523938	140.302965
60609		18.231404	52.562833	140.359774
60610		18.255873	52.600410	140.392510
60611		18.257573	52.641088	140.403488
60612		18.292622	52.671908	140.430384
60613		18.337308	52.719178	140.479247
60614		18.361367	52.767682	140.502512
60615		18.358759	52.811879	140.492241
60616		18.352904	52.840678	140.494710
60617		18.348357	52.840405	140.503647
60618		18.339670	52.852643	140.489578
60619		18.326430	52.875948	140.469980
60620		18.324516	52.900679	140.453953
60621		18.315090	52.918386	140.441231
60622		18.273021	52.934578	140.408196
60623		18.224099	52.966791	140.371782
60624		18.179887	53.000422	140.340299
60625		18.132872	53.007062	140.309441
60626		18.072948	52.998708	140.280804
60627		18.020343	52.990242	140.255282
60628		17.999509	52.990353	140.244728
60629		17.974698	53.004881	140.226188
60630		17.940715	53.019508	140.210292
60631		17.907879	53.030311	140.187148
60632		17.888516	53.041110	140.167599
60633		17.876668	53.027666	140.166347
60634		17.876947	53.015525	140.164735
60635		17.861727	53.017723	140.135690
60636		17.842814	53.011971	140.109000
60637		17.843463	53.008644	140.103740
60638		17.840542	53.006198	140.090172
60639		17.809930	53.005674	140.051539
60640		17.766447	52.987150	140.018605
60641		17.728946	52.954590	140.009395
60642		17.673400	52.911662	139.992436
60643		17.636100	52.848047	139.989090
60644		17.618123	52.792287	139.996361
60645		17.571953	52.771387	139.980130
60646		17.525441	52.773992	139.953940
60647		17.496603	52.784425	139.924988
60648		17.512767	52.789437	139.910182
60649		17.573947	52.772192	139.937288
60650		17.624542	52.758474	139.954454
60651		17.637137	52.757684	139.941168
60652		17.693644	52.713602	139.969215
60653		17.781892	52.610623	140.060537
60654		17.784540	52.507716	140.122496
60655		17.761970	52.344176	140.198077
60656		17.708446	52.134406	140.282235
60657		17.680631	51.937083	140.292836
60658		17.642238	51.713465	140.261375
60659		17.730063	51.440390	140.360598
60660		17.813551	51.121009	140.508933
60661		17.867673	50.724381	140.671246
60662		17.866717	50.284901	140.849132
60663		17.820951	49.860056	141.035170
60664		17.739319	49.409877	141.241450
60665		17.545518	48.891050	141.476874
60666		17.237962	48.320840	141.740933
60667		16.978369	47.751153	141.996075
60668		16.780513	47.236135	142.212280
60669		16.571201	46.702885	142.469655
60670		16.375106	46.185163	142.846367
60671		16.222755	45.656286	143.270843
60672		16.136784	45.101917	143.653398
60673		16.044639	44.543909	144.047917
60674		15.899226	43.990180	144.565045
60675		15.809111	43.416531	145.197936
60676		15.808205	42.852159	145.885212
60677		15.818581	42.361601	146.561831
60678		15.870408	41.936645	147.167429
60679		15.900339	41.551100	147.738118
60680		15.862075	41.118683	148.357654
60681		15.910218	40.664104	149.079828
60682		16.077808	40.257604	149.778900
60683		16.247794	39.914162	150.393534
60684		16.382605	39.543036	151.003449
60685		16.572273	39.129190	151.688803
60686		16.814900	38.735217	152.383859
60687		17.029485	38.363771	153.047567
60688		17.135236	38.029988	153.635868
60689		17.124795	37.689285	154.170936
60690		17.063004	37.323772	154.644449
60691		16.950095	36.992019	155.074972
60692		16.745560	36.708788	155.444718
60693		16.555873	36.442296	155.771947
60694		16.504061	36.172612	156.118299
60695		16.613710	35.973851	156.422876
60696		16.658086	35.811946	156.642342
60697		16.669575	35.646397	156.871668
60698		16.647073	35.483607	157.114973
60699		16.550335	35.380206	157.364274
60700		16.391248	35.309898	157.532904
60701		16.259115	35.266075	157.594868
60702		16.197571	35.247280	157.608342
60703		16.241009	35.284838	157.613146
60704		16.282700	35.325240	157.585535
60705		16.262794	35.361489	157.533702
60706		16.151083	35.437065	157.466382
60707		16.077713	35.507335	157.407208
60708		16.105481	35.560114	157.353674
60709		16.157976	35.622148	157.312430
60710		16.158401	35.692782	157.248520
60711		16.099836	35.774057	157.145223
60712		16.020642	35.809016	157.035429
60713		15.973829	35.838573	156.969587
60714		15.929695	35.847161	156.896800
60715		15.846900	35.868234	156.864345
60716		15.732040	35.881143	156.842698
60717		15.631392	35.865956	156.829148
60718		15.569292	35.831084	156.830178
60719		15.462141	35.775999	156.864782
60720		15.277689	35.734013	156.920933
60721		15.092239	35.669459	156.965297
60722		14.954684	35.573116	157.008851
60723		14.862566	35.530106	157.026843
60724		14.807028	35.452498	157.032546
60725		14.761171	35.359333	157.089712
60726		14.670315	35.260961	157.149995
60727		14.570129	35.196296	157.196014
60728		14.520631	35.138398	157.240673
60729		14.517334	35.064050	157.308751
60730		14.475175	34.982768	157.364403
60731		14.386546	34.913348	157.408244
60732		14.293889	34.817171	157.470730
60733		14.219445	34.766600	157.545522
60734		14.138337	34.707283	157.588317
60735		14.032055	34.606104	157.622561
60736		13.892174	34.553447	157.667733
60737		13.739372	34.558887	157.690056
60738		13.593767	34.530430	157.672831
60739		13.522808	34.493944	157.669970
60740		13.497699	34.479914	157.675658
60741		13.485546	34.462857	157.662762
60742		13.457689	34.441137	157.630796
60743		13.460313	34.434136	157.614457
60744		13.480657	34.438605	157.615510
60745		13.490293	34.426868	157.611790
60746		13.501648	34.398369	157.607837
60747		13.516629	34.400141	157.606533
60748		13.525847	34.394737	157.606772
60749		13.557408	34.391968	157.593796
60750		13.646205	34.410374	157.563408
60751		13.735515	34.450268	157.559165
60752		13.773627	34.467561	157.554960
60753		13.765825	34.495246	157.494097
60754		13.799854	34.547012	157.423870
60755		13.901263	34.609217	157.369869
60756		13.989023	34.678922	157.302730
60757		14.064586	34.765953	157.196833
60758		14.116919	34.873657	157.075341
60759		14.184626	35.003425	156.961301
60760		14.239880	35.101396	156.839079
60761		14.261555	35.193063	156.716034
60762		14.228006	35.299680	156.576770
60763		14.182396	35.403024	156.426062
60764		14.152276	35.471377	156.300784
60765		14.160775	35.470805	156.196451
60766		14.185124	35.510010	156.091855
60767		14.089148	35.627345	155.958244
60768		13.947885	35.743988	155.813356
60769		13.933854	35.888372	155.655075
60770		14.075391	36.087802	155.439295
60771		14.237726	36.278134	155.179919
60772		14.284675	36.417574	154.919212
60773		14.335688	36.590856	154.682801
60774		14.445896	36.774160	154.446132
60775		14.603040	37.014728	154.206122
60776		14.622708	37.307838	153.899558
60777		14.528540	37.503726	153.547750
60778		14.579229	37.709902	153.244417
60779		14.725098	37.988484	152.912563
60780		14.792235	38.248435	152.553201
60781		14.673260	38.373536	152.189497
60782		14.554208	38.499165	151.877103
60783		14.496479	38.717602	151.564520
60784		14.497177	39.027571	151.212419
60785		14.431118	39.311528	150.814076
60786		14.430886	39.571663	150.446078
60787		14.545062	39.934126	150.065144
60788		14.654236	40.399694	149.595293
60789		14.744516	40.833399	149.106972
60790		14.942534	41.240465	148.648509
60791		15.166211	41.654102	148.141000
60792		15.292732	42.048127	147.561586
60793		15.383853	42.382658	147.062609
60794		15.470263	42.771465	146.668345
60795		15.468812	43.297246	146.244096
60796		15.372406	43.740870	145.816801
60797		15.393199	44.081188	145.567082
60798		15.515731	44.285650	145.365394
60799		15.637346	44.541080	145.085155
60800		15.729340	44.795385	144.794766
60801		15.896498	44.987897	144.675451
60802		16.057513	45.245978	144.594356
60803		16.096650	45.547830	144.440931
60804		16.100763	45.856404	144.227803
60805		16.019135	46.199877	143.987506
60806		15.939618	46.466078	143.820356
60807		16.041564	46.652168	143.817003
60808		16.243984	46.738079	143.858875
60809		16.480623	46.730137	143.918604
60810		16.655351	46.744494	143.983360
60811		16.716461	46.777573	144.052088
60812		16.674862	46.834721	144.113249
60813		16.638631	46.871516	144.152615
60814		16.642570	46.905142	144.142983
60815		16.729077	46.923557	144.135084
60816		16.845509	46.947184	144.148302
60817		16.958008	47.001513	144.126214
60818		17.002146	47.134581	144.016507
60819		17.028505	47.340558	143.870604
60820		17.031030	47.603844	143.699666
60821		16.972307	47.828090	143.477177
60822		17.006570	48.074219	143.271560
60823		17.126337	48.339417	143.042952
60824		17.227651	48.640930	142.760794
60825		17.185256	48.938352	142.422858
60826		17.204945	49.273360	142.137124
60827		17.159505	49.671093	141.831807
60828		17.053597	50.078550	141.494210
60829		16.984546	50.445809	141.194204
60830		17.003737	50.795898	140.935715
60831		16.918359	51.137463	140.613432
60832		16.805492	51.435933	140.329059
60833		16.781424	51.717716	140.143199
60834		16.837736	52.006133	139.981493
60835		16.912486	52.266790	139.792278
60836		16.967437	52.471186	139.639479
60837		17.032182	52.645271	139.589232
60838		17.107830	52.837169	139.601066
60839		17.164034	53.013144	139.627236
60840		17.236633	53.152351	139.617660
60841		17.260116	53.269360	139.599395
60842		17.273330	53.381195	139.631371
60843		17.291832	53.491437	139.675467
60844		17.349952	53.618844	139.673679
60845		17.384231	53.739450	139.678863
60846		17.454481	53.832697	139.744030
60847		17.493421	53.930565	139.829408
60848		17.564539	54.037349	139.954646
60849		17.695209	54.108473	140.076837
60850		17.871954	54.188996	140.170340
60851		18.018760	54.282759	140.271359
60852		18.147523	54.352114	140.375631
60853		18.241389	54.400791	140.459640
60854		18.303744	54.422481	140.526193
60855		18.338986	54.444334	140.603471
60856		18.363477	54.496141	140.672713
60857		18.408471	54.556306	140.720593
60858		18.468176	54.593461	140.762349
60859		18.485727	54.603902	140.787931
60860		18.483564	54.623885	140.808550
60861		18.463681	54.633967	140.817519
60862		18.484459	54.615865	140.868291
60863		18.524863	54.578007	140.921017
60864		18.487370	54.581647	140.910347
60865		18.433682	54.614702	140.886560
60866		18.429887	54.658853	140.854564
60867		18.435080	54.648115	140.827957
60868		18.449447	54.647288	140.824382
60869		18.435448	54.677097	140.799383
60870		18.428164	54.691809	140.781428
60871		18.421618	54.687288	140.754444
60872		18.404248	54.691117	140.730043
60873		18.377639	54.701634	140.689625
60874		18.343686	54.716248	140.647195
60875		18.319493	54.705741	140.623475
60876		18.293338	54.705828	140.583999
60877		18.251885	54.724484	140.527213
60878		18.199684	54.745937	140.475281
60879		18.156462	54.746997	140.442977
60880		18.107300	54.748508	140.393274
60881		18.061685	54.770872	140.339104
60882		18.025684	54.790994	140.304968
60883		17.988036	54.798905	140.272532
60884		17.928227	54.789193	140.216677
60885		17.863610	54.779315	140.169462
60886		17.826652	54.769612	140.138160
60887		17.819703	54.761129	140.117344
60888		17.802226	54.769765	140.081245
60889		17.770196	54.767991	140.044233
60890		17.751720	54.764226	140.020463
60891		17.730537	54.728932	140.019719
60892		17.674571	54.697165	140.000243
60893		17.616758	54.654129	139.957101
60894		17.579880	54.597219	139.926500
60895		17.541528	54.557731	139.907303
60896		17.526613	54.519781	139.893459
60897		17.540763	54.479721	139.892955
60898		17.594001	54.458730	139.912674
60899		17.627956	54.457082	139.926659
60900		17.684483	54.428709	139.957739
60901		17.766715	54.384805	140.037211
60902		17.838734	54.347879	140.116580
60903		17.852569	54.291332	140.136854
60904		17.900414	54.136232	140.196366
60905		17.975229	53.939528	140.296412
60906		17.963265	53.743621	140.402455
60907		17.865829	53.467505	140.505201
60908		17.764162	53.163612	140.626336
60909		17.632926	52.776749	140.683279
60910		17.508604	52.336937	140.758942
60911		17.429736	51.825313	140.871314
60912		17.366595	51.300157	140.976038
60913		17.252250	50.799820	141.108592
60914		17.059618	50.257273	141.308421
60915		16.900849	49.679179	141.586172
60916		16.774624	49.125525	141.858935
60917		16.624477	48.545569	142.080463
60918		16.457162	47.931297	142.416266
60919		16.303530	47.305086	142.905057
60920		16.244665	46.695059	143.474982
60921		16.326854	46.133669	144.025332
60922		16.425811	45.595449	144.587966
60923		16.594555	45.107068	145.205289
60924		16.796183	44.627644	145.796541
60925		16.966434	44.160510	146.333840
60926		17.067837	43.692442	146.911196
60927		17.089954	43.276842	147.467280
60928		17.206646	42.755045	148.146410
60929		17.337014	42.238177	148.805306
60930		17.331893	41.826204	149.364078
60931		17.203703	41.391629	149.817860
60932		17.159415	40.972731	150.336688
60933		17.143482	40.611463	150.872929
60934		17.137926	40.262031	151.346385
60935		17.146159	39.940486	151.808923
60936		17.217161	39.630286	152.255500
60937		17.381824	39.354739	152.683920
60938		17.522184	39.094945	153.079993
60939		17.602281	38.809920	153.493315
60940		17.719817	38.485022	153.974415
60941		17.858263	38.191408	154.511812
60942		17.793605	37.936403	155.004008
60943		17.644009	37.614134	155.466328
60944		17.532431	37.278285	155.937998
60945		17.393276	36.994656	156.372289
60946		17.180061	36.710694	156.716026
60947		17.029817	36.491911	157.018233
60948		16.843628	36.367088	157.284673
60949		16.738978	36.189419	157.505385
60950		16.728853	36.058333	157.722054
60951		16.699326	35.996619	157.873481
60952		16.655293	35.954319	157.943037
60953		16.630299	35.945181	157.964029
60954		16.638458	35.976112	157.970747
60955		16.640077	36.040487	157.942849
60956		16.573813	36.098160	157.874064
60957		16.545709	36.121855	157.832379
60958		16.560380	36.139457	157.827188
60959		16.607928	36.149897	157.802585
60960		16.639455	36.151097	157.767384
60961		16.555008	36.187304	157.722624
60962		16.418708	36.240902	157.663663
60963		16.332765	36.255854	157.595572
60964		16.283131	36.301729	157.536785
60965		16.246733	36.305923	157.478578
60966		16.199284	36.333175	157.407669
60967		16.152299	36.411898	157.315418
60968		16.125103	36.403626	157.235398
60969		16.200831	36.386205	157.251219
60970		16.208685	36.410729	157.278939
60971		16.093022	36.404389	157.246560
60972		15.994244	36.381886	157.207015
60973		15.909194	36.402778	157.164593
60974		15.826681	36.401349	157.105716
60975		15.746256	36.367455	157.058803
60976		15.631161	36.337495	157.023333
60977		15.501001	36.329737	157.001408
60978		15.409663	36.324137	156.975533
60979		15.408677	36.298819	156.980320
60980		15.426636	36.259932	157.017760
60981		15.397243	36.244016	157.046294
60982		15.349902	36.231309	157.050674
60983		15.326924	36.195086	157.061569
60984		15.316851	36.163204	157.074087
60985		15.331861	36.119612	157.104000
60986		15.317685	36.079529	157.147390
60987		15.229668	36.026620	157.206372
60988		15.081327	35.975934	157.273314
60989		14.926430	35.931093	157.338129
60990		14.799126	35.905065	157.390424
60991		14.715377	35.891516	157.416868
60992		14.683748	35.868247	157.422535
60993		14.729697	35.850515	157.433524
60994		14.785415	35.823845	157.457115
60995		14.785985	35.792478	157.492382
60996		14.729875	35.783453	157.514089
60997		14.686780	35.793077	157.529347
60998		14.649803	35.779618	157.516786
60999		14.652554	35.755043	157.516578
61000		14.674696	35.758405	157.523144
61001		14.687435	35.751829	157.514690
61002		14.693144	35.725742	157.510153
61003		14.698166	35.722576	157.490670
61004		14.718293	35.740550	157.456478
61005		14.748600	35.738847	157.455766
61006		14.785707	35.717983	157.470882
61007		14.825942	35.707290	157.433338
61008		14.847093	35.725392	157.378775
61009		14.858558	35.732326	157.348518
61010		14.875714	35.748474	157.338453
61011		14.890243	35.790029	157.299787
61012		14.878457	35.860880	157.217456
61013		14.856657	35.943106	157.136158
61014		14.842335	36.007680	157.083924
61015		14.881076	36.078544	157.017176
61016		14.947208	36.174593	156.900787
61017		15.007607	36.285368	156.767228
61018		14.999666	36.358435	156.633398
61019		14.920688	36.441290	156.478411
61020		14.790625	36.551683	156.288538
61021		14.683490	36.666603	156.092451
61022		14.682767	36.773666	155.902634
61023		14.738671	36.902430	155.714382
61024		14.732471	37.045422	155.494294
61025		14.655009	37.163439	155.242816
61026		14.576986	37.301864	154.970930
61027		14.534956	37.460589	154.702177
61028		14.485808	37.582676	154.409448
61029		14.434443	37.676694	154.121520
61030		14.405961	37.785388	153.840759
61031		14.370193	37.940620	153.521630
61032		14.284621	38.131032	153.184870
61033		14.165732	38.310632	152.851582
61034		14.082739	38.511844	152.529275
61035		14.076976	38.778656	152.194769
61036		14.115852	39.006961	151.851285
61037		14.220935	39.213588	151.530835
61038		14.348469	39.475174	151.206092
61039		14.450592	39.774536	150.830848
61040		14.501449	40.055429	150.399913
61041		14.480330	40.365060	149.945268
61042		14.428880	40.783238	149.448229
61043		14.299661	41.262205	148.901694
61044		14.268975	41.757251	148.400640
61045		14.378691	42.235858	147.927929
61046		14.521872	42.613320	147.463033
61047		14.671512	42.865075	147.051470
61048		14.826357	43.149671	146.706284
61049		14.928547	43.539052	146.363693
61050		15.062605	44.048873	146.052832
61051		15.131873	44.572813	145.728647
61052		15.323271	45.043289	145.487444
61053		15.632243	45.591228	145.328721
61054		15.953912	46.166477	145.147336
61055		16.242065	46.610166	144.936967
61056		16.579866	46.829324	144.798530
61057		16.930521	46.930967	144.727217
61058		17.078061	47.038628	144.619444
61059		17.006679	47.006221	144.583187
61060		16.855936	46.919314	144.679056
61061		16.673165	46.875337	144.748946
61062		16.444734	46.816841	144.707266
61063		16.272651	46.734620	144.617515
61064		16.182571	46.709507	144.499311
61065		16.203568	46.739968	144.390203
61066		16.303233	46.794867	144.303467
61067		16.369637	46.902380	144.175912
61068		16.452861	47.065064	143.993913
61069		16.534641	47.300933	143.793299
61070		16.556385	47.544334	143.613726
61071		16.592357	47.844547	143.428730
61072		16.653546	48.141515	143.202342
61073		16.736993	48.412730	142.973804
61074		16.775093	48.724086	142.701813
61075		16.768381	49.126186	142.405235
61076		16.781389	49.516431	142.164953
61077		16.922304	49.935466	142.028328
61078		17.005097	50.370220	141.921001
61079		17.058671	50.786983	141.820703
61080		17.233710	51.219475	141.774418
61081		17.591752	51.663474	141.712282
61082		17.953949	52.140246	141.568462
61083		18.327992	52.606996	141.471880
61084		18.697020	53.039880	141.486631
61085		19.003698	53.398581	141.568465
61086		19.369003	53.731918	141.714782
61087		19.727177	54.020792	141.761383
61088		19.986649	54.245592	141.778341
61089		20.178338	54.436698	141.885633
61090		20.367973	54.569949	142.105381
61091		20.597288	54.698278	142.380474
61092		20.820947	54.796854	142.647164
61093		21.020674	54.822400	142.864215
61094		21.216578	54.891212	143.068257
61095		21.404139	55.006401	143.301969
61096		21.644769	55.116945	143.537430
61097		21.962217	55.219933	143.824334
61098		22.372430	55.281055	144.153853
61099		22.754337	55.314941	144.451940
61100		22.972633	55.373626	144.650542
61101		23.041668	55.451894	144.725976
61102		22.976448	55.518414	144.715404
61103		22.812273	55.547786	144.666932
61104		22.632830	55.568310	144.600014
61105		22.490227	55.573837	144.540780
61106		22.396127	55.575423	144.468954
61107		22.368950	55.588232	144.420813
61108		22.393023	55.601421	144.412870
61109		22.450699	55.632017	144.419261
61110		22.504091	55.638804	144.415433
61111		22.536109	55.632285	144.413854
61112		22.537647	55.643988	144.394591
61113		22.528790	55.636754	144.379966
61114		22.516818	55.638355	144.366427
61115		22.487351	55.645217	144.332278
61116		22.435302	55.638182	144.284271
61117		22.405896	55.636870	144.245463
61118		22.409379	55.648498	144.227981
61119		22.404916	55.647990	144.226174
61120		22.383379	55.645537	144.223950
61121		22.362435	55.645013	144.203270
61122		22.341516	55.645495	144.176355
61123		22.332818	55.639217	144.170689
61124		22.334837	55.632214	144.167714
61125		22.326608	55.640840	144.153291
61126		22.306193	55.654168	144.145600
61127		22.290097	55.669427	144.145699
61128		22.292982	55.670661	144.151815
61129		22.294208	55.669552	144.139449
61130		22.290006	55.672262	144.114151
61131		22.293288	55.670917	144.097016
61132		22.281078	55.666063	144.087132
61133		22.261372	55.633813	144.062323
61134		22.265197	55.589987	144.047775
61135		22.198536	55.533416	143.994238
61136		22.086002	55.490018	143.937818
61137		21.984125	55.432886	143.881026
61138		21.949151	55.338877	143.872221
61139		21.932074	55.231170	143.898073
61140		21.896703	55.086455	143.930251
61141		21.904199	54.911609	143.964027
61142		21.858514	54.782223	143.953748
61143		21.723210	54.652186	143.860448
61144		21.552898	54.407774	143.772459
61145		21.489602	54.113344	143.765576
61146		21.327608	53.762590	143.729366
61147		21.151766	53.346683	143.709437
61148		20.951266	52.907159	143.703002
61149		20.727065	52.472626	143.725698
61150		20.620039	52.049298	143.822824
61151		20.539880	51.625691	143.994270
61152		20.456186	51.107885	144.176344
61153		20.451732	50.562618	144.371511
61154		20.411473	50.091561	144.618456
61155		20.262337	49.597680	144.870653
61156		20.127706	49.070140	145.172458
61157		19.909721	48.553926	145.421478
61158		19.562025	48.017258	145.668030
61159		19.213178	47.409560	146.023338
61160		18.988643	46.798821	146.503091
61161		18.840188	46.248598	146.971729
61162		18.674017	45.705154	147.362202
61163		18.376777	45.293378	147.611287
61164		18.080444	44.956713	147.864113
61165		17.779749	44.410349	148.173910
61166		17.525802	43.638027	148.807373
61167		17.292234	43.154649	149.413278
61168		16.932894	42.893278	149.839304
61169		16.670438	42.492210	150.172926
61170		16.477081	42.048120	150.601110
61171		16.226197	41.696431	151.001137
61172		15.859820	41.414408	151.312784
61173		15.540068	41.067039	151.672826
61174		15.408982	40.733653	152.141000
61175		15.414128	40.371442	152.660480
61176		15.563663	39.973398	153.221392
61177		15.761524	39.597189	153.791584
61178		15.865232	39.260811	154.287017
61179		15.796196	38.978730	154.736171
61180		15.613816	38.655806	155.168346
61181		15.457843	38.319595	155.590802
61182		15.299257	38.024453	155.954663
61183		15.146046	37.737638	156.262266
61184		15.083829	37.478039	156.563130
61185		15.084077	37.223100	156.812411
61186		15.066452	36.964340	157.027596
61187		15.008426	36.743389	157.223578
61188		14.946574	36.620235	157.379895
61189		14.844823	36.554438	157.470418
61190		14.741487	36.483714	157.518173
61191		14.651356	36.428896	157.525356
61192		14.604914	36.403801	157.516649
61193		14.603652	36.398273	157.494760
61194		14.636270	36.372972	157.473150
61195		14.698108	36.357103	157.460780
61196		14.701417	36.377017	157.421201
61197		14.710226	36.376358	157.372653
61198		14.742313	36.398928	157.320554
61199		14.755320	36.435391	157.257248
61200		14.707592	36.415714	157.182537
61201		14.659337	36.360366	157.126080
61202		14.596425	36.332188	157.071777
61203		14.495809	36.350085	156.995280
61204		14.453509	36.325414	156.915927
61205		14.508125	36.271030	156.878503
61206		14.563006	36.241430	156.885299
61207		14.499889	36.201884	156.887382
61208		14.352785	36.205440	156.862384
61209		14.187504	36.238631	156.810812
61210		14.084057	36.172537	156.783988
61211		14.069917	36.115988	156.807367
61212		13.998581	36.070031	156.811431
61213		13.916044	36.007457	156.812900
61214		13.829587	35.928054	156.801702
61215		13.798740	35.875127	156.808180
61216		13.771009	35.792175	156.811749
61217		13.700092	35.692079	156.841615
61218		13.559649	35.624565	156.873622
61219		13.479118	35.585744	156.916903
61220		13.441963	35.513319	156.958931
61221		13.451857	35.475782	157.038434
61222		13.451673	35.441283	157.106794
61223		13.405496	35.346872	157.189358
61224		13.319660	35.274730	157.257773
61225		13.241121	35.237962	157.303479
61226		13.196182	35.181881	157.361757
61227		13.187142	35.146393	157.411119
61228		13.131470	35.101777	157.412860
61229		13.081328	35.062999	157.419804
61230		13.053130	35.040257	157.458203
61231		13.018202	35.014320	157.501050
61232		12.975069	35.003465	157.506839
61233		12.961175	35.003009	157.474010
61234		13.005960	34.996762	157.455196
61235		13.066964	34.984631	157.443460
61236		13.139282	35.007584	157.434277
61237		13.148602	35.011969	157.428391
61238		13.121172	35.010234	157.421154
61239		13.106980	35.001875	157.414102
61240		13.130280	34.997672	157.419460
61241		13.167455	34.999655	157.417779
61242		13.187826	35.020378	157.384321
61243		13.230163	35.029951	157.341238
61244		13.288185	35.052253	157.282391
61245		13.338605	35.103919	157.209185
61246		13.347688	35.173873	157.125271
61247		13.365446	35.268129	157.049019
61248		13.430299	35.353374	156.971704
61249		13.533954	35.472595	156.885332
61250		13.629883	35.604520	156.790921
61251		13.730865	35.706945	156.704978
61252		13.846127	35.849608	156.630113
61253		13.975230	36.052595	156.546596
61254		14.095913	36.221224	156.451660
61255		14.228640	36.384049	156.349319
61256		14.293564	36.536656	156.193156
61257		14.326966	36.696204	156.006927
61258		14.366406	36.875368	155.787129
61259		14.366673	37.047868	155.537900
61260		14.344976	37.155141	155.280306
61261		14.289056	37.287646	155.008202
61262		14.184844	37.459361	154.727021
61263		14.062559	37.580116	154.450175
61264		13.960421	37.676955	154.208494
61265		13.945115	37.791782	154.006642
61266		13.991280	37.962643	153.780549
61267		13.948407	38.097495	153.482790
61268		13.880026	38.177442	153.164308
61269		13.788572	38.327995	152.821143
61270		13.661147	38.572854	152.427345
61271		13.518257	38.780889	151.993889
61272		13.439313	38.935981	151.590847
61273		13.432383	39.032166	151.181892
61274		13.443106	39.142216	150.723135
61275		13.292241	39.301505	150.200322
61276		13.043713	39.452057	149.686752
61277		12.887010	39.626225	149.264278
61278		12.818849	39.831680	148.846230
61279		12.757509	40.081465	148.325899
61280		12.708897	40.373587	147.770595
61281		12.732819	40.639005	147.325245
61282		12.908303	40.873144	147.016430
61283		13.191774	41.108584	146.732529
61284		13.401073	41.450871	146.357224
61285		13.577915	41.744256	146.017393
61286		13.804347	42.013860	145.780091
61287		14.050344	42.261781	145.596316
61288		14.326154	42.589351	145.440426
61289		14.581062	42.815679	145.303320
61290		14.922877	42.930085	145.272377
61291		15.211077	43.099518	145.236089
61292		15.299766	43.261513	145.153185
61293		15.302708	43.374451	145.101904
61294		15.378152	43.522802	145.125506
61295		15.474607	43.694940	145.134838
61296		15.542303	43.776958	145.122805
61297		15.702834	43.821774	145.173833
61298		15.919105	43.906902	145.199142
61299		16.027109	44.002781	145.162591
61300		16.020842	44.132393	145.087866
61301		15.987885	44.339878	144.981838
61302		15.938395	44.625974	144.822938
61303		15.949520	44.948724	144.622096
61304		16.041629	45.302196	144.394181
61305		16.174600	45.736839	144.108042
61306		16.378026	46.231673	143.774667
61307		16.551483	46.715681	143.444917
61308		16.681243	47.208390	143.093238
61309		16.694573	47.783490	142.667864
61310		16.641125	48.382258	142.213911
61311		16.625976	48.885440	141.874552
61312		16.686130	49.324173	141.646054
61313		16.701699	49.789179	141.400235
61314		16.730574	50.223776	141.148570
61315		16.882633	50.583047	140.946902
61316		17.080752	50.899845	140.785952
61317		17.262233	51.278559	140.654789
61318		17.290116	51.666897	140.481574
61319		17.276424	51.993255	140.336277
61320		17.273941	52.258863	140.265128
61321		17.263532	52.473746	140.215688
61322		17.275986	52.683188	140.160056
61323		17.311047	52.880601	140.121571
61324		17.369775	53.028189	140.151908
61325		17.470494	53.127611	140.293225
61326		17.594001	53.210938	140.479549
61327		17.704872	53.271032	140.628867
61328		17.800365	53.350777	140.778940
61329		17.833034	53.465047	140.930364
61330		17.862027	53.561646	141.078943
61331		17.947628	53.641392	141.220758
61332		18.057192	53.699672	141.343191
61333		18.143550	53.775702	141.453978
61334		18.208951	53.864035	141.520518
61335		18.252856	53.967593	141.531718
61336		18.245290	54.050380	141.536997
61337		18.220796	54.090646	141.519605
61338		18.199214	54.106379	141.516889
61339		18.195502	54.108425	141.533221
61340		18.205823	54.118436	141.535046
61341		18.229473	54.152206	141.529213
61342		18.271096	54.179858	141.529648
61343		18.284083	54.206581	141.533991
61344		18.271821	54.225080	141.537310
61345		18.244371	54.237959	141.520764
61346		18.226472	54.236163	141.506779
61347		18.226690	54.225201	141.497756
61348		18.241653	54.222695	141.497545
61349		18.251517	54.224594	141.503104
61350		18.252500	54.225347	141.499429
61351		18.256355	54.229541	141.483807
61352		18.255410	54.235897	141.471393
61353		18.256002	54.248912	141.472474
61354		18.280097	54.251155	141.491490
61355		18.287500	54.231412	141.499866
61356		18.301962	54.242258	141.484814
61357		18.284421	54.254199	141.459879
61358		18.278127	54.272136	141.444091
61359		18.290779	54.279771	141.433460
61360		18.287400	54.283836	141.413775
61361		18.280882	54.288792	141.407261
61362		18.253334	54.286884	141.391433
61363		18.221617	54.283167	141.359685
61364		18.194852	54.276277	141.321917
61365		18.176174	54.269857	141.300220
61366		18.161302	54.253067	141.279901
61367		18.148682	54.234655	141.245330
61368		18.115507	54.220277	141.208377
61369		18.085276	54.216772	141.183454
61370		18.038627	54.187791	141.143280
61371		18.000311	54.118474	141.104544
61372		17.987284	54.044289	141.094125
61373		17.944510	53.973063	141.077016
61374		17.905391	53.876345	141.057923
61375		17.906447	53.804962	141.070019
61376		17.944217	53.754486	141.075309
61377		18.040943	53.660572	141.129115
61378		18.174580	53.546100	141.243379
61379		18.237519	53.455859	141.295460
61380		18.238957	53.336432	141.316127
61381		18.167172	53.183450	141.328715
61382		18.181014	53.012749	141.335701
61383		18.312318	52.850328	141.358693
61384		18.449349	52.649070	141.405058
61385		18.566042	52.411998	141.535986
61386		18.658263	52.139671	141.720128
61387		18.747639	51.842532	141.910469
61388		18.811668	51.514938	142.064852
61389		18.871558	51.096593	142.267916
61390		18.859992	50.623333	142.530528
61391		18.782625	50.090848	142.775625
61392		18.710098	49.587364	143.086372
61393		18.658472	49.116204	143.462044
61394		18.598364	48.652510	143.824578
61395		18.611043	48.193771	144.165202
61396		18.638472	47.734060	144.618176
61397		18.531054	47.261016	145.139218
61398		18.416552	46.786628	145.655521
61399		18.344326	46.341388	146.161421
61400		18.265161	45.871197	146.713932
61401		18.185835	45.282945	147.271743
61402		18.100266	44.896953	147.670258
61403		17.942383	44.613777	147.920518
61404		17.865818	44.103672	148.264879
61405		17.885638	43.388056	148.839849
61406		17.839949	42.905077	149.336300
61407		17.587888	42.614912	149.679961
61408		17.311753	42.167498	150.005318
61409		17.074021	41.702388	150.450447
61410		16.747219	41.264346	150.905721
61411		16.413855	40.834136	151.358027
61412		16.242582	40.425769	151.888434
61413		16.264018	40.007241	152.486724
61414		16.498204	39.552630	153.072741
61415		16.717689	39.160907	153.643472
61416		16.789959	38.812896	154.176913
61417		16.726271	38.512716	154.694210
61418		16.617335	38.170192	155.199769
61419		16.452628	37.842288	155.668609
61420		16.282143	37.526808	156.109562
61421		16.217687	37.203520	156.536497
61422		16.231001	36.922989	156.866360
61423		16.142117	36.648709	157.099729
61424		16.016203	36.414966	157.274285
61425		15.835871	36.272467	157.384073
61426		15.617498	36.178438	157.435085
61427		15.473830	36.109994	157.438780
61428		15.432938	36.056696	157.450951
61429		15.392937	36.042069	157.439223
61430		15.349776	36.010390	157.426086
61431		15.341362	35.968046	157.460755
61432		15.286374	35.944684	157.493530
61433		15.151939	35.910391	157.509854
61434		15.001949	35.871135	157.521801
61435		14.913345	35.855639	157.518053
61436		14.873210	35.877207	157.473104
61437		14.881636	35.886066	157.401331
61438		14.942500	35.923886	157.338178
61439		14.975305	36.006687	157.281223
61440		15.010073	35.966066	157.237568
61441		15.077288	35.980453	157.249444
61442		14.992733	36.075655	157.215153
61443		14.877416	36.123755	157.161193
61444		14.819991	36.164052	157.114408
61445		14.827870	36.173436	157.078498
61446		14.856077	36.166218	157.070482
61447		14.841853	36.125352	157.066358
61448		14.774763	36.112487	157.070129
61449		14.651122	36.060387	157.073758
61450		14.598431	35.997961	157.118340
61451		14.608928	35.946769	157.179805
61452		14.605659	35.897245	157.209196
61453		14.561222	35.838269	157.226803
61454		14.510011	35.791362	157.258343
61455		14.486700	35.731260	157.310264
61456		14.458115	35.646954	157.354641
61457		14.474520	35.546994	157.418225
61458		14.486491	35.455613	157.484378
61459		14.464239	35.352435	157.581807
61460		14.313900	35.314963	157.646530
61461		14.155973	35.266077	157.686501
61462		14.067927	35.223526	157.754711
61463		14.010800	35.216735	157.790826
61464		13.967615	35.235392	157.786663
61465		13.916730	35.244988	157.771927
61466		13.876486	35.230879	157.752748
61467		13.831941	35.227114	157.729867
61468		13.737139	35.223981	157.719084
61469		13.665913	35.227145	157.725054
61470		13.627839	35.240051	157.727644
61471		13.614943	35.237379	157.719947
61472		13.621146	35.199877	157.721362
61473		13.645304	35.183723	157.721641
61474		13.654399	35.193157	157.721208
61475		13.649923	35.187653	157.708983
61476		13.634874	35.168966	157.692882
61477		13.638338	35.166792	157.680541
61478		13.658315	35.158908	157.689668
61479		13.689673	35.155234	157.699953
61480		13.690975	35.142125	157.702429
61481		13.689804	35.133956	157.706349
61482		13.695494	35.138688	157.690754
61483		13.711495	35.151346	157.667409
61484		13.757589	35.171648	157.648630
61485		13.825471	35.197532	157.623132
61486		13.839759	35.219604	157.604030
61487		13.824610	35.219672	157.591453
61488		13.846484	35.227514	157.557359
61489		13.866308	35.256922	157.509764
61490		13.855208	35.299312	157.462430
61491		13.840258	35.375170	157.372825
61492		13.866319	35.472797	157.273802
61493		13.911659	35.570669	157.191088
61494		13.974318	35.705385	157.085922
61495		13.998593	35.843344	156.940842
61496		13.994766	35.972929	156.792546
61497		13.948529	36.092443	156.634862
61498		13.885498	36.208844	156.465319
61499		13.801517	36.351873	156.255602
61500		13.680435	36.522108	155.997689
61501		13.560223	36.667787	155.722926
61502		13.483847	36.823188	155.431296
61503		13.421929	37.016554	155.115189
61504		13.349478	37.220900	154.764237
61505		13.229303	37.366440	154.370862
61506		13.046156	37.543423	153.977732
61507		12.868988	37.721307	153.580122
61508		12.760372	37.915933	153.150585
61509		12.671980	38.050874	152.710077
61510		12.609109	38.094946	152.337174
61511		12.597030	38.133185	151.990358
61512		12.458513	38.285638	151.603352
61513		12.164366	38.444945	151.180593
61514		11.881011	38.592394	150.798993
61515		11.755272	38.801537	150.460048
61516		11.801053	39.101164	150.045499
61517		11.807077	39.407021	149.530545
61518		11.777480	39.650985	149.034628
61519		11.801012	39.957565	148.551796
61520		11.802319	40.385348	147.992415
61521		11.697564	40.763002	147.373890
61522		11.684647	41.103201	146.793519
61523		11.732206	41.476532	146.263419
61524		11.812410	41.822377	145.734422
61525		11.914532	42.069188	145.229301
61526		12.121146	42.285772	144.816507
61527		12.184426	42.677965	144.342187
61528		11.966680	43.112899	143.756142
61529		11.879066	43.616899	143.320309
61530		11.956388	44.088110	142.931047
61531		12.069564	44.523958	142.527469
61532		12.359761	44.862902	142.281050
61533		12.872590	45.091246	142.216770
61534		13.464809	45.280713	142.228374
61535		13.941042	45.482692	142.283753
61536		14.318360	45.816561	142.366613
61537		14.480126	46.214874	142.331446
61538		14.480508	46.606732	142.216200
61539		14.430171	46.962980	142.058570
61540		14.548730	47.274775	141.934562
61541		14.834078	47.586173	141.794025
61542		15.025773	47.881451	141.559092
61543		15.259135	48.110282	141.455789
61544		15.559324	48.330957	141.485548
61545		15.779583	48.559551	141.523751
61546		15.859334	48.748278	141.555872
61547		15.916777	48.843097	141.664898
61548		16.045538	48.847229	141.811647
61549		16.190998	48.848724	141.898222
61550		16.268473	48.889058	141.918102
61551		16.297222	48.968906	141.906468
61552		16.288650	49.083474	141.816906
61553		16.271016	49.242756	141.644911
61554		16.239529	49.489843	141.437948
61555		16.143594	49.753467	141.218473
61556		16.068530	50.013600	140.998330
61557		16.062576	50.254197	140.779713
61558		16.027599	50.503271	140.483778
61559		15.929306	50.781835	140.115240
61560		15.777406	51.073510	139.734843
61561		15.614413	51.424393	139.383310
61562		15.427083	51.754940	139.067018
61563		15.320885	52.079802	138.810025
61564		15.197663	52.403719	138.557185
61565		15.183446	52.697188	138.382908
61566		15.321330	52.945732	138.285813
61567		15.433565	53.201785	138.158113
61568		15.496855	53.414516	138.037085
61569		15.589629	53.560818	138.036332
61570		15.717713	53.717279	138.107627
61571		15.839379	53.882002	138.184004
61572		15.977417	54.028898	138.290968
61573		16.166939	54.105900	138.456874
61574		16.349821	54.178572	138.658629
61575		16.499337	54.256586	138.862559
61576		16.589013	54.321025	139.057527
61577		16.634300	54.393574	139.223597
61578		16.633599	54.476517	139.344848
61579		16.609192	54.551907	139.357104
61580		16.609862	54.620608	139.373348
61581		16.691624	54.696005	139.459172
61582		16.783529	54.742283	139.533947
61583		16.818201	54.799902	139.545441
61584		16.814278	54.853527	139.522114
61585		16.821581	54.899735	139.546959
61586		16.840624	54.927402	139.584415
61587		16.864450	54.943001	139.596252
61588		16.896966	54.952010	139.613168
61589		16.920586	54.961080	139.627391
61590		16.902009	54.981355	139.618749
61591		16.860112	55.000529	139.597488
61592		16.833042	54.997692	139.591820
61593		16.819525	54.981122	139.597507
61594		16.806158	54.965336	139.598464
61595		16.790192	54.961104	139.584521
61596		16.785816	54.954707	139.570045
61597		16.782334	54.952259	139.556583
61598		16.773772	54.966924	139.547473
61599		16.766386	54.975151	139.545997
61600		16.758939	54.980171	139.544048
61601		16.736405	54.969396	139.521541
61602		16.711366	54.964619	139.500840
61603		16.694917	54.960902	139.487908
61604		16.679096	54.954521	139.482354
61605		16.676035	54.945099	139.466525
61606		16.672117	54.946451	139.451251
61607		16.673624	54.961246	139.443645
61608		16.659371	54.976982	139.434627
61609		16.634574	54.991358	139.418414
61610		16.617502	55.003363	139.385203
61611		16.602910	55.009226	139.356386
61612		16.599288	55.009231	139.344717
61613		16.586178	54.997591	139.332500
61614		16.563149	54.971836	139.311623
61615		16.547696	54.948657	139.280729
61616		16.559741	54.932458	139.261832
61617		16.590069	54.929841	139.274372
61618		16.577390	54.904387	139.280531
61619		16.582173	54.830905	139.308318
61620		16.612173	54.765587	139.369542
61621		16.649491	54.711748	139.422989
61622		16.664101	54.610572	139.461264
61623		16.673008	54.522566	139.508020
61624		16.671391	54.448375	139.525625
61625		16.676461	54.333801	139.555907
61626		16.716683	54.236164	139.638796
61627		16.747427	54.168055	139.682897
61628		16.846624	54.090520	139.729119
61629		16.907942	53.968306	139.807224
61630		17.014463	53.846894	139.954110
61631		17.092491	53.676890	140.104768
61632		17.142654	53.478929	140.259231
61633		17.248665	53.277963	140.450555
61634		17.384913	53.028722	140.662791
61635		17.531391	52.736361	140.844697
61636		17.525917	52.448433	140.982525
61637		17.526794	52.124543	141.129745
61638		17.581127	51.759392	141.308102
61639		17.563180	51.324758	141.532467
61640		17.568993	50.792734	141.810433
61641		17.557958	50.263327	142.091776
61642		17.529382	49.724337	142.376833
61643		17.494994	49.155249	142.726185
61644		17.391453	48.543077	143.060342
61645		17.276814	47.975339	143.375869
61646		17.086000	47.451099	143.742106
61647		16.931467	46.884045	144.166490
61648		16.897614	46.350657	144.626064
61649		16.905122	45.868738	144.997453
61650		16.919720	45.410237	145.369883
61651		16.954981	44.910534	145.776277
61652		16.988395	44.502906	146.186055
61653		17.028065	43.998692	146.650115
61654		16.950531	43.588425	147.019540
61655		16.858017	43.069099	147.480650
61656		16.696504	42.527095	147.999507
61657		16.526420	42.134521	148.567605
61658		16.249266	41.738398	148.962153
61659		16.084095	41.311311	149.335500
61660		15.954948	40.918770	149.789162
61661		15.863382	40.529917	150.265530
61662		15.796548	40.179045	150.734848
61663		15.691158	39.857921	151.151770
61664		15.548590	39.541386	151.534032
61665		15.484663	39.238638	151.959779
61666		15.486566	38.960314	152.410294
61667		15.535594	38.721400	152.816594
61668		15.619411	38.463027	153.177766
61669		15.661274	38.150218	153.535881
61670		15.628734	37.852427	153.892152
61671		15.524592	37.631912	154.226490
61672		15.371939	37.418264	154.514060
61673		15.270472	37.191355	154.813579
61674		15.216563	36.993724	155.132465
61675		15.176973	36.820828	155.382816
61676		15.097934	36.679957	155.584959
61677		14.975663	36.537337	155.763985
61678		14.938093	36.393970	155.963122
61679		15.027303	36.281430	156.193853
61680		15.136280	36.200225	156.366261
61681		15.133098	36.093637	156.487630
61682		15.113178	35.979458	156.636734
61683		15.076023	35.889307	156.789672
61684		15.016665	35.788948	156.918045
61685		14.947272	35.697120	157.029875
61686		14.900263	35.620955	157.152503
61687		14.871748	35.581448	157.230879
61688		14.823829	35.563813	157.229123
61689		14.761076	35.587211	157.166145
61690		14.753120	35.619342	157.067822
61691		14.815753	35.673208	156.979926
61692		14.912349	35.725896	156.922681
61693		14.963582	35.747055	156.882205
61694		14.936575	35.756892	156.848451
61695		14.853517	35.743512	156.822081
61696		14.852031	35.710127	156.847678
61697		14.849188	35.681852	156.873925
61698		14.830650	35.654813	156.901995
61699		14.773663	35.631055	156.929604
61700		14.691421	35.603865	156.937388
61701		14.606050	35.540374	156.936844
61702		14.538906	35.441045	156.967155
61703		14.453132	35.378826	157.030567
61704		14.271143	35.354957	157.069920
61705		14.049452	35.288273	157.091166
61706		13.925157	35.243805	157.134074
61707		13.909939	35.227067	157.143654
61708		13.987396	35.143415	157.145251
61709		14.024532	35.058235	157.161721
61710		13.975906	34.985374	157.179792
61711		13.896221	34.913263	157.209565
61712		13.796751	34.854595	157.243900
61713		13.659392	34.753538	157.325068
61714		13.498461	34.671062	157.424750
61715		13.358370	34.614141	157.516284
61716		13.254914	34.547069	157.593120
61717		13.161276	34.485313	157.646208
61718		13.008504	34.473395	157.671642
61719		12.893472	34.486246	157.680542
61720		12.808927	34.470509	157.668648
61721		12.757935	34.452404	157.650884
61722		12.743157	34.429766	157.653671
61723		12.687043	34.413456	157.658663
61724		12.558392	34.390604	157.650208
61725		12.450016	34.365177	157.659224
61726		12.346769	34.352442	157.654378
61727		12.238234	34.344290	157.639317
61728		12.173343	34.320769	157.619993
61729		12.167462	34.285628	157.615669
61730		12.180062	34.265392	157.615827
61731		12.174385	34.249292	157.607756
61732		12.169695	34.236477	157.595556
61733		12.174907	34.241051	157.584892
61734		12.220586	34.286036	157.571345
61735		12.283127	34.328135	157.540516
61736		12.309987	34.345876	157.475206
61737		12.312998	34.370970	157.419926
61738		12.338673	34.419558	157.382306
61739		12.408790	34.500126	157.305114
61740		12.481787	34.636184	157.167929
61741		12.477413	34.781694	157.026374
61742		12.447558	34.892949	156.900150
61743		12.448430	35.036232	156.763390
61744		12.479325	35.219746	156.579129
61745		12.490102	35.357868	156.393115
61746		12.489834	35.506904	156.214933
61747		12.440722	35.688193	155.993322
61748		12.351527	35.846979	155.725345
61749		12.288932	36.022478	155.439497
61750		12.333938	36.232965	155.125420
61751		12.510638	36.455359	154.802810
61752		12.714392	36.671086	154.492760
61753		12.917751	36.884762	154.198279
61754		13.083694	37.054258	153.907563
61755		13.135077	37.195053	153.615090
61756		13.126941	37.369631	153.303416
61757		13.109491	37.576019	152.959906
61758		13.124620	37.771773	152.617994
61759		13.168328	38.008592	152.281513
61760		13.179521	38.259438	151.909490
61761		13.184683	38.501072	151.526380
61762		13.243899	38.768680	151.157801
61763		13.338424	39.064318	150.751349
61764		13.434869	39.395728	150.300175
61765		13.526955	39.799155	149.795676
61766		13.643010	40.254396	149.273420
61767		13.733848	40.652832	148.768631
61768		13.757319	40.991804	148.245481
61769		13.687944	41.287767	147.699834
61770		13.659115	41.502082	147.243155
61771		13.790528	41.683039	146.868883
61772		13.921064	41.958811	146.476127
61773		13.868884	42.247994	146.047236
61774		13.769289	42.518071	145.662516
61775		13.705319	42.819178	145.345797
61776		13.718465	43.118796	145.075894
61777		13.877407	43.442033	144.866500
61778		14.033734	43.689630	144.629962
61779		14.283961	43.950093	144.383399
61780		14.512924	44.205269	144.139006
61781		14.695849	44.424716	143.920636
61782		14.882814	44.743083	143.676225
61783		14.893300	45.173047	143.357029
61784		14.796152	45.600544	143.002915
61785		14.778037	46.059013	142.696660
61786		14.850330	46.449955	142.432729
61787		15.028077	46.731586	142.238781
61788		15.290062	46.971669	142.119532
61789		15.546210	47.145487	142.050180
61790		15.743416	47.182850	142.070102
61791		15.865882	47.181184	142.173492
61792		15.860635	47.178516	142.277207
61793		15.759922	47.181734	142.324523
61794		15.652361	47.199294	142.328345
61795		15.629333	47.211978	142.286554
61796		15.674562	47.218391	142.249377
61797		15.746176	47.238210	142.213695
61798		15.745243	47.288941	142.135854
61799		15.738916	47.388606	142.044024
61800		15.797649	47.546771	141.941817
61801		15.824765	47.774040	141.783594
61802		15.803585	48.054908	141.580417
61803		15.895695	48.345158	141.391847
61804		16.028564	48.650415	141.211759
61805		16.146740	48.943146	140.995441
61806		16.340966	49.248996	140.750283
61807		16.482734	49.597629	140.478699
61808		16.538548	50.024121	140.213173
61809		16.505014	50.480839	139.929312
61810		16.376855	50.952598	139.625071
61811		16.212550	51.458099	139.328871
61812		16.148960	51.922242	139.072159
61813		16.143354	52.350377	138.840194
61814		16.097625	52.748755	138.584344
61815		16.132923	53.079515	138.345723
61816		16.266077	53.398743	138.188578
61817		16.361319	53.670347	138.010832
61818		16.379264	53.964859	137.822694
61819		16.410613	54.233452	137.696867
61820		16.466228	54.451478	137.614054
61821		16.488593	54.561564	137.573043
61822		16.463876	54.621574	137.588914
61823		16.486465	54.758261	137.662556
61824		16.573441	54.882782	137.718750
61825		16.704570	54.969065	137.781167
61826		16.775298	55.067247	137.823738
61827		16.758097	55.184604	137.861054
61828		16.715988	55.259450	137.911893
61829		16.655899	55.321343	137.917635
61830		16.608818	55.371922	137.922333
61831		16.578387	55.392097	137.961623
61832		16.559085	55.400263	138.004975
61833		16.501280	55.406044	138.013314
61834		16.446680	55.397984	138.022700
61835		16.406435	55.395157	138.014917
61836		16.375259	55.387314	138.015983
61837		16.359796	55.377738	138.037337
61838		16.341972	55.374337	138.039608
61839		16.347224	55.382069	138.032127
61840		16.348377	55.411018	138.032813
61841		16.354386	55.424285	138.049614
61842		16.331437	55.428496	138.047923
61843		16.290296	55.451009	138.025756
61844		16.262349	55.478031	138.008171
61845		16.226570	55.490711	138.000082
61846		16.187055	55.497626	137.990953
61847		16.132611	55.502257	137.973253
61848		16.100085	55.499130	137.965513
61849		16.079171	55.496164	137.957220
61850		16.066680	55.497055	137.968684
61851		16.073048	55.508567	137.987895
61852		16.073909	55.521416	137.993351
61853		16.059827	55.514957	137.988892
61854		16.047186	55.502189	137.984746
61855		16.043495	55.497270	137.984712
61856		16.048353	55.494281	137.987705
61857		16.050635	55.490632	137.983368
61858		16.030844	55.484297	137.969191
61859		16.026912	55.484577	137.968729
61860		16.026381	55.492536	137.953398
61861		16.014756	55.488159	137.928880
61862		15.992764	55.477631	137.914684
61863		15.967583	55.475365	137.890950
61864		15.935008	55.465856	137.857661
61865		15.917778	55.456051	137.831355
61866		15.896507	55.444747	137.812997
61867		15.867686	55.436124	137.789902
61868		15.822544	55.432587	137.754806
61869		15.791094	55.431176	137.724901
61870		15.775301	55.423831	137.706701
61871		15.773411	55.403249	137.700588
61872		15.754707	55.392595	137.689730
61873		15.732536	55.365489	137.672750
61874		15.752496	55.279940	137.709852
61875		15.762802	55.192779	137.768721
61876		15.731416	55.126914	137.774639
61877		15.784542	55.024005	137.822446
61878		15.940563	54.966943	137.940458
61879		15.968910	54.865219	138.095804
61880		15.988161	54.695305	138.314089
61881		15.938665	54.544226	138.404468
61882		15.924708	54.410185	138.438238
61883		15.944214	54.257497	138.479344
61884		15.950734	54.058959	138.500276
61885		15.998097	53.833401	138.501768
61886		16.138212	53.589304	138.510855
61887		16.224418	53.259850	138.579504
61888		16.213437	52.880819	138.664326
61889		16.117498	52.497534	138.763026
61890		16.090567	52.148771	138.918879
61891		16.017713	51.766999	139.018081
61892		15.927433	51.396475	139.012369
61893		15.759643	51.000413	139.021468
61894		15.585804	50.507776	139.076327
61895		15.431400	49.973822	139.202649
61896		15.235375	49.425656	139.398080
61897		15.010137	48.866175	139.667214
61898		14.822329	48.338897	139.953174
61899		14.516214	47.807192	140.194962
61900		14.276417	47.252910	140.517829
61901		14.145199	46.690802	140.918089
61902		14.062236	46.118812	141.405491
61903		14.046466	45.555677	141.969132
61904		14.108905	45.056502	142.536831
61905		14.183724	44.609560	143.056644
61906		14.298876	44.161322	143.624419
61907		14.449365	43.710883	144.278098
61908		14.557584	43.320051	144.957655
61909		14.584402	42.884348	145.610312
61910		14.616464	42.462464	146.283533
61911		14.691729	42.106039	146.990556
61912		14.792948	41.719874	147.664684
61913		14.929842	41.294421	148.294827
61914		15.021685	40.934440	148.915138
61915		15.120853	40.609503	149.538556
61916		15.239008	40.244396	150.173831
61917		15.370648	39.846479	150.774878
61918		15.401558	39.469027	151.373907
61919		15.431630	39.117247	151.994997
61920		15.504457	38.819969	152.582298
61921		15.523422	38.505098	153.089342
61922		15.457639	38.149955	153.559062
61923		15.391277	37.835164	154.045518
61924		15.255236	37.576079	154.494546
61925		15.059636	37.273885	154.883377
61926		14.836597	36.977349	155.249337
61927		14.654127	36.717196	155.587946
61928		14.563979	36.538351	155.867807
61929		14.479906	36.394534	156.066001
61930		14.405837	36.234306	156.240985
61931		14.344953	36.104048	156.393023
61932		14.315388	36.024205	156.519042
61933		14.342138	35.967431	156.633478
61934		14.338259	35.920941	156.706162
61935		14.296657	35.867626	156.752525
61936		14.242307	35.860241	156.800497
61937		14.179138	35.858574	156.826188
61938		14.111889	35.860059	156.815816
61939		14.077020	35.837743	156.804231
61940		14.114470	35.828894	156.786739
61941		14.108270	35.832904	156.740522
61942		14.113074	35.814262	156.713211
61943		14.163533	35.776866	156.706208
61944		14.190157	35.763358	156.701036
61945		14.163113	35.750469	156.692675
61946		14.108368	35.749720	156.673937
61947		14.069887	35.707724	156.647798
61948		14.109732	35.640768	156.664466
61949		14.136016	35.600040	156.685276
61950		14.126295	35.557214	156.715909
61951		14.050546	35.515200	156.752883
61952		13.939185	35.488487	156.759647
61953		13.835490	35.493328	156.790862
61954		13.762882	35.471282	156.814121
61955		13.734134	35.393353	156.845537
61956		13.674258	35.344462	156.895078
61957		13.531221	35.331198	156.935131
61958		13.328625	35.306266	156.934989
61959		13.171961	35.242115	156.943433
61960		13.115756	35.223551	156.991329
61961		13.099913	35.218817	157.056125
61962		13.105948	35.164881	157.096046
61963		13.119215	35.084644	157.127854
61964		13.097951	35.048363	157.152489
61965		13.045727	35.029589	157.171471
61966		12.975479	34.988773	157.190053
61967		12.955103	34.949646	157.216278
61968		12.971658	34.909325	157.246857
61969		12.994694	34.823090	157.323573
61970		13.002646	34.756274	157.436392
61971		12.925826	34.727064	157.519225
61972		12.822983	34.656022	157.594266
61973		12.737623	34.591119	157.677245
61974		12.640439	34.560789	157.733554
61975		12.544360	34.510779	157.753225
61976		12.485452	34.473068	157.765216
61977		12.383406	34.446991	157.753570
61978		12.285684	34.411013	157.739068
61979		12.247323	34.370090	157.755592
61980		12.226989	34.353851	157.778885
61981		12.164447	34.342147	157.773585
61982		12.080486	34.308045	157.760795
61983		12.050438	34.304783	157.753338
61984		12.052172	34.313778	157.728269
61985		12.066310	34.304149	157.678236
61986		12.119586	34.301839	157.615265
61987		12.209944	34.348427	157.566062
61988		12.271439	34.373803	157.542712
61989		12.285184	34.350776	157.527105
61990		12.261730	34.378338	157.495957
61991		12.231394	34.419769	157.469997
61992		12.198268	34.409974	157.445934
61993		12.209829	34.436982	157.404201
61994		12.234319	34.525861	157.313759
61995		12.249191	34.634978	157.180388
61996		12.240731	34.719269	157.037793
61997		12.255243	34.821826	156.883712
61998		12.261455	34.952699	156.683849
61999		12.231524	35.063734	156.464013
62000		12.189133	35.175323	156.266226
62001		12.164803	35.332154	156.041756
62002		12.133816	35.499163	155.733174
62003		12.108632	35.684538	155.382008
62004		12.067662	35.838614	155.026025
62005		12.045697	35.996152	154.671142
62006		12.028008	36.219162	154.263197
62007		11.963252	36.477838	153.746923
62008		11.881085	36.756305	153.174969
62009		11.851761	37.029454	152.587668
62010		11.851770	37.248955	152.011142
62011		11.824765	37.469255	151.432241
62012		11.713490	37.822509	150.772552
62013		11.532282	38.236995	149.995868
62014		11.358635	38.658903	149.179711
62015		11.127145	39.141394	148.311095
62016		10.889996	39.490803	147.469183
62017		10.941615	39.813043	146.794020
62018		11.101570	40.204815	146.105530
62019		11.096615	40.595307	145.304033
62020		10.969680	40.962031	144.526031
62021		10.809931	41.357205	143.866551
62022		10.705573	41.749292	143.347433
62023		10.760978	42.155435	142.881882
62024		10.908447	42.599806	142.383718
62025		10.975567	43.083815	141.805233
62026		11.061553	43.583545	141.328132
62027		11.343048	44.050419	141.069926
62028		11.672466	44.534790	140.842339
62029		11.916793	44.948951	140.592642
62030		12.192364	45.280758	140.459014
62031		12.529010	45.579905	140.431987
62032		12.792250	45.818977	140.406071
62033		12.941023	45.930481	140.405073
62034		13.052571	46.014727	140.477611
62035		13.154429	46.069181	140.583093
62036		13.273054	46.051657	140.674173
62037		13.313801	46.005294	140.727580
62038		13.293290	45.988978	140.773153
62039		13.265642	46.001186	140.764117
62040		13.273559	46.065884	140.711899
62041		13.222699	46.166727	140.594582
62042		13.182176	46.345046	140.469067
62043		13.200051	46.555765	140.322762
62044		13.290360	46.814864	140.151029
62045		13.362039	47.154960	139.943972
62046		13.452130	47.500359	139.737541
62047		13.570088	47.857823	139.537583
62048		13.635254	48.258399	139.270888
62049		13.814765	48.648668	138.999588
62050		13.944484	49.022069	138.703156
62051		13.971944	49.492215	138.372831
62052		13.886887	49.994747	138.012570
62053		13.897801	50.428986	137.767298
62054		13.950699	50.871050	137.655785
62055		13.945502	51.328361	137.565768
62056		14.134323	51.757628	137.599715
62057		14.513389	52.137383	137.746501
62058		14.965956	52.505911	137.902388
62059		15.470650	52.900352	138.104762
62060		15.868168	53.212236	138.284660
62061		16.272504	53.511009	138.555132
62062		16.618812	53.795175	138.845802
62063		16.940614	54.025533	139.099486
62064		17.216742	54.198838	139.283292
62065		17.492387	54.379229	139.470447
62066		17.683525	54.547402	139.611761
62067		17.777674	54.653843	139.719642
62068		17.798265	54.756933	139.798637
62069		17.766924	54.880470	139.829432
62070		17.723559	54.994612	139.833828
62071		17.692393	55.031509	139.831956
62072		17.735679	55.025349	139.870561
62073		17.781405	55.032757	139.896231
62074		17.792117	55.087392	139.905459
62075		17.781591	55.162020	139.920681
62076		17.785013	55.239108	139.933000
62077		17.776997	55.282367	139.916482
62078		17.800063	55.300999	139.934148
62079		17.830370	55.301544	139.968547
62080		17.833206	55.316219	139.995276
62081		17.830498	55.355107	139.989531
62082		17.836834	55.397334	139.988837
62083		17.845366	55.415443	139.995501
62084		17.848617	55.451278	139.985773
62085		17.860203	55.504194	139.989890
62086		17.880234	55.512726	140.000461
62087		17.872771	55.503288	139.995723
62088		17.832523	55.487872	139.969259
62089		17.794898	55.486764	139.923235
62090		17.753263	55.501193	139.871869
62091		17.710449	55.504591	139.839122
62092		17.671185	55.493658	139.810212
62093		17.631394	55.486362	139.779346
62094		17.598126	55.483506	139.752971
62095		17.564515	55.483322	139.720583
62096		17.550717	55.495188	139.704345
62097		17.557535	55.503342	139.696078
62098		17.568507	55.500919	139.681809
62099		17.575276	55.495215	139.657898
62100		17.581071	55.491141	139.639588
62101		17.572717	55.496197	139.629593
62102		17.537365	55.505724	139.605805
62103		17.493435	55.510391	139.567381
62104		17.458011	55.508707	139.529369
62105		17.436092	55.490500	139.510461
62106		17.417344	55.468297	139.494874
62107		17.370572	55.472895	139.445682
62108		17.318900	55.484057	139.402132
62109		17.294214	55.503361	139.358765
62110		17.333479	55.516335	139.343660
62111		17.396096	55.494539	139.366818
62112		17.436893	55.465826	139.417902
62113		17.466776	55.412943	139.448490
62114		17.494454	55.342792	139.480709
62115		17.489745	55.287444	139.475625
62116		17.538134	55.240106	139.460854
62117		17.587638	55.175648	139.472800
62118		17.639288	55.118465	139.516299
62119		17.646575	55.114450	139.552483
62120		17.660078	55.087926	139.560100
62121		17.693071	54.985117	139.615459
62122		17.703435	54.883110	139.662401
62123		17.695610	54.802972	139.704419
62124		17.718937	54.672843	139.779221
62125		17.720745	54.567248	139.879956
62126		17.651743	54.463851	139.911606
62127		17.696648	54.326950	139.989544
62128		17.770202	54.149711	140.100776
62129		17.806925	53.905861	140.217179
62130		17.811071	53.612305	140.331500
62131		17.770797	53.272511	140.425856
62132		17.599825	52.919843	140.520940
62133		17.360745	52.547894	140.642682
62134		17.102256	52.136262	140.756800
62135		16.879241	51.664591	140.929937
62136		16.687920	51.163129	141.142389
62137		16.576087	50.681393	141.347408
62138		16.527577	50.189142	141.524823
62139		16.520504	49.724094	141.735801
62140		16.415241	49.257305	142.029601
62141		16.217669	48.705915	142.357632
62142		16.062055	48.112821	142.704223
62143		15.935116	47.561130	143.067370
62144		15.771188	47.004519	143.437890
62145		15.692281	46.410772	143.906670
62146		15.686703	45.797572	144.418434
62147		15.707041	45.188006	144.810678
62148		15.582623	44.701471	145.183099
62149		15.317622	44.161172	145.568391
62150		15.080374	43.599151	146.126497
62151		14.979177	43.016900	146.780817
62152		14.831125	42.463726	147.383976
62153		14.764796	42.005410	147.910349
62154		14.722361	41.587591	148.404952
62155		14.705956	41.107185	148.922242
62156		14.706289	40.703110	149.524722
62157		14.641714	40.308897	150.106803
62158		14.617775	39.973380	150.707919
62159		14.666889	39.636030	151.322077
62160		14.885697	39.218226	151.911840
62161		15.141004	38.837528	152.495906
62162		15.217424	38.477045	153.052360
62163		15.169850	38.113938	153.625313
62164		15.086202	37.778960	154.207901
62165		14.896231	37.495470	154.702475
62166		14.595520	37.245952	155.059091
62167		14.339347	37.016575	155.314828
62168		14.210234	36.837102	155.541133
62169		14.182962	36.704346	155.708182
62170		14.196587	36.596379	155.810291
62171		14.213249	36.540006	155.885294
62172		14.172992	36.515529	155.921920
62173		14.100791	36.520241	155.907629
62174		14.007594	36.525927	155.845271
62175		13.962074	36.514356	155.808910
62176		13.955234	36.488059	155.802555
62177		13.932857	36.471850	155.793670
62178		13.923942	36.437580	155.819528
62179		13.927952	36.412286	155.889807
62180		13.906706	36.382749	155.972968
62181		13.885574	36.290776	156.051302
62182		13.846956	36.195083	156.143761
62183		13.795428	36.095596	156.265855
62184		13.752736	35.971921	156.393402
62185		13.685286	35.828780	156.513108
62186		13.560389	35.686694	156.636245
62187		13.370233	35.499459	156.759811
62188		13.192373	35.348553	156.903061
62189		12.964634	35.199155	157.019160
62190		12.707314	35.014461	157.125624
62191		12.482753	34.867334	157.248095
62192		12.289739	34.762164	157.345081
62193		12.151021	34.633432	157.417749
62194		12.082673	34.536766	157.484994
62195		12.001777	34.458098	157.549152
62196		11.891873	34.386229	157.621865
62197		11.779950	34.319720	157.679943
62198		11.691794	34.223483	157.746173
62199		11.600384	34.077188	157.846924
62200		11.423023	33.973219	157.955693
62201		11.156809	33.885701	158.043933
62202		10.915251	33.802392	158.143715
62203		10.740491	33.743002	158.228330
62204		10.626231	33.702474	158.263775
62205		10.563251	33.643474	158.284729
62206		10.538263	33.585957	158.320306
62207		10.502217	33.540842	158.366326
62208		10.410696	33.496875	158.420423
62209		10.250309	33.486098	158.429463
62210		10.095611	33.464887	158.413158
62211		10.002225	33.445068	158.404642
62212		9.960224	33.430816	158.414323
62213		9.932271	33.412611	158.417870
62214		9.904653	33.386653	158.405533
62215		9.877015	33.382467	158.388324
62216		9.853425	33.376846	158.372647
62217		9.850041	33.386719	158.358445
62218		9.855220	33.389322	158.342213
62219		9.879565	33.368802	158.340390
62220		9.897549	33.354692	158.350899
62221		9.903262	33.347692	158.371494
62222		9.877527	33.342373	158.360079
62223		9.870768	33.323515	158.350178
62224		9.906849	33.320195	158.355383
62225		9.950189	33.321864	158.365299
62226		9.973309	33.312182	158.374194
62227		9.976538	33.311211	158.377643
62228		9.986641	33.324191	158.379006
62229		9.996103	33.321886	158.378642
62230		10.030229	33.322351	158.382537
62231		10.075335	33.298783	158.398851
62232		10.104502	33.287118	158.409460
62233		10.102922	33.284199	158.399572
62234		10.083815	33.286120	158.386780
62235		10.101367	33.294338	158.384937
62236		10.146981	33.298379	158.392606
62237		10.160832	33.290655	158.399629
62238		10.133206	33.287751	158.390377
62239		10.114954	33.274043	158.384752
62240		10.128528	33.271046	158.373041
62241		10.178426	33.291587	158.350213
62242		10.224162	33.314720	158.314733
62243		10.262054	33.341431	158.279040
62244		10.306222	33.365327	158.232606
62245		10.358939	33.389745	158.215120
62246		10.397331	33.404529	158.203275
62247		10.405288	33.425948	158.170439
62248		10.376871	33.471426	158.123241
62249		10.374296	33.545505	158.072657
62250		10.447181	33.632515	158.015352
62251		10.542585	33.704886	157.933937
62252		10.645137	33.766808	157.847706
62253		10.735757	33.839607	157.726282
62254		10.760183	33.909214	157.557015
62255		10.791458	34.005246	157.344497
62256		10.852758	34.197930	157.078264
62257		10.862477	34.386726	156.784878
62258		10.849981	34.582428	156.485115
62259		10.825300	34.814577	156.169711
62260		10.912222	35.021662	155.876605
62261		11.137046	35.223861	155.557769
62262		11.327008	35.487186	155.169215
62263		11.320267	35.662468	154.731774
62264		11.229639	35.856947	154.312491
62265		11.124271	36.144809	153.873943
62266		11.060787	36.477621	153.320878
62267		11.023025	36.800834	152.718904
62268		11.028612	37.110611	152.147211
62269		11.146822	37.415338	151.587483
62270		11.304367	37.715580	151.014427
62271		11.374360	38.044478	150.446097
62272		11.387756	38.332138	149.902503
62273		11.451168	38.578490	149.413229
62274		11.545362	38.910252	148.918421
62275		11.530923	39.282611	148.355573
62276		11.492815	39.648353	147.770626
62277		11.532387	40.068455	147.209007
62278		11.589628	40.469801	146.651143
62279		11.740087	40.819833	146.140143
62280		12.015347	41.214002	145.640460
62281		12.227521	41.634568	145.088474
62282		12.384781	41.949035	144.596084
62283		12.562680	42.257341	144.223120
62284		12.642672	42.629254	143.863941
62285		12.591643	43.105255	143.405548
62286		12.427966	43.690973	142.902648
62287		12.379084	44.359204	142.514460
62288		12.781560	45.133505	142.357514
62289		13.262900	45.917479	142.093582
62290		13.735699	46.447097	141.834708
62291		14.353053	46.821533	141.825233
62292		14.970793	47.088740	141.977377
62293		15.483912	47.239506	142.151456
62294		15.825826	47.276297	142.363160
62295		15.985859	47.269221	142.611378
62296		15.981735	47.278972	142.747006
62297		15.809235	47.289057	142.741781
62298		15.663521	47.261096	142.715577
62299		15.637687	47.273931	142.663817
62300		15.668333	47.300098	142.600592
62301		15.680535	47.310514	142.534839
62302		15.695156	47.347395	142.488195
62303		15.703422	47.446517	142.419468
62304		15.754518	47.610213	142.311857
