// General information: 
//  MT Manager version: 2022.2.0 
//  XDA version: 2022.2.0 build 7381 rev 124627 built on 2023-07-19
// Device information: 
//  DeviceId: 00B44846
//  ProductCode: MTW2-3A7G6
//  Firmware Version: 4.3.5
//  Hardware Version: 2.0.0
// Device settings: 
//  Filter Profile: human(46.1)
//  Option Flags: Orientation Smoother Disabled, Position/Velocity Smoother Disabled, Continuous Zero Rotation Update Disabled, AHS Disabled, ICC Disabled
// Coordinate system: ENU
PacketCounter	SampleTimeFine	Roll	Pitch	Yaw
59161		-4.890645	-12.602809	15.229001
59162		-4.885245	-12.614015	15.243724
59163		-4.892340	-12.606713	15.255026
59164		-4.878972	-12.575790	15.245502
59165		-4.856103	-12.520818	15.225865
59166		-4.828230	-12.449665	15.205135
59167		-4.756461	-12.368896	15.189566
59168		-4.649499	-12.301932	15.155557
59169		-4.540123	-12.189885	15.101917
59170		-4.379472	-12.201626	15.038823
59171		-4.232203	-12.180286	14.948491
59172		-4.160789	-12.098604	14.851708
59173		-4.142686	-12.126914	14.799108
59174		-4.061464	-12.169025	14.770861
59175		-3.937030	-12.136806	14.718130
59176		-3.804033	-12.096670	14.664488
59177		-3.721209	-12.125297	14.649162
59178		-3.669542	-12.199658	14.658040
59179		-3.661202	-12.213188	14.659085
59180		-3.690559	-12.210278	14.651698
59181		-3.694225	-12.204619	14.644290
59182		-3.708365	-12.185557	14.637985
59183		-3.742699	-12.215107	14.644400
59184		-3.758054	-12.262790	14.660769
59185		-3.746411	-12.277025	14.663937
59186		-3.696109	-12.227838	14.625389
59187		-3.599785	-12.186453	14.573537
59188		-3.487488	-12.171067	14.534153
59189		-3.382417	-12.130936	14.489601
59190		-3.261882	-12.160883	14.459234
59191		-3.123565	-12.191798	14.423930
59192		-3.024634	-12.133367	14.372133
59193		-2.890252	-12.024589	14.323507
59194		-2.694613	-11.950064	14.293338
59195		-2.495961	-11.901840	14.304392
59196		-2.285753	-11.889851	14.386718
59197		-2.045341	-11.956293	14.510852
59198		-1.775616	-12.072990	14.652609
59199		-1.549803	-12.188256	14.811354
59200		-1.277045	-12.242458	14.992661
59201		-0.977901	-12.213166	15.143909
59202		-0.755324	-12.193174	15.304680
59203		-0.582286	-12.222432	15.511059
59204		-0.382080	-12.217082	15.712184
59205		-0.268836	-12.178206	15.921804
59206		-0.207791	-12.078689	16.185972
59207		-0.160294	-12.048578	16.482567
59208		-0.046793	-11.971825	16.760386
59209		0.000184	-12.022956	17.055239
59210		-0.025258	-12.232015	17.438186
59211		0.062667	-12.431332	17.813387
59212		0.087759	-12.614318	18.125349
59213		0.271302	-12.603943	18.366594
59214		0.495722	-12.413015	18.541142
59215		0.651024	-12.254147	18.778393
59216		0.671795	-12.203937	19.163677
59217		0.540386	-12.274116	19.650145
59218		0.403166	-12.351467	20.172410
59219		0.269357	-12.383493	20.691982
59220		0.066685	-12.421767	21.236503
59221		-0.163408	-12.397870	21.748562
59222		-0.537186	-12.521845	22.268342
59223		-0.794122	-12.647270	22.767581
59224		-0.968207	-12.666440	23.192964
59225		-1.357855	-12.693594	23.639648
59226		-1.598810	-12.692678	24.094806
59227		-1.920498	-12.789729	24.548852
59228		-2.263436	-12.970458	24.977304
59229		-2.457650	-13.074788	25.325457
59230		-2.489671	-13.118149	25.588900
59231		-2.605016	-13.065770	25.823060
59232		-2.830287	-13.007291	26.045651
59233		-2.962464	-13.007442	26.263990
59234		-3.164864	-13.102153	26.471876
59235		-3.334480	-13.170660	26.683566
59236		-3.415741	-13.215317	26.860510
59237		-3.473639	-13.193717	26.997716
59238		-3.375624	-13.124478	27.059238
59239		-3.307947	-13.074883	27.053574
59240		-3.262466	-13.057718	26.993129
59241		-3.251912	-13.001089	26.913821
59242		-3.222818	-12.863106	26.805979
59243		-3.173013	-12.738480	26.707160
59244		-3.152255	-12.646467	26.656280
59245		-3.146429	-12.613906	26.650476
59246		-3.105326	-12.561300	26.641867
59247		-3.099816	-12.513415	26.627085
59248		-3.077494	-12.497733	26.622817
59249		-3.015625	-12.477797	26.604422
59250		-2.937316	-12.469824	26.564818
59251		-2.865335	-12.433238	26.531178
59252		-2.832213	-12.361745	26.502658
59253		-2.785373	-12.289532	26.470997
59254		-2.760388	-12.220121	26.431404
59255		-2.747416	-12.123849	26.393546
59256		-2.748232	-12.032125	26.366053
59257		-2.743630	-11.992247	26.353154
59258		-2.721588	-11.984836	26.357543
59259		-2.711972	-11.930415	26.357743
59260		-2.723651	-11.857563	26.348338
59261		-2.712502	-11.791558	26.338738
59262		-2.699749	-11.755162	26.335555
59263		-2.701227	-11.760432	26.345979
59264		-2.710342	-11.764920	26.352451
59265		-2.738017	-11.765241	26.346233
59266		-2.745799	-11.755885	26.350199
59267		-2.732621	-11.745228	26.370464
59268		-2.715887	-11.746737	26.399936
59269		-2.696066	-11.738709	26.425135
59270		-2.659443	-11.689647	26.416998
59271		-2.640731	-11.649972	26.395250
59272		-2.640461	-11.654627	26.367080
59273		-2.628678	-11.667839	26.332088
59274		-2.611322	-11.662735	26.311775
59275		-2.565190	-11.676751	26.302394
59276		-2.531819	-11.695489	26.304779
59277		-2.506743	-11.692094	26.299389
59278		-2.486399	-11.674047	26.265451
59279		-2.489663	-11.679035	26.230753
59280		-2.482683	-11.672535	26.207446
59281		-2.477256	-11.632277	26.185405
59282		-2.485987	-11.602507	26.177038
59283		-2.479606	-11.620904	26.190266
59284		-2.485288	-11.645172	26.212980
59285		-2.482301	-11.650904	26.221339
59286		-2.473603	-11.627216	26.207708
59287		-2.468690	-11.597583	26.184096
59288		-2.467235	-11.581632	26.178477
59289		-2.453420	-11.575024	26.193726
59290		-2.443157	-11.573896	26.203863
59291		-2.436593	-11.573744	26.204935
59292		-2.414757	-11.553920	26.195582
59293		-2.400911	-11.556650	26.187213
59294		-2.403290	-11.579071	26.190144
59295		-2.437415	-11.603586	26.182506
59296		-2.466978	-11.642391	26.173843
59297		-2.498087	-11.722442	26.159519
59298		-2.493040	-11.817243	26.155810
59299		-2.505627	-11.860750	26.129677
59300		-2.526117	-11.887067	26.093433
59301		-2.512393	-11.920180	26.053955
59302		-2.484848	-11.957268	25.994205
59303		-2.511882	-12.032635	25.920250
59304		-2.510981	-12.080377	25.818493
59305		-2.474395	-12.064247	25.671065
59306		-2.422207	-11.987556	25.488211
59307		-2.409354	-11.958434	25.303397
59308		-2.330317	-11.988738	25.115736
59309		-2.294282	-12.049487	24.897562
59310		-2.211181	-12.070962	24.642172
59311		-2.114277	-12.082400	24.361703
59312		-1.939317	-12.078022	24.053950
59313		-1.738951	-12.035035	23.683294
59314		-1.555527	-11.947559	23.241322
59315		-1.329027	-11.790226	22.747844
59316		-1.246302	-11.642932	22.260215
59317		-1.158170	-11.654196	21.805267
59318		-0.998692	-11.655998	21.363898
59319		-0.907782	-11.636146	20.924372
59320		-0.949287	-11.698458	20.511030
59321		-0.944343	-11.748621	20.070515
59322		-0.925550	-11.743797	19.573611
59323		-0.898678	-11.646633	19.039781
59324		-0.846863	-11.543986	18.503561
59325		-0.830392	-11.475346	17.977624
59326		-0.816970	-11.400697	17.413495
59327		-0.772424	-11.319138	16.795517
59328		-0.739214	-11.174979	16.149564
59329		-0.669085	-11.048518	15.490840
59330		-0.594687	-10.948195	14.851510
59331		-0.618105	-10.891362	14.282106
59332		-0.662308	-10.787094	13.804750
59333		-0.731380	-10.692611	13.414431
59334		-0.799319	-10.580181	13.064976
59335		-0.952550	-10.341600	12.777145
59336		-1.083565	-10.151875	12.580144
59337		-1.171769	-10.045478	12.446606
59338		-1.252562	-10.011617	12.385678
59339		-1.332829	-9.980927	12.387858
59340		-1.337063	-9.990568	12.407275
59341		-1.265895	-10.086864	12.358467
59342		-1.224204	-10.147648	12.280850
59343		-1.294610	-10.044817	12.165077
59344		-1.425112	-9.948440	12.023987
59345		-1.507269	-9.868501	11.890731
59346		-1.592092	-9.684717	11.771997
59347		-1.708506	-9.465963	11.704540
59348		-1.773297	-9.352687	11.721133
59349		-1.804248	-9.308540	11.801918
59350		-1.823499	-9.261066	11.882605
59351		-1.850216	-9.218000	11.958375
59352		-1.834007	-9.186587	12.024822
59353		-1.829364	-9.167124	12.074404
59354		-1.867851	-9.122559	12.103088
59355		-1.911955	-9.061542	12.102994
59356		-1.922168	-8.952588	12.080347
59357		-1.926360	-8.894845	12.043099
59358		-1.905490	-8.863197	12.017521
59359		-1.916173	-8.828775	11.990364
59360		-1.951563	-8.774359	11.947037
59361		-1.999386	-8.797124	11.895790
59362		-2.023700	-8.870194	11.855071
59363		-1.995387	-8.857031	11.793078
59364		-1.972042	-8.793452	11.724658
59365		-1.977806	-8.781077	11.678914
59366		-1.980344	-8.809940	11.657276
59367		-2.005308	-8.853815	11.642590
59368		-2.044454	-8.873543	11.632714
59369		-2.065158	-8.936732	11.622940
59370		-2.054296	-9.018493	11.615941
59371		-2.046717	-9.032695	11.605642
59372		-2.055476	-9.016444	11.592904
59373		-2.012575	-9.030013	11.576244
59374		-1.985645	-9.078750	11.552162
59375		-1.971518	-9.122158	11.516179
59376		-1.974432	-9.109496	11.468265
59377		-1.989816	-9.109040	11.433568
59378		-1.976261	-9.118480	11.417309
59379		-1.962386	-9.134304	11.420314
59380		-1.969275	-9.158765	11.434017
59381		-1.972926	-9.162702	11.434496
59382		-1.973388	-9.132536	11.415377
59383		-1.980698	-9.094212	11.393646
59384		-1.992629	-9.097260	11.395048
59385		-1.999718	-9.129230	11.405136
59386		-2.010891	-9.154354	11.423465
59387		-2.011984	-9.153935	11.434030
59388		-2.028269	-9.130846	11.433721
59389		-2.058669	-9.112896	11.424806
59390		-2.090055	-9.105901	11.417572
59391		-2.093141	-9.107102	11.413858
59392		-2.070782	-9.113715	11.415618
59393		-2.061973	-9.130873	11.421540
59394		-2.039964	-9.153975	11.424263
59395		-2.041323	-9.150641	11.407672
59396		-2.054805	-9.160036	11.385676
59397		-2.071777	-9.166418	11.357998
59398		-2.065949	-9.173274	11.330772
59399		-2.059766	-9.197551	11.333328
59400		-2.050277	-9.231425	11.347921
59401		-2.043555	-9.242838	11.360740
59402		-2.004570	-9.268534	11.370161
59403		-1.921865	-9.302359	11.379775
59404		-1.890293	-9.275955	11.393616
59405		-1.889060	-9.265547	11.435467
59406		-1.868699	-9.354002	11.491024
59407		-1.821128	-9.420458	11.533392
59408		-1.808877	-9.414042	11.566090
59409		-1.717914	-9.372989	11.633535
59410		-1.578481	-9.319159	11.748642
59411		-1.450559	-9.335428	11.920108
59412		-1.313893	-9.383462	12.149341
59413		-1.175279	-9.458655	12.409386
59414		-1.048208	-9.493286	12.667565
59415		-0.895897	-9.489757	12.917539
59416		-0.750643	-9.519923	13.173145
59417		-0.586822	-9.582374	13.421512
59418		-0.448979	-9.619723	13.644251
59419		-0.361813	-9.590057	13.853541
59420		-0.320121	-9.563987	14.054133
59421		-0.229016	-9.590826	14.259778
59422		-0.159801	-9.617691	14.484566
59423		-0.140320	-9.598961	14.730365
59424		-0.127913	-9.545050	14.978884
59425		-0.118702	-9.515383	15.295572
59426		-0.113163	-9.587659	15.698686
59427		-0.101359	-9.679536	16.124868
59428		-0.092011	-9.735242	16.532730
59429		-0.120301	-9.790032	16.962003
59430		-0.160066	-9.861567	17.417356
59431		-0.254996	-9.958185	17.896056
59432		-0.433926	-10.044313	18.382367
59433		-0.556950	-10.110452	18.869864
59434		-0.668424	-10.169624	19.339241
59435		-0.725928	-10.254810	19.828951
59436		-0.786198	-10.514352	20.390907
59437		-0.813087	-10.674749	20.926100
59438		-0.967271	-10.803373	21.385627
59439		-1.189770	-10.888001	21.809624
59440		-1.339042	-10.972650	22.202685
59441		-1.487704	-11.073346	22.577799
59442		-1.670612	-11.166998	22.924847
59443		-1.969885	-11.270711	23.265062
59444		-2.248329	-11.389690	23.616420
59445		-2.520785	-11.533610	23.989195
59446		-2.756099	-11.637027	24.359357
59447		-2.901742	-11.774849	24.697429
59448		-3.021653	-11.868560	25.007291
59449		-3.181084	-12.036645	25.306670
59450		-3.376736	-12.201909	25.585293
59451		-3.504503	-12.292308	25.788393
59452		-3.579322	-12.351988	25.937410
59453		-3.662406	-12.414832	26.061950
59454		-3.714680	-12.511836	26.169796
59455		-3.702320	-12.594533	26.231962
59456		-3.689796	-12.695266	26.209576
59457		-3.714271	-12.817737	26.129124
59458		-3.718540	-12.864621	26.012001
59459		-3.721862	-12.840085	25.860861
59460		-3.741546	-12.829537	25.728550
59461		-3.747487	-12.878388	25.648849
59462		-3.742346	-12.915598	25.599051
59463		-3.736876	-12.939357	25.569667
59464		-3.740978	-12.960907	25.564789
59465		-3.754815	-12.991029	25.561826
59466		-3.768620	-13.017017	25.583219
59467		-3.792559	-13.039082	25.611151
59468		-3.798322	-13.033770	25.635737
59469		-3.792720	-13.051293	25.646958
59470		-3.794394	-13.084626	25.646885
59471		-3.805219	-13.071912	25.627539
59472		-3.822536	-13.017371	25.600007
59473		-3.843505	-12.975243	25.577699
59474		-3.867955	-12.979550	25.582151
59475		-3.871882	-12.984398	25.598928
59476		-3.883367	-12.973700	25.605773
59477		-3.888428	-12.927047	25.597720
59478		-3.883934	-12.903359	25.602799
59479		-3.900112	-12.924757	25.636666
59480		-3.909435	-12.942868	25.675043
59481		-3.916407	-12.932406	25.701915
59482		-3.947976	-12.918531	25.731846
59483		-3.961652	-12.898833	25.777652
59484		-3.965188	-12.913487	25.829947
59485		-3.952514	-12.969740	25.877732
59486		-3.942908	-13.009653	25.899091
59487		-3.950519	-13.017068	25.878689
59488		-3.977339	-13.016377	25.850083
59489		-4.007840	-13.038103	25.824885
59490		-4.019639	-13.076455	25.819552
59491		-4.029527	-13.120899	25.823272
59492		-4.040547	-13.172826	25.826735
59493		-4.043148	-13.189391	25.822502
59494		-4.049120	-13.190891	25.816712
59495		-4.053135	-13.190638	25.807276
59496		-4.054974	-13.178478	25.798725
59497		-4.046394	-13.169863	25.803397
59498		-4.033948	-13.175455	25.819104
59499		-4.036851	-13.207228	25.832040
59500		-4.037232	-13.214065	25.842455
59501		-4.047954	-13.214561	25.850580
59502		-4.061179	-13.232468	25.861080
59503		-4.066414	-13.282779	25.881971
59504		-4.074585	-13.317624	25.894503
59505		-4.091819	-13.316731	25.881611
59506		-4.107819	-13.328265	25.874142
59507		-4.079440	-13.326038	25.858130
59508		-4.034511	-13.310920	25.817090
59509		-4.010159	-13.331378	25.772366
59510		-3.991672	-13.365989	25.735013
59511		-3.943129	-13.397994	25.662555
59512		-3.922342	-13.447571	25.551885
59513		-3.883262	-13.506382	25.431742
59514		-3.855982	-13.587993	25.289048
59515		-3.790690	-13.634175	25.116289
59516		-3.713149	-13.596431	24.891178
59517		-3.664207	-13.560655	24.643331
59518		-3.543640	-13.496475	24.393110
59519		-3.380677	-13.496319	24.132270
59520		-3.204347	-13.445015	23.850798
59521		-3.012503	-13.329206	23.544219
59522		-2.935164	-13.252067	23.249215
59523		-2.856296	-13.202704	22.986939
59524		-2.771436	-13.169005	22.735802
59525		-2.642023	-13.124868	22.474373
59526		-2.519253	-13.058493	22.192167
59527		-2.407483	-12.908590	21.889232
59528		-2.347336	-12.765918	21.599896
59529		-2.231117	-12.633842	21.317553
59530		-2.111157	-12.486661	21.023684
59531		-2.008865	-12.365465	20.730621
59532		-1.869814	-12.202729	20.457597
59533		-1.775300	-12.016284	20.191419
59534		-1.663957	-11.888180	19.934456
59535		-1.578919	-11.837744	19.679578
59536		-1.528273	-11.765042	19.430552
59537		-1.498760	-11.724385	19.185480
59538		-1.394397	-11.674964	18.948275
59539		-1.290524	-11.511887	18.687666
59540		-1.241350	-11.332113	18.434507
59541		-1.122098	-11.148764	18.168789
59542		-1.024842	-10.979162	17.919338
59543		-0.958615	-10.856939	17.716798
59544		-0.833865	-10.717842	17.546120
59545		-0.724767	-10.628244	17.361008
59546		-0.665147	-10.606347	17.196590
59547		-0.671257	-10.618421	17.082725
59548		-0.602197	-10.553876	16.976979
59549		-0.506679	-10.433381	16.818538
59550		-0.475050	-10.356820	16.622539
59551		-0.470400	-10.232657	16.420472
59552		-0.518865	-10.102938	16.250184
59553		-0.561544	-10.057524	16.091532
59554		-0.599369	-10.079057	15.898913
59555		-0.621267	-10.029127	15.677096
59556		-0.641991	-9.913964	15.447562
59557		-0.722273	-9.835774	15.233313
59558		-0.857473	-9.760438	15.043937
59559		-0.995851	-9.799598	14.877342
59560		-1.050478	-9.840333	14.695318
59561		-1.098548	-9.808578	14.513493
59562		-1.155626	-9.728556	14.366723
59563		-1.189783	-9.625412	14.270501
59564		-1.180097	-9.551786	14.247608
59565		-1.160654	-9.531415	14.289497
59566		-1.141281	-9.547223	14.356783
59567		-1.129592	-9.569320	14.412683
59568		-1.145146	-9.590440	14.449930
59569		-1.208255	-9.611659	14.473055
59570		-1.281210	-9.616529	14.472951
59571		-1.357429	-9.638687	14.453785
59572		-1.458570	-9.668023	14.440806
59573		-1.558676	-9.720683	14.427750
59574		-1.661734	-9.752121	14.388261
59575		-1.779410	-9.744395	14.324139
59576		-1.868440	-9.729949	14.259621
59577		-1.944940	-9.733467	14.207340
59578		-1.999958	-9.801593	14.169599
59579		-2.044616	-9.895990	14.142837
59580		-2.071497	-9.956143	14.098409
59581		-2.122812	-9.970360	14.038896
59582		-2.202520	-10.022373	13.995092
59583		-2.267367	-10.107835	13.971077
59584		-2.287864	-10.196389	13.955317
59585		-2.296219	-10.264961	13.932238
59586		-2.346012	-10.324984	13.917815
59587		-2.401837	-10.371700	13.901679
59588		-2.454534	-10.422639	13.876027
59589		-2.509717	-10.522422	13.860456
59590		-2.561805	-10.602321	13.845304
59591		-2.616907	-10.641506	13.821190
59592		-2.690992	-10.680441	13.802165
59593		-2.739236	-10.726947	13.803251
59594		-2.763473	-10.794602	13.819868
59595		-2.772753	-10.885492	13.846956
59596		-2.790863	-10.960153	13.865908
59597		-2.816191	-10.997269	13.859432
59598		-2.844877	-10.997741	13.833123
59599		-2.868057	-10.991483	13.803573
59600		-2.906008	-11.020855	13.794266
59601		-2.921707	-11.068332	13.798950
59602		-2.928628	-11.105786	13.793016
59603		-2.942317	-11.135623	13.785958
59604		-2.952526	-11.153187	13.779111
59605		-2.955348	-11.185919	13.772450
59606		-2.952889	-11.237492	13.778631
59607		-2.965774	-11.281708	13.772434
59608		-2.974225	-11.322690	13.753970
59609		-2.985255	-11.354999	13.741235
59610		-2.981616	-11.368334	13.730138
59611		-2.976609	-11.372748	13.719170
59612		-2.974479	-11.380250	13.717731
59613		-2.988869	-11.377169	13.718408
59614		-2.997849	-11.382483	13.715766
59615		-2.995254	-11.378734	13.711491
59616		-2.981526	-11.330832	13.688150
59617		-2.980220	-11.292479	13.680261
59618		-2.956693	-11.284717	13.693922
59619		-2.930497	-11.296276	13.706824
59620		-2.904549	-11.301162	13.707687
59621		-2.881432	-11.264507	13.685495
59622		-2.873826	-11.202879	13.646963
59623		-2.878063	-11.163601	13.614164
59624		-2.858921	-11.125427	13.585082
59625		-2.836394	-11.072960	13.559150
59626		-2.794763	-10.998765	13.519641
59627		-2.723034	-10.962122	13.497810
59628		-2.647566	-10.929206	13.495635
59629		-2.547318	-10.877071	13.496976
59630		-2.427317	-10.836020	13.487532
59631		-2.327547	-10.789864	13.462495
59632		-2.257401	-10.717900	13.434033
59633		-2.161776	-10.718922	13.433631
59634		-2.046848	-10.717057	13.429083
59635		-1.929371	-10.726549	13.411872
59636		-1.803247	-10.699116	13.402917
59637		-1.715487	-10.623763	13.435658
59638		-1.615360	-10.583375	13.529251
59639		-1.479393	-10.567975	13.695684
59640		-1.329116	-10.579781	13.894389
59641		-1.165607	-10.578113	14.111409
59642		-1.013323	-10.583326	14.342860
59643		-0.855180	-10.560636	14.570498
59644		-0.665545	-10.534081	14.789050
59645		-0.460922	-10.525930	15.002647
59646		-0.336246	-10.485770	15.221541
59647		-0.193577	-10.507696	15.461244
59648		-0.059224	-10.540000	15.689748
59649		0.096081	-10.582687	15.906253
59650		0.296503	-10.655675	16.085634
59651		0.486251	-10.669936	16.204062
59652		0.683659	-10.675899	16.304597
59653		0.847009	-10.698793	16.405168
59654		0.931678	-10.734046	16.557953
59655		0.968436	-10.742319	16.766305
59656		0.994097	-10.716490	17.012144
59657		0.999652	-10.657744	17.292250
59658		0.977696	-10.607245	17.635166
59659		0.926506	-10.677010	18.059012
59660		0.872792	-10.784816	18.542475
59661		0.794166	-10.879787	19.003921
59662		0.691284	-10.939599	19.447891
59663		0.482369	-10.996909	19.914034
59664		0.312696	-11.006210	20.369217
59665		0.149803	-10.981409	20.799026
59666		-0.076329	-11.031713	21.219571
59667		-0.317873	-11.073372	21.646485
59668		-0.507602	-11.091493	22.035757
59669		-0.674257	-11.156429	22.395155
59670		-0.919114	-11.267248	22.721442
59671		-1.128907	-11.300552	22.991327
59672		-1.379304	-11.296877	23.231511
59673		-1.635100	-11.346352	23.497709
59674		-1.893902	-11.430576	23.792954
59675		-2.097301	-11.464171	24.089034
59676		-2.238464	-11.499745	24.349111
59677		-2.360902	-11.570517	24.569390
59678		-2.549449	-11.656304	24.795630
59679		-2.683351	-11.721450	25.000055
59680		-2.814156	-11.744924	25.159943
59681		-2.951102	-11.762793	25.296272
59682		-3.124135	-11.751392	25.421135
59683		-3.381538	-11.835742	25.580263
59684		-3.570860	-11.944248	25.755192
59685		-3.740363	-12.077386	25.914395
59686		-3.820460	-12.201962	26.055928
59687		-3.853298	-12.283945	26.163570
59688		-3.848756	-12.384977	26.209950
59689		-3.834091	-12.448325	26.178229
59690		-3.820734	-12.474536	26.115405
59691		-3.834161	-12.496805	26.045174
59692		-3.855514	-12.512172	25.983030
59693		-3.877773	-12.535012	25.935301
59694		-3.888443	-12.551099	25.908841
59695		-3.899193	-12.593906	25.884437
59696		-3.910909	-12.627358	25.859627
59697		-3.921956	-12.619702	25.827255
59698		-3.931603	-12.590485	25.797204
59699		-3.923698	-12.548415	25.786561
59700		-3.896472	-12.526446	25.792623
59701		-3.873746	-12.529819	25.813851
59702		-3.860264	-12.519838	25.824294
59703		-3.847590	-12.483361	25.825152
59704		-3.839497	-12.463998	25.823697
59705		-3.827831	-12.467964	25.832493
59706		-3.816915	-12.491588	25.839782
59707		-3.808704	-12.497723	25.833461
59708		-3.797278	-12.471195	25.826370
59709		-3.787968	-12.471462	25.833286
59710		-3.780330	-12.484712	25.852364
59711		-3.749821	-12.507060	25.866224
59712		-3.713313	-12.510502	25.872009
59713		-3.667762	-12.520897	25.870150
59714		-3.651855	-12.535852	25.875759
59715		-3.660043	-12.517612	25.889563
59716		-3.662312	-12.477468	25.922821
59717		-3.641430	-12.444512	25.987945
59718		-3.598119	-12.423946	26.055188
59719		-3.556075	-12.422785	26.124112
59720		-3.510368	-12.440245	26.170050
59721		-3.472920	-12.461213	26.180182
59722		-3.482162	-12.472061	26.163405
59723		-3.495510	-12.473559	26.133259
59724		-3.480955	-12.456597	26.098322
59725		-3.469416	-12.445159	26.063307
59726		-3.452512	-12.438902	26.038901
59727		-3.443096	-12.451024	26.028649
59728		-3.436048	-12.456197	26.017478
59729		-3.418401	-12.455376	26.005908
59730		-3.415081	-12.458224	26.000346
59731		-3.409257	-12.456806	25.992651
59732		-3.399950	-12.434243	25.983647
59733		-3.405682	-12.447033	25.976969
59734		-3.397886	-12.474860	25.976799
59735		-3.395767	-12.476087	25.975545
59736		-3.413330	-12.485068	25.975321
59737		-3.425171	-12.490985	25.983572
59738		-3.417067	-12.476376	25.994631
59739		-3.418999	-12.487239	26.008032
59740		-3.433708	-12.529641	26.016898
59741		-3.439254	-12.532867	26.002949
59742		-3.455554	-12.514651	25.985504
59743		-3.484546	-12.534483	25.996752
59744		-3.483684	-12.559369	26.009595
59745		-3.477189	-12.585939	26.017816
59746		-3.492511	-12.630558	26.038871
59747		-3.510342	-12.677559	26.068963
59748		-3.513840	-12.692869	26.082098
59749		-3.505967	-12.690332	26.074170
59750		-3.488632	-12.702209	26.052632
59751		-3.463196	-12.739026	26.004114
59752		-3.421480	-12.776168	25.928571
59753		-3.368875	-12.803434	25.816388
59754		-3.319716	-12.834872	25.670494
59755		-3.277102	-12.836130	25.507772
59756		-3.252852	-12.870001	25.331367
59757		-3.233415	-12.946422	25.149013
59758		-3.148636	-12.992673	24.950743
59759		-3.049328	-13.030641	24.725423
59760		-2.922993	-13.002279	24.478471
59761		-2.826094	-12.944561	24.244449
59762		-2.649064	-12.876286	24.011043
59763		-2.423939	-12.790858	23.749956
59764		-2.268302	-12.731509	23.484050
59765		-2.005517	-12.658702	23.187665
59766		-1.821353	-12.567914	22.860060
59767		-1.708290	-12.556325	22.568200
59768		-1.528959	-12.500549	22.295686
59769		-1.441175	-12.419513	22.021538
59770		-1.349194	-12.347280	21.735116
59771		-1.165460	-12.236030	21.420778
59772		-0.981059	-12.049234	21.090859
59773		-0.853705	-11.868226	20.770982
59774		-0.748155	-11.691462	20.517025
59775		-0.478981	-11.464766	20.241851
59776		-0.265938	-11.347694	19.957103
59777		-0.076210	-11.230718	19.689656
59778		0.158161	-11.011817	19.409818
59779		0.371516	-10.781525	19.051992
59780		0.465200	-10.676709	18.702770
59781		0.629740	-10.612254	18.378098
59782		0.838463	-10.500938	18.055170
59783		1.068304	-10.298814	17.722043
59784		1.228500	-10.080218	17.388277
59785		1.232808	-10.081038	17.083817
59786		1.560941	-10.099796	16.698903
59787		1.850288	-9.952898	16.276840
59788		1.967065	-9.702764	15.871771
59789		2.002851	-9.435066	15.567209
59790		2.006230	-9.271679	15.374880
59791		2.057813	-9.117052	15.209410
59792		2.075986	-8.921983	15.040035
59793		2.056444	-8.782037	14.937068
59794		2.059485	-8.722884	14.898371
59795		2.053073	-8.696568	14.881154
59796		2.047715	-8.566187	14.834187
59797		2.025210	-8.387456	14.780368
59798		1.943696	-8.295525	14.747503
59799		1.875969	-8.314018	14.715272
59800		1.791958	-8.343378	14.678616
59801		1.722850	-8.321277	14.607909
59802		1.713660	-8.229804	14.494779
59803		1.720167	-8.169408	14.391288
59804		1.719911	-8.169432	14.325341
59805		1.709506	-8.186994	14.285201
59806		1.709958	-8.200243	14.261450
59807		1.695000	-8.218191	14.256868
59808		1.652485	-8.217051	14.263407
59809		1.600391	-8.211497	14.273846
59810		1.551343	-8.237054	14.276022
59811		1.491522	-8.296955	14.258234
59812		1.446938	-8.330750	14.213315
59813		1.401716	-8.348671	14.138962
59814		1.339413	-8.367552	14.023719
59815		1.248217	-8.373864	13.893466
59816		1.150678	-8.412729	13.734487
59817		1.076363	-8.522238	13.590664
59818		0.986182	-8.598734	13.449049
59819		0.871472	-8.640072	13.298785
59820		0.749881	-8.609516	13.148981
59821		0.635253	-8.620539	13.006817
59822		0.548287	-8.682410	12.906927
59823		0.469097	-8.728295	12.835048
59824		0.383010	-8.756001	12.774811
59825		0.301104	-8.859111	12.743062
59826		0.194786	-8.976564	12.727999
59827		0.109579	-9.107197	12.722960
59828		0.033837	-9.206224	12.724168
59829		-0.056378	-9.266219	12.728136
59830		-0.149012	-9.347124	12.740495
59831		-0.220738	-9.448030	12.765366
59832		-0.284993	-9.527035	12.796438
59833		-0.354371	-9.596404	12.822444
59834		-0.418473	-9.679875	12.850119
59835		-0.480076	-9.780429	12.874214
59836		-0.522751	-9.879976	12.883985
59837		-0.571686	-9.963642	12.873693
59838		-0.617796	-10.029519	12.857538
59839		-0.662936	-10.058564	12.836748
59840		-0.708152	-10.073950	12.823110
59841		-0.735445	-10.118956	12.825364
59842		-0.739928	-10.184661	12.835448
59843		-0.732802	-10.232712	12.835101
59844		-0.726849	-10.258182	12.828094
59845		-0.720165	-10.296280	12.823049
59846		-0.726411	-10.337521	12.814133
59847		-0.736131	-10.368229	12.806300
59848		-0.761989	-10.374735	12.786254
59849		-0.783961	-10.399724	12.771290
59850		-0.806233	-10.433348	12.762335
59851		-0.810255	-10.471377	12.763325
59852		-0.804316	-10.472095	12.755954
59853		-0.823031	-10.458376	12.733529
59854		-0.834124	-10.466157	12.716101
59855		-0.835440	-10.456457	12.685632
59856		-0.809881	-10.378574	12.639276
59857		-0.775410	-10.342132	12.611839
59858		-0.748324	-10.356935	12.602969
59859		-0.750226	-10.345953	12.600326
59860		-0.784090	-10.341364	12.603006
59861		-0.813684	-10.353497	12.621798
59862		-0.820546	-10.362581	12.635456
59863		-0.779483	-10.428983	12.643366
59864		-0.739768	-10.459882	12.637327
59865		-0.730561	-10.446200	12.633114
59866		-0.711374	-10.385166	12.630476
59867		-0.680883	-10.317802	12.672524
59868		-0.631467	-10.300145	12.789900
59869		-0.527800	-10.307149	12.936300
59870		-0.376456	-10.327428	13.100066
59871		-0.248392	-10.369215	13.273333
59872		-0.150560	-10.415835	13.465016
59873		-0.055043	-10.461374	13.664460
59874		0.055831	-10.437289	13.830886
59875		0.178844	-10.333908	13.993629
59876		0.343279	-10.264413	14.175032
59877		0.460206	-10.229820	14.384514
59878		0.571188	-10.266425	14.613166
59879		0.679906	-10.253298	14.809889
59880		0.788890	-10.202988	15.001749
59881		0.947257	-10.197987	15.195389
59882		1.018824	-10.263759	15.403057
59883		1.074036	-10.356780	15.639593
59884		1.177057	-10.395956	15.834481
59885		1.354764	-10.355455	15.948036
59886		1.546107	-10.300441	16.075937
59887		1.701702	-10.309705	16.260491
59888		1.741575	-10.300353	16.497305
59889		1.752846	-10.295907	16.746231
59890		1.744310	-10.308179	16.994177
59891		1.727594	-10.356659	17.248155
59892		1.721683	-10.409952	17.524478
59893		1.736291	-10.420765	17.814445
59894		1.663909	-10.390173	18.116831
59895		1.557160	-10.381704	18.469394
59896		1.298645	-10.388445	18.874546
59897		1.096871	-10.392568	19.304776
59898		0.995954	-10.410920	19.723047
59899		0.820244	-10.476475	20.137221
59900		0.529121	-10.564440	20.582695
59901		0.299258	-10.665778	21.052285
59902		0.132395	-10.684961	21.459767
59903		-0.060932	-10.735050	21.841929
59904		-0.229275	-10.825435	22.267339
59905		-0.377666	-10.902981	22.672854
59906		-0.586401	-10.990359	23.045641
59907		-0.859334	-11.023629	23.410587
59908		-1.107916	-11.065130	23.769149
59909		-1.365439	-11.174548	24.096628
59910		-1.602681	-11.305893	24.390149
59911		-1.842641	-11.462679	24.632847
59912		-2.102560	-11.599431	24.861558
59913		-2.248656	-11.716867	25.080846
59914		-2.364836	-11.785249	25.256166
59915		-2.471025	-11.878841	25.386161
59916		-2.554065	-12.013171	25.486064
59917		-2.644762	-12.155951	25.541237
59918		-2.745056	-12.254039	25.556605
59919		-2.843296	-12.343311	25.571437
59920		-2.878090	-12.404315	25.562091
59921		-2.910537	-12.443230	25.521340
59922		-2.938547	-12.478377	25.462475
59923		-2.981990	-12.517671	25.396633
59924		-3.030662	-12.541120	25.342008
59925		-3.062972	-12.539301	25.302688
59926		-3.109334	-12.560767	25.287472
59927		-3.117873	-12.589049	25.302017
59928		-3.136804	-12.623009	25.326583
59929		-3.152676	-12.637177	25.346530
59930		-3.193450	-12.653477	25.363564
59931		-3.214980	-12.666352	25.381675
59932		-3.235883	-12.650528	25.389175
59933		-3.274225	-12.644379	25.396582
59934		-3.299871	-12.627351	25.426407
59935		-3.307001	-12.599772	25.464199
59936		-3.346567	-12.614367	25.509198
59937		-3.409765	-12.684795	25.559940
59938		-3.465098	-12.694234	25.595142
59939		-3.516827	-12.677864	25.604742
59940		-3.526798	-12.698448	25.613361
59941		-3.534894	-12.762070	25.630034
59942		-3.551773	-12.821954	25.631955
59943		-3.563908	-12.827010	25.625011
59944		-3.551806	-12.783662	25.607912
59945		-3.557031	-12.769168	25.612741
59946		-3.584243	-12.788557	25.633173
59947		-3.602855	-12.785468	25.646052
59948		-3.608624	-12.744400	25.644223
59949		-3.631272	-12.741976	25.655482
59950		-3.675615	-12.751627	25.683218
59951		-3.728943	-12.739588	25.737512
59952		-3.747736	-12.716082	25.806991
59953		-3.735415	-12.688678	25.874214
59954		-3.709700	-12.655407	25.930013
59955		-3.701477	-12.657840	25.969171
59956		-3.695686	-12.676896	25.989829
59957		-3.688803	-12.697214	25.989349
59958		-3.686362	-12.692819	25.957859
59959		-3.672665	-12.662522	25.912305
59960		-3.647261	-12.647120	25.879357
59961		-3.628010	-12.655135	25.850553
59962		-3.612056	-12.664959	25.832929
59963		-3.605312	-12.664833	25.821218
59964		-3.581353	-12.671454	25.794337
59965		-3.540609	-12.677399	25.777858
59966		-3.508798	-12.698120	25.769526
59967		-3.470373	-12.700092	25.760372
59968		-3.425467	-12.670495	25.744329
59969		-3.374183	-12.645122	25.726203
59970		-3.338399	-12.645926	25.708712
59971		-3.308284	-12.654590	25.699155
59972		-3.272964	-12.651977	25.688880
59973		-3.259548	-12.664643	25.677183
59974		-3.213455	-12.676698	25.664874
59975		-3.146032	-12.659245	25.643399
59976		-3.088695	-12.628311	25.597824
59977		-3.031946	-12.626214	25.554223
59978		-2.955386	-12.657067	25.505969
59979		-2.867474	-12.679994	25.416061
59980		-2.816857	-12.724533	25.287254
59981		-2.752051	-12.773788	25.135334
59982		-2.658459	-12.756966	24.929636
59983		-2.592414	-12.717806	24.703915
59984		-2.498720	-12.676233	24.497603
59985		-2.355885	-12.622168	24.293774
59986		-2.235282	-12.589052	24.075786
59987		-2.208549	-12.639101	23.881760
59988		-2.074981	-12.683772	23.692457
59989		-1.921630	-12.703605	23.475159
59990		-1.823613	-12.731019	23.215787
59991		-1.680398	-12.718305	22.929880
59992		-1.592133	-12.710235	22.643524
59993		-1.501535	-12.686673	22.365179
59994		-1.482580	-12.670452	22.091568
59995		-1.452962	-12.671404	21.822593
59996		-1.362487	-12.621144	21.545771
59997		-1.297569	-12.549334	21.257011
59998		-1.218862	-12.501101	20.988351
59999		-1.133019	-12.425816	20.739135
60000		-1.071357	-12.337397	20.485459
60001		-1.073811	-12.236682	20.246979
60002		-1.031994	-12.128058	20.031316
60003		-0.950575	-12.019429	19.834062
60004		-0.893466	-11.951538	19.629938
60005		-0.796171	-11.903637	19.424519
60006		-0.747920	-11.877929	19.220507
60007		-0.683288	-11.817401	19.006780
60008		-0.607486	-11.724675	18.782908
60009		-0.517312	-11.589815	18.520944
60010		-0.466110	-11.464244	18.224292
60011		-0.478864	-11.411205	17.956140
60012		-0.462099	-11.384072	17.722826
60013		-0.365435	-11.350945	17.454491
60014		-0.300642	-11.345112	17.148937
60015		-0.259232	-11.344514	16.847701
60016		-0.187817	-11.280070	16.535209
60017		-0.146191	-11.172454	16.197876
60018		-0.092405	-11.034580	15.866645
60019		-0.036726	-10.883141	15.562051
60020		-0.007492	-10.796224	15.310399
60021		0.058470	-10.755624	15.106938
60022		0.078192	-10.704891	14.917231
60023		0.059126	-10.681588	14.773274
60024		0.025774	-10.645539	14.682376
60025		0.024028	-10.585921	14.591581
60026		-0.008120	-10.510127	14.518543
60027		-0.119551	-10.112193	14.609207
60028		-0.210494	-9.781714	14.811543
60029		-0.231369	-9.954870	14.996103
60030		-0.231985	-10.093642	15.041802
60031		-0.373677	-10.156130	15.003916
60032		-0.539729	-10.085389	14.915860
60033		-0.673362	-9.979821	14.780657
60034		-0.776823	-9.920771	14.675447
60035		-0.747335	-9.969456	14.637607
60036		-0.697817	-10.071948	14.646925
60037		-0.659013	-10.165913	14.664648
60038		-0.610588	-10.199654	14.646294
60039		-0.579394	-10.172228	14.574611
60040		-0.611485	-10.124228	14.495427
60041		-0.649938	-10.100848	14.447219
60042		-0.692712	-10.117297	14.431278
60043		-0.730452	-10.132647	14.417557
60044		-0.780257	-10.170468	14.380699
60045		-0.806665	-10.218215	14.309691
60046		-0.846939	-10.200232	14.209452
60047		-0.918597	-10.113131	14.101822
60048		-0.939795	-10.093467	13.971923
60049		-0.964967	-10.110441	13.834928
60050		-1.011984	-10.138254	13.700765
60051		-1.100128	-10.083560	13.574681
60052		-1.183720	-10.021290	13.444586
60053		-1.222626	-10.062234	13.325187
60054		-1.275099	-10.084536	13.225529
60055		-1.361077	-10.092588	13.132422
60056		-1.426965	-10.118554	13.031713
60057		-1.471178	-10.182946	12.930625
60058		-1.530502	-10.251411	12.845519
60059		-1.609498	-10.316799	12.776526
60060		-1.636176	-10.382366	12.700374
60061		-1.637041	-10.441286	12.621106
60062		-1.634279	-10.487427	12.558197
60063		-1.656699	-10.517581	12.514816
60064		-1.686997	-10.541031	12.489281
60065		-1.688363	-10.566591	12.459301
60066		-1.703420	-10.588570	12.437824
60067		-1.725902	-10.583395	12.416011
60068		-1.738815	-10.576891	12.401183
60069		-1.717369	-10.622381	12.400771
60070		-1.692795	-10.691709	12.409510
60071		-1.699309	-10.721023	12.405069
60072		-1.707661	-10.727838	12.389668
60073		-1.704646	-10.718072	12.364723
60074		-1.718824	-10.699879	12.346481
60075		-1.733905	-10.682407	12.334595
60076		-1.746409	-10.691173	12.328705
60077		-1.755565	-10.707567	12.320751
60078		-1.767857	-10.717222	12.311603
60079		-1.783863	-10.721807	12.305209
60080		-1.789405	-10.746275	12.304073
60081		-1.787778	-10.783265	12.300518
60082		-1.819228	-10.815953	12.293982
60083		-1.841324	-10.870337	12.287236
60084		-1.836157	-10.916229	12.281026
60085		-1.838936	-10.933459	12.278904
60086		-1.847518	-10.929418	12.274786
60087		-1.853804	-10.926883	12.268932
60088		-1.843836	-10.965278	12.270331
60089		-1.839421	-11.001844	12.269135
60090		-1.834234	-11.005554	12.249774
60091		-1.834921	-10.997558	12.229703
60092		-1.831393	-11.010822	12.223644
60093		-1.832897	-10.998429	12.215907
60094		-1.843932	-10.971947	12.209469
60095		-1.832767	-10.972664	12.221752
60096		-1.842759	-10.977819	12.236504
60097		-1.836261	-10.992786	12.245065
60098		-1.786670	-11.038726	12.249864
60099		-1.744605	-11.057653	12.249115
60100		-1.701624	-11.039245	12.237383
60101		-1.663835	-11.030238	12.231000
60102		-1.621760	-11.046779	12.234997
60103		-1.600800	-11.050691	12.232765
60104		-1.604272	-11.074044	12.241815
60105		-1.583878	-11.144752	12.244932
60106		-1.553071	-11.195440	12.235537
60107		-1.535468	-11.186150	12.220982
60108		-1.501374	-11.184284	12.248794
60109		-1.425279	-11.204238	12.302722
60110		-1.363828	-11.205654	12.354624
60111		-1.318556	-11.219125	12.408574
60112		-1.297506	-11.254358	12.484097
60113		-1.254765	-11.291849	12.562700
60114		-1.202850	-11.293541	12.620454
60115		-1.175511	-11.262305	12.657873
60116		-1.162134	-11.253265	12.695442
60117		-1.196508	-11.276051	12.756468
60118		-1.200126	-11.342051	12.835752
60119		-1.172575	-11.423359	12.889292
60120		-1.182025	-11.463061	12.891973
60121		-1.233208	-11.455217	12.848849
60122		-1.288300	-11.429182	12.805570
60123		-1.330003	-11.378902	12.782736
60124		-1.355964	-11.344268	12.777912
60125		-1.331345	-11.353844	12.782488
60126		-1.298005	-11.371676	12.794516
60127		-1.276771	-11.341217	12.791536
60128		-1.241925	-11.334214	12.794075
60129		-1.197997	-11.353554	12.795286
60130		-1.116731	-11.397273	12.797403
60131		-1.059126	-11.377807	12.789385
60132		-1.036254	-11.295847	12.775253
60133		-1.012374	-11.203816	12.790544
60134		-0.932058	-11.165777	12.819557
60135		-0.809232	-11.112668	12.844293
60136		-0.691127	-11.071244	12.877446
60137		-0.633365	-11.113719	12.935036
60138		-0.580449	-11.137619	12.988319
60139		-0.538417	-11.099986	13.016736
60140		-0.517200	-11.113525	13.053779
60141		-0.530932	-11.094424	13.094445
60142		-0.596726	-10.981768	13.170173
60143		-0.517354	-10.895853	13.296847
60144		-0.296951	-10.814051	13.411379
60145		-0.045857	-10.706060	13.538619
60146		0.204895	-10.597575	13.714683
60147		0.414887	-10.509492	13.932990
60148		0.649127	-10.457320	14.207471
60149		0.862977	-10.465802	14.518375
60150		1.056706	-10.430240	14.820165
60151		1.212711	-10.376526	15.112853
60152		1.297074	-10.330073	15.419096
60153		1.388645	-10.281451	15.746092
60154		1.458448	-10.264674	16.076789
60155		1.528133	-10.295548	16.436707
60156		1.519239	-10.312760	16.827375
60157		1.467984	-10.282591	17.243055
60158		1.404851	-10.210989	17.664952
60159		1.287205	-10.153813	18.135571
60160		1.086276	-10.161482	18.674430
60161		0.880569	-10.238747	19.269959
60162		0.678411	-10.304334	19.863625
60163		0.434097	-10.426758	20.448244
60164		0.170082	-10.530984	21.034884
60165		-0.006728	-10.638993	21.585346
60166		-0.218777	-10.706087	22.093209
60167		-0.555085	-10.836329	22.594501
60168		-0.801981	-10.914939	23.077176
60169		-1.026893	-10.983417	23.513649
60170		-1.269331	-11.024326	23.912705
60171		-1.502776	-11.082504	24.290924
60172		-1.660169	-11.137360	24.610061
60173		-1.839267	-11.171593	24.872080
60174		-2.075641	-11.258445	25.119008
60175		-2.296241	-11.318979	25.353237
60176		-2.574423	-11.399008	25.569146
60177		-2.799899	-11.481444	25.784260
60178		-2.918622	-11.629598	25.957693
60179		-3.006536	-11.748736	26.076576
60180		-3.047733	-11.838545	26.164752
60181		-3.053836	-11.882154	26.208433
60182		-3.081726	-11.953937	26.185766
60183		-3.107769	-11.994653	26.128240
60184		-3.134134	-12.022573	26.066332
60185		-3.152468	-12.043650	26.009488
60186		-3.174365	-12.069320	25.974532
60187		-3.201182	-12.103247	25.959290
60188		-3.228278	-12.147184	25.956667
60189		-3.254399	-12.159191	25.962144
60190		-3.279025	-12.160541	25.970322
60191		-3.293371	-12.160532	25.985302
60192		-3.307157	-12.160166	26.006692
60193		-3.330992	-12.148550	26.015023
60194		-3.355848	-12.135537	26.028247
60195		-3.371807	-12.132259	26.043330
60196		-3.390072	-12.141901	26.045179
60197		-3.410632	-12.149260	26.056988
60198		-3.423154	-12.136258	26.073174
60199		-3.433355	-12.144272	26.082100
60200		-3.434192	-12.182327	26.085406
60201		-3.453157	-12.212027	26.094091
60202		-3.462290	-12.223458	26.099992
60203		-3.458902	-12.208400	26.089995
60204		-3.447260	-12.229283	26.109045
60205		-3.396693	-12.257740	26.133335
60206		-3.415778	-12.258843	26.159540
60207		-3.410737	-12.241090	26.177606
60208		-3.413383	-12.218499	26.203636
60209		-3.401609	-12.212941	26.248006
60210		-3.410115	-12.204399	26.307272
60211		-3.407680	-12.190708	26.358036
60212		-3.403988	-12.200090	26.402650
60213		-3.437240	-12.215871	26.448277
60214		-3.455902	-12.202391	26.503000
60215		-3.475281	-12.160350	26.535182
60216		-3.480126	-12.153365	26.559137
60217		-3.465547	-12.163463	26.587099
60218		-3.445492	-12.180410	26.588292
60219		-3.417187	-12.185700	26.560907
60220		-3.391009	-12.181817	26.507110
60221		-3.374310	-12.190210	26.446230
60222		-3.350161	-12.188940	26.402384
60223		-3.321531	-12.189028	26.367469
60224		-3.283137	-12.195255	26.341555
60225		-3.247492	-12.214038	26.308838
60226		-3.218828	-12.240525	26.274670
60227		-3.187383	-12.245295	26.242232
60228		-3.149372	-12.234395	26.209854
60229		-3.119262	-12.218318	26.182988
60230		-3.091104	-12.199455	26.170817
60231		-3.064203	-12.187108	26.162628
60232		-3.044045	-12.171554	26.152760
60233		-2.999411	-12.150016	26.146288
60234		-2.958213	-12.127069	26.131873
60235		-2.941220	-12.133185	26.123119
60236		-2.901888	-12.147392	26.124949
60237		-2.835743	-12.164843	26.111833
60238		-2.748350	-12.185954	26.055630
60239		-2.667666	-12.209984	25.959682
60240		-2.621863	-12.243555	25.854732
60241		-2.575137	-12.239875	25.724195
60242		-2.521997	-12.203034	25.568369
60243		-2.477520	-12.189102	25.414984
60244		-2.401394	-12.182463	25.274802
60245		-2.264838	-12.177021	25.145493
60246		-2.123480	-12.167852	24.989640
60247		-2.021522	-12.177566	24.801135
60248		-1.942143	-12.246892	24.591695
60249		-1.889349	-12.335721	24.356195
60250		-1.827744	-12.396327	24.070353
60251		-1.847903	-12.439248	23.748719
60252		-1.804465	-12.458661	23.404123
60253		-1.703268	-12.455571	23.043172
60254		-1.616624	-12.459803	22.674294
60255		-1.562564	-12.478586	22.319950
60256		-1.495082	-12.543182	22.006006
60257		-1.381191	-12.577526	21.703029
60258		-1.247201	-12.539138	21.386124
60259		-1.140129	-12.521627	21.031880
60260		-1.079900	-12.576049	20.697103
60261		-0.942785	-12.588975	20.359351
60262		-0.832032	-12.591010	20.002176
60263		-0.758083	-12.646164	19.633247
60264		-0.702133	-12.645467	19.231617
60265		-0.645506	-12.588629	18.822050
60266		-0.579743	-12.505702	18.445878
60267		-0.474147	-12.405630	18.109090
60268		-0.375796	-12.364045	17.772758
60269		-0.326908	-12.423344	17.420778
60270		-0.282638	-12.494130	17.081225
60271		-0.272374	-12.543652	16.746600
60272		-0.259116	-12.571031	16.367399
60273		-0.218064	-12.528211	16.003413
60274		-0.232073	-12.462430	15.695453
60275		-0.262169	-12.382101	15.410198
60276		-0.322999	-12.300429	15.155348
60277		-0.338516	-12.241224	14.929994
60278		-0.278164	-12.226688	14.729864
60279		-0.208008	-12.186359	14.558340
60280		-0.203565	-12.113834	14.396018
60281		-0.239686	-12.065617	14.250314
60282		-0.297997	-12.047837	14.117891
60283		-0.374570	-11.950916	13.997603
60284		-0.460018	-11.832629	13.891830
60285		-0.534191	-11.749863	13.821346
60286		-0.613153	-11.728680	13.814923
60287		-0.648626	-11.757030	13.840926
60288		-0.684178	-11.758195	13.852553
60289		-0.738208	-11.711401	13.834777
60290		-0.784885	-11.660337	13.797229
60291		-0.831604	-11.659268	13.766753
60292		-0.851803	-11.643552	13.719819
60293		-0.898993	-11.621970	13.660039
60294		-0.951422	-11.630736	13.622118
60295		-0.978728	-11.629451	13.586128
60296		-0.998187	-11.631429	13.556363
60297		-0.999980	-11.605505	13.534830
60298		-1.005520	-11.577657	13.533337
60299		-0.998958	-11.577831	13.549663
60300		-0.991560	-11.574134	13.560651
60301		-0.985896	-11.576081	13.559686
60302		-0.989947	-11.542738	13.541814
60303		-1.015241	-11.489641	13.506555
60304		-1.038992	-11.456571	13.460899
60305		-1.047503	-11.503553	13.410242
60306		-1.041885	-11.587982	13.330300
60307		-1.066121	-11.594696	13.216739
60308		-1.121841	-11.554455	13.081755
60309		-1.185005	-11.521391	12.940698
60310		-1.242293	-11.469203	12.796715
60311		-1.303311	-11.418675	12.656172
60312		-1.349307	-11.413403	12.542595
60313		-1.381547	-11.447649	12.427086
60314		-1.390842	-11.548899	12.298859
60315		-1.434732	-11.563754	12.151713
60316		-1.501780	-11.491703	11.985190
60317		-1.555594	-11.455687	11.814868
60318		-1.578920	-11.528365	11.672721
60319		-1.651590	-11.565527	11.535043
60320		-1.735922	-11.609913	11.412489
60321		-1.770922	-11.649809	11.298121
60322		-1.781763	-11.687657	11.186268
60323		-1.773742	-11.698300	11.070107
60324		-1.755145	-11.709963	10.945367
60325		-1.777001	-11.713640	10.823990
60326		-1.823466	-11.744841	10.723576
60327		-1.827852	-11.785532	10.657158
60328		-1.826811	-11.802656	10.621938
60329		-1.817500	-11.790815	10.621524
60330		-1.812738	-11.795723	10.669608
60331		-1.777390	-11.848476	10.752735
60332		-1.750619	-11.945695	10.836967
60333		-1.744903	-12.023623	10.903403
60334		-1.754784	-12.033726	10.923241
60335		-1.775163	-11.999328	10.901577
60336		-1.816214	-11.976673	10.876141
60337		-1.854833	-11.979327	10.871998
60338		-1.903283	-12.008516	10.881980
60339		-1.918277	-12.039600	10.880275
60340		-1.947332	-12.047602	10.861645
60341		-1.980263	-12.059750	10.846922
60342		-2.007940	-12.079301	10.836989
60343		-2.024579	-12.118827	10.839227
60344		-2.036463	-12.143893	10.854965
60345		-2.044335	-12.165695	10.872620
60346		-2.055442	-12.174341	10.884497
60347		-2.082135	-12.173659	10.892329
60348		-2.123426	-12.170061	10.896360
60349		-2.160261	-12.190533	10.902263
60350		-2.177409	-12.196825	10.906085
60351		-2.207395	-12.197651	10.914924
60352		-2.226285	-12.213532	10.925987
60353		-2.267563	-12.211409	10.936975
60354		-2.290133	-12.221809	10.946255
60355		-2.302100	-12.203031	10.956083
60356		-2.320353	-12.193328	10.967359
60357		-2.331053	-12.194223	10.974985
60358		-2.342738	-12.218895	10.980197
60359		-2.365769	-12.244384	10.984462
60360		-2.396569	-12.252729	10.973254
60361		-2.424791	-12.260532	10.964159
60362		-2.432327	-12.262552	10.957284
60363		-2.440687	-12.265675	10.957267
60364		-2.444702	-12.273319	10.955859
60365		-2.433831	-12.296018	10.946322
60366		-2.433777	-12.319334	10.937672
60367		-2.430185	-12.339748	10.929779
60368		-2.396325	-12.382733	10.916982
60369		-2.400356	-12.359859	10.886279
60370		-2.415829	-12.330482	10.852925
60371		-2.436940	-12.330880	10.833987
60372		-2.458233	-12.311530	10.818142
60373		-2.470693	-12.287557	10.802515
60374		-2.487151	-12.286776	10.800609
60375		-2.487365	-12.291680	10.801375
60376		-2.482158	-12.300092	10.807073
60377		-2.488248	-12.319666	10.821014
60378		-2.489833	-12.325466	10.829692
60379		-2.494451	-12.298917	10.822744
60380		-2.507232	-12.280749	10.819546
60381		-2.498183	-12.298564	10.825377
60382		-2.492368	-12.322932	10.832496
60383		-2.483530	-12.316977	10.816489
60384		-2.462276	-12.291712	10.781552
60385		-2.438049	-12.260971	10.747095
60386		-2.425309	-12.232092	10.713967
60387		-2.398260	-12.218818	10.693980
60388		-2.359917	-12.238698	10.689611
60389		-2.332666	-12.259327	10.681534
60390		-2.278725	-12.248268	10.668870
60391		-2.194564	-12.204353	10.652832
60392		-2.137042	-12.121612	10.627458
60393		-2.075506	-12.073716	10.616173
60394		-1.980107	-12.093509	10.614068
60395		-1.909295	-12.061990	10.590069
60396		-1.867971	-11.976022	10.554208
60397		-1.841328	-11.911380	10.550415
60398		-1.809929	-11.881818	10.598817
60399		-1.762415	-11.896085	10.699431
60400		-1.686883	-11.916722	10.825681
60401		-1.623250	-11.904306	10.969946
60402		-1.520264	-11.917513	11.161769
60403		-1.315208	-11.939608	11.339557
60404		-1.086835	-11.905772	11.493182
60405		-0.842188	-11.815564	11.629411
60406		-0.587439	-11.712898	11.751529
60407		-0.349287	-11.648598	11.916480
60408		-0.040229	-11.635169	12.109899
60409		0.241647	-11.577650	12.282505
60410		0.451246	-11.504639	12.471578
60411		0.736237	-11.503053	12.685703
60412		0.987837	-11.561890	12.916790
60413		1.219150	-11.605528	13.144042
60414		1.402405	-11.552689	13.362538
60415		1.532915	-11.480579	13.599622
60416		1.657082	-11.471699	13.864994
60417		1.778588	-11.502994	14.123918
60418		1.841176	-11.493647	14.396547
60419		1.907236	-11.446260	14.671256
60420		1.966069	-11.413532	14.959411
60421		1.953213	-11.443656	15.297410
60422		1.866065	-11.540067	15.683737
60423		1.792089	-11.530984	16.023981
60424		1.669876	-11.489664	16.373102
60425		1.537014	-11.462866	16.759564
60426		1.447625	-11.443990	17.146374
60427		1.335165	-11.377144	17.525724
60428		1.123726	-11.326076	17.925389
60429		0.808417	-11.312147	18.374204
60430		0.556788	-11.311395	18.850750
60431		0.375930	-11.281049	19.318651
60432		0.177528	-11.250585	19.794881
60433		0.035091	-11.188512	20.275815
60434		-0.355617	-11.147525	20.723599
60435		-0.721292	-11.173425	21.229624
60436		-0.955416	-11.246614	21.721345
60437		-1.185657	-11.342881	22.143032
60438		-1.507660	-11.489303	22.562863
60439		-1.678104	-11.627143	22.924821
60440		-1.829888	-11.708521	23.214687
60441		-2.050931	-11.780485	23.450598
60442		-2.106461	-11.853273	23.615140
60443		-2.155610	-11.915500	23.695974
60444		-2.232369	-11.983023	23.751313
60445		-2.294162	-12.002042	23.780928
60446		-2.325381	-12.020801	23.781983
60447		-2.360413	-12.034588	23.784254
60448		-2.419496	-12.063968	23.805324
60449		-2.478476	-12.135730	23.810447
60450		-2.511003	-12.165632	23.782264
60451		-2.571347	-12.165380	23.742817
60452		-2.669521	-12.152967	23.740583
60453		-2.714421	-12.123340	23.764251
60454		-2.732277	-12.102509	23.800269
60455		-2.755218	-12.076463	23.870527
60456		-2.822540	-12.063597	23.977980
60457		-2.892743	-12.083850	24.069944
60458		-2.976811	-12.104406	24.150764
60459		-3.074598	-12.112432	24.232312
60460		-3.105072	-12.120464	24.301748
60461		-3.095302	-12.133645	24.333812
60462		-3.101718	-12.171312	24.312270
60463		-3.122975	-12.198731	24.277841
60464		-3.152302	-12.194703	24.232229
60465		-3.183558	-12.172817	24.190381
60466		-3.191408	-12.158985	24.173859
60467		-3.167167	-12.161457	24.179011
60468		-3.158563	-12.193537	24.180264
60469		-3.160026	-12.235582	24.179426
60470		-3.157076	-12.245365	24.173926
60471		-3.169959	-12.253788	24.143938
60472		-3.174975	-12.257434	24.128874
60473		-3.168188	-12.270942	24.130651
60474		-3.161664	-12.276914	24.124647
60475		-3.170937	-12.303917	24.109883
60476		-3.201079	-12.311988	24.105115
60477		-3.217457	-12.301658	24.091916
60478		-3.215541	-12.296478	24.091333
60479		-3.200862	-12.311892	24.101310
60480		-3.169226	-12.323727	24.115764
60481		-3.121245	-12.313349	24.120703
60482		-3.111438	-12.295965	24.114685
60483		-3.085551	-12.304469	24.115571
60484		-3.042025	-12.295125	24.121238
60485		-2.988095	-12.292341	24.128597
60486		-2.947144	-12.292819	24.148199
60487		-2.923745	-12.275084	24.179116
60488		-2.871589	-12.238945	24.194921
60489		-2.848310	-12.219111	24.220491
60490		-2.828649	-12.227730	24.259415
60491		-2.811386	-12.238379	24.306517
60492		-2.819260	-12.212985	24.342139
60493		-2.808284	-12.158202	24.396022
60494		-2.800645	-12.105218	24.464944
60495		-2.749299	-12.059955	24.525943
60496		-2.708048	-12.040937	24.569811
60497		-2.681305	-12.046143	24.619612
60498		-2.647599	-12.073405	24.654511
60499		-2.636003	-12.100278	24.653263
60500		-2.676642	-12.179236	24.652514
60501		-2.758392	-12.318425	24.673326
60502		-2.805865	-12.401076	24.696200
60503		-2.825022	-12.441739	24.679389
60504		-2.821299	-12.446155	24.626679
60505		-2.794955	-12.417024	24.582388
60506		-2.786708	-12.399984	24.553683
60507		-2.786039	-12.413320	24.560874
60508		-2.789863	-12.443513	24.604582
60509		-2.815490	-12.486577	24.651162
60510		-2.841767	-12.519888	24.687910
60511		-2.859923	-12.543780	24.711910
60512		-2.889493	-12.583803	24.745974
60513		-2.899841	-12.588729	24.759875
60514		-2.898023	-12.573997	24.746045
60515		-2.909122	-12.568032	24.739807
60516		-2.887737	-12.539839	24.743900
60517		-2.849286	-12.504051	24.705939
60518		-2.841857	-12.495506	24.632793
60519		-2.776690	-12.502783	24.555092
60520		-2.715541	-12.529358	24.433626
60521		-2.688794	-12.586327	24.273607
60522		-2.681279	-12.634101	24.106093
60523		-2.655079	-12.625466	23.935258
60524		-2.621920	-12.575614	23.752698
60525		-2.555043	-12.588060	23.552413
60526		-2.420585	-12.639206	23.344172
60527		-2.336494	-12.728963	23.120574
60528		-2.268477	-12.802742	22.894751
60529		-2.196488	-12.811186	22.667705
60530		-2.049104	-12.698157	22.443383
60531		-1.834633	-12.641583	22.153003
60532		-1.672602	-12.678649	21.835698
60533		-1.532889	-12.788517	21.570895
60534		-1.369604	-12.810422	21.310162
60535		-1.200990	-12.726862	20.975945
60536		-1.068218	-12.588996	20.614007
60537		-1.023808	-12.498140	20.321343
60538		-0.847689	-12.375689	20.088623
60539		-0.765229	-12.370319	19.901911
60540		-0.713822	-12.478402	19.692307
60541		-0.612125	-12.504682	19.454278
60542		-0.484733	-12.481488	19.235578
60543		-0.306359	-12.359168	18.998305
60544		-0.293842	-12.326743	18.744947
60545		-0.331029	-12.401242	18.520333
60546		-0.290991	-12.490284	18.285963
60547		-0.191742	-12.554514	18.032950
60548		-0.092978	-12.608900	17.780235
60549		0.048904	-12.565135	17.473270
60550		0.091663	-12.535036	17.107921
60551		0.089421	-12.587312	16.751199
60552		0.137796	-12.648451	16.427225
60553		0.150292	-12.681769	16.107424
60554		0.068352	-12.693911	15.787958
60555		0.055472	-12.674149	15.472046
60556		0.132202	-12.590405	15.113191
60557		0.206965	-12.565815	14.756171
60558		0.254732	-12.528898	14.411260
60559		0.305716	-12.457000	14.057959
60560		0.236236	-12.440383	13.762005
60561		0.175109	-12.390177	13.534827
60562		0.140155	-12.259145	13.346993
60563		0.087209	-12.091176	13.220288
60564		0.031178	-11.973898	13.205307
60565		-0.007846	-11.932678	13.275028
60566		-0.026865	-11.962492	13.373594
60567		-0.074082	-11.982648	13.451841
60568		-0.121553	-12.014376	13.499175
60569		-0.158393	-12.099141	13.504513
60570		-0.187174	-12.192787	13.405873
60571		-0.264602	-12.229563	13.259397
60572		-0.367984	-12.204481	13.082684
60573		-0.463459	-12.129483	12.899053
60574		-0.540352	-12.115543	12.766912
60575		-0.583690	-12.156625	12.703943
60576		-0.613955	-12.167670	12.668744
60577		-0.658783	-12.151384	12.643155
60578		-0.728556	-12.132118	12.629296
60579		-0.815790	-12.147993	12.632123
60580		-0.869180	-12.145068	12.642243
60581		-0.932022	-12.210306	12.665064
60582		-1.006716	-12.315293	12.674757
60583		-1.080349	-12.363731	12.630706
60584		-1.178249	-12.386588	12.545202
60585		-1.285861	-12.395909	12.438225
60586		-1.386225	-12.426017	12.317612
60587		-1.492067	-12.424838	12.168089
60588		-1.613733	-12.402818	11.999344
60589		-1.707345	-12.378236	11.847297
60590		-1.762160	-12.435163	11.724905
60591		-1.779496	-12.542031	11.611777
60592		-1.781565	-12.610872	11.491018
60593		-1.805674	-12.628277	11.370802
60594		-1.840376	-12.646478	11.263289
60595		-1.881589	-12.713404	11.183640
60596		-1.896807	-12.794449	11.131421
60597		-1.918815	-12.834235	11.097722
60598		-1.953735	-12.858662	11.089123
60599		-1.984418	-12.892169	11.112360
60600		-2.018987	-12.946988	11.158269
60601		-2.041926	-13.020536	11.212208
60602		-2.077123	-13.084797	11.267101
60603		-2.112917	-13.153810	11.306989
60604		-2.154197	-13.202627	11.328812
60605		-2.204075	-13.260108	11.342531
60606		-2.250948	-13.299489	11.338190
60607		-2.287877	-13.331341	11.325904
60608		-2.304373	-13.360257	11.305763
60609		-2.330121	-13.367785	11.284011
60610		-2.361383	-13.376865	11.266259
60611		-2.389113	-13.399359	11.251939
60612		-2.406514	-13.422449	11.251751
60613		-2.423369	-13.438530	11.252699
60614		-2.450531	-13.453444	11.256017
60615		-2.470363	-13.454957	11.258723
60616		-2.479419	-13.464694	11.265665
60617		-2.479577	-13.485539	11.268340
60618		-2.479045	-13.469614	11.241976
60619		-2.482784	-13.452235	11.210416
60620		-2.484414	-13.448901	11.187401
60621		-2.482506	-13.445043	11.169169
60622		-2.473589	-13.432257	11.160011
60623		-2.438341	-13.422298	11.152270
60624		-2.407223	-13.395356	11.141312
60625		-2.386139	-13.359088	11.133537
60626		-2.363263	-13.325278	11.123581
60627		-2.351756	-13.294747	11.113482
60628		-2.336726	-13.270090	11.102562
60629		-2.306223	-13.245768	11.092408
60630		-2.286416	-13.248075	11.092050
60631		-2.267106	-13.252398	11.089640
60632		-2.244352	-13.228261	11.068131
60633		-2.237337	-13.218279	11.051714
60634		-2.225919	-13.210989	11.040390
60635		-2.221480	-13.178169	11.021217
60636		-2.219143	-13.138113	10.995995
60637		-2.215063	-13.119539	10.974740
60638		-2.208432	-13.112264	10.960773
60639		-2.182445	-13.083992	10.941799
60640		-2.148691	-13.067220	10.931219
60641		-2.104508	-13.078810	10.933409
60642		-2.071771	-13.031880	10.915826
60643		-2.031613	-12.970611	10.877098
60644		-1.979283	-12.973773	10.850228
60645		-1.921288	-12.989003	10.831025
60646		-1.891705	-13.011006	10.825406
60647		-1.895404	-13.025636	10.823430
60648		-1.910621	-13.005220	10.806054
60649		-1.940320	-12.979420	10.787112
60650		-1.972534	-12.963360	10.775606
60651		-1.994277	-12.957674	10.787442
60652		-1.982962	-12.899358	10.795810
60653		-1.926957	-12.867850	10.817066
60654		-1.873463	-12.827191	10.827877
60655		-1.825318	-12.805809	10.838472
60656		-1.800734	-12.825601	10.882777
60657		-1.739778	-12.781705	10.918049
60658		-1.649296	-12.731376	10.944107
60659		-1.561214	-12.710840	10.995430
60660		-1.503843	-12.704551	11.085148
60661		-1.372459	-12.691940	11.217495
60662		-1.195995	-12.628249	11.367814
60663		-1.012016	-12.567825	11.550346
60664		-0.867964	-12.551311	11.784807
60665		-0.605118	-12.597641	12.030424
60666		-0.323971	-12.592796	12.247520
60667		-0.055672	-12.533903	12.464398
60668		0.229463	-12.469186	12.664598
60669		0.462342	-12.389477	12.866057
60670		0.699360	-12.357263	13.077815
60671		0.915541	-12.337868	13.289042
60672		1.097152	-12.313852	13.496860
60673		1.223606	-12.282810	13.721123
60674		1.298869	-12.238996	13.954793
60675		1.355095	-12.207657	14.200121
60676		1.401428	-12.176020	14.482208
60677		1.414802	-12.157672	14.772176
60678		1.363137	-12.136326	15.117183
60679		1.269079	-12.172685	15.551270
60680		1.162063	-12.186876	16.008553
60681		0.953770	-12.185865	16.460026
60682		0.734385	-12.240973	16.942438
60683		0.581453	-12.266788	17.423105
60684		0.387679	-12.265146	17.871252
60685		0.176326	-12.252097	18.338653
60686		-0.134479	-12.281387	18.832326
60687		-0.413956	-12.282613	19.337614
60688		-0.617952	-12.306015	19.854329
60689		-0.808441	-12.338233	20.340673
60690		-1.052656	-12.466769	20.819745
60691		-1.213019	-12.574040	21.261703
60692		-1.305200	-12.610666	21.623987
60693		-1.382797	-12.546981	21.922287
60694		-1.655733	-12.526410	22.256672
60695		-1.877981	-12.532276	22.652418
60696		-2.071845	-12.598786	23.033268
60697		-2.298601	-12.715101	23.374787
60698		-2.496650	-12.819793	23.675889
60699		-2.618281	-12.848124	23.919578
60700		-2.726987	-12.830072	24.128963
60701		-2.760067	-12.852261	24.279218
60702		-2.737902	-12.908942	24.336672
60703		-2.734442	-12.975342	24.340593
60704		-2.737530	-13.059162	24.325400
60705		-2.709197	-13.114546	24.277672
60706		-2.692864	-13.168671	24.194612
60707		-2.687065	-13.221378	24.116654
60708		-2.683294	-13.263663	24.029121
60709		-2.673114	-13.289835	23.931196
60710		-2.648308	-13.295341	23.841341
60711		-2.613784	-13.321574	23.775232
60712		-2.598089	-13.366750	23.727563
60713		-2.570193	-13.375419	23.663533
60714		-2.561191	-13.369144	23.612113
60715		-2.534255	-13.354480	23.575561
60716		-2.512448	-13.372080	23.570504
60717		-2.498008	-13.407211	23.601524
60718		-2.486061	-13.409475	23.630000
60719		-2.471381	-13.371956	23.640554
60720		-2.440622	-13.314969	23.649648
60721		-2.428678	-13.270525	23.678804
60722		-2.413691	-13.250878	23.723135
60723		-2.369633	-13.240626	23.759532
60724		-2.330580	-13.224863	23.772721
60725		-2.343728	-13.194840	23.777775
60726		-2.363577	-13.185683	23.801085
60727		-2.346250	-13.173410	23.827879
60728		-2.348709	-13.153951	23.835558
60729		-2.347835	-13.127148	23.845827
60730		-2.363621	-13.098984	23.866097
60731		-2.389925	-13.082481	23.893697
60732		-2.433241	-13.063966	23.937345
60733		-2.459155	-13.047990	23.994355
60734		-2.480872	-13.057464	24.064607
60735		-2.506080	-13.079603	24.134548
60736		-2.507448	-13.106710	24.188012
60737		-2.508708	-13.145918	24.226183
60738		-2.523858	-13.201378	24.235053
60739		-2.530250	-13.237638	24.237791
60740		-2.544626	-13.265712	24.229644
60741		-2.547340	-13.276614	24.205898
60742		-2.548487	-13.303687	24.194745
60743		-2.552018	-13.325476	24.194880
60744		-2.562687	-13.322858	24.197442
60745		-2.562874	-13.313156	24.208430
60746		-2.557429	-13.315294	24.241430
60747		-2.557537	-13.318889	24.274937
60748		-2.547203	-13.321609	24.308433
60749		-2.532089	-13.335466	24.339580
60750		-2.524014	-13.357516	24.350811
60751		-2.503068	-13.361846	24.340636
60752		-2.488735	-13.366439	24.316671
60753		-2.474410	-13.370781	24.283527
60754		-2.458478	-13.358219	24.231370
60755		-2.426398	-13.347885	24.167124
60756		-2.365761	-13.352615	24.089399
60757		-2.331265	-13.395933	24.002352
60758		-2.293456	-13.441745	23.898539
60759		-2.241232	-13.475116	23.771041
60760		-2.179830	-13.506131	23.625360
60761		-2.093859	-13.505492	23.443045
60762		-2.047976	-13.518598	23.262381
60763		-1.980657	-13.531524	23.090437
60764		-1.940937	-13.541015	22.938994
60765		-1.922019	-13.588055	22.846047
60766		-1.855795	-13.566472	22.745552
60767		-1.792875	-13.542194	22.590120
60768		-1.714797	-13.544768	22.397329
60769		-1.619326	-13.553104	22.219917
60770		-1.496952	-13.599932	22.013993
60771		-1.418932	-13.656406	21.719729
60772		-1.316189	-13.663422	21.384364
60773		-1.203534	-13.674401	21.061705
60774		-1.062481	-13.691232	20.760380
60775		-0.809793	-13.631364	20.448559
60776		-0.634607	-13.531543	20.108163
60777		-0.497902	-13.460216	19.823416
60778		-0.289813	-13.395668	19.618530
60779		-0.061960	-13.281081	19.433924
60780		0.107475	-13.200619	19.204521
60781		0.239685	-13.180172	18.961024
60782		0.382609	-13.133906	18.717538
60783		0.525121	-13.082233	18.471583
60784		0.775246	-12.986571	18.157742
60785		0.926874	-12.940146	17.780521
60786		1.116067	-12.880284	17.403213
60787		1.257471	-12.717540	17.060204
60788		1.331034	-12.496226	16.743947
60789		1.284768	-12.304997	16.484700
60790		1.151773	-12.146311	16.298531
60791		1.146996	-11.947441	16.154394
60792		1.201801	-11.838173	15.941189
60793		1.280704	-11.760424	15.696935
60794		1.321988	-11.598184	15.421644
60795		1.335884	-11.427321	15.158967
60796		1.375123	-11.457393	14.910083
60797		1.380664	-11.479398	14.675983
60798		1.356125	-11.367799	14.438895
60799		1.309932	-11.117213	14.197447
60800		1.252790	-10.886385	13.961217
60801		1.206761	-10.726693	13.798511
60802		1.234442	-10.646220	13.697029
60803		1.224492	-10.592490	13.645352
60804		1.193727	-10.543185	13.625105
60805		1.208950	-10.497983	13.573241
60806		1.222965	-10.521630	13.494013
60807		1.198904	-10.567665	13.401286
60808		1.138295	-10.636023	13.300538
60809		1.059237	-10.636293	13.185242
60810		0.972469	-10.566941	13.081759
60811		0.918350	-10.533881	13.040262
60812		0.903712	-10.542049	13.047052
60813		0.871578	-10.575723	13.079277
60814		0.840829	-10.621804	13.091674
60815		0.807612	-10.653378	13.077534
60816		0.771132	-10.685446	13.041350
60817		0.707557	-10.683319	13.000643
60818		0.614884	-10.699154	12.979730
60819		0.550464	-10.763783	12.960645
60820		0.477547	-10.850109	12.920953
60821		0.386132	-10.925362	12.869663
60822		0.287190	-10.987353	12.795650
60823		0.159666	-10.983478	12.690635
60824		0.020371	-10.925994	12.574508
60825		-0.093473	-10.915643	12.465016
60826		-0.175812	-10.940329	12.374942
60827		-0.230167	-10.977246	12.297312
60828		-0.294142	-11.029685	12.212730
60829		-0.346063	-11.120199	12.115603
60830		-0.424036	-11.201345	12.006014
60831		-0.518570	-11.270792	11.901583
60832		-0.618824	-11.371709	11.815359
60833		-0.680951	-11.492888	11.716093
60834		-0.721667	-11.574845	11.614612
60835		-0.767986	-11.631212	11.512542
60836		-0.821766	-11.654648	11.421019
60837		-0.874164	-11.676253	11.343228
60838		-0.936319	-11.712859	11.291299
60839		-1.009328	-11.802459	11.262833
60840		-1.079789	-11.917825	11.257731
60841		-1.155716	-12.023825	11.248745
60842		-1.189210	-12.135208	11.234087
60843		-1.215473	-12.254713	11.228446
60844		-1.237178	-12.342890	11.229063
60845		-1.254377	-12.414730	11.229971
60846		-1.284887	-12.501069	11.234411
60847		-1.313347	-12.573110	11.231910
60848		-1.346614	-12.651095	11.219447
60849		-1.397579	-12.724613	11.206698
60850		-1.457080	-12.766972	11.180947
60851		-1.514439	-12.802557	11.157765
60852		-1.560601	-12.867827	11.150733
60853		-1.601418	-12.943594	11.145726
60854		-1.649725	-13.020381	11.149303
60855		-1.681617	-13.095309	11.146602
60856		-1.710021	-13.171299	11.142248
60857		-1.745990	-13.234379	11.147039
60858		-1.769860	-13.297044	11.154305
60859		-1.786318	-13.327719	11.151764
60860		-1.798862	-13.333168	11.141731
60861		-1.819051	-13.344656	11.141427
60862		-1.835608	-13.369295	11.151935
60863		-1.833538	-13.362071	11.144876
60864		-1.847973	-13.343751	11.139546
60865		-1.856944	-13.369764	11.149198
60866		-1.869075	-13.407753	11.159158
60867		-1.881375	-13.418466	11.157981
60868		-1.893821	-13.404866	11.144509
60869		-1.904127	-13.401236	11.131106
60870		-1.909923	-13.398605	11.118243
60871		-1.922646	-13.383708	11.102430
60872		-1.917832	-13.386533	11.079167
60873		-1.900491	-13.387349	11.051302
60874		-1.878397	-13.383670	11.021218
60875		-1.853811	-13.370530	10.989011
60876		-1.834507	-13.329459	10.953708
60877		-1.817294	-13.280671	10.912619
60878		-1.800137	-13.290574	10.895799
60879		-1.778882	-13.335175	10.896579
60880		-1.748671	-13.344625	10.884350
60881		-1.723682	-13.315333	10.856524
60882		-1.703462	-13.305925	10.843714
60883		-1.674925	-13.300611	10.839485
60884		-1.638146	-13.283886	10.830396
60885		-1.598383	-13.259479	10.815327
60886		-1.580851	-13.241965	10.797949
60887		-1.562692	-13.214043	10.768487
60888		-1.545377	-13.170570	10.739783
60889		-1.524477	-13.137248	10.723061
60890		-1.509861	-13.069498	10.698500
60891		-1.494277	-13.030428	10.682000
60892		-1.473845	-12.999842	10.670188
60893		-1.431045	-12.972326	10.644430
60894		-1.375934	-12.960746	10.619505
60895		-1.337959	-12.925158	10.583472
60896		-1.330036	-12.891627	10.548593
60897		-1.326437	-12.876983	10.524747
60898		-1.320095	-12.859217	10.505006
60899		-1.324332	-12.841613	10.489605
60900		-1.338721	-12.821116	10.486923
60901		-1.321970	-12.807807	10.473497
60902		-1.280402	-12.829701	10.450053
60903		-1.257645	-12.820695	10.423863
60904		-1.246563	-12.751414	10.406967
60905		-1.162417	-12.759805	10.438813
60906		-1.013166	-12.795194	10.483652
60907		-0.908143	-12.784160	10.530079
60908		-0.810284	-12.773831	10.613407
60909		-0.665167	-12.752202	10.713219
60910		-0.513147	-12.734557	10.841202
60911		-0.365906	-12.748210	10.999514
60912		-0.201176	-12.783778	11.165889
60913		0.069523	-12.764602	11.305719
60914		0.339489	-12.728014	11.436417
60915		0.575836	-12.682471	11.603478
60916		0.791517	-12.650739	11.798270
60917		1.002446	-12.647866	12.008497
60918		1.196476	-12.658479	12.223734
60919		1.340199	-12.643549	12.430098
60920		1.400707	-12.561049	12.630210
60921		1.421261	-12.526840	12.869772
60922		1.416231	-12.499995	13.153379
60923		1.386260	-12.482034	13.451752
60924		1.337828	-12.494291	13.785720
60925		1.278362	-12.506815	14.133692
60926		1.217198	-12.489001	14.458396
60927		1.155810	-12.497777	14.792180
60928		1.111595	-12.554312	15.152596
60929		1.010099	-12.557014	15.547006
60930		0.881432	-12.576766	15.956962
60931		0.775939	-12.565926	16.378910
60932		0.706790	-12.491625	16.800633
60933		0.501150	-12.450437	17.244027
60934		0.337195	-12.410306	17.710109
60935		0.205631	-12.351933	18.153405
60936		-0.043172	-12.292410	18.616552
60937		-0.305701	-12.305899	19.145549
60938		-0.495260	-12.376949	19.684703
60939		-0.696503	-12.387638	20.186782
60940		-0.973248	-12.437705	20.732777
60941		-1.186988	-12.392688	21.286761
60942		-1.348798	-12.268303	21.787957
60943		-1.550210	-12.212059	22.265779
60944		-1.844950	-12.205320	22.782762
60945		-2.072275	-12.183994	23.286792
60946		-2.334672	-12.129497	23.717496
60947		-2.515154	-12.141394	24.114639
60948		-2.722346	-12.256322	24.470370
60949		-2.908799	-12.378489	24.771403
60950		-3.034531	-12.442061	24.989580
60951		-3.132525	-12.502858	25.138983
60952		-3.196504	-12.560908	25.209552
60953		-3.208650	-12.629601	25.213513
60954		-3.208856	-12.688536	25.182974
60955		-3.198224	-12.729088	25.120546
60956		-3.173781	-12.768894	25.020048
60957		-3.155115	-12.788600	24.910289
60958		-3.162691	-12.777519	24.805251
60959		-3.144881	-12.757298	24.725073
60960		-3.119731	-12.761049	24.675808
60961		-3.104963	-12.764730	24.661957
60962		-3.082210	-12.798280	24.652568
60963		-3.049842	-12.824685	24.638007
60964		-3.024074	-12.842640	24.607889
60965		-3.015832	-12.860854	24.573233
60966		-2.990979	-12.879408	24.534736
60967		-2.976498	-12.882874	24.473475
60968		-2.993104	-12.882805	24.397599
60969		-3.008997	-12.866889	24.353652
60970		-3.028793	-12.850294	24.327414
60971		-3.033458	-12.848755	24.316930
60972		-3.024485	-12.872772	24.329438
60973		-3.015850	-12.910469	24.333215
60974		-2.992416	-12.933481	24.314387
60975		-2.981805	-12.948310	24.281120
60976		-2.969438	-12.971490	24.253026
60977		-2.950988	-12.991882	24.247139
60978		-2.930557	-13.017160	24.239567
60979		-2.920088	-13.020381	24.228023
60980		-2.907784	-13.003680	24.227591
60981		-2.896227	-12.998529	24.239735
60982		-2.896858	-13.010970	24.251833
60983		-2.883639	-13.030434	24.274974
60984		-2.873785	-13.023604	24.292296
60985		-2.873167	-13.015715	24.297591
60986		-2.874148	-13.014654	24.311743
60987		-2.884833	-13.020075	24.341540
60988		-2.902215	-13.033829	24.388074
60989		-2.916193	-13.035303	24.430806
60990		-2.919218	-13.045591	24.466107
60991		-2.934313	-13.052971	24.486963
60992		-2.964118	-13.058141	24.501147
60993		-2.979728	-13.058555	24.507648
60994		-2.992658	-13.058919	24.498378
60995		-2.999369	-13.057226	24.496236
60996		-3.014698	-13.065088	24.512818
60997		-3.024274	-13.091173	24.530160
60998		-3.033611	-13.142223	24.544010
60999		-3.030217	-13.183968	24.527190
61000		-3.034527	-13.208694	24.499687
61001		-3.046038	-13.211155	24.471519
61002		-3.045814	-13.200032	24.464710
61003		-3.036308	-13.206305	24.479196
61004		-3.038657	-13.212788	24.483911
61005		-3.050764	-13.222762	24.480762
61006		-3.052357	-13.238236	24.485696
61007		-3.046258	-13.233209	24.498435
61008		-3.048092	-13.237031	24.497308
61009		-3.022120	-13.237663	24.479025
61010		-2.987454	-13.253518	24.471490
61011		-2.942820	-13.281298	24.465452
61012		-2.886802	-13.320055	24.435087
61013		-2.824572	-13.346469	24.346791
61014		-2.749729	-13.352993	24.218863
61015		-2.669683	-13.380254	24.083038
61016		-2.582856	-13.403102	23.925839
61017		-2.500914	-13.412275	23.741752
61018		-2.430631	-13.425825	23.565607
61019		-2.325506	-13.441878	23.380478
61020		-2.174556	-13.477375	23.169878
61021		-2.011010	-13.523558	22.920266
61022		-1.817542	-13.560360	22.650515
61023		-1.603728	-13.564995	22.365152
61024		-1.445230	-13.559585	22.080640
61025		-1.295472	-13.560627	21.797096
61026		-1.140052	-13.579259	21.512243
61027		-1.011094	-13.613739	21.226503
61028		-0.874988	-13.629794	20.934056
61029		-0.749704	-13.675997	20.646454
61030		-0.590704	-13.687739	20.364588
61031		-0.421905	-13.641796	20.068597
61032		-0.277165	-13.605270	19.747406
61033		-0.150508	-13.618299	19.410794
61034		0.040655	-13.615068	19.067258
61035		0.183731	-13.611247	18.699804
61036		0.281357	-13.600044	18.275159
61037		0.437096	-13.513366	17.805149
61038		0.580042	-13.427829	17.350208
61039		0.646676	-13.393020	16.916728
61040		0.791401	-13.347214	16.505713
61041		0.852026	-13.261183	16.109258
61042		0.853491	-13.292852	15.712094
61043		0.785204	-13.529848	15.295371
61044		0.746563	-13.640525	14.888416
61045		0.795293	-13.614515	14.528454
61046		0.842718	-13.622794	14.176586
61047		0.895777	-13.618150	13.778482
61048		0.859858	-13.543537	13.359172
61049		0.759024	-13.487378	12.986558
61050		0.751187	-13.541389	12.694396
61051		0.788764	-13.621737	12.464847
61052		0.820055	-13.664587	12.283941
61053		0.825353	-13.667844	12.096882
61054		0.720932	-13.620555	11.875656
61055		0.597194	-13.584261	11.719536
61056		0.384401	-13.516179	11.616510
61057		0.230105	-13.456913	11.517483
61058		0.135920	-13.413049	11.437746
61059		0.102664	-13.394627	11.418821
61060		0.147438	-13.375056	11.433809
61061		0.207880	-13.350459	11.456851
61062		0.245919	-13.359233	11.499758
61063		0.292803	-13.389427	11.539621
61064		0.313519	-13.369136	11.552982
61065		0.271310	-13.341836	11.547220
61066		0.211980	-13.342231	11.541895
61067		0.143726	-13.326952	11.511033
61068		0.056271	-13.306481	11.472776
61069		-0.023302	-13.340004	11.439146
61070		-0.145924	-13.364226	11.389531
61071		-0.251320	-13.367913	11.314102
61072		-0.359039	-13.399060	11.250227
61073		-0.476640	-13.430543	11.191833
61074		-0.605044	-13.385695	11.112436
61075		-0.705841	-13.357286	10.995673
61076		-0.785131	-13.404772	10.862713
61077		-0.880947	-13.471385	10.732386
61078		-0.994590	-13.501083	10.603602
61079		-1.198234	-13.508826	10.494521
61080		-1.417907	-13.591652	10.395371
61081		-1.645580	-13.670923	10.305156
61082		-1.871889	-13.731958	10.214641
61083		-2.055526	-13.812541	10.110386
61084		-2.188362	-13.871331	9.978676
61085		-2.337794	-13.905986	9.839756
61086		-2.502601	-13.971285	9.713477
61087		-2.648240	-14.029639	9.610250
61088		-2.745921	-14.079079	9.535704
61089		-2.849479	-14.192229	9.482409
61090		-2.933986	-14.357319	9.451220
61091		-3.012570	-14.471396	9.391967
61092		-3.117070	-14.517277	9.314425
61093		-3.235338	-14.550423	9.243185
61094		-3.301302	-14.623993	9.178771
61095		-3.421446	-14.735593	9.146284
61096		-3.571734	-14.849795	9.108322
61097		-3.762883	-14.896383	9.039843
61098		-4.036847	-14.877754	8.961912
61099		-4.274659	-14.858425	8.900456
61100		-4.393281	-14.904547	8.879733
61101		-4.401782	-14.979542	8.893583
61102		-4.353475	-15.055260	8.935357
61103		-4.302213	-15.138291	8.998688
61104		-4.260151	-15.224396	9.060021
61105		-4.263271	-15.320505	9.122485
61106		-4.265309	-15.387404	9.173746
61107		-4.284951	-15.408349	9.201862
61108		-4.322960	-15.394277	9.202942
61109		-4.361502	-15.362203	9.185423
61110		-4.379499	-15.345777	9.163298
61111		-4.401959	-15.339041	9.141248
61112		-4.407824	-15.348759	9.123202
61113		-4.393851	-15.372826	9.121017
61114		-4.386111	-15.387090	9.121115
61115		-4.379138	-15.393661	9.119521
61116		-4.371412	-15.416843	9.123665
61117		-4.361880	-15.435385	9.122674
61118		-4.355509	-15.455188	9.122689
61119		-4.346491	-15.474494	9.125968
61120		-4.337433	-15.465116	9.122609
61121		-4.339166	-15.442021	9.120707
61122		-4.345926	-15.431112	9.122239
61123		-4.351614	-15.428635	9.126944
61124		-4.354201	-15.426481	9.132281
61125		-4.345495	-15.415613	9.137356
61126		-4.348376	-15.418367	9.146770
61127		-4.352318	-15.439898	9.158351
61128		-4.370277	-15.452366	9.168058
61129		-4.390639	-15.465858	9.183330
61130		-4.395556	-15.473853	9.194117
61131		-4.402342	-15.467673	9.191275
61132		-4.409106	-15.448605	9.178159
61133		-4.428525	-15.387932	9.152574
61134		-4.425095	-15.341125	9.132290
61135		-4.383377	-15.315399	9.125567
61136		-4.341352	-15.278504	9.117494
61137		-4.330006	-15.188935	9.102716
61138		-4.311379	-15.162471	9.083297
61139		-4.252404	-15.159211	9.051365
61140		-4.229553	-15.075240	9.011338
61141		-4.179012	-15.041968	8.998901
61142		-4.085659	-15.077723	9.006572
61143		-3.955667	-15.145996	9.014252
61144		-3.827779	-15.146515	9.012895
61145		-3.740725	-15.024651	8.996993
61146		-3.663374	-14.948651	9.029199
61147		-3.532136	-14.977493	9.142071
61148		-3.313158	-15.006143	9.273684
61149		-3.059093	-14.949360	9.391117
61150		-2.809459	-14.848825	9.526792
61151		-2.566638	-14.771995	9.683583
61152		-2.318518	-14.715268	9.865172
61153		-2.068552	-14.584044	10.058589
61154		-1.774818	-14.329892	10.270871
61155		-1.439149	-14.159212	10.554370
61156		-1.135845	-14.053757	10.902278
61157		-0.843862	-13.977753	11.292364
61158		-0.608106	-13.894058	11.697597
61159		-0.441684	-13.794556	12.110876
61160		-0.308506	-13.744418	12.543468
61161		-0.238992	-13.659088	12.970956
61162		-0.198878	-13.528337	13.398884
61163		-0.196314	-13.546900	13.864381
61164		-0.090358	-13.631427	14.318186
61165		0.073000	-13.726708	14.708516
61166		0.183377	-13.810086	15.061218
61167		0.318355	-13.738385	15.356179
61168		0.399214	-13.621695	15.637099
61169		0.426375	-13.567578	15.985314
61170		0.416616	-13.613047	16.431224
61171		0.390915	-13.679854	16.928029
61172		0.315537	-13.748908	17.403379
61173		0.183831	-13.775063	17.842012
61174		0.080935	-13.732438	18.208533
61175		-0.036246	-13.604770	18.551017
61176		-0.164104	-13.492680	18.918957
61177		-0.326731	-13.414187	19.315836
61178		-0.470432	-13.334396	19.735380
61179		-0.601725	-13.233262	20.177137
61180		-0.812478	-13.174670	20.640055
61181		-0.948643	-13.155921	21.093639
61182		-1.002029	-13.091091	21.492772
61183		-1.096562	-13.010694	21.845189
61184		-1.290548	-12.943948	22.178134
61185		-1.459965	-12.906670	22.517198
61186		-1.577421	-12.869401	22.793324
61187		-1.708439	-12.837175	22.991437
61188		-1.762835	-12.828124	23.160578
61189		-1.793808	-12.867364	23.277757
61190		-1.834896	-12.945274	23.343845
61191		-1.827622	-13.033053	23.366582
61192		-1.825982	-13.068459	23.346566
61193		-1.806982	-13.087014	23.298955
61194		-1.806731	-13.129150	23.256289
61195		-1.835166	-13.187583	23.230854
61196		-1.844312	-13.240941	23.207377
61197		-1.847847	-13.294921	23.183453
61198		-1.866198	-13.345797	23.167129
61199		-1.879239	-13.394072	23.149789
61200		-1.865323	-13.444156	23.130060
61201		-1.866156	-13.486881	23.119932
61202		-1.863187	-13.513820	23.109853
61203		-1.866640	-13.521468	23.090320
61204		-1.864885	-13.555673	23.069496
61205		-1.876223	-13.592873	23.049918
61206		-1.907830	-13.601558	23.034183
61207		-1.944931	-13.607463	23.048658
61208		-1.956525	-13.644798	23.093373
61209		-1.960978	-13.687516	23.132370
61210		-1.971141	-13.732060	23.165216
61211		-1.987203	-13.776664	23.181646
61212		-2.023429	-13.827690	23.189312
61213		-2.046383	-13.865938	23.206685
61214		-2.061709	-13.898535	23.242658
61215		-2.042586	-13.911816	23.269051
61216		-2.039576	-13.923072	23.292173
61217		-2.036233	-13.933332	23.317997
61218		-2.034101	-13.926374	23.336878
61219		-2.032730	-13.923647	23.366709
61220		-2.054536	-13.935284	23.418337
61221		-2.083275	-13.937324	23.475690
61222		-2.144775	-13.959930	23.533640
61223		-2.199240	-13.976301	23.616463
61224		-2.243091	-14.008273	23.698997
61225		-2.292541	-14.037248	23.773402
61226		-2.312732	-14.032019	23.826922
61227		-2.324480	-14.022437	23.856156
61228		-2.342701	-14.028182	23.880566
61229		-2.330774	-14.043160	23.899592
61230		-2.335552	-14.061613	23.916831
61231		-2.352807	-14.082876	23.929710
61232		-2.355395	-14.093858	23.930498
61233		-2.373868	-14.096418	23.913013
61234		-2.397911	-14.117574	23.886155
61235		-2.405570	-14.141111	23.857572
61236		-2.413870	-14.168824	23.846296
61237		-2.412037	-14.184660	23.846278
61238		-2.408297	-14.178391	23.849068
61239		-2.403692	-14.179873	23.862456
61240		-2.393612	-14.175240	23.873024
61241		-2.389602	-14.158083	23.878866
61242		-2.387497	-14.170804	23.892198
61243		-2.383734	-14.184793	23.898423
61244		-2.383658	-14.195985	23.889547
61245		-2.378691	-14.244861	23.880549
61246		-2.358382	-14.296519	23.837535
61247		-2.322804	-14.347231	23.760875
61248		-2.263797	-14.367541	23.645199
61249		-2.181616	-14.355855	23.491847
61250		-2.124782	-14.371585	23.315894
61251		-2.054506	-14.430435	23.128964
61252		-1.937846	-14.495234	22.923941
61253		-1.836770	-14.544679	22.688698
61254		-1.782906	-14.661460	22.462939
61255		-1.697151	-14.768089	22.224645
61256		-1.601557	-14.815784	21.943233
61257		-1.500818	-14.837087	21.649060
61258		-1.370830	-14.860289	21.332136
61259		-1.273152	-14.937130	21.008606
61260		-1.176738	-15.021754	20.707534
61261		-1.049622	-15.052169	20.416900
61262		-0.947652	-15.073963	20.119888
61263		-0.835430	-15.100150	19.805703
61264		-0.680096	-15.110900	19.459849
61265		-0.533719	-15.100361	19.110878
61266		-0.434942	-15.032133	18.802427
61267		-0.415174	-14.995905	18.545877
61268		-0.377146	-14.960535	18.309002
61269		-0.299882	-14.896945	18.085058
61270		-0.238940	-14.869008	17.815861
61271		-0.198582	-14.894141	17.480879
61272		-0.164507	-14.887447	17.142555
61273		-0.161378	-14.863773	16.835653
61274		-0.142283	-14.790465	16.509616
61275		-0.093900	-14.707000	16.129414
61276		-0.017586	-14.657604	15.703301
61277		0.085471	-14.609762	15.325136
61278		0.150039	-14.558620	14.999878
61279		0.165129	-14.473044	14.669618
61280		0.246366	-14.343344	14.279863
61281		0.303471	-14.196543	13.840081
61282		0.255453	-14.091697	13.494921
61283		0.172823	-14.012728	13.244592
61284		0.084125	-13.935609	13.036732
61285		-0.001287	-13.903505	12.837665
61286		-0.083880	-13.874380	12.665116
61287		-0.160633	-13.760190	12.521474
61288		-0.215907	-13.621392	12.406085
61289		-0.286800	-13.568476	12.304908
61290		-0.327976	-13.512051	12.203903
61291		-0.310333	-13.430675	12.115301
61292		-0.316486	-13.325585	12.032496
61293		-0.301148	-13.321294	11.978970
61294		-0.305291	-13.318462	11.957865
61295		-0.321585	-13.288923	11.938480
61296		-0.334653	-13.299162	11.922141
61297		-0.326668	-13.284483	11.883285
61298		-0.338587	-13.246002	11.830182
61299		-0.354112	-13.214274	11.775337
61300		-0.361887	-13.206268	11.726148
61301		-0.358893	-13.217173	11.688175
61302		-0.363655	-13.264816	11.653198
61303		-0.371863	-13.320004	11.595777
61304		-0.400789	-13.331498	11.514756
61305		-0.443514	-13.323787	11.409362
61306		-0.517927	-13.352000	11.276302
61307		-0.614920	-13.467118	11.166266
61308		-0.770602	-13.524968	11.053929
61309		-0.905430	-13.560291	10.927021
61310		-1.007830	-13.700959	10.782530
61311		-1.055581	-13.909696	10.658544
61312		-1.135479	-13.992648	10.521316
61313		-1.253352	-13.995917	10.364429
61314		-1.363438	-14.015665	10.199894
61315		-1.461404	-14.055419	10.055749
61316		-1.532767	-14.081117	9.945939
61317		-1.612043	-14.080026	9.866621
61318		-1.673249	-14.157958	9.804575
61319		-1.743640	-14.289328	9.760491
61320		-1.858800	-14.412440	9.723413
61321		-1.974877	-14.509319	9.689936
61322		-2.062308	-14.564783	9.660822
61323		-2.130004	-14.641627	9.612219
61324		-2.174934	-14.723256	9.567293
61325		-2.216729	-14.799512	9.529736
61326		-2.265261	-14.833298	9.497201
61327		-2.309728	-14.850541	9.483823
61328		-2.352655	-14.900579	9.505790
61329		-2.390014	-14.996466	9.555373
61330		-2.427396	-15.120582	9.595284
61331		-2.441963	-15.196398	9.600324
61332		-2.484616	-15.238618	9.588997
61333		-2.520787	-15.280712	9.577155
61334		-2.559981	-15.318273	9.572467
61335		-2.583279	-15.365215	9.594265
61336		-2.597347	-15.438937	9.632488
61337		-2.630590	-15.481274	9.659170
61338		-2.666586	-15.488074	9.668813
61339		-2.686976	-15.476791	9.664559
61340		-2.697545	-15.460406	9.651635
61341		-2.715014	-15.438681	9.641253
61342		-2.758275	-15.413397	9.635613
61343		-2.775543	-15.404855	9.632575
61344		-2.800103	-15.407315	9.636595
61345		-2.820836	-15.422548	9.647848
61346		-2.840686	-15.422306	9.651147
61347		-2.841931	-15.405517	9.644709
61348		-2.853126	-15.359706	9.626562
61349		-2.884906	-15.324369	9.614029
61350		-2.904045	-15.321166	9.610786
61351		-2.907792	-15.343015	9.614890
61352		-2.911212	-15.348412	9.617176
61353		-2.919032	-15.346955	9.619245
61354		-2.927786	-15.356536	9.620034
61355		-2.934688	-15.357814	9.621996
61356		-2.941454	-15.351791	9.620729
61357		-2.941588	-15.381205	9.629154
61358		-2.934624	-15.412336	9.620693
61359		-2.936608	-15.429402	9.599921
61360		-2.921574	-15.427661	9.580889
61361		-2.917369	-15.430532	9.565497
61362		-2.909122	-15.425582	9.559695
61363		-2.908357	-15.417072	9.560883
61364		-2.904185	-15.412949	9.568708
61365		-2.894210	-15.421317	9.569815
61366		-2.895982	-15.413226	9.570105
61367		-2.894485	-15.370933	9.557626
61368		-2.877627	-15.352106	9.546557
61369		-2.862349	-15.340201	9.547735
61370		-2.840087	-15.302137	9.547981
61371		-2.816829	-15.242030	9.533262
61372		-2.771770	-15.203121	9.505927
61373		-2.730947	-15.154025	9.477957
61374		-2.716027	-15.118050	9.447265
61375		-2.678341	-15.132104	9.426478
61376		-2.640704	-15.123508	9.388897
61377		-2.567847	-15.101953	9.337348
61378		-2.467247	-15.095428	9.295049
61379		-2.403953	-15.027830	9.253202
61380		-2.362448	-15.005637	9.241440
61381		-2.298370	-15.055884	9.252833
61382		-2.247014	-15.085769	9.267738
61383		-2.177126	-15.072761	9.290806
61384		-2.096108	-15.042154	9.336745
61385		-2.012595	-15.020249	9.408433
61386		-1.918429	-14.998463	9.499571
61387		-1.825675	-14.923700	9.616316
61388		-1.734251	-14.875238	9.776426
61389		-1.549482	-14.912560	9.974093
61390		-1.341273	-14.854315	10.151136
61391		-1.153386	-14.703662	10.313945
61392		-0.989177	-14.547643	10.516341
61393		-0.779719	-14.443764	10.789665
61394		-0.514157	-14.311122	11.108825
61395		-0.219381	-14.161236	11.452896
61396		0.068612	-14.079760	11.843539
61397		0.314102	-13.984883	12.197794
61398		0.478297	-13.868633	12.506077
61399		0.574293	-13.738980	12.805955
61400		0.625083	-13.634619	13.111900
61401		0.628543	-13.582459	13.434246
61402		0.622691	-13.520915	13.730747
61403		0.653911	-13.542143	13.995930
61404		0.651478	-13.600736	14.266767
61405		0.580584	-13.694907	14.554919
61406		0.592546	-13.713649	14.866403
61407		0.692060	-13.648289	15.132752
61408		0.814161	-13.546075	15.406901
61409		0.890697	-13.444152	15.763788
61410		0.871605	-13.384266	16.193272
61411		0.816415	-13.357071	16.655456
61412		0.756867	-13.326208	17.137524
61413		0.469833	-13.244076	17.632290
61414		0.180547	-13.221438	18.199756
61415		-0.102290	-13.201191	18.782598
61416		-0.299484	-13.102526	19.345000
61417		-0.586291	-13.086089	19.913757
61418		-0.872148	-13.168864	20.526815
61419		-1.022843	-13.170520	21.057310
61420		-1.186609	-13.094253	21.504292
61421		-1.479947	-13.078180	21.943296
61422		-1.684605	-13.120020	22.387716
61423		-1.840196	-13.182326	22.752902
61424		-2.047958	-13.235728	23.040004
61425		-2.155554	-13.272491	23.274222
61426		-2.192965	-13.307020	23.422497
61427		-2.184671	-13.339556	23.484745
61428		-2.175654	-13.410978	23.511147
61429		-2.106798	-13.464763	23.475412
61430		-2.069343	-13.510706	23.420679
61431		-2.068154	-13.534895	23.405582
61432		-2.048846	-13.553388	23.408123
61433		-2.032006	-13.579065	23.407210
61434		-2.026190	-13.594821	23.401704
61435		-2.011496	-13.588692	23.410831
61436		-1.976962	-13.583777	23.420478
61437		-1.968735	-13.602746	23.408310
61438		-1.975727	-13.632671	23.374246
61439		-2.000993	-13.667631	23.335385
61440		-2.028101	-13.695523	23.301200
61441		-2.042015	-13.672787	23.279988
61442		-2.056175	-13.650036	23.255496
61443		-2.063067	-13.667391	23.241607
61444		-2.083616	-13.708760	23.232067
61445		-2.105896	-13.719492	23.211667
61446		-2.122045	-13.711190	23.181716
61447		-2.135367	-13.711590	23.168791
61448		-2.157396	-13.730877	23.185720
61449		-2.173326	-13.747327	23.206925
61450		-2.187435	-13.739380	23.230052
61451		-2.202711	-13.746835	23.267277
61452		-2.227855	-13.779110	23.308515
61453		-2.242442	-13.811558	23.341662
61454		-2.272535	-13.832458	23.378140
61455		-2.306092	-13.845444	23.412164
61456		-2.360940	-13.872797	23.451016
61457		-2.405265	-13.870023	23.488102
61458		-2.443610	-13.862246	23.506200
61459		-2.492671	-13.846024	23.531444
61460		-2.531369	-13.828716	23.585938
61461		-2.585462	-13.841266	23.654293
61462		-2.621754	-13.870090	23.720281
61463		-2.636997	-13.902389	23.772471
61464		-2.641547	-13.925313	23.797429
61465		-2.649615	-13.937987	23.788907
61466		-2.643797	-13.943382	23.768213
61467		-2.640677	-13.944901	23.749379
61468		-2.643206	-13.948075	23.732211
61469		-2.658109	-13.967716	23.739619
61470		-2.668758	-13.988736	23.753915
61471		-2.682830	-14.006864	23.753333
61472		-2.687052	-14.009274	23.752439
61473		-2.684328	-14.016397	23.742186
61474		-2.690572	-14.023111	23.728002
61475		-2.702996	-14.052172	23.719079
61476		-2.695485	-14.088925	23.722892
61477		-2.689466	-14.107170	23.725979
61478		-2.679062	-14.107208	23.726420
61479		-2.675829	-14.094744	23.726727
61480		-2.684018	-14.091610	23.730904
61481		-2.682049	-14.101658	23.739972
61482		-2.675329	-14.098846	23.748404
61483		-2.660452	-14.084816	23.740891
61484		-2.643699	-14.080843	23.748751
61485		-2.613109	-14.093211	23.761516
61486		-2.601348	-14.103946	23.755917
61487		-2.594700	-14.111044	23.737946
61488		-2.569323	-14.125023	23.732345
61489		-2.536857	-14.133334	23.702118
61490		-2.500119	-14.148643	23.638924
61491		-2.445762	-14.167181	23.555193
61492		-2.372361	-14.174496	23.430283
61493		-2.278034	-14.187426	23.292384
61494		-2.174038	-14.201910	23.140212
61495		-2.089241	-14.228760	22.975862
61496		-1.999458	-14.256900	22.783551
61497		-1.917504	-14.298216	22.585177
61498		-1.819472	-14.343896	22.376934
61499		-1.715931	-14.396281	22.141052
61500		-1.575557	-14.450253	21.885468
61501		-1.430551	-14.519357	21.633244
61502		-1.237385	-14.570002	21.394868
61503		-1.014632	-14.541745	21.139556
61504		-0.825042	-14.497874	20.869001
61505		-0.615608	-14.496318	20.602625
61506		-0.415873	-14.465145	20.321098
61507		-0.291680	-14.477619	20.054526
61508		-0.162636	-14.449194	19.805938
61509		-0.064253	-14.455612	19.525098
61510		0.031311	-14.476320	19.257668
61511		0.205996	-14.456213	19.010478
61512		0.376136	-14.389494	18.757502
61513		0.540032	-14.354125	18.498946
61514		0.798024	-14.294871	18.229340
61515		1.015459	-14.273199	17.953936
61516		1.221011	-14.248406	17.688012
61517		1.443021	-14.238815	17.382490
61518		1.659459	-14.218598	17.008566
61519		1.786337	-14.178775	16.622796
61520		1.864601	-14.188068	16.253473
61521		1.939460	-14.246286	15.838688
61522		2.032701	-14.237375	15.380388
61523		2.087647	-14.179888	14.938640
61524		2.119298	-14.115463	14.507296
61525		2.067454	-14.153427	14.116538
61526		2.012036	-14.150139	13.781212
61527		1.956818	-14.058406	13.506470
61528		1.924405	-14.063163	13.254611
61529		1.847507	-14.139353	13.047503
61530		1.797984	-14.113471	12.863320
61531		1.729420	-14.110471	12.669885
61532		1.641009	-14.094956	12.432980
61533		1.529590	-14.022386	12.174472
61534		1.427344	-13.894759	11.961132
61535		1.305630	-13.722580	11.814607
61536		1.237696	-13.554407	11.773310
61537		1.140247	-13.480292	11.822346
61538		0.985957	-13.513818	11.928320
61539		0.872892	-13.528738	11.998770
61540		0.755707	-13.568229	12.002904
61541		0.645716	-13.516575	11.949386
61542		0.567840	-13.492071	11.803527
61543		0.524454	-13.530576	11.657494
61544		0.495853	-13.530895	11.523100
61545		0.439210	-13.469659	11.398717
61546		0.355907	-13.399917	11.310314
61547		0.276571	-13.412595	11.255717
61548		0.234620	-13.431286	11.213632
61549		0.196588	-13.408936	11.168766
61550		0.148272	-13.383796	11.124116
61551		0.098124	-13.424509	11.099470
61552		0.054243	-13.512764	11.093451
61553		0.014046	-13.541692	11.082134
61554		-0.033588	-13.573283	11.056895
61555		-0.066506	-13.628397	11.027268
61556		-0.121504	-13.631208	10.983417
61557		-0.195224	-13.627403	10.929478
61558		-0.268773	-13.615238	10.866398
61559		-0.338291	-13.590273	10.799092
61560		-0.407908	-13.602112	10.734699
61561		-0.454274	-13.620020	10.646325
61562		-0.467276	-13.714510	10.553034
61563		-0.480905	-13.799889	10.435286
61564		-0.527374	-13.873138	10.290474
61565		-0.585684	-13.959981	10.135120
61566		-0.636313	-13.988046	9.981545
61567		-0.697972	-13.996985	9.839335
61568		-0.771491	-14.033849	9.719831
61569		-0.863992	-14.094653	9.628559
61570		-0.949551	-14.175901	9.565089
61571		-1.019771	-14.273492	9.527976
61572		-1.094105	-14.374765	9.506825
61573		-1.153407	-14.449686	9.510101
61574		-1.201610	-14.499661	9.537961
61575		-1.238854	-14.550444	9.579346
61576		-1.270335	-14.597656	9.630692
61577		-1.303366	-14.651306	9.691124
61578		-1.322120	-14.739911	9.741780
61579		-1.324288	-14.830537	9.777555
61580		-1.330717	-14.920429	9.779108
61581		-1.355646	-15.017376	9.753578
61582		-1.379754	-15.073193	9.714943
61583		-1.393454	-15.082162	9.676822
61584		-1.412248	-15.073556	9.645228
61585		-1.431015	-15.104079	9.633476
61586		-1.460256	-15.130939	9.631280
61587		-1.498248	-15.114125	9.620921
61588		-1.534004	-15.080104	9.603555
61589		-1.557706	-15.069066	9.602830
61590		-1.555591	-15.083891	9.616354
61591		-1.559171	-15.107717	9.636156
61592		-1.565766	-15.127215	9.664897
61593		-1.574761	-15.119524	9.679753
61594		-1.578241	-15.082801	9.676022
61595		-1.588774	-15.034299	9.666456
61596		-1.599005	-15.008020	9.659838
61597		-1.599162	-14.995923	9.656801
61598		-1.585985	-14.979041	9.648527
61599		-1.575526	-14.945239	9.629673
61600		-1.573734	-14.906187	9.607991
61601		-1.565976	-14.901955	9.602858
61602		-1.553227	-14.897192	9.607074
61603		-1.532696	-14.863949	9.596842
61604		-1.520263	-14.834988	9.588595
61605		-1.511820	-14.807716	9.584875
61606		-1.491831	-14.775869	9.572603
61607		-1.473649	-14.761443	9.558243
61608		-1.465698	-14.778452	9.549968
61609		-1.454103	-14.828225	9.548984
61610		-1.438159	-14.840828	9.543872
61611		-1.410985	-14.834050	9.530858
61612		-1.390089	-14.798983	9.511763
61613		-1.390231	-14.742012	9.486739
61614		-1.387905	-14.706701	9.467892
61615		-1.378601	-14.681998	9.454595
61616		-1.381036	-14.631904	9.435574
61617		-1.386571	-14.594478	9.434434
61618		-1.382165	-14.562138	9.443418
61619		-1.375018	-14.504348	9.439259
61620		-1.349031	-14.462803	9.434677
61621		-1.301503	-14.448575	9.419648
61622		-1.279736	-14.359859	9.396735
61623		-1.267759	-14.292808	9.384029
61624		-1.258110	-14.271385	9.381970
61625		-1.249526	-14.276415	9.378341
61626		-1.228518	-14.266564	9.372518
61627		-1.209066	-14.269426	9.367213
61628		-1.198976	-14.266208	9.371071
61629		-1.189641	-14.246083	9.391460
61630		-1.157969	-14.253216	9.433601
61631		-1.144855	-14.258587	9.486326
61632		-1.110978	-14.261436	9.549419
61633		-1.080568	-14.249269	9.624860
61634		-1.057666	-14.269650	9.748154
61635		-0.963848	-14.335399	9.886297
61636		-0.799735	-14.356692	10.002429
61637		-0.637903	-14.360290	10.127199
61638		-0.454924	-14.319225	10.249809
61639		-0.289087	-14.255304	10.369869
61640		-0.122635	-14.220691	10.510963
61641		0.024469	-14.113984	10.661792
61642		0.139634	-14.012495	10.863216
61643		0.251743	-13.964778	11.104806
61644		0.306237	-13.908684	11.391810
61645		0.359315	-13.835651	11.694248
61646		0.407401	-13.793066	11.994634
61647		0.425808	-13.795449	12.309661
61648		0.462683	-13.822411	12.620996
61649		0.480304	-13.792805	12.902590
61650		0.503233	-13.755724	13.159160
61651		0.515304	-13.730086	13.417023
61652		0.513111	-13.704309	13.666896
61653		0.516411	-13.724228	13.920696
61654		0.504169	-13.704267	14.168948
61655		0.505973	-13.708163	14.420066
61656		0.476069	-13.689046	14.688745
61657		0.434218	-13.653321	14.987713
61658		0.415320	-13.610272	15.332819
61659		0.396149	-13.599884	15.710682
61660		0.329776	-13.611190	16.102730
61661		0.200727	-13.613888	16.493654
61662		0.082133	-13.641516	16.904645
61663		-0.031447	-13.705597	17.293089
61664		-0.122641	-13.757627	17.630588
61665		-0.237790	-13.816047	17.975826
61666		-0.324284	-13.767368	18.314842
61667		-0.449409	-13.657257	18.664227
61668		-0.582136	-13.599388	19.062013
61669		-0.722835	-13.514460	19.434414
61670		-0.817643	-13.471272	19.800504
61671		-0.953493	-13.491587	20.155070
61672		-1.039425	-13.514237	20.485431
61673		-1.097623	-13.503514	20.794511
61674		-1.208801	-13.485192	21.081639
61675		-1.334831	-13.516648	21.361828
61676		-1.409238	-13.539700	21.611751
61677		-1.440627	-13.488123	21.790534
61678		-1.449637	-13.398203	21.942756
61679		-1.557038	-13.345491	22.119467
61680		-1.635103	-13.322811	22.312818
61681		-1.684006	-13.322021	22.450521
61682		-1.765324	-13.340213	22.563776
61683		-1.875097	-13.390389	22.680684
61684		-1.898946	-13.438361	22.783484
61685		-1.913387	-13.455792	22.847167
61686		-1.940096	-13.449859	22.881754
61687		-1.982058	-13.454997	22.902004
61688		-2.009976	-13.495450	22.927587
61689		-2.032353	-13.548772	22.926982
61690		-2.047230	-13.601183	22.890718
61691		-2.056153	-13.659035	22.838323
61692		-2.082169	-13.693288	22.782542
61693		-2.111302	-13.718239	22.745132
61694		-2.148937	-13.737996	22.730136
61695		-2.191346	-13.763434	22.730545
61696		-2.229898	-13.790405	22.748194
61697		-2.267677	-13.796429	22.771903
61698		-2.293365	-13.803455	22.813303
61699		-2.338433	-13.821402	22.871340
61700		-2.370166	-13.849531	22.930883
61701		-2.402741	-13.900741	22.981033
61702		-2.431341	-13.937944	23.009329
61703		-2.449193	-13.956128	23.028389
61704		-2.463748	-13.963439	23.053739
61705		-2.488065	-13.970312	23.092930
61706		-2.527685	-13.988543	23.130701
61707		-2.563183	-14.006401	23.162159
61708		-2.582387	-14.015198	23.181796
61709		-2.592153	-14.011832	23.198697
61710		-2.592151	-14.024446	23.225490
61711		-2.586290	-14.045829	23.277727
61712		-2.587978	-14.081280	23.326007
61713		-2.610629	-14.098253	23.356621
61714		-2.623068	-14.101310	23.407003
61715		-2.658157	-14.113257	23.467690
61716		-2.685582	-14.136474	23.529431
61717		-2.712515	-14.151744	23.591075
61718		-2.706430	-14.154381	23.654844
61719		-2.694605	-14.166212	23.688873
61720		-2.694416	-14.185716	23.712984
61721		-2.684394	-14.191780	23.720901
61722		-2.674721	-14.200090	23.704735
61723		-2.653509	-14.188138	23.678144
61724		-2.649540	-14.186087	23.667040
61725		-2.645868	-14.215987	23.672509
61726		-2.625509	-14.243253	23.680511
61727		-2.604441	-14.249844	23.679383
61728		-2.594477	-14.254641	23.677745
61729		-2.577026	-14.268307	23.674646
61730		-2.566396	-14.245628	23.659526
61731		-2.562635	-14.229153	23.648933
61732		-2.547256	-14.228967	23.655747
61733		-2.537423	-14.231755	23.654226
61734		-2.530053	-14.231590	23.650073
61735		-2.510916	-14.242694	23.662393
61736		-2.473808	-14.248171	23.661684
61737		-2.445476	-14.257152	23.623332
61738		-2.404839	-14.259989	23.581333
61739		-2.335095	-14.258916	23.534603
61740		-2.251290	-14.274653	23.444016
61741		-2.181851	-14.341711	23.305351
61742		-2.094569	-14.407722	23.152974
61743		-1.965671	-14.435442	22.994358
61744		-1.806594	-14.412264	22.800118
61745		-1.647221	-14.399658	22.568345
61746		-1.461464	-14.400688	22.323061
61747		-1.349168	-14.460569	22.064229
61748		-1.276500	-14.563679	21.798185
61749		-1.182599	-14.618519	21.506498
61750		-1.075879	-14.657263	21.167810
61751		-0.976824	-14.714734	20.799229
61752		-0.875473	-14.736901	20.408162
61753		-0.767813	-14.734602	20.011234
61754		-0.714345	-14.782415	19.619659
61755		-0.699149	-14.845632	19.232208
61756		-0.647668	-14.887021	18.874846
61757		-0.570691	-14.938485	18.533059
61758		-0.462743	-15.019249	18.213950
61759		-0.347589	-15.057927	17.894168
61760		-0.223324	-15.067593	17.576784
61761		-0.095960	-15.123362	17.246670
61762		0.005730	-15.163282	16.902011
61763		0.097928	-15.170375	16.542921
61764		0.219799	-15.100686	16.185047
61765		0.396127	-14.980891	15.854010
61766		0.529451	-14.965412	15.483232
61767		0.634499	-15.036016	15.111966
61768		0.727001	-15.036502	14.769155
61769		0.802198	-15.007400	14.391602
61770		0.824063	-15.041542	14.003811
61771		0.873163	-15.007695	13.641354
61772		0.875934	-14.877161	13.320160
61773		0.866366	-14.771043	13.079970
61774		0.898290	-14.679822	12.931731
61775		0.914426	-14.648081	12.807223
61776		0.920103	-14.666004	12.680977
61777		0.878922	-14.664127	12.573386
61778		0.795757	-14.686663	12.475241
61779		0.709171	-14.614473	12.368676
61780		0.584444	-14.531033	12.263202
61781		0.477600	-14.465917	12.183457
61782		0.368175	-14.402517	12.131417
61783		0.280453	-14.373807	12.093782
61784		0.220675	-14.372772	12.038222
61785		0.190622	-14.422297	11.944531
61786		0.142532	-14.525106	11.810173
61787		0.073556	-14.563400	11.645024
61788		-0.037228	-14.505306	11.448654
61789		-0.149343	-14.465591	11.247666
61790		-0.220039	-14.452345	11.089441
61791		-0.250855	-14.408354	10.997078
61792		-0.265060	-14.360652	10.967300
61793		-0.253498	-14.367658	10.988981
61794		-0.220304	-14.399934	11.023730
61795		-0.210597	-14.405126	11.047576
61796		-0.206769	-14.427104	11.060061
61797		-0.225064	-14.401569	11.054262
61798		-0.259468	-14.342936	11.027401
61799		-0.311327	-14.328029	11.011842
61800		-0.361841	-14.344084	11.004012
61801		-0.428601	-14.338506	10.972480
61802		-0.503502	-14.326229	10.918784
61803		-0.576745	-14.339639	10.850390
61804		-0.639721	-14.340011	10.757055
61805		-0.712318	-14.324337	10.634326
61806		-0.807671	-14.273644	10.493421
61807		-0.895956	-14.219813	10.360048
61808		-0.934048	-14.204311	10.240114
61809		-0.982874	-14.207144	10.141490
61810		-1.053643	-14.238862	10.081820
61811		-1.116148	-14.349083	10.028777
61812		-1.163701	-14.486006	9.939428
61813		-1.245940	-14.526400	9.816678
61814		-1.343598	-14.509205	9.681425
61815		-1.448959	-14.548196	9.540479
61816		-1.523748	-14.611715	9.417419
61817		-1.580345	-14.657175	9.327114
61818		-1.610971	-14.697917	9.249514
61819		-1.658693	-14.768673	9.184424
61820		-1.708540	-14.844604	9.143731
61821		-1.760841	-14.920600	9.119783
61822		-1.803165	-14.997025	9.105310
61823		-1.823805	-15.053498	9.094752
61824		-1.845029	-15.115963	9.099316
61825		-1.878485	-15.171611	9.112191
61826		-1.902499	-15.252781	9.138329
61827		-1.937404	-15.363994	9.186126
61828		-1.976663	-15.465436	9.237601
61829		-1.997842	-15.547613	9.276134
61830		-2.016222	-15.594906	9.295458
61831		-2.046562	-15.620383	9.304966
61832		-2.068428	-15.637279	9.299052
61833		-2.059414	-15.665729	9.286485
61834		-2.055707	-15.706994	9.278204
61835		-2.053208	-15.742278	9.268447
61836		-2.058953	-15.754443	9.255917
61837		-2.062545	-15.756332	9.237003
61838		-2.061511	-15.757377	9.216754
61839		-2.067739	-15.758762	9.200706
61840		-2.068853	-15.774241	9.187210
61841		-2.080705	-15.785165	9.178085
61842		-2.088457	-15.799328	9.162901
61843		-2.086008	-15.820313	9.151895
61844		-2.082540	-15.838371	9.150535
61845		-2.062113	-15.840678	9.147273
61846		-2.043627	-15.807571	9.128377
61847		-2.038363	-15.773506	9.108912
61848		-2.030130	-15.757765	9.098873
61849		-2.018064	-15.743697	9.088195
61850		-1.993990	-15.714020	9.065763
61851		-1.976560	-15.673401	9.040115
61852		-1.966345	-15.640187	9.022467
61853		-1.956188	-15.626031	9.016725
61854		-1.945025	-15.619699	9.019572
61855		-1.934740	-15.593284	9.020985
61856		-1.930544	-15.551412	9.012925
61857		-1.927804	-15.518078	9.005919
61858		-1.920327	-15.504070	9.001912
61859		-1.917743	-15.507834	9.002514
61860		-1.903370	-15.506251	8.996514
61861		-1.880833	-15.484417	8.976835
61862		-1.862138	-15.467384	8.959291
61863		-1.853946	-15.445072	8.939499
61864		-1.829918	-15.432495	8.918830
61865		-1.803609	-15.411656	8.899731
61866		-1.785399	-15.396236	8.880307
61867		-1.765124	-15.394275	8.865163
61868		-1.760060	-15.414834	8.856403
61869		-1.749833	-15.449972	8.852269
61870		-1.744536	-15.452410	8.839437
61871		-1.736825	-15.437368	8.832313
61872		-1.729288	-15.419821	8.835063
61873		-1.729157	-15.359496	8.825405
61874		-1.721933	-15.319803	8.819200
61875		-1.684731	-15.300890	8.822433
61876		-1.642295	-15.222075	8.800876
61877		-1.609746	-15.082739	8.766453
61878		-1.580265	-15.018408	8.798513
61879		-1.537135	-15.003832	8.858364
61880		-1.549253	-15.035246	8.906142
61881		-1.544265	-15.070777	8.928867
61882		-1.518529	-15.069208	8.922608
61883		-1.514395	-15.049525	8.900652
61884		-1.490765	-15.014944	8.873349
61885		-1.468347	-15.006073	8.845909
61886		-1.377653	-15.004382	8.836063
61887		-1.270138	-14.906236	8.815055
61888		-1.170758	-14.793096	8.828411
61889		-1.038538	-14.745383	8.915577
61890		-0.871314	-14.746043	9.056146
61891		-0.683094	-14.747674	9.233335
61892		-0.533444	-14.721031	9.461417
61893		-0.321625	-14.683322	9.696455
61894		-0.078098	-14.641022	9.904611
61895		0.178402	-14.616623	10.110440
61896		0.390887	-14.564958	10.321250
61897		0.527505	-14.489896	10.552818
61898		0.706645	-14.434496	10.820464
61899		0.888554	-14.355270	11.064546
61900		1.018743	-14.268047	11.310384
61901		1.048465	-14.181822	11.572940
61902		1.087954	-14.127216	11.860680
61903		1.115243	-14.096043	12.150304
61904		1.095873	-14.030082	12.448191
61905		1.033698	-13.995805	12.765526
61906		0.964649	-14.009301	13.114853
61907		0.880577	-14.022233	13.494368
61908		0.745419	-14.044742	13.888563
61909		0.654084	-14.019488	14.298308
61910		0.577100	-13.959594	14.712916
61911		0.458860	-13.884757	15.147434
61912		0.280601	-13.859675	15.618449
61913		0.131988	-13.874909	16.114202
61914		-0.006256	-13.831388	16.597780
61915		-0.166959	-13.789185	17.106792
61916		-0.354689	-13.799360	17.642597
61917		-0.481000	-13.749732	18.148738
61918		-0.598524	-13.643206	18.618929
61919		-0.911068	-13.571902	19.110167
61920		-1.138426	-13.584602	19.652428
61921		-1.303560	-13.620295	20.160340
61922		-1.481051	-13.603165	20.588886
61923		-1.636520	-13.590127	21.003697
61924		-1.748860	-13.677759	21.396477
61925		-1.812262	-13.756685	21.699527
61926		-1.908826	-13.783727	21.932605
61927		-2.031208	-13.813318	22.158835
61928		-2.091126	-13.846162	22.373378
61929		-2.124216	-13.890910	22.546188
61930		-2.143225	-13.924824	22.658552
61931		-2.148217	-13.927297	22.733324
61932		-2.175535	-13.940777	22.791615
61933		-2.203023	-13.940723	22.839490
61934		-2.236856	-13.968925	22.897456
61935		-2.215208	-13.997869	22.943656
61936		-2.191134	-14.035323	22.976192
61937		-2.179989	-14.079412	22.989316
61938		-2.159047	-14.093846	22.973144
61939		-2.129461	-14.089697	22.938950
61940		-2.102499	-14.067345	22.902982
61941		-2.089553	-14.065105	22.861320
61942		-2.094500	-14.091576	22.829711
61943		-2.110451	-14.101637	22.806185
61944		-2.118966	-14.098076	22.784845
61945		-2.119279	-14.100269	22.787833
61946		-2.131376	-14.116560	22.796723
61947		-2.144436	-14.128885	22.798751
61948		-2.147531	-14.128207	22.809033
61949		-2.133115	-14.104604	22.813849
61950		-2.138054	-14.084943	22.828809
61951		-2.167515	-14.105746	22.863293
61952		-2.180049	-14.151666	22.907009
61953		-2.176616	-14.169703	22.937585
61954		-2.186498	-14.197083	22.957210
61955		-2.195910	-14.205899	22.975520
61956		-2.211097	-14.205594	23.000877
61957		-2.239081	-14.203294	23.026981
61958		-2.268871	-14.222750	23.065775
61959		-2.291087	-14.256398	23.105989
61960		-2.305876	-14.290272	23.135237
61961		-2.322097	-14.307765	23.146301
61962		-2.349892	-14.318503	23.150001
61963		-2.365201	-14.317205	23.164763
61964		-2.372362	-14.317406	23.180519
61965		-2.369179	-14.315494	23.191090
61966		-2.367052	-14.310787	23.195696
61967		-2.371143	-14.310713	23.192370
61968		-2.384682	-14.303978	23.189436
61969		-2.412144	-14.295410	23.208801
61970		-2.427533	-14.278318	23.258708
61971		-2.446158	-14.288355	23.328205
61972		-2.468389	-14.315111	23.407251
61973		-2.494981	-14.333455	23.472218
61974		-2.514217	-14.344197	23.524232
61975		-2.522743	-14.343554	23.555992
61976		-2.526861	-14.338892	23.570319
61977		-2.519536	-14.347128	23.572486
61978		-2.519907	-14.368838	23.560673
61979		-2.518357	-14.398688	23.548059
61980		-2.516257	-14.425686	23.547397
61981		-2.502756	-14.437376	23.543563
61982		-2.490865	-14.437490	23.542411
61983		-2.477396	-14.437037	23.545881
61984		-2.462225	-14.433296	23.543126
61985		-2.452984	-14.434356	23.539718
61986		-2.441906	-14.437176	23.526154
61987		-2.419598	-14.434012	23.507273
61988		-2.404053	-14.430790	23.502782
61989		-2.388156	-14.437881	23.502904
61990		-2.368460	-14.431085	23.504881
61991		-2.342036	-14.414320	23.506810
61992		-2.311461	-14.420272	23.506335
61993		-2.277924	-14.422539	23.499235
61994		-2.241628	-14.415127	23.477929
61995		-2.190522	-14.419754	23.421313
61996		-2.127761	-14.426434	23.329995
61997		-2.059199	-14.435370	23.220421
61998		-1.976476	-14.453137	23.091178
61999		-1.859740	-14.458530	22.910143
62000		-1.729655	-14.457762	22.697138
62001		-1.614479	-14.484887	22.501617
62002		-1.504107	-14.533851	22.296268
62003		-1.359440	-14.557280	22.046019
62004		-1.219279	-14.607799	21.748622
62005		-1.031852	-14.648122	21.415261
62006		-0.790491	-14.682922	21.087047
62007		-0.526243	-14.707238	20.730022
62008		-0.260812	-14.764556	20.329615
62009		-0.117623	-14.914204	19.947677
62010		-0.009363	-15.049958	19.542067
62011		0.119790	-15.086936	19.113995
62012		0.301687	-15.000173	18.654677
62013		0.475212	-14.977723	18.177973
62014		0.670017	-14.979902	17.747276
62015		0.857377	-14.927569	17.308392
62016		1.003946	-14.977253	16.792972
62017		1.121250	-14.998668	16.331562
62018		1.164792	-14.905819	15.922824
62019		1.176253	-14.748360	15.502584
62020		1.215122	-14.618995	15.079025
62021		1.254953	-14.598801	14.677419
62022		1.290289	-14.612514	14.287816
62023		1.244907	-14.606693	13.933793
62024		1.162351	-14.546951	13.625878
62025		1.126053	-14.434675	13.313523
62026		1.097958	-14.363198	12.991562
62027		1.051604	-14.316681	12.712366
62028		0.956009	-14.283983	12.467709
62029		0.832127	-14.267031	12.223312
62030		0.743500	-14.261882	11.993962
62031		0.672982	-14.183618	11.781874
62032		0.561581	-14.080923	11.585983
62033		0.462304	-14.021085	11.450092
62034		0.424894	-13.972540	11.369424
62035		0.400001	-13.920120	11.336911
62036		0.382422	-13.847505	11.335472
62037		0.379283	-13.788062	11.363668
62038		0.395376	-13.745077	11.398801
62039		0.400039	-13.736223	11.432243
62040		0.402000	-13.727650	11.453972
62041		0.374784	-13.739663	11.465163
62042		0.317524	-13.759448	11.455776
62043		0.249923	-13.770067	11.413801
62044		0.158010	-13.771347	11.349356
62045		0.074577	-13.777814	11.261491
62046		-0.010825	-13.785728	11.154515
62047		-0.116339	-13.796713	11.036852
62048		-0.234056	-13.826704	10.901344
62049		-0.345470	-13.845351	10.758885
62050		-0.446266	-13.843761	10.616184
62051		-0.543401	-13.827783	10.494287
62052		-0.586705	-13.874720	10.363922
62053		-0.585455	-13.987935	10.213890
62054		-0.571452	-14.033936	10.048901
62055		-0.624621	-14.029772	9.870540
62056		-0.707278	-14.099324	9.693084
62057		-0.798052	-14.161281	9.527255
62058		-0.865223	-14.220061	9.386145
62059		-0.968390	-14.256128	9.274454
62060		-1.079568	-14.264971	9.195266
62061		-1.208081	-14.260943	9.140697
62062		-1.300193	-14.278887	9.112962
62063		-1.373699	-14.324192	9.106509
62064		-1.462994	-14.386042	9.125930
62065		-1.529235	-14.477865	9.143858
62066		-1.568866	-14.556376	9.163481
62067		-1.599207	-14.618953	9.178517
62068		-1.630311	-14.677402	9.201574
62069		-1.650028	-14.732320	9.225568
62070		-1.691658	-14.800815	9.257233
62071		-1.723559	-14.872878	9.287616
62072		-1.759586	-14.905984	9.291371
62073		-1.790303	-14.900507	9.274738
62074		-1.808792	-14.907547	9.270846
62075		-1.825088	-14.973856	9.293137
62076		-1.861604	-15.045313	9.319289
62077		-1.904585	-15.079817	9.329240
62078		-1.924767	-15.096784	9.327421
62079		-1.937101	-15.100194	9.325100
62080		-1.949808	-15.099139	9.329739
62081		-1.973979	-15.097584	9.337976
62082		-1.996627	-15.129642	9.358245
62083		-2.011598	-15.176894	9.377512
62084		-2.022873	-15.215443	9.388908
62085		-2.026095	-15.247304	9.399461
62086		-2.030126	-15.249238	9.402839
62087		-2.038697	-15.217218	9.397586
62088		-2.029465	-15.184476	9.392087
62089		-2.005403	-15.166336	9.394344
62090		-1.971778	-15.163163	9.397626
62091		-1.947236	-15.159026	9.396411
62092		-1.943304	-15.141634	9.395211
62093		-1.940123	-15.126937	9.391818
62094		-1.938366	-15.140188	9.397002
62095		-1.931820	-15.167147	9.413589
62096		-1.937925	-15.168748	9.427440
62097		-1.943262	-15.145944	9.423919
62098		-1.949859	-15.104085	9.402343
62099		-1.960211	-15.062261	9.374743
62100		-1.960696	-15.045737	9.360454
62101		-1.950651	-15.059958	9.363798
62102		-1.932162	-15.069139	9.365060
62103		-1.918657	-15.042396	9.347360
62104		-1.897827	-15.012785	9.321917
62105		-1.874997	-14.992162	9.299872
62106		-1.868933	-14.960237	9.274202
62107		-1.840664	-14.931757	9.246314
62108		-1.819003	-14.939568	9.235900
62109		-1.808493	-14.927805	9.214427
62110		-1.826270	-14.879379	9.176329
62111		-1.817599	-14.857377	9.160629
62112		-1.793989	-14.824944	9.146329
62113		-1.758368	-14.799965	9.129680
62114		-1.723851	-14.766391	9.112567
62115		-1.722989	-14.699246	9.081610
62116		-1.717438	-14.656294	9.060202
62117		-1.673798	-14.617446	9.041890
62118		-1.649746	-14.570482	9.020673
62119		-1.611910	-14.552203	9.006686
62120		-1.600654	-14.521182	9.001190
62121		-1.566251	-14.498439	8.994246
62122		-1.509869	-14.470903	8.990373
62123		-1.434090	-14.430198	8.986744
62124		-1.378691	-14.385513	8.990555
62125		-1.332767	-14.347205	9.010447
62126		-1.304296	-14.326916	9.047205
62127		-1.279024	-14.333647	9.105149
62128		-1.264601	-14.321352	9.179516
62129		-1.233775	-14.306843	9.275288
62130		-1.191010	-14.270641	9.411246
62131		-1.097043	-14.265603	9.588204
62132		-0.904844	-14.285730	9.775777
62133		-0.705428	-14.279474	9.955164
62134		-0.552755	-14.271206	10.138139
62135		-0.415399	-14.301666	10.340073
62136		-0.304415	-14.310836	10.535820
62137		-0.189039	-14.264525	10.743425
62138		-0.013890	-14.219430	10.946181
62139		0.126099	-14.129230	11.164847
62140		0.248572	-14.074918	11.425493
62141		0.373157	-14.053507	11.714122
62142		0.455215	-14.025161	12.000066
62143		0.528082	-13.971371	12.297750
62144		0.604856	-13.907622	12.579399
62145		0.673873	-13.855405	12.857099
62146		0.700599	-13.841631	13.174835
62147		0.707999	-13.837164	13.536925
62148		0.710899	-13.776218	13.883428
62149		0.673790	-13.743098	14.243184
62150		0.621050	-13.783894	14.624005
62151		0.582968	-13.825589	14.995065
62152		0.521627	-13.804544	15.350415
62153		0.403785	-13.777558	15.704441
62154		0.325587	-13.774803	16.084091
62155		0.237554	-13.794529	16.503395
62156		0.137313	-13.810756	16.941156
62157		-0.003852	-13.789762	17.374914
62158		-0.113943	-13.721681	17.793228
62159		-0.393377	-13.615588	18.198347
62160		-0.616891	-13.564047	18.685436
62161		-0.765704	-13.573905	19.182777
62162		-0.844489	-13.540002	19.614234
62163		-1.065512	-13.503825	20.057444
62164		-1.294159	-13.583727	20.550054
62165		-1.453466	-13.654134	21.019628
62166		-1.596234	-13.704026	21.394292
62167		-1.723558	-13.795207	21.701594
62168		-1.820541	-13.877542	21.946150
62169		-1.886382	-13.944957	22.108465
62170		-1.906561	-13.994175	22.205360
62171		-1.940441	-14.032958	22.247690
62172		-1.991835	-14.119417	22.268172
62173		-2.028643	-14.201859	22.268166
62174		-2.053541	-14.294913	22.238359
62175		-2.067833	-14.367563	22.180678
62176		-2.071906	-14.404597	22.115637
62177		-2.061066	-14.412979	22.060776
62178		-2.038689	-14.414506	22.030429
62179		-2.037379	-14.406858	22.026254
62180		-2.085857	-14.427345	22.059398
62181		-2.130193	-14.446882	22.135625
62182		-2.159115	-14.445654	22.210605
62183		-2.190170	-14.430307	22.276937
62184		-2.214200	-14.392461	22.365332
62185		-2.228493	-14.344322	22.471799
62186		-2.234290	-14.291690	22.565168
62187		-2.239842	-14.235740	22.648074
62188		-2.252846	-14.180943	22.743063
62189		-2.291082	-14.179968	22.822110
62190		-2.312334	-14.195701	22.887924
62191		-2.321075	-14.187130	22.941278
62192		-2.307239	-14.152340	22.990365
62193		-2.295268	-14.099732	23.024047
62194		-2.265889	-14.047915	23.054965
62195		-2.245264	-14.022426	23.075686
62196		-2.229966	-14.008269	23.101928
62197		-2.193119	-14.003191	23.129063
62198		-2.144807	-13.946857	23.139783
62199		-2.150472	-13.885020	23.170459
62200		-2.131609	-13.838436	23.248671
62201		-2.112014	-13.813287	23.338836
62202		-2.107846	-13.810433	23.429584
62203		-2.086496	-13.792180	23.524459
62204		-2.063122	-13.781517	23.591527
62205		-2.045843	-13.782727	23.621111
62206		-2.027938	-13.778604	23.624716
62207		-2.023526	-13.783165	23.614778
62208		-2.024520	-13.776379	23.619750
62209		-2.001188	-13.771800	23.628491
62210		-1.980267	-13.782915	23.628768
62211		-1.956948	-13.801000	23.627733
62212		-1.937246	-13.811111	23.618251
62213		-1.917699	-13.821563	23.595850
62214		-1.890533	-13.818348	23.568258
62215		-1.878569	-13.819647	23.552075
62216		-1.864953	-13.851945	23.534252
62217		-1.851913	-13.869677	23.513985
62218		-1.854199	-13.888135	23.497433
62219		-1.856488	-13.887293	23.486612
62220		-1.852733	-13.866302	23.477892
62221		-1.843803	-13.848108	23.484911
62222		-1.842317	-13.843121	23.501228
62223		-1.839589	-13.845406	23.517141
62224		-1.832167	-13.847399	23.523060
62225		-1.837392	-13.840668	23.522174
62226		-1.849021	-13.841622	23.526459
62227		-1.844349	-13.846942	23.531572
62228		-1.844782	-13.849227	23.533928
62229		-1.848670	-13.855559	23.540647
62230		-1.867164	-13.854408	23.539880
62231		-1.889125	-13.862886	23.533782
62232		-1.898866	-13.866388	23.530983
62233		-1.907209	-13.872579	23.537113
62234		-1.916418	-13.890664	23.545771
62235		-1.925314	-13.912906	23.557226
62236		-1.932305	-13.923292	23.560868
62237		-1.928055	-13.920398	23.568198
62238		-1.924840	-13.923596	23.585145
62239		-1.936258	-13.936492	23.594444
62240		-1.944278	-13.937351	23.596558
62241		-1.948301	-13.945330	23.601018
62242		-1.945217	-13.974392	23.594579
62243		-1.938648	-14.008860	23.590765
62244		-1.930310	-14.028965	23.581416
62245		-1.920373	-14.022350	23.550297
62246		-1.892854	-14.014771	23.525987
62247		-1.869847	-14.003537	23.511445
62248		-1.845133	-14.011730	23.486489
62249		-1.816823	-14.027075	23.455287
62250		-1.782801	-14.037731	23.402199
62251		-1.768068	-14.045591	23.316080
62252		-1.751800	-14.038794	23.180710
62253		-1.722718	-14.027601	23.023494
62254		-1.697835	-14.008773	22.867882
62255		-1.653842	-13.997639	22.716574
62256		-1.599337	-13.987986	22.565706
62257		-1.507507	-13.997503	22.379480
62258		-1.357387	-14.011484	22.155517
62259		-1.249869	-14.060169	21.895020
62260		-1.184688	-14.118365	21.624937
62261		-1.108226	-14.090643	21.381947
62262		-1.042911	-14.036485	21.141890
62263		-0.982011	-14.060939	20.865954
62264		-0.863821	-14.086254	20.613028
62265		-0.819206	-14.145793	20.407806
62266		-0.767037	-14.261658	20.236123
62267		-0.606341	-14.311660	19.993695
62268		-0.435559	-14.347009	19.637713
62269		-0.338086	-14.458526	19.251457
62270		-0.243975	-14.536258	18.858214
62271		-0.163633	-14.560979	18.455107
62272		-0.133720	-14.623440	18.029764
62273		-0.066910	-14.641656	17.629350
62274		0.043326	-14.616806	17.270949
62275		0.100384	-14.561770	16.955920
62276		0.109749	-14.542231	16.682027
62277		0.179414	-14.523200	16.417749
62278		0.236257	-14.569909	16.124076
62279		0.247683	-14.583699	15.823025
62280		0.239295	-14.527818	15.536535
62281		0.248618	-14.522533	15.206198
62282		0.216528	-14.568303	14.867205
62283		0.219209	-14.572949	14.567413
62284		0.144487	-14.497537	14.310732
62285		0.056377	-14.412563	14.113339
62286		0.032875	-14.349644	13.894482
62287		0.058247	-14.318463	13.650923
62288		0.104396	-14.205587	13.415848
62289		0.093155	-14.259247	13.147340
62290		0.088951	-14.380324	12.896236
62291		-0.028780	-14.428583	12.672079
62292		-0.186721	-14.352774	12.455188
62293		-0.368485	-14.200090	12.271923
62294		-0.490220	-14.090760	12.180348
62295		-0.549152	-14.005101	12.168072
62296		-0.567756	-13.958911	12.229763
62297		-0.518102	-14.017001	12.310561
62298		-0.451533	-14.081231	12.368773
62299		-0.411901	-14.105487	12.382810
62300		-0.387927	-14.103500	12.348616
62301		-0.385229	-14.080214	12.293820
62302		-0.401235	-14.052643	12.238417
62303		-0.426281	-14.027109	12.191405
62304		-0.474751	-13.980861	12.135573
62305		-0.532199	-13.946801	12.064058
62306		-0.570440	-13.962172	11.974131
62307		-0.610765	-13.977758	11.881325
62308		-0.664056	-13.971842	11.789099
62309		-0.656189	-14.010708	11.660837
62310		-0.643605	-14.107782	11.510411
62311		-0.679301	-14.167020	11.350042
62312		-0.737917	-14.183428	11.177947
62313		-0.775040	-14.250807	11.001711
62314		-0.829260	-14.311849	10.819339
62315		-0.958906	-14.347353	10.622999
62316		-1.102763	-14.393334	10.452127
62317		-1.216922	-14.454666	10.293361
62318		-1.358641	-14.539091	10.123025
62319		-1.476236	-14.651925	9.947800
62320		-1.587333	-14.776672	9.778475
62321		-1.728649	-14.904028	9.620408
62322		-1.851287	-15.006125	9.470915
62323		-1.990684	-15.084113	9.341355
62324		-2.130130	-15.183267	9.234229
62325		-2.250730	-15.292954	9.125009
62326		-2.381371	-15.430037	9.018045
62327		-2.509730	-15.581170	8.917800
62328		-2.577817	-15.624027	8.822075
62329		-2.589665	-15.558018	8.754527
62330		-2.578736	-15.531324	8.740237
62331		-2.562551	-15.588195	8.766283
62332		-2.516791	-15.670051	8.807184
