// General information: 
//  MT Manager version: 2022.2.0 
//  XDA version: 2022.2.0 build 7381 rev 124627 built on 2023-07-19
// Device information: 
//  DeviceId: 00B44804
//  ProductCode: MTW2-3A7G6
//  Firmware Version: 4.3.5
//  Hardware Version: 2.0.0
// Device settings: 
//  Filter Profile: human(46.1)
//  Option Flags: Orientation Smoother Disabled, Position/Velocity Smoother Disabled, Continuous Zero Rotation Update Disabled, AHS Disabled, ICC Disabled
// Coordinate system: ENU
PacketCounter	SampleTimeFine	Roll	Pitch	Yaw
59161		-42.819971	1.234186	97.202114
59162		-42.809666	1.226143	97.204084
59163		-42.779001	1.219073	97.208190
59164		-42.730357	1.198565	97.216199
59165		-42.705290	1.174177	97.220071
59166		-42.699749	1.138195	97.220897
59167		-42.645973	1.066753	97.238379
59168		-42.528041	0.978805	97.276699
59169		-42.433481	0.893842	97.316810
59170		-42.367379	0.781714	97.357778
59171		-42.199542	0.674296	97.394319
59172		-42.094071	0.593908	97.413558
59173		-41.994921	0.531680	97.453504
59174		-41.799301	0.427092	97.519170
59175		-41.664250	0.306467	97.597807
59176		-41.543645	0.205193	97.665577
59177		-41.487941	0.144028	97.716108
59178		-41.442501	0.107497	97.737146
59179		-41.423678	0.102686	97.721602
59180		-41.435412	0.129870	97.670386
59181		-41.469174	0.159369	97.605432
59182		-41.560796	0.190887	97.548065
59183		-41.650433	0.214375	97.511909
59184		-41.655214	0.231895	97.500088
59185		-41.650510	0.230525	97.514847
59186		-41.659979	0.197372	97.541355
59187		-41.713636	0.140073	97.585467
59188		-41.742446	0.071510	97.652032
59189		-41.765311	-0.007177	97.732251
59190		-41.682117	-0.110123	97.820303
59191		-41.528990	-0.212764	97.895254
59192		-41.490474	-0.374065	97.961556
59193		-41.457415	-0.588339	97.993358
59194		-41.439430	-0.900915	97.977016
59195		-41.365929	-1.234460	97.964562
59196		-41.029724	-1.602178	97.954343
59197		-40.593377	-1.983488	97.948823
59198		-40.173349	-2.361382	97.935017
59199		-39.743186	-2.741303	97.901736
59200		-39.370983	-3.137079	97.850327
59201		-39.019538	-3.552808	97.766466
59202		-38.670642	-3.986225	97.671825
59203		-38.342116	-4.401565	97.576343
59204		-38.011230	-4.826180	97.460909
59205		-37.729009	-5.277934	97.335251
59206		-37.521454	-5.697383	97.185001
59207		-37.203152	-6.170460	96.920581
59208		-37.008062	-6.813996	96.619932
59209		-37.059489	-7.354228	96.503931
59210		-37.114894	-7.837605	96.422829
59211		-36.576002	-8.167352	96.255793
59212		-36.445975	-8.710078	96.102771
59213		-36.161038	-9.055537	95.854892
59214		-35.723734	-9.579038	95.582538
59215		-35.084040	-9.961283	95.294409
59216		-34.613765	-10.396987	95.021004
59217		-34.488611	-10.748131	94.798924
59218		-34.332316	-11.095763	94.572870
59219		-33.985402	-11.361272	94.312503
59220		-33.677759	-11.596282	94.022975
59221		-33.578259	-11.809138	93.773354
59222		-33.533405	-12.022248	93.518762
59223		-33.382683	-12.206605	93.230477
59224		-33.235198	-12.356044	92.964366
59225		-33.052045	-12.513927	92.727770
59226		-32.839852	-12.647858	92.507957
59227		-32.591406	-12.697634	92.308360
59228		-32.417361	-12.747566	92.117179
59229		-32.333218	-12.818345	91.923594
59230		-32.292515	-12.861713	91.759822
59231		-32.216049	-12.907348	91.668284
59232		-32.156276	-12.949601	91.543141
59233		-32.197952	-12.961364	91.404626
59234		-32.190633	-12.961862	91.312530
59235		-32.072824	-12.942788	91.254753
59236		-31.968968	-12.924491	91.240883
59237		-31.995976	-12.904714	91.227540
59238		-32.059327	-12.884671	91.234753
59239		-32.115478	-12.849712	91.275571
59240		-32.243788	-12.819858	91.327360
59241		-32.426788	-12.834023	91.390398
59242		-32.590825	-12.823349	91.456897
59243		-32.620773	-12.807034	91.522184
59244		-32.649988	-12.823010	91.604130
59245		-32.647198	-12.851732	91.669571
59246		-32.673270	-12.866797	91.722857
59247		-32.630466	-12.929421	91.779376
59248		-32.594234	-12.994142	91.829029
59249		-32.590585	-13.014225	91.893146
59250		-32.570889	-13.041200	91.960381
59251		-32.521689	-13.120213	92.020001
59252		-32.485157	-13.248220	92.028193
59253		-32.582022	-13.244979	92.051575
59254		-32.595955	-13.228959	92.133569
59255		-32.491906	-13.304353	92.215036
59256		-32.408299	-13.443409	92.279724
59257		-32.498068	-13.461772	92.350665
59258		-32.466127	-13.495445	92.393942
59259		-32.394675	-13.554653	92.418049
59260		-32.371390	-13.582483	92.382602
59261		-32.406900	-13.617900	92.378051
59262		-32.338184	-13.630724	92.405962
59263		-32.313857	-13.617541	92.399901
59264		-32.261188	-13.590429	92.398693
59265		-32.112455	-13.554807	92.392372
59266		-31.872539	-13.521344	92.398510
59267		-31.597839	-13.482479	92.395359
59268		-31.345388	-13.444948	92.400292
59269		-31.177441	-13.454261	92.413524
59270		-31.170462	-13.462454	92.421525
59271		-31.179137	-13.428651	92.418216
59272		-31.123467	-13.401680	92.417261
59273		-31.071721	-13.364553	92.420842
59274		-30.907964	-13.322406	92.427775
59275		-30.692440	-13.303553	92.432102
59276		-30.543039	-13.296380	92.408749
59277		-30.576817	-13.300023	92.379911
59278		-30.648882	-13.277220	92.373826
59279		-30.649507	-13.248517	92.369698
59280		-30.661916	-13.231855	92.368843
59281		-30.649481	-13.212489	92.363086
59282		-30.587986	-13.186624	92.380209
59283		-30.483840	-13.172023	92.392167
59284		-30.466279	-13.179668	92.380403
59285		-30.529426	-13.194999	92.374728
59286		-30.563824	-13.197945	92.385874
59287		-30.582459	-13.192928	92.399059
59288		-30.580987	-13.180329	92.404220
59289		-30.546303	-13.182789	92.407453
59290		-30.519776	-13.205810	92.379291
59291		-30.541271	-13.227320	92.363862
59292		-30.506057	-13.231543	92.375885
59293		-30.482593	-13.220967	92.406221
59294		-30.501038	-13.204677	92.416911
59295		-30.566062	-13.188806	92.410951
59296		-30.600106	-13.153673	92.407772
59297		-30.627647	-13.107674	92.410577
59298		-30.687428	-13.076673	92.410622
59299		-30.744188	-13.063082	92.398296
59300		-30.746753	-13.041201	92.385686
59301		-30.615436	-13.036266	92.354083
59302		-30.508761	-13.031959	92.364490
59303		-30.440148	-13.018813	92.347629
59304		-30.536540	-13.014543	92.339823
59305		-30.645499	-12.961941	92.368226
59306		-30.692294	-12.852733	92.422514
59307		-30.707280	-12.724737	92.475513
59308		-30.663312	-12.596184	92.541379
59309		-30.631861	-12.455151	92.634043
59310		-30.621499	-12.272612	92.764792
59311		-30.667300	-12.069496	92.914450
59312		-30.666727	-11.845171	93.052260
59313		-30.772818	-11.605885	93.201789
59314		-30.990321	-11.345084	93.368760
59315		-31.155396	-11.074957	93.537390
59316		-31.252403	-10.782760	93.743362
59317		-31.307755	-10.548118	93.911162
59318		-31.322718	-10.343933	94.004479
59319		-31.411471	-10.121156	94.092548
59320		-31.378880	-9.924422	94.158885
59321		-31.288788	-9.815267	94.167716
59322		-31.298673	-9.767242	94.172650
59323		-31.268658	-9.725191	94.218729
59324		-31.145110	-9.691746	94.296806
59325		-31.019492	-9.612698	94.344219
59326		-30.905724	-9.467498	94.385554
59327		-30.834608	-9.281721	94.383591
59328		-30.858521	-9.079446	94.391971
59329		-30.993145	-8.843824	94.418991
59330		-31.233434	-8.606906	94.500457
59331		-31.653502	-8.506742	94.534998
59332		-32.079831	-8.328448	94.547598
59333		-32.503721	-7.974760	94.488162
59334		-33.012815	-7.633769	94.496684
59335		-33.213943	-7.237001	94.571344
59336		-33.288880	-6.868336	94.649315
59337		-33.514438	-6.546379	94.763825
59338		-33.688821	-6.233411	94.865988
59339		-33.901316	-5.903344	95.000692
59340		-34.053792	-5.542571	95.226689
59341		-34.043023	-5.187082	95.468464
59342		-34.007584	-4.895925	95.616644
59343		-34.204456	-4.656016	95.689149
59344		-34.424292	-4.450429	95.727737
59345		-34.496742	-4.309370	95.712363
59346		-34.619132	-4.233232	95.667632
59347		-34.749917	-4.191131	95.620325
59348		-34.725223	-4.178398	95.591164
59349		-34.660879	-4.193256	95.615327
59350		-34.682805	-4.202619	95.684708
59351		-34.790007	-4.186586	95.769936
59352		-35.001639	-4.145672	95.889764
59353		-35.157913	-4.018743	96.037708
59354		-35.263996	-3.907985	96.113861
59355		-35.645818	-3.786526	96.185275
59356		-36.009335	-3.628248	96.293086
59357		-36.142898	-3.399504	96.507733
59358		-36.010872	-3.113372	96.711411
59359		-36.134920	-2.872760	96.910068
59360		-36.763315	-2.655408	97.104552
59361		-37.741875	-2.421465	97.231554
59362		-38.204600	-2.124816	97.361635
59363		-38.190371	-1.875273	97.533604
59364		-38.012365	-1.624010	97.700178
59365		-37.935410	-1.385500	97.841339
59366		-38.070964	-1.176240	97.943918
59367		-38.293505	-0.979750	97.950843
59368		-38.521414	-0.861079	97.964975
59369		-38.576527	-0.777795	97.994542
59370		-38.531264	-0.692260	98.003751
59371		-38.517501	-0.642420	98.000349
59372		-38.516415	-0.635954	98.009927
59373		-38.502156	-0.646335	98.014753
59374		-38.466812	-0.643770	98.008974
59375		-38.463178	-0.639877	98.006045
59376		-38.469573	-0.615890	97.992795
59377		-38.483500	-0.581519	97.973337
59378		-38.524256	-0.561715	97.969099
59379		-38.493364	-0.537599	97.961763
59380		-38.470550	-0.531366	97.967062
59381		-38.496062	-0.527541	97.974650
59382		-38.516295	-0.517797	97.973365
59383		-38.566330	-0.515321	97.979355
59384		-38.600203	-0.499952	97.992544
59385		-38.567331	-0.466306	98.001512
59386		-38.535398	-0.447559	97.997176
59387		-38.545437	-0.442703	97.995951
59388		-38.578635	-0.436544	97.990979
59389		-38.622911	-0.415453	97.983205
59390		-38.663833	-0.392149	97.983093
59391		-38.715148	-0.383887	97.981366
59392		-38.745129	-0.388804	97.983030
59393		-38.741188	-0.394025	97.984958
59394		-38.722344	-0.404036	97.980643
59395		-38.731932	-0.408657	97.988056
59396		-38.775021	-0.413925	98.005535
59397		-38.792006	-0.406926	98.014394
59398		-38.823882	-0.400092	98.019551
59399		-38.842409	-0.400530	98.031196
59400		-38.863903	-0.397325	98.044107
59401		-38.910330	-0.406902	98.068118
59402		-38.995127	-0.422112	98.111138
59403		-39.039601	-0.468348	98.180493
59404		-38.976349	-0.507269	98.231765
59405		-38.877722	-0.545688	98.265547
59406		-38.876728	-0.632085	98.309085
59407		-38.958226	-0.765718	98.382443
59408		-38.893044	-0.895490	98.442299
59409		-38.703027	-1.031230	98.472836
59410		-38.535876	-1.222683	98.499738
59411		-38.412962	-1.444153	98.521736
59412		-38.177094	-1.704311	98.539946
59413		-37.849772	-1.997069	98.543402
59414		-37.643663	-2.345853	98.539079
59415		-37.485864	-2.666203	98.526509
59416		-37.166150	-2.953065	98.503395
59417		-36.911155	-3.253101	98.438037
59418		-36.753360	-3.597078	98.334034
59419		-36.675586	-3.922132	98.208547
59420		-36.636902	-4.234083	98.080306
59421		-36.487182	-4.594051	97.902572
59422		-36.318016	-4.983186	97.681104
59423		-36.217956	-5.309341	97.486309
59424		-36.049412	-5.623140	97.318409
59425		-35.828305	-5.964229	97.140756
59426		-35.599027	-6.356464	96.955281
59427		-35.343256	-6.779073	96.769860
59428		-35.106129	-7.116887	96.641124
59429		-34.963909	-7.516874	96.555737
59430		-34.735195	-7.717626	96.423718
59431		-34.347485	-8.106964	96.145333
59432		-34.006024	-8.511237	95.861694
59433		-33.786106	-8.831897	95.613071
59434		-33.650800	-9.128786	95.414292
59435		-33.495794	-9.466340	95.225585
59436		-33.250091	-9.800687	95.032707
59437		-32.915028	-10.065933	94.841447
59438		-32.601063	-10.275823	94.668413
59439		-32.309907	-10.499439	94.456936
59440		-32.088434	-10.697438	94.229638
59441		-32.006672	-10.838192	94.082325
59442		-31.937342	-10.946944	93.983033
59443		-31.859016	-11.022105	93.847856
59444		-31.864983	-11.077435	93.687284
59445		-31.910453	-11.128516	93.547900
59446		-31.868157	-11.207558	93.429899
59447		-31.633185	-11.295439	93.307934
59448		-31.396584	-11.369301	93.081489
59449		-31.414826	-11.468079	92.854441
59450		-31.481269	-11.533212	92.728396
59451		-31.303792	-11.527215	92.682689
59452		-31.083491	-11.514410	92.666582
59453		-31.057562	-11.517939	92.668089
59454		-31.079068	-11.507051	92.695925
59455		-31.036305	-11.444373	92.748825
59456		-31.030735	-11.341423	92.827309
59457		-31.147071	-11.283472	92.912177
59458		-31.357366	-11.281615	92.991938
59459		-31.604491	-11.299452	93.037669
59460		-31.892013	-11.331652	93.078439
59461		-32.174428	-11.335817	93.140280
59462		-32.197839	-11.328277	93.188779
59463		-32.249859	-11.356430	93.205986
59464		-32.436130	-11.384913	93.245967
59465		-32.447711	-11.361300	93.256497
59466		-32.436395	-11.313732	93.281879
59467		-32.388609	-11.379371	93.325435
59468		-32.380057	-11.505674	93.331751
59469		-32.375179	-11.543774	93.345143
59470		-32.369365	-11.501054	93.387207
59471		-32.237474	-11.520096	93.397966
59472		-32.169863	-11.602255	93.390921
59473		-32.052946	-11.618776	93.399661
59474		-31.928660	-11.628630	93.368757
59475		-31.941755	-11.665237	93.326523
59476		-32.154316	-11.725865	93.267644
59477		-32.287384	-11.774599	93.232707
59478		-32.098541	-11.817768	93.201563
59479		-31.860116	-11.817647	93.156196
59480		-31.629625	-11.783223	93.082911
59481		-31.353791	-11.773189	92.992544
59482		-30.989860	-11.803670	92.896443
59483		-30.761128	-11.830650	92.820597
59484		-30.595971	-11.819611	92.766393
59485		-30.450215	-11.812042	92.713469
59486		-30.367844	-11.801510	92.676931
59487		-30.303344	-11.746400	92.642861
59488		-30.258233	-11.673158	92.617722
59489		-30.183778	-11.617486	92.599242
59490		-30.112796	-11.588137	92.577812
59491		-30.047976	-11.559860	92.549558
59492		-30.007261	-11.541100	92.519187
59493		-29.989712	-11.531733	92.496531
59494		-29.999411	-11.532233	92.479504
59495		-30.000344	-11.532772	92.465362
59496		-29.964743	-11.524861	92.449965
59497		-29.921540	-11.528399	92.430288
59498		-29.907747	-11.520363	92.416479
59499		-29.865907	-11.500642	92.408970
59500		-29.819917	-11.498158	92.396176
59501		-29.795725	-11.492856	92.380594
59502		-29.799574	-11.486659	92.372984
59503		-29.822753	-11.489780	92.359428
59504		-29.869621	-11.510558	92.331621
59505		-29.887239	-11.506322	92.305327
59506		-29.868759	-11.499133	92.282012
59507		-29.886256	-11.506594	92.278678
59508		-29.947378	-11.503107	92.316835
59509		-29.955855	-11.471668	92.339580
59510		-29.937283	-11.463501	92.365572
59511		-29.977184	-11.438944	92.395109
59512		-30.003197	-11.373718	92.424687
59513		-29.975170	-11.298857	92.463500
59514		-30.019929	-11.247945	92.498511
59515		-30.101905	-11.196447	92.522904
59516		-30.139987	-11.146151	92.581095
59517		-30.102290	-11.088907	92.675656
59518		-30.094375	-11.009012	92.807175
59519		-30.087897	-10.928910	92.920759
59520		-30.115555	-10.856509	92.976857
59521		-30.279558	-10.770767	93.020456
59522		-30.428462	-10.634161	93.091460
59523		-30.502066	-10.506065	93.196740
59524		-30.552970	-10.389889	93.278422
59525		-30.661537	-10.265712	93.321872
59526		-30.761513	-10.153962	93.352067
59527		-30.804335	-10.045512	93.397689
59528		-30.824327	-9.914498	93.466005
59529		-30.780421	-9.782279	93.565533
59530		-30.758537	-9.638532	93.670644
59531		-30.837865	-9.484986	93.771991
59532		-30.915844	-9.310938	93.913129
59533		-30.913548	-9.132312	94.129253
59534		-30.847171	-8.974567	94.394935
59535		-30.804661	-8.845555	94.614375
59536		-30.789390	-8.728430	94.802522
59537		-30.762293	-8.608737	94.981748
59538		-30.698330	-8.503793	95.136566
59539		-30.647564	-8.389093	95.272469
59540		-30.610027	-8.255832	95.410146
59541		-30.583721	-8.136323	95.504821
59542		-30.664664	-8.017491	95.564496
59543		-30.774446	-7.903170	95.609489
59544		-30.833248	-7.786362	95.657171
59545		-30.913219	-7.639756	95.768180
59546		-30.964899	-7.469961	95.910192
59547		-30.955198	-7.302532	96.038424
59548		-30.932425	-7.137099	96.171995
59549		-30.949203	-6.936408	96.324948
59550		-31.167768	-6.809599	96.483018
59551		-31.643169	-6.702552	96.579098
59552		-31.673147	-6.430093	96.629746
59553		-31.912595	-6.064571	96.726878
59554		-32.467343	-5.708606	96.901079
59555		-32.878297	-5.345634	96.953282
59556		-33.381209	-5.005920	96.982282
59557		-34.021951	-4.660620	97.058304
59558		-34.377456	-4.270074	97.170964
59559		-34.586885	-3.914537	97.353160
59560		-34.728933	-3.642600	97.522593
59561		-34.971485	-3.487656	97.607506
59562		-35.232530	-3.409331	97.601801
59563		-35.396975	-3.396642	97.573687
59564		-35.385567	-3.433759	97.572330
59565		-35.273143	-3.471914	97.593242
59566		-35.118660	-3.498390	97.620352
59567		-35.026010	-3.535978	97.644850
59568		-35.127615	-3.570902	97.665984
59569		-35.326759	-3.576989	97.680355
59570		-35.522979	-3.580447	97.697759
59571		-35.696219	-3.536911	97.731238
59572		-35.862756	-3.445874	97.757120
59573		-36.108740	-3.332645	97.774267
59574		-36.276301	-3.232399	97.744351
59575		-36.468844	-3.130580	97.724702
59576		-36.634313	-3.012081	97.718760
59577		-36.735919	-2.834323	97.737664
59578		-36.839405	-2.638213	97.798571
59579		-36.945268	-2.455411	97.911047
59580		-37.227297	-2.298971	98.013403
59581		-37.777605	-2.151255	98.097788
59582		-38.418295	-1.945265	98.150688
59583		-38.678915	-1.699381	98.206004
59584		-38.753127	-1.529110	98.281272
59585		-38.906001	-1.357039	98.378998
59586		-39.066745	-1.123862	98.439447
59587		-39.264130	-0.939736	98.465060
59588		-39.424416	-0.747530	98.476047
59589		-39.567395	-0.570120	98.448638
59590		-39.744914	-0.459787	98.378017
59591		-39.982216	-0.396149	98.308479
59592		-40.057490	-0.307640	98.232601
59593		-40.077796	-0.240271	98.177919
59594		-40.121216	-0.202957	98.164063
59595		-40.130827	-0.163862	98.148501
59596		-40.145877	-0.133942	98.135469
59597		-40.174597	-0.108645	98.120470
59598		-40.188504	-0.080979	98.106895
59599		-40.184581	-0.033446	98.094454
59600		-40.201799	-0.000464	98.091027
59601		-40.212123	0.012834	98.093830
59602		-40.191895	0.026345	98.087372
59603		-40.172186	0.046569	98.085289
59604		-40.166945	0.060986	98.091153
59605		-40.155653	0.072732	98.095649
59606		-40.154316	0.076689	98.101514
59607		-40.173778	0.088412	98.112471
59608		-40.170841	0.105425	98.118350
59609		-40.136107	0.115281	98.119966
59610		-40.133930	0.111587	98.118414
59611		-40.151692	0.113676	98.117694
59612		-40.145151	0.120712	98.128584
59613		-40.134177	0.121440	98.143359
59614		-40.147769	0.119972	98.151600
59615		-40.169849	0.121356	98.151492
59616		-40.168908	0.131279	98.155868
59617		-40.151497	0.132783	98.176053
59618		-40.142464	0.118875	98.206380
59619		-40.138150	0.106468	98.233686
59620		-40.138706	0.095698	98.256100
59621		-40.134080	0.084240	98.281413
59622		-40.143890	0.080144	98.301743
59623		-40.188206	0.085591	98.313973
59624		-40.173112	0.086433	98.319501
59625		-40.147709	0.079695	98.340237
59626		-40.134418	0.062607	98.368881
59627		-40.109533	0.030477	98.418711
59628		-40.051768	-0.001769	98.490227
59629		-39.988126	-0.065240	98.567804
59630		-39.901021	-0.154578	98.671229
59631		-39.783623	-0.235423	98.765570
59632		-39.663059	-0.302874	98.818560
59633		-39.591151	-0.352634	98.866320
59634		-39.558136	-0.442281	98.934396
59635		-39.452751	-0.582144	98.999878
59636		-39.335123	-0.822667	98.999292
59637		-39.270134	-1.087431	99.001732
59638		-39.163725	-1.364674	98.995434
59639		-38.971189	-1.635055	98.964937
59640		-38.646455	-1.918646	98.925800
59641		-38.294937	-2.248722	98.894001
59642		-38.063750	-2.565957	98.854389
59643		-37.856990	-2.852110	98.796443
59644		-37.633822	-3.180034	98.752222
59645		-37.410203	-3.548372	98.689408
59646		-37.228811	-4.083589	98.522729
59647		-37.124856	-4.696026	98.421011
59648		-37.076945	-5.259820	98.442590
59649		-37.196441	-5.786908	98.534343
59650		-37.352106	-6.391772	98.494980
59651		-37.543712	-7.022932	98.413393
59652		-37.788677	-7.625145	98.298539
59653		-37.805842	-8.189537	98.167800
59654		-36.848956	-8.001181	97.903988
59655		-35.595819	-8.443441	97.578688
59656		-34.780718	-8.768776	97.203427
59657		-34.340575	-9.157746	96.941624
59658		-34.206193	-9.532258	96.742545
59659		-33.802940	-9.921602	96.532282
59660		-33.285038	-10.271040	96.324060
59661		-32.900340	-10.593806	96.124331
59662		-32.606898	-10.925312	95.947020
59663		-32.318359	-11.248927	95.731195
59664		-31.974613	-11.546822	95.445052
59665		-31.749866	-11.824037	95.149688
59666		-31.658883	-12.052731	94.892829
59667		-31.448778	-12.246942	94.650793
59668		-31.240974	-12.370705	94.426702
59669		-31.217058	-12.446836	94.223817
59670		-31.260829	-12.516101	94.005253
59671		-31.262754	-12.560030	93.785708
59672		-31.289722	-12.566439	93.604412
59673		-31.300373	-12.598317	93.453380
59674		-31.236273	-12.659452	93.320897
59675		-31.108946	-12.707452	93.197151
59676		-30.986028	-12.733554	93.093639
59677		-30.843911	-12.771461	93.012360
59678		-30.684543	-12.840927	92.932252
59679		-30.589549	-12.881071	92.839394
59680		-30.568381	-12.886384	92.714307
59681		-30.617184	-12.867927	92.553601
59682		-30.676828	-12.832408	92.414846
59683		-30.690437	-12.818736	92.319924
59684		-30.631293	-12.806607	92.263679
59685		-30.521077	-12.791181	92.220889
59686		-30.343655	-12.794431	92.206069
59687		-30.213148	-12.781178	92.222059
59688		-30.145884	-12.770495	92.245081
59689		-30.158045	-12.737192	92.288863
59690		-30.198328	-12.699676	92.354974
59691		-30.369898	-12.684115	92.417341
59692		-30.648455	-12.685994	92.463604
59693		-30.794766	-12.733786	92.499222
59694		-30.820072	-12.810188	92.510739
59695		-30.950098	-12.867768	92.515286
59696		-31.172978	-12.870529	92.534108
59697		-31.244659	-12.881320	92.527335
59698		-31.366682	-12.957215	92.521008
59699		-31.469657	-13.043995	92.515760
59700		-31.341797	-13.100155	92.506195
59701		-31.233756	-13.131101	92.525784
59702		-31.152202	-13.205403	92.526004
59703		-31.086772	-13.378418	92.473571
59704		-31.012964	-13.493676	92.455176
59705		-30.849884	-13.528296	92.446059
59706		-30.699040	-13.599029	92.430042
59707		-30.606708	-13.692614	92.389279
59708		-30.519495	-13.759408	92.378566
59709		-30.332129	-13.789502	92.355419
59710		-30.266185	-13.812715	92.303315
59711		-30.212149	-13.851618	92.279905
59712		-30.127475	-13.888650	92.257286
59713		-30.046216	-13.937693	92.226125
59714		-29.904405	-13.986273	92.185468
59715		-29.645092	-14.013057	92.122408
59716		-29.349087	-14.084197	91.995484
59717		-29.221170	-14.183916	91.855185
59718		-29.052657	-14.244166	91.710848
59719		-28.904938	-14.246913	91.619331
59720		-28.799700	-14.212270	91.594029
59721		-28.698236	-14.147409	91.591387
59722		-28.605935	-14.060567	91.595700
59723		-28.543794	-13.998315	91.593670
59724		-28.585751	-13.965006	91.586521
59725		-28.565875	-13.912042	91.581997
59726		-28.452371	-13.856518	91.589304
59727		-28.395737	-13.844183	91.591751
59728		-28.373876	-13.850015	91.575378
59729		-28.383844	-13.860697	91.560328
59730		-28.429161	-13.859951	91.546685
59731		-28.437859	-13.833018	91.535762
59732		-28.457241	-13.815554	91.534642
59733		-28.487868	-13.803569	91.538317
59734		-28.488645	-13.788821	91.545128
59735		-28.460240	-13.772926	91.546881
59736		-28.444123	-13.742927	91.547012
59737		-28.412274	-13.736587	91.544594
59738		-28.358012	-13.738211	91.536773
59739		-28.357763	-13.744035	91.522919
59740		-28.393489	-13.748657	91.505355
59741		-28.442451	-13.743836	91.491851
59742		-28.462852	-13.724269	91.492269
59743		-28.467808	-13.701412	91.494143
59744		-28.471336	-13.687652	91.492810
59745		-28.469016	-13.694519	91.481636
59746		-28.481591	-13.695752	91.469399
59747		-28.513639	-13.680712	91.455292
59748		-28.554190	-13.674307	91.454742
59749		-28.594382	-13.668570	91.471668
59750		-28.591543	-13.622864	91.495716
59751		-28.584717	-13.573637	91.535888
59752		-28.600613	-13.522677	91.569045
59753		-28.704771	-13.457323	91.601317
59754		-28.807449	-13.397330	91.632449
59755		-28.912852	-13.340928	91.658919
59756		-29.012736	-13.265495	91.675696
59757		-29.082232	-13.188121	91.693350
59758		-29.131639	-13.118097	91.713236
59759		-29.222547	-13.052153	91.741736
59760		-29.319665	-12.968388	91.801304
59761		-29.413655	-12.879268	91.859695
59762		-29.503886	-12.789317	91.904193
59763		-29.650077	-12.685171	91.937115
59764		-29.836838	-12.558428	91.974174
59765		-29.986825	-12.416582	92.028596
59766		-30.141093	-12.260303	92.106202
59767		-30.299884	-12.107363	92.173272
59768		-30.429080	-11.957672	92.229104
59769		-30.598843	-11.798592	92.305779
59770		-30.717602	-11.636482	92.424541
59771		-30.729175	-11.508060	92.568020
59772		-30.687899	-11.373731	92.683169
59773		-30.755786	-11.230523	92.760637
59774		-30.895981	-11.079633	92.828242
59775		-30.987183	-10.903179	92.897437
59776		-31.114713	-10.744276	92.967805
59777		-31.215551	-10.640300	92.984126
59778		-31.401702	-10.542582	92.977504
59779		-31.565976	-10.411903	93.003068
59780		-31.593421	-10.283301	93.062342
59781		-31.572652	-10.190347	93.132634
59782		-31.621835	-10.102059	93.196619
59783		-31.661071	-9.941049	93.321484
59784		-31.594267	-9.717125	93.516567
59785		-31.508697	-9.560590	93.720603
59786		-31.494144	-9.474595	93.856203
59787		-31.608714	-9.404749	94.001369
59788		-31.720196	-9.308845	94.141070
59789		-31.942509	-9.328038	94.239295
59790		-32.239168	-9.360201	94.260709
59791		-32.266278	-9.268583	94.229756
59792		-32.205515	-9.207341	94.204993
59793		-32.208649	-9.160549	94.205154
59794		-32.370034	-9.068964	94.197229
59795		-32.498183	-8.916493	94.162456
59796		-32.606357	-8.721245	94.197454
59797		-32.699253	-8.492455	94.290688
59798		-32.808475	-8.267121	94.397499
59799		-32.937153	-8.071500	94.479923
59800		-33.124358	-7.917272	94.542181
59801		-33.402904	-7.825057	94.630898
59802		-33.527685	-7.751176	94.722755
59803		-33.477762	-7.677808	94.803869
59804		-33.435387	-7.647623	94.856773
59805		-33.489360	-7.643411	94.889141
59806		-33.527689	-7.631428	94.927360
59807		-33.559681	-7.629264	94.975600
59808		-33.644647	-7.615158	95.036450
59809		-33.792837	-7.571146	95.134320
59810		-34.035525	-7.466123	95.298741
59811		-34.304398	-7.327473	95.483736
59812		-34.603496	-7.162150	95.693500
59813		-34.953364	-6.936541	95.951746
59814		-35.270845	-6.630482	96.217595
59815		-35.566275	-6.335721	96.462139
59816		-35.991774	-6.030058	96.748194
59817		-36.298522	-5.723487	96.984300
59818		-36.557934	-5.412366	97.212724
59819		-36.764929	-5.090930	97.440391
59820		-36.831287	-4.760624	97.661248
59821		-37.036765	-4.486133	97.848745
59822		-37.487493	-4.259990	97.987233
59823		-37.907323	-4.018302	98.087848
59824		-38.142581	-3.782627	98.175674
59825		-38.253187	-3.563863	98.285529
59826		-38.389635	-3.368250	98.406620
59827		-38.611004	-3.185878	98.467397
59828		-38.847867	-2.972105	98.509966
59829		-38.909786	-2.793872	98.553341
59830		-38.966741	-2.650461	98.586816
59831		-38.949240	-2.511810	98.607994
59832		-38.951442	-2.407111	98.615285
59833		-38.924206	-2.308843	98.604127
59834		-38.878941	-2.237562	98.582704
59835		-38.900104	-2.161688	98.539826
59836		-38.932193	-2.063764	98.472903
59837		-38.971101	-2.001488	98.407835
59838		-39.000971	-1.935530	98.352654
59839		-38.961930	-1.849978	98.289413
59840		-38.959389	-1.807573	98.253096
59841		-38.992440	-1.779951	98.244047
59842		-39.001077	-1.737907	98.229978
59843		-38.986564	-1.721284	98.231847
59844		-38.953845	-1.721257	98.238310
59845		-38.947390	-1.726926	98.242033
59846		-38.993927	-1.726216	98.244832
59847		-39.013724	-1.703931	98.243748
59848		-39.005371	-1.683545	98.248313
59849		-39.011717	-1.666703	98.257035
59850		-39.037403	-1.653856	98.266982
59851		-39.061566	-1.652665	98.286742
59852		-39.037136	-1.662773	98.316962
59853		-39.007420	-1.683124	98.367154
59854		-38.984194	-1.702233	98.437713
59855		-38.959882	-1.720598	98.503939
59856		-38.939320	-1.746469	98.561792
59857		-38.979090	-1.791856	98.608566
59858		-39.007429	-1.825959	98.655696
59859		-38.975764	-1.850461	98.687355
59860		-39.055671	-1.850397	98.697677
59861		-39.206590	-1.837556	98.689693
59862		-39.295909	-1.854123	98.660693
59863		-39.315319	-1.875951	98.643800
59864		-39.321253	-1.876248	98.628481
59865		-39.301892	-1.915371	98.591787
59866		-39.399473	-2.024067	98.514870
59867		-39.472958	-2.172853	98.432116
59868		-39.406569	-2.336365	98.393560
59869		-39.209815	-2.535602	98.398352
59870		-38.977767	-2.752348	98.409457
59871		-38.827649	-2.987137	98.401655
59872		-38.698308	-3.235853	98.373092
59873		-38.498472	-3.486129	98.349359
59874		-38.266086	-3.751102	98.328935
59875		-38.092429	-4.015925	98.327918
59876		-37.901048	-4.294028	98.310496
59877		-37.752487	-4.614024	98.233011
59878		-37.595567	-4.966598	98.110135
59879		-37.311894	-5.371345	98.002329
59880		-37.109786	-5.801940	97.964421
59881		-36.970964	-6.184020	98.042530
59882		-36.719823	-6.338764	98.100083
59883		-36.139775	-6.816388	98.015891
59884		-35.671417	-7.176481	97.923435
59885		-35.477449	-7.608357	97.840788
59886		-35.643378	-7.981423	97.789213
59887		-35.276569	-8.295296	97.708324
59888		-34.822976	-8.628742	97.623451
59889		-34.377360	-8.941486	97.533977
59890		-34.058393	-9.241502	97.414184
59891		-33.827802	-9.543915	97.262499
59892		-33.622335	-9.839812	97.109132
59893		-33.425563	-10.097470	96.961042
59894		-33.200454	-10.321327	96.751970
59895		-33.044905	-10.539846	96.469453
59896		-32.961508	-10.758894	96.196814
59897		-32.750938	-10.936047	95.942145
59898		-32.569851	-11.078786	95.700051
59899		-32.486296	-11.219342	95.458408
59900		-32.467395	-11.362181	95.242277
59901		-32.396659	-11.477210	95.042258
59902		-32.303457	-11.562786	94.865750
59903		-32.167864	-11.682865	94.705336
59904		-31.981871	-11.832564	94.549613
59905		-31.815302	-11.955938	94.408897
59906		-31.665213	-12.035130	94.241969
59907		-31.535935	-12.145149	94.043304
59908		-31.464048	-12.250683	93.848197
59909		-31.387586	-12.356528	93.671673
59910		-31.310118	-12.438332	93.554978
59911		-31.225620	-12.488256	93.418214
59912		-31.134737	-12.533806	93.233366
59913		-31.097988	-12.596930	93.071480
59914		-31.078632	-12.623929	93.023001
59915		-30.998909	-12.571219	93.043181
59916		-30.889900	-12.504554	93.021524
59917		-30.938911	-12.482682	92.962243
59918		-31.019826	-12.473058	92.944374
59919		-31.026265	-12.431838	92.973248
59920		-30.943859	-12.350377	93.013130
59921		-30.953975	-12.288870	93.063478
59922		-31.037016	-12.253380	93.116284
59923		-31.103900	-12.229020	93.159821
59924		-31.184185	-12.200396	93.202491
59925		-31.291185	-12.185799	93.242550
59926		-31.350958	-12.179378	93.261158
59927		-31.384796	-12.199523	93.270838
59928		-31.428175	-12.265321	93.283538
59929		-31.487321	-12.296684	93.288285
59930		-31.452502	-12.277129	93.305404
59931		-31.457769	-12.298774	93.343489
59932		-31.442645	-12.349329	93.351732
59933		-31.349301	-12.447784	93.301054
59934		-31.314848	-12.570058	93.258620
59935		-31.189304	-12.706500	93.238600
59936		-31.019243	-12.758839	93.197679
59937		-30.953246	-12.820820	93.172800
59938		-31.005630	-12.885609	93.151654
59939		-30.846594	-13.001073	93.087296
59940		-30.734448	-13.152556	93.022999
59941		-30.795559	-13.188862	93.057268
59942		-30.521047	-13.225496	93.090645
59943		-30.292319	-13.304323	93.098914
59944		-30.213634	-13.368328	93.089916
59945		-30.218948	-13.445675	93.040255
59946		-30.344244	-13.533843	92.943761
59947		-30.545603	-13.628161	92.870330
59948		-30.353129	-13.682180	92.872522
59949		-30.028223	-13.734734	92.867752
59950		-29.909388	-13.761567	92.813707
59951		-29.716797	-13.824410	92.659395
59952		-29.485073	-13.902866	92.500792
59953		-29.249731	-13.950542	92.371688
59954		-29.050714	-13.968119	92.268616
59955		-28.867353	-13.949473	92.197596
59956		-28.712539	-13.868703	92.148567
59957		-28.596429	-13.758573	92.118588
59958		-28.518915	-13.668419	92.112664
59959		-28.440419	-13.583236	92.102380
59960		-28.311235	-13.498861	92.086812
59961		-28.169599	-13.441962	92.077025
59962		-28.081946	-13.411793	92.053185
59963		-28.059623	-13.392950	92.028201
59964		-28.006075	-13.361841	92.024183
59965		-27.909240	-13.337701	92.032290
59966		-27.821379	-13.346583	92.037441
59967		-27.784292	-13.363066	92.033412
59968		-27.697588	-13.369397	92.044929
59969		-27.591189	-13.372439	92.061955
59970		-27.554826	-13.383043	92.061436
59971		-27.563888	-13.383428	92.061380
59972		-27.561090	-13.373995	92.075768
59973		-27.539571	-13.356467	92.101112
59974		-27.521263	-13.344188	92.126815
59975		-27.534366	-13.332762	92.171799
59976		-27.532700	-13.311844	92.203407
59977		-27.510769	-13.280043	92.244449
59978		-27.521000	-13.253490	92.277575
59979		-27.583150	-13.208837	92.307256
59980		-27.685972	-13.134760	92.361487
59981		-27.768736	-13.042369	92.424647
59982		-27.821721	-12.942838	92.495114
59983		-27.850344	-12.842496	92.579055
59984		-27.899365	-12.750380	92.657521
59985		-27.980523	-12.661154	92.750720
59986		-28.065996	-12.576282	92.857098
59987		-28.109996	-12.500459	92.986962
59988		-28.039559	-12.438810	93.147736
59989		-27.999438	-12.380845	93.291227
59990		-28.039749	-12.323370	93.385353
59991		-28.147162	-12.244043	93.456854
59992		-28.266713	-12.135402	93.549105
59993		-28.339461	-12.020510	93.659370
59994		-28.407185	-11.893395	93.766855
59995		-28.486733	-11.760529	93.851951
59996		-28.612829	-11.624896	93.930458
59997		-28.802317	-11.474378	94.024453
59998		-28.965357	-11.310875	94.102135
59999		-29.132596	-11.148000	94.171113
60000		-29.311352	-10.998237	94.243827
60001		-29.439807	-10.874686	94.294290
60002		-29.538883	-10.778365	94.309910
60003		-29.621672	-10.688287	94.315281
60004		-29.713543	-10.604696	94.358956
60005		-29.757362	-10.507918	94.420797
60006		-29.778277	-10.372288	94.491490
60007		-29.786522	-10.259388	94.572179
60008		-29.842629	-10.156164	94.659421
60009		-29.977339	-10.022993	94.737437
60010		-30.100246	-9.851580	94.825755
60011		-30.222922	-9.687287	94.913469
60012		-30.328935	-9.490820	95.005027
60013		-30.450664	-9.235473	95.132626
60014		-30.536102	-8.966487	95.291316
60015		-30.526919	-8.729983	95.422531
60016		-30.571195	-8.477752	95.531337
60017		-30.698839	-8.216074	95.667859
60018		-30.793815	-7.990931	95.817834
60019		-30.910887	-7.812535	95.937407
60020		-31.125995	-7.642335	96.025645
60021		-31.300879	-7.488875	96.118864
60022		-31.473730	-7.425103	96.272415
60023		-31.781321	-7.388832	96.382201
60024		-31.709872	-7.261026	96.378483
60025		-31.842509	-7.085671	96.370876
60026		-32.008781	-6.915949	96.425994
60027		-32.402469	-6.631351	96.615877
60028		-32.837614	-6.267731	96.940017
60029		-32.954643	-5.903605	97.127957
60030		-33.069564	-5.605954	97.163414
60031		-33.414655	-5.388374	97.179813
60032		-33.880534	-5.202548	97.194993
60033		-34.164811	-5.070613	97.194296
60034		-34.168361	-5.019366	97.197486
60035		-33.995368	-5.009215	97.180569
60036		-33.802716	-5.023735	97.178138
60037		-33.596201	-5.044687	97.201275
60038		-33.554257	-5.087727	97.224083
60039		-33.721117	-5.145048	97.228588
60040		-33.892710	-5.163167	97.229078
60041		-34.011066	-5.155854	97.223167
60042		-34.196147	-5.108372	97.246784
60043		-34.388949	-5.007104	97.327231
60044		-34.566256	-4.892509	97.459192
60045		-34.776204	-4.772894	97.587868
60046		-35.160562	-4.650527	97.712972
60047		-35.699888	-4.507339	97.890327
60048		-36.235077	-4.292592	98.077520
60049		-36.504470	-4.055242	98.211299
60050		-36.789442	-3.821229	98.359615
60051		-37.195624	-3.561988	98.516237
60052		-37.565440	-3.263171	98.722409
60053		-37.810627	-2.977707	98.956375
60054		-37.946162	-2.688480	99.169797
60055		-38.228596	-2.398535	99.435654
60056		-38.522150	-2.169283	99.732605
60057		-38.799473	-1.936983	99.966402
60058		-39.340970	-1.695259	100.127516
60059		-39.921919	-1.436300	100.292127
60060		-40.153718	-1.215705	100.440386
60061		-40.274443	-1.050917	100.519973
60062		-40.460886	-0.901620	100.582882
60063		-40.648938	-0.768806	100.638330
60064		-40.647162	-0.676969	100.693954
60065		-40.614818	-0.604142	100.722564
60066		-40.636234	-0.525703	100.738033
60067		-40.698350	-0.483172	100.768326
60068		-40.705090	-0.481927	100.802163
60069		-40.697805	-0.466185	100.825505
60070		-40.693962	-0.452330	100.844447
60071		-40.734486	-0.457068	100.868898
60072		-40.734411	-0.443977	100.884572
60073		-40.701955	-0.416408	100.896276
60074		-40.734043	-0.406799	100.916828
60075		-40.762395	-0.400426	100.926644
60076		-40.772960	-0.394893	100.920203
60077		-40.787701	-0.381945	100.919692
60078		-40.770743	-0.372403	100.917543
60079		-40.793489	-0.366886	100.909737
60080		-40.817683	-0.362904	100.907637
60081		-40.826030	-0.354090	100.900177
60082		-40.818083	-0.317426	100.900122
60083		-40.808173	-0.307585	100.894234
60084		-40.799455	-0.310431	100.888953
60085		-40.800464	-0.315112	100.881177
60086		-40.806957	-0.325023	100.878994
60087		-40.802620	-0.338472	100.892887
60088		-40.763735	-0.349236	100.903760
60089		-40.746988	-0.359756	100.915901
60090		-40.742302	-0.377382	100.926662
60091		-40.742658	-0.400425	100.923736
60092		-40.750681	-0.425995	100.910348
60093		-40.731403	-0.438438	100.892209
60094		-40.706063	-0.452881	100.879283
60095		-40.682906	-0.468607	100.874421
60096		-40.659162	-0.487554	100.871311
60097		-40.627866	-0.480786	100.864572
60098		-40.572757	-0.471808	100.863784
60099		-40.475473	-0.486889	100.879541
60100		-40.371946	-0.523286	100.899464
60101		-40.310622	-0.557845	100.920024
60102		-40.260472	-0.586733	100.943784
60103		-40.215665	-0.607836	100.965011
60104		-40.240536	-0.611702	100.961610
60105		-40.275354	-0.609220	100.957859
60106		-40.249467	-0.602791	100.974857
60107		-40.167621	-0.636298	100.995811
60108		-40.133302	-0.705519	101.038088
60109		-40.066369	-0.776760	101.102169
60110		-39.893691	-0.833300	101.166651
60111		-39.747731	-0.876022	101.217537
60112		-39.691651	-0.928852	101.257442
60113		-39.665704	-0.991438	101.257265
60114		-39.659127	-1.057478	101.244144
60115		-39.659118	-1.127535	101.248205
60116		-39.567083	-1.179505	101.273006
60117		-39.485975	-1.255102	101.282772
60118		-39.495496	-1.306663	101.268277
60119		-39.478478	-1.303366	101.249373
60120		-39.482626	-1.283799	101.236527
60121		-39.491601	-1.283784	101.210866
60122		-39.543523	-1.287163	101.157415
60123		-39.624970	-1.297863	101.108993
60124		-39.639100	-1.303310	101.091819
60125		-39.580762	-1.316243	101.091372
60126		-39.532107	-1.347320	101.104567
60127		-39.487396	-1.363033	101.135715
60128		-39.484814	-1.392909	101.173871
60129		-39.477866	-1.432485	101.217988
60130		-39.430502	-1.481665	101.240781
60131		-39.390963	-1.522060	101.257257
60132		-39.389898	-1.563486	101.269044
60133		-39.414986	-1.632297	101.255235
60134		-39.432402	-1.744465	101.243867
60135		-39.432063	-1.858999	101.262178
60136		-39.291298	-1.958496	101.343256
60137		-39.103509	-2.080949	101.431510
60138		-38.993637	-2.169653	101.511039
60139		-39.008670	-2.227102	101.578763
60140		-38.966328	-2.307125	101.550434
60141		-38.989474	-2.429484	101.571828
60142		-38.945796	-2.641728	101.532707
60143		-38.729948	-2.953260	101.492613
60144		-38.448914	-3.387311	101.480629
60145		-38.126519	-3.837610	101.484973
60146		-37.502077	-4.311034	101.525491
60147		-36.905812	-4.818592	101.579386
60148		-36.494558	-5.406147	101.591091
60149		-35.962224	-6.071098	101.505831
60150		-35.485460	-6.708565	101.456775
60151		-34.835206	-7.295657	101.317861
60152		-34.319245	-7.933249	101.133704
60153		-33.879672	-8.526648	100.941084
60154		-33.367631	-9.077704	100.735859
60155		-32.862191	-9.617553	100.463855
60156		-32.322056	-10.142860	100.136423
60157		-31.844676	-10.694580	99.748760
60158		-31.471273	-11.198157	99.318658
60159		-31.259059	-11.598999	98.944701
60160		-31.008230	-11.932367	98.484015
60161		-30.804520	-12.239969	98.055149
60162		-30.753245	-12.452683	97.666366
60163		-30.777298	-12.622604	97.321193
60164		-30.674077	-12.829482	97.007498
60165		-30.414171	-13.014687	96.701597
60166		-30.122921	-13.164519	96.374085
60167		-29.925569	-13.328838	96.066532
60168		-29.848325	-13.480121	95.801357
60169		-29.817793	-13.581790	95.513716
60170		-29.764990	-13.677641	95.256669
60171		-29.596543	-13.757408	94.979484
60172		-29.398536	-13.761361	94.694935
60173		-29.258406	-13.764507	94.413847
60174		-29.205076	-13.813107	94.173487
60175		-29.158671	-13.836741	93.969869
60176		-29.153901	-13.833079	93.791007
60177		-29.110136	-13.823658	93.633375
60178		-28.995480	-13.826983	93.544203
60179		-28.859031	-13.781187	93.492964
60180		-28.790974	-13.761300	93.422547
60181		-28.859472	-13.730938	93.416522
60182		-28.836594	-13.700302	93.429349
60183		-28.759830	-13.669698	93.472474
60184		-28.764618	-13.640330	93.515280
60185		-28.840598	-13.629681	93.550869
60186		-28.871584	-13.616415	93.589183
60187		-28.886015	-13.604052	93.612925
60188		-28.899164	-13.600487	93.635794
60189		-28.919116	-13.620720	93.655131
60190		-28.914980	-13.638141	93.660729
60191		-28.924571	-13.670428	93.680973
60192		-29.022410	-13.759410	93.717802
60193		-28.891890	-13.846021	93.702952
60194		-28.806999	-13.924897	93.617441
60195		-28.911997	-13.984816	93.588506
60196		-28.851593	-13.990923	93.577443
60197		-28.681314	-14.049584	93.541550
60198		-28.506487	-14.197272	93.488947
60199		-28.199252	-14.260355	93.465652
60200		-28.051525	-14.233458	93.481664
60201		-27.991236	-14.244954	93.479147
60202		-27.927670	-14.353067	93.407883
60203		-27.877977	-14.426844	93.357278
60204		-27.787571	-14.466928	93.328308
60205		-27.619067	-14.550943	93.263751
60206		-27.588814	-14.658065	93.171431
60207		-27.445590	-14.750595	93.099260
60208		-27.121767	-14.850957	93.040336
60209		-26.777076	-14.952598	92.983201
60210		-26.535766	-15.062855	92.910245
60211		-26.417889	-15.143725	92.796553
60212		-26.356070	-15.194412	92.707461
60213		-26.334159	-15.224613	92.589397
60214		-26.209331	-15.284026	92.448910
60215		-26.070933	-15.315080	92.344609
60216		-25.917973	-15.267971	92.284227
60217		-25.680440	-15.217425	92.262803
60218		-25.517642	-15.154138	92.265396
60219		-25.446532	-15.066232	92.287233
60220		-25.472494	-14.974945	92.326492
60221		-25.421543	-14.878784	92.353988
60222		-25.261957	-14.795353	92.362630
60223		-25.151414	-14.757853	92.370412
60224		-25.040153	-14.735983	92.364925
60225		-24.984574	-14.718846	92.347365
60226		-24.972400	-14.698167	92.336152
60227		-24.933405	-14.686584	92.339654
60228		-24.907753	-14.668734	92.346776
60229		-24.899341	-14.663167	92.355052
60230		-24.896551	-14.668205	92.369725
60231		-24.873954	-14.665608	92.387380
60232		-24.855187	-14.649383	92.408598
60233		-24.850217	-14.648568	92.421376
60234		-24.901411	-14.669319	92.438723
60235		-24.980650	-14.683786	92.458110
60236		-25.047089	-14.654656	92.493263
60237		-25.068985	-14.613038	92.583892
60238		-25.064514	-14.580032	92.678093
60239		-25.094287	-14.541464	92.755727
60240		-25.257435	-14.484443	92.821073
60241		-25.497820	-14.423803	92.886167
60242		-25.716556	-14.359432	92.972058
60243		-25.799657	-14.291715	93.063048
60244		-25.831729	-14.229052	93.180704
60245		-25.901063	-14.150622	93.328554
60246		-25.942511	-14.055027	93.474425
60247		-25.982611	-13.926771	93.628429
60248		-26.116801	-13.790483	93.806601
60249		-26.286312	-13.669901	94.000303
60250		-26.443305	-13.549990	94.218818
60251		-26.601200	-13.421150	94.413186
60252		-26.739150	-13.300421	94.546659
60253		-26.873168	-13.209444	94.651059
60254		-27.029334	-13.132195	94.778347
60255		-27.120049	-13.040120	94.963130
60256		-27.153268	-12.918041	95.170968
60257		-27.150919	-12.817195	95.404531
60258		-27.170822	-12.695126	95.643327
60259		-27.236992	-12.515769	95.874411
60260		-27.339570	-12.340310	96.099936
60261		-27.511842	-12.152105	96.330341
60262		-27.833813	-11.878524	96.564971
60263		-28.149031	-11.583929	96.843680
60264		-28.318403	-11.322382	97.110375
60265		-28.438024	-11.059860	97.367317
60266		-28.609413	-10.820845	97.591762
60267		-28.800876	-10.592420	97.780638
60268		-29.033894	-10.326704	97.969073
60269		-29.191783	-10.021810	98.164754
60270		-29.191889	-9.708921	98.363885
60271		-29.225816	-9.398757	98.568647
60272		-29.248509	-9.069168	98.789489
60273		-29.304332	-8.769956	98.974085
60274		-29.474409	-8.501583	99.122707
60275		-29.685475	-8.229099	99.261998
60276		-29.822086	-7.968919	99.444916
60277		-29.875700	-7.747084	99.632024
60278		-29.868715	-7.559679	99.802697
60279		-30.068717	-7.488643	99.978841
60280		-30.423693	-7.439811	100.099495
60281		-30.400705	-7.347703	100.105498
60282		-30.509905	-7.210991	100.013734
60283		-30.829685	-7.099270	99.947314
60284		-31.144052	-6.992029	99.913414
60285		-31.302869	-6.867384	99.875735
60286		-31.342804	-6.740786	99.825133
60287		-31.461522	-6.621576	99.777144
60288		-31.604101	-6.490145	99.753531
60289		-31.673796	-6.344597	99.749164
60290		-31.706181	-6.224654	99.760628
60291		-31.789612	-6.107895	99.760430
60292		-31.903960	-5.979374	99.739482
60293		-32.044562	-5.866007	99.729476
60294		-32.095177	-5.782340	99.725193
60295		-32.132374	-5.731167	99.675372
60296		-32.200490	-5.699847	99.624036
60297		-32.215464	-5.681192	99.594920
60298		-32.195212	-5.671488	99.585364
60299		-32.208218	-5.675783	99.578650
60300		-32.281159	-5.686456	99.576725
60301		-32.405904	-5.707132	99.571429
60302		-32.555624	-5.722673	99.543350
60303		-32.834662	-5.727845	99.558422
60304		-33.300555	-5.684481	99.647190
60305		-33.755595	-5.573535	99.765139
60306		-34.112223	-5.480012	99.894557
60307		-34.528567	-5.380740	100.008079
60308		-35.144123	-5.193871	100.120527
60309		-35.680747	-4.907953	100.288870
60310		-36.005939	-4.655073	100.465290
60311		-36.367325	-4.425680	100.662209
60312		-36.686917	-4.128039	100.840379
60313		-37.046244	-3.800657	101.053465
60314		-37.380968	-3.537180	101.313309
60315		-37.618884	-3.266406	101.611473
60316		-37.907177	-2.972647	101.944836
60317		-38.416350	-2.685024	102.332221
60318		-39.208353	-2.459921	102.675435
60319		-39.887329	-2.210983	102.960064
60320		-40.572921	-1.915151	103.212772
60321		-41.024470	-1.620478	103.369602
60322		-41.251929	-1.373513	103.505000
60323		-41.460008	-1.180186	103.631556
60324		-41.613951	-1.020096	103.737819
60325		-41.685743	-0.907772	103.817935
60326		-41.695881	-0.821458	103.869725
60327		-41.607831	-0.739247	103.848799
60328		-41.608766	-0.680462	103.800956
60329		-41.635373	-0.605187	103.790794
60330		-41.523650	-0.507126	103.829580
60331		-41.231751	-0.446100	103.894603
60332		-41.075094	-0.448563	103.950401
60333		-41.057944	-0.436977	103.985561
60334		-41.059362	-0.412742	104.004276
60335		-41.044847	-0.396468	104.020055
60336		-41.024206	-0.375512	104.020140
60337		-41.024868	-0.334581	104.008104
60338		-41.029496	-0.298719	103.982743
60339		-41.010915	-0.273209	103.967274
60340		-40.998833	-0.246444	103.947923
60341		-41.004214	-0.212323	103.926112
60342		-41.014449	-0.188622	103.915350
60343		-41.017017	-0.180848	103.919616
60344		-41.012620	-0.180834	103.922518
60345		-40.995633	-0.178346	103.917780
60346		-40.989467	-0.172764	103.920677
60347		-41.004009	-0.160397	103.934207
60348		-41.013237	-0.137724	103.939544
60349		-41.017979	-0.113813	103.935265
60350		-41.015231	-0.096043	103.918946
60351		-41.046012	-0.085493	103.911997
60352		-41.070747	-0.066690	103.908943
60353		-41.072047	-0.052297	103.906213
60354		-41.084287	-0.048247	103.910497
60355		-41.117112	-0.047140	103.911098
60356		-41.163023	-0.038051	103.915226
60357		-41.183130	-0.049529	103.929235
60358		-41.198475	-0.060016	103.929325
60359		-41.235053	-0.047651	103.912951
60360		-41.267698	-0.022197	103.897266
60361		-41.265365	-0.005159	103.888390
60362		-41.240564	0.018198	103.878986
60363		-41.252726	0.030366	103.877852
60364		-41.267820	0.044564	103.874054
60365		-41.274972	0.056906	103.870302
60366		-41.246662	0.063709	103.870956
60367		-41.256787	0.071814	103.862665
60368		-41.262358	0.089593	103.851717
60369		-41.265456	0.087711	103.837964
60370		-41.248733	0.095796	103.809370
60371		-41.255293	0.109505	103.789722
60372		-41.292938	0.124940	103.762453
60373		-41.313994	0.138557	103.737958
60374		-41.299325	0.153101	103.726875
60375		-41.298855	0.139637	103.716840
60376		-41.317266	0.122476	103.701277
60377		-41.342512	0.118394	103.693074
60378		-41.376632	0.117233	103.675957
60379		-41.392173	0.135332	103.660916
60380		-41.373514	0.131770	103.648305
60381		-41.351332	0.138649	103.644931
60382		-41.355386	0.140211	103.632698
60383		-41.351604	0.133471	103.612459
60384		-41.335984	0.138411	103.604316
60385		-41.356111	0.134835	103.605953
60386		-41.335288	0.131993	103.607803
60387		-41.331605	0.122895	103.609555
60388		-41.340403	0.105229	103.623388
60389		-41.323389	0.092754	103.637970
60390		-41.336368	0.063104	103.652353
60391		-41.296621	0.024963	103.675516
60392		-41.262033	-0.013898	103.715975
60393		-41.271417	-0.065664	103.763536
60394		-41.294647	-0.121692	103.813419
60395		-41.313516	-0.190747	103.864565
60396		-41.283503	-0.246654	103.878856
60397		-41.196143	-0.264880	103.872769
60398		-41.124076	-0.307423	103.842381
60399		-41.115451	-0.403531	103.786317
60400		-41.038758	-0.509282	103.753549
60401		-40.926608	-0.636936	103.738871
60402		-40.703779	-0.823675	103.746598
60403		-40.501560	-1.106864	103.750309
60404		-40.409085	-1.432035	103.781724
60405		-40.155203	-1.721914	103.851825
60406		-39.818438	-2.006734	103.898748
60407		-39.698005	-2.383884	103.928289
60408		-39.445908	-2.826959	103.935974
60409		-39.028335	-3.253359	103.914382
60410		-38.681525	-3.629700	103.880479
60411		-38.403051	-4.004964	103.810241
60412		-38.105579	-4.460098	103.679516
60413		-37.794116	-4.976208	103.514220
60414		-37.543592	-5.432229	103.380756
60415		-37.218580	-5.777211	103.283138
60416		-36.816931	-6.145646	103.159709
60417		-36.481865	-6.600423	102.927505
60418		-36.253213	-7.062627	102.608522
60419		-35.923522	-7.456682	102.268188
60420		-35.652128	-7.838178	101.899299
60421		-35.510263	-8.252129	101.470639
60422		-35.252295	-8.639500	101.026186
60423		-34.838365	-8.900117	100.596956
60424		-34.499056	-9.144284	100.240590
60425		-34.293514	-9.443181	99.842292
60426		-34.001188	-9.736719	99.407312
60427		-33.742837	-9.956429	98.953943
60428		-33.602596	-10.130250	98.515889
60429		-33.565911	-10.350821	98.062882
60430		-33.389682	-10.552235	97.620691
60431		-33.230040	-10.684788	97.207383
60432		-33.176515	-10.808147	96.839069
60433		-33.101570	-10.944587	96.502611
60434		-33.084181	-11.068943	96.173693
60435		-33.005337	-11.189192	95.887286
60436		-32.815279	-11.278993	95.614841
60437		-32.644886	-11.371143	95.368457
60438		-32.464733	-11.511652	95.129848
60439		-32.214311	-11.638997	94.922803
60440		-31.995438	-11.731793	94.778313
60441		-31.791989	-11.815232	94.698593
60442		-31.566676	-11.898407	94.641271
60443		-31.357018	-12.003623	94.591401
60444		-31.260808	-12.050428	94.553188
60445		-31.218170	-12.034250	94.524492
60446		-31.192056	-12.032699	94.490067
60447		-31.194237	-12.058683	94.467620
60448		-31.207304	-12.054853	94.488437
60449		-31.158578	-12.011881	94.487526
60450		-31.191697	-11.998441	94.467148
60451		-31.250766	-11.998750	94.470677
60452		-31.239131	-11.983802	94.488731
60453		-31.161366	-11.956503	94.472589
60454		-31.122885	-11.996161	94.394279
60455		-31.143641	-12.078121	94.287927
60456		-31.091764	-12.139017	94.197753
60457		-30.918988	-12.207021	94.101622
60458		-30.784921	-12.284253	93.999749
60459		-30.705393	-12.331295	93.925388
60460		-30.670479	-12.346143	93.877666
60461		-30.696026	-12.340379	93.872734
60462		-30.711615	-12.326520	93.876404
60463		-30.803861	-12.314650	93.873676
60464		-30.936857	-12.301565	93.884609
60465		-30.967583	-12.293954	93.901944
60466		-30.951652	-12.396547	93.936355
60467		-30.985461	-12.515557	93.960158
60468		-30.935886	-12.600432	93.965980
60469		-30.886879	-12.696379	93.928858
60470		-31.004379	-12.777251	93.913873
60471		-31.050133	-12.762159	93.923300
60472		-30.998028	-12.802441	93.926263
60473		-30.947643	-12.882936	93.945947
60474		-30.818151	-12.909568	93.978148
60475		-30.644543	-12.921063	93.986318
60476		-30.607788	-12.958925	93.972849
60477		-30.607189	-13.036410	93.956327
60478		-30.507501	-13.118861	93.928004
60479		-30.280075	-13.219655	93.893728
60480		-30.097315	-13.266047	93.876025
60481		-30.024763	-13.292415	93.883981
60482		-29.929129	-13.362364	93.866119
60483		-29.786176	-13.458103	93.801106
60484		-29.702273	-13.553497	93.783845
60485		-29.558014	-13.628958	93.776332
60486		-29.409669	-13.719522	93.738715
60487		-29.357531	-13.826939	93.661853
60488		-29.282481	-13.919340	93.603159
60489		-29.047690	-13.985063	93.560662
60490		-28.880120	-14.028242	93.527834
60491		-28.876113	-14.030649	93.468879
60492		-28.758050	-14.020486	93.414606
60493		-28.524632	-14.069447	93.335849
60494		-28.355604	-14.126300	93.269676
60495		-28.128427	-14.152267	93.222090
60496		-27.854791	-14.158191	93.168413
60497		-27.668741	-14.160976	93.131056
60498		-27.537100	-14.137486	93.098044
60499		-27.412864	-14.094449	93.071101
60500		-27.289773	-14.026701	93.068756
60501		-27.217446	-13.920099	93.075314
60502		-27.224528	-13.823164	93.088517
60503		-27.268683	-13.763958	93.111052
60504		-27.312543	-13.722660	93.123937
60505		-27.293169	-13.717385	93.132480
60506		-27.176891	-13.734138	93.124752
60507		-27.055692	-13.740057	93.122770
60508		-27.000934	-13.727868	93.133015
60509		-26.961351	-13.695116	93.143173
60510		-26.940238	-13.652244	93.148482
60511		-27.034556	-13.624607	93.145329
60512		-27.172232	-13.595772	93.140187
60513		-27.219263	-13.563764	93.161761
60514		-27.181814	-13.553429	93.192640
60515		-27.180087	-13.554368	93.206634
60516		-27.229918	-13.569245	93.228441
60517		-27.266041	-13.572729	93.282795
60518		-27.280413	-13.531942	93.325924
60519		-27.346303	-13.459554	93.395654
60520		-27.473496	-13.381294	93.522151
60521		-27.582775	-13.301990	93.638214
60522		-27.752357	-13.231441	93.751586
60523		-27.959386	-13.146358	93.882592
60524		-28.079294	-13.052033	94.036551
60525		-28.090620	-12.938823	94.229173
60526		-28.079871	-12.785721	94.471887
60527		-28.092361	-12.618085	94.766355
60528		-28.098718	-12.483676	95.048486
60529		-28.199413	-12.368460	95.286354
60530		-28.339571	-12.281843	95.554466
60531		-28.370675	-12.201440	95.852558
60532		-28.192430	-12.116096	96.122723
60533		-28.036288	-12.044425	96.391802
60534		-28.024786	-11.947431	96.681273
60535		-28.082983	-11.809476	96.967134
60536		-28.105722	-11.643673	97.209175
60537		-28.201361	-11.504595	97.399172
60538		-28.344812	-11.368353	97.572495
60539		-28.531902	-11.212279	97.801578
60540		-28.563963	-11.046134	98.068746
60541		-28.373161	-10.899853	98.297017
60542		-28.391280	-10.775807	98.490872
60543		-28.535838	-10.658378	98.674449
60544		-28.792234	-10.517747	98.887772
60545		-28.912650	-10.324625	99.110182
60546		-28.903269	-10.069031	99.349800
60547		-28.915606	-9.783907	99.645770
60548		-28.952006	-9.501568	99.902516
60549		-29.109268	-9.213266	100.111911
60550		-29.285702	-8.928329	100.361507
60551		-29.406612	-8.679525	100.621655
60552		-29.450338	-8.471213	100.837879
60553		-29.537260	-8.244177	101.042959
60554		-29.588660	-7.967439	101.294294
60555		-29.568144	-7.670527	101.606056
60556		-29.634989	-7.391011	101.958316
60557		-29.985951	-7.276075	102.315834
60558		-30.454721	-7.145255	102.563696
60559		-30.962330	-6.939267	102.714935
60560		-31.609864	-6.690729	102.739495
60561		-32.007211	-6.489734	102.649860
60562		-32.283879	-6.352022	102.532682
60563		-32.439209	-6.254061	102.435948
60564		-32.558508	-6.146651	102.374589
60565		-32.675442	-6.004037	102.352349
60566		-32.797475	-5.816462	102.396924
60567		-32.937755	-5.580874	102.485164
60568		-33.118042	-5.321847	102.547610
60569		-33.454059	-5.072178	102.568863
60570		-33.889207	-4.836833	102.573869
60571		-34.220771	-4.617663	102.552228
60572		-34.492632	-4.426175	102.524175
60573		-34.684491	-4.279713	102.485972
60574		-34.777446	-4.193981	102.438833
60575		-34.809585	-4.168351	102.339684
60576		-34.868386	-4.122613	102.224369
60577		-34.872639	-4.079401	102.162608
60578		-34.830756	-4.061847	102.120535
60579		-34.928962	-4.069983	102.072042
60580		-35.234430	-4.045059	102.074796
60581		-35.645869	-3.987061	102.136222
60582		-36.103714	-3.937228	102.214316
60583		-36.558204	-3.814995	102.308920
60584		-36.973512	-3.587477	102.442107
60585		-37.294916	-3.383340	102.548642
60586		-37.662560	-3.217791	102.728540
60587		-37.866700	-3.027209	102.919136
60588		-38.021663	-2.817352	103.119166
60589		-38.255285	-2.619204	103.340058
60590		-38.496909	-2.445842	103.577128
60591		-38.852720	-2.319457	103.790156
60592		-39.245963	-2.194316	103.961114
60593		-39.716096	-2.047738	104.103237
60594		-40.130705	-1.870121	104.211428
60595		-40.363563	-1.736451	104.289688
60596		-40.396310	-1.605778	104.356973
60597		-40.507174	-1.424355	104.387897
60598		-40.615882	-1.227592	104.377551
60599		-40.790143	-1.099099	104.386532
60600		-40.875452	-1.009155	104.344869
60601		-40.948813	-0.904325	104.247789
60602		-41.023399	-0.780230	104.169175
60603		-41.029488	-0.689251	104.136223
60604		-41.055922	-0.627561	104.110363
60605		-41.132549	-0.573820	104.082229
60606		-41.196356	-0.523307	104.045767
60607		-41.232065	-0.478877	104.013490
60608		-41.231724	-0.436854	103.989065
60609		-41.245650	-0.394168	103.976025
60610		-41.270719	-0.356879	103.963398
60611		-41.287517	-0.305823	103.948313
60612		-41.275257	-0.255604	103.922821
60613		-41.287785	-0.223512	103.902169
60614		-41.311978	-0.194173	103.887367
60615		-41.327783	-0.169659	103.879678
60616		-41.334551	-0.143354	103.886814
60617		-41.326663	-0.129955	103.893708
60618		-41.338108	-0.118622	103.905564
60619		-41.351085	-0.106863	103.915098
60620		-41.369531	-0.092877	103.927665
60621		-41.354397	-0.076936	103.933401
60622		-41.334300	-0.079442	103.945919
60623		-41.309206	-0.092275	103.959380
60624		-41.308940	-0.110169	103.982251
60625		-41.321759	-0.131558	104.024644
60626		-41.314883	-0.152410	104.074710
60627		-41.304457	-0.163143	104.121023
60628		-41.291338	-0.170350	104.154919
60629		-41.287647	-0.178733	104.181616
60630		-41.274211	-0.185690	104.204682
60631		-41.273510	-0.195836	104.219413
60632		-41.281623	-0.202564	104.235887
60633		-41.250183	-0.190265	104.249400
60634		-41.233285	-0.187388	104.263475
60635		-41.225353	-0.188913	104.272417
60636		-41.228262	-0.190014	104.273827
60637		-41.226070	-0.186647	104.275179
60638		-41.210797	-0.191469	104.275793
60639		-41.193988	-0.206042	104.283577
60640		-41.173697	-0.215456	104.310309
60641		-41.106620	-0.215880	104.337896
60642		-41.038709	-0.220524	104.372728
60643		-40.981130	-0.231550	104.415073
60644		-40.934843	-0.251433	104.452839
60645		-40.904720	-0.277628	104.479131
60646		-40.913272	-0.316688	104.490480
60647		-40.923374	-0.336308	104.477077
60648		-40.945254	-0.335324	104.465083
60649		-40.965366	-0.328689	104.451708
60650		-40.948060	-0.308991	104.430494
60651		-40.960403	-0.294937	104.412105
60652		-41.002369	-0.299901	104.387775
60653		-40.988151	-0.351237	104.374915
60654		-40.890398	-0.407461	104.419802
60655		-40.842915	-0.475410	104.487466
60656		-40.751095	-0.558604	104.570391
60657		-40.690383	-0.648292	104.653845
60658		-40.592213	-0.768573	104.682843
60659		-40.525293	-0.929199	104.658099
60660		-40.402266	-1.104279	104.650967
60661		-40.245016	-1.332598	104.624384
60662		-40.075544	-1.636414	104.589432
60663		-39.852368	-1.973163	104.563258
60664		-39.605773	-2.303450	104.565493
60665		-39.172503	-2.649498	104.580800
60666		-38.637342	-3.079261	104.596929
60667		-38.360196	-3.592834	104.571069
60668		-38.135510	-4.131871	104.534163
60669		-37.636797	-4.654818	104.488010
60670		-37.186070	-5.152307	104.380938
60671		-36.949425	-5.681636	104.185393
60672		-36.719849	-6.225117	103.990932
60673		-36.263023	-6.695547	103.843551
60674		-35.816263	-7.110457	103.655155
60675		-35.552028	-7.526195	103.403663
60676		-35.197215	-7.988644	103.106224
60677		-34.907618	-8.426368	102.739230
60678		-34.767339	-8.772534	102.394033
60679		-34.500552	-9.014772	102.102407
60680		-34.131898	-9.219980	101.822909
60681		-33.903745	-9.435325	101.478055
60682		-33.743154	-9.679887	101.084519
60683		-33.545646	-9.903763	100.659121
60684		-33.376572	-10.099902	100.214444
60685		-33.254342	-10.298749	99.715197
60686		-33.160104	-10.496124	99.161167
60687		-32.983153	-10.722247	98.624619
60688		-32.787609	-10.960815	98.114704
60689		-32.634508	-11.172216	97.638546
60690		-32.387994	-11.428275	97.204169
60691		-32.111529	-11.683711	96.800738
60692		-31.816121	-11.864677	96.447304
60693		-31.412149	-12.003077	96.156733
60694		-31.180705	-12.155154	95.921527
60695		-31.084077	-12.281101	95.683816
60696		-30.980629	-12.337264	95.444174
60697		-30.925957	-12.403754	95.216515
60698		-30.849870	-12.497982	94.993269
60699		-30.687529	-12.542093	94.784284
60700		-30.497296	-12.548342	94.656549
60701		-30.299079	-12.543238	94.612946
60702		-30.188402	-12.523311	94.609478
60703		-30.246185	-12.489245	94.629750
60704		-30.311635	-12.452746	94.667389
60705		-30.262537	-12.439581	94.716836
60706		-30.205815	-12.423954	94.780207
60707		-30.216234	-12.427215	94.822718
60708		-30.333174	-12.458714	94.859222
60709		-30.481630	-12.534456	94.896002
60710		-30.590084	-12.613551	94.935170
60711		-30.584702	-12.640097	94.971205
60712		-30.633258	-12.677760	95.035243
60713		-30.687194	-12.744747	95.106328
60714		-30.632682	-12.844540	95.198040
60715		-30.563193	-12.932117	95.283622
60716		-30.484364	-12.995391	95.304810
60717		-30.352381	-13.081594	95.274610
60718		-30.281903	-13.205562	95.235378
60719		-29.935510	-13.387487	95.175710
60720		-29.584322	-13.540945	95.137653
60721		-29.282442	-13.636845	95.111187
60722		-29.090288	-13.777113	95.070356
60723		-29.064753	-13.905386	95.006553
60724		-29.072124	-14.011246	94.970021
60725		-28.845027	-14.077340	94.933794
60726		-28.639856	-14.130558	94.885981
60727		-28.501328	-14.194269	94.820254
60728		-28.529492	-14.282987	94.740778
60729		-28.541894	-14.355388	94.666502
60730		-28.420425	-14.392712	94.609047
60731		-28.208423	-14.372978	94.559091
60732		-27.904543	-14.391628	94.416756
60733		-27.782277	-14.412810	94.289636
60734		-27.662340	-14.387206	94.166788
60735		-27.429350	-14.348578	94.072223
60736		-27.121972	-14.318622	94.003712
60737		-26.915457	-14.261339	93.957681
60738		-26.776636	-14.185126	93.947140
60739		-26.609932	-14.129813	93.941979
60740		-26.566043	-14.104309	93.927650
60741		-26.588178	-14.100560	93.901997
60742		-26.608502	-14.100824	93.875384
60743		-26.606892	-14.090450	93.852451
60744		-26.611835	-14.070539	93.844944
60745		-26.590504	-14.047859	93.831877
60746		-26.534561	-14.047791	93.811068
60747		-26.509330	-14.040982	93.795240
60748		-26.494808	-14.023489	93.779729
60749		-26.504929	-13.995935	93.769238
60750		-26.521343	-13.970045	93.772495
60751		-26.534050	-13.957354	93.813195
60752		-26.610031	-13.969298	93.856701
60753		-26.719085	-13.967848	93.876997
60754		-26.814306	-13.945672	93.893788
60755		-26.979286	-13.912859	93.954314
60756		-27.154242	-13.882605	94.031930
60757		-27.370341	-13.857884	94.099023
60758		-27.531767	-13.800297	94.153273
60759		-27.679311	-13.724814	94.221581
60760		-27.815057	-13.655661	94.316233
60761		-27.878473	-13.595636	94.421418
60762		-27.915458	-13.521784	94.557767
60763		-27.920507	-13.443018	94.693810
60764		-27.958901	-13.379714	94.795252
60765		-28.049648	-13.349871	94.878624
60766		-28.066451	-13.339808	94.960314
60767		-28.046194	-13.309681	95.062387
60768		-28.034228	-13.251153	95.176249
60769		-28.151984	-13.148488	95.303701
60770		-28.329787	-13.003406	95.486331
60771		-28.445740	-12.837195	95.719559
60772		-28.570604	-12.678365	95.947994
60773		-28.717708	-12.541303	96.151779
60774		-28.885739	-12.415558	96.340416
60775		-29.006044	-12.275127	96.521508
60776		-29.177569	-12.121351	96.701083
60777		-29.321592	-12.005350	96.860379
60778		-29.475352	-11.924404	96.972606
60779		-29.716542	-11.822094	97.100386
60780		-29.874116	-11.716670	97.303640
60781		-29.856844	-11.625812	97.529534
60782		-29.796170	-11.553118	97.743560
60783		-29.829460	-11.472799	97.954106
60784		-29.919242	-11.362348	98.211821
60785		-30.015441	-11.208574	98.504990
60786		-30.105852	-11.028153	98.772604
60787		-30.247668	-10.780622	99.036430
60788		-30.465718	-10.466502	99.324023
60789		-30.573038	-10.114164	99.577575
60790		-30.689514	-9.724163	99.769853
60791		-30.867368	-9.323682	99.959579
60792		-31.080037	-8.940922	100.189177
60793		-31.142576	-8.636211	100.428345
60794		-31.206245	-8.346304	100.648017
60795		-31.628285	-8.246681	100.900018
60796		-31.940094	-8.106869	101.152974
60797		-32.107153	-7.905477	101.277245
60798		-32.615976	-7.710222	101.390705
60799		-32.964323	-7.475127	101.501853
60800		-33.180867	-7.278297	101.624248
60801		-33.332534	-7.119952	101.766947
60802		-33.640867	-6.975246	101.875449
60803		-33.971634	-6.804634	101.980835
60804		-34.212385	-6.613921	102.086737
60805		-34.314089	-6.428471	102.202528
60806		-34.471323	-6.283765	102.304277
60807		-34.658692	-6.133484	102.322394
60808		-34.851892	-6.009575	102.293319
60809		-34.966439	-5.928941	102.257043
60810		-35.004634	-5.869490	102.208629
60811		-35.014329	-5.828772	102.185209
60812		-34.956853	-5.799777	102.153901
60813		-34.938837	-5.789215	102.124370
60814		-35.016216	-5.783052	102.115068
60815		-35.107578	-5.775921	102.098818
60816		-35.233566	-5.779953	102.060076
60817		-35.392021	-5.780281	102.014371
60818		-35.598038	-5.760611	102.016032
60819		-35.876784	-5.713672	102.045914
60820		-36.212372	-5.630538	102.127873
60821		-36.520632	-5.528644	102.232026
60822		-36.806150	-5.385321	102.346979
60823		-37.177407	-5.195517	102.471536
60824		-37.467489	-4.997905	102.613150
60825		-37.818514	-4.826339	102.769915
60826		-38.093111	-4.633283	102.909011
60827		-38.238795	-4.420018	103.041583
60828		-38.517175	-4.222562	103.184490
60829		-38.816408	-4.030030	103.363110
60830		-39.011096	-3.800343	103.546387
60831		-39.230153	-3.559652	103.764505
60832		-39.520137	-3.364435	104.018944
60833		-39.889971	-3.186697	104.223476
60834		-40.348508	-3.008759	104.319966
60835		-40.818232	-2.841791	104.378255
60836		-41.138764	-2.688915	104.412659
60837		-41.235048	-2.542501	104.449553
60838		-41.326994	-2.350103	104.502802
60839		-41.499365	-2.150427	104.560525
60840		-41.721476	-2.006533	104.591730
60841		-41.866494	-1.911719	104.629893
60842		-41.860709	-1.814570	104.617440
60843		-41.935056	-1.748660	104.575226
60844		-42.042698	-1.668435	104.538812
60845		-42.100601	-1.563725	104.511144
60846		-42.135846	-1.473698	104.490882
60847		-42.176576	-1.400429	104.481177
60848		-42.238917	-1.293793	104.435310
60849		-42.310130	-1.165398	104.353776
60850		-42.400501	-1.050110	104.291081
60851		-42.497122	-0.952121	104.253524
60852		-42.558200	-0.862797	104.210278
60853		-42.615197	-0.775909	104.180873
60854		-42.650383	-0.678188	104.188446
60855		-42.643510	-0.590567	104.220186
60856		-42.651569	-0.525034	104.248623
60857		-42.681985	-0.464744	104.250572
60858		-42.709661	-0.389056	104.231705
60859		-42.712223	-0.350803	104.227969
60860		-42.720013	-0.345733	104.233286
60861		-42.712600	-0.333514	104.246655
60862		-42.690866	-0.284328	104.267665
60863		-42.667981	-0.246023	104.293487
60864		-42.642434	-0.239159	104.331863
60865		-42.646850	-0.254612	104.341592
60866		-42.724563	-0.254499	104.339910
60867		-42.717256	-0.247545	104.334307
60868		-42.709620	-0.243814	104.340837
60869		-42.731602	-0.235802	104.344083
60870		-42.732119	-0.218512	104.335845
60871		-42.719904	-0.219541	104.334503
60872		-42.711361	-0.227500	104.337360
60873		-42.714289	-0.243345	104.338609
60874		-42.721055	-0.254024	104.343966
60875		-42.690314	-0.263194	104.342529
60876		-42.677909	-0.282804	104.352918
60877		-42.685792	-0.299170	104.362912
60878		-42.704432	-0.305251	104.379831
60879		-42.683690	-0.298905	104.396278
60880		-42.661718	-0.310298	104.405101
60881		-42.648539	-0.327916	104.416983
60882		-42.645222	-0.348144	104.431142
60883		-42.637208	-0.373553	104.454863
60884		-42.622109	-0.400878	104.486245
60885		-42.605491	-0.424972	104.522857
60886		-42.595928	-0.445154	104.550489
60887		-42.599640	-0.472817	104.563456
60888		-42.599796	-0.486680	104.563894
60889		-42.586179	-0.495879	104.564754
60890		-42.579644	-0.510055	104.576216
60891		-42.550838	-0.538814	104.582479
60892		-42.499156	-0.560378	104.604842
60893		-42.459795	-0.572062	104.624296
60894		-42.415661	-0.612804	104.647049
60895		-42.357502	-0.653343	104.660655
60896		-42.357197	-0.687881	104.666344
60897		-42.365783	-0.707526	104.644522
60898		-42.354716	-0.728454	104.608978
60899		-42.340259	-0.737603	104.572153
60900		-42.385944	-0.750122	104.524550
60901		-42.409967	-0.756685	104.487375
60902		-42.370746	-0.750123	104.480851
60903		-42.334483	-0.750917	104.488005
60904		-42.351635	-0.792173	104.470971
60905		-42.227201	-0.849820	104.501214
60906		-42.018750	-0.923711	104.617126
60907		-41.941533	-1.090094	104.786640
60908		-41.757207	-1.271479	104.911424
60909		-41.519827	-1.446883	105.038550
60910		-41.400770	-1.646465	105.177408
60911		-41.233712	-1.933201	105.300603
60912		-41.057563	-2.277404	105.370565
60913		-40.892516	-2.640716	105.400144
60914		-40.567435	-3.047643	105.417611
60915		-40.204851	-3.519537	105.409718
60916		-39.979784	-3.996664	105.381051
60917		-39.736451	-4.440090	105.365469
60918		-39.220362	-4.860147	105.372264
60919		-38.625116	-5.255820	105.320069
60920		-38.305427	-5.663146	105.175100
60921		-38.067664	-6.024126	104.928055
60922		-37.785119	-6.355644	104.613967
60923		-37.592914	-6.663666	104.246356
60924		-37.385916	-6.981782	103.857225
60925		-37.121920	-7.280620	103.494856
60926		-36.862242	-7.648071	103.148777
60927		-36.938935	-7.817411	102.833252
60928		-36.628424	-8.123962	102.479902
60929		-36.222670	-8.475801	102.083661
60930		-35.872172	-8.794856	101.713418
60931		-35.618201	-9.113161	101.334309
60932		-35.431178	-9.419524	100.965410
60933		-35.212330	-9.661892	100.613509
60934		-34.954099	-9.851005	100.280424
60935		-34.698751	-10.009383	99.923184
60936		-34.597742	-10.181126	99.591288
60937		-34.539278	-10.322099	99.300721
60938		-34.477360	-10.409767	99.006209
60939		-34.462836	-10.506506	98.692386
60940		-34.386326	-10.672811	98.327781
60941		-34.172314	-10.876131	97.937710
60942		-33.971850	-11.052086	97.573878
60943		-33.776919	-11.241460	97.237073
60944		-33.499803	-11.441086	96.906218
60945		-33.152123	-11.605098	96.612394
60946		-32.842378	-11.763693	96.373665
60947		-32.588028	-11.917978	96.149040
60948		-32.390165	-12.011580	95.975912
60949		-32.240514	-12.080341	95.771785
60950		-32.116546	-12.131396	95.605137
60951		-32.015052	-12.150582	95.493492
60952		-31.940458	-12.140474	95.451034
60953		-31.872138	-12.109551	95.451926
60954		-31.881843	-12.076534	95.483960
60955		-31.957950	-12.055846	95.547935
60956		-31.976855	-12.036180	95.626638
60957		-31.991647	-12.025264	95.694442
60958		-32.024540	-12.004054	95.768159
60959		-32.055005	-11.994027	95.841391
60960		-32.092164	-12.058055	95.918387
60961		-32.100666	-12.131638	95.994536
60962		-32.051764	-12.186697	96.066057
60963		-31.919501	-12.239541	96.145539
60964		-31.867506	-12.261276	96.234826
60965		-31.890923	-12.297419	96.321127
60966		-31.896997	-12.338164	96.396368
60967		-31.961414	-12.316198	96.450765
60968		-31.957572	-12.288839	96.507686
60969		-31.946575	-12.313275	96.536667
60970		-31.877298	-12.348944	96.542077
60971		-31.708845	-12.394729	96.546018
60972		-31.551665	-12.463013	96.546467
60973		-31.426831	-12.521433	96.548273
60974		-31.300108	-12.565582	96.557527
60975		-31.093130	-12.612469	96.596312
60976		-30.925259	-12.677085	96.631454
60977		-30.852850	-12.740348	96.627084
60978		-30.851347	-12.802421	96.576052
60979		-30.893656	-12.867412	96.516260
60980		-30.910389	-12.935245	96.465967
60981		-30.835552	-12.970072	96.424029
60982		-30.756117	-12.975470	96.383325
60983		-30.709128	-12.979857	96.346072
60984		-30.605320	-12.998527	96.280305
60985		-30.677431	-13.024746	96.206795
60986		-30.619601	-13.011675	96.149628
60987		-30.357741	-12.993598	96.105966
60988		-30.026054	-12.949946	96.043989
60989		-29.747285	-12.922103	95.969765
60990		-29.556178	-12.914399	95.918576
60991		-29.417923	-12.863113	95.881726
60992		-29.380132	-12.801644	95.852362
60993		-29.455413	-12.771139	95.831170
60994		-29.461979	-12.730346	95.816883
60995		-29.371522	-12.694838	95.806216
60996		-29.305669	-12.678782	95.779316
60997		-29.336759	-12.658476	95.760907
60998		-29.286149	-12.620115	95.761377
60999		-29.248788	-12.596105	95.771877
61000		-29.293316	-12.581815	95.780026
61001		-29.360842	-12.572607	95.773613
61002		-29.393453	-12.590857	95.757520
61003		-29.449976	-12.616062	95.737757
61004		-29.487251	-12.629057	95.726349
61005		-29.453960	-12.628789	95.729400
61006		-29.449112	-12.623307	95.732735
61007		-29.477023	-12.600503	95.741183
61008		-29.481036	-12.596974	95.771758
61009		-29.455059	-12.584295	95.803776
61010		-29.486333	-12.578568	95.815964
61011		-29.562732	-12.575037	95.825079
61012		-29.564481	-12.563124	95.858436
61013		-29.467394	-12.538136	95.939929
61014		-29.436223	-12.519001	96.012353
61015		-29.582171	-12.500757	96.041212
61016		-29.784722	-12.463067	96.060634
61017		-29.863300	-12.421350	96.095019
61018		-29.852038	-12.382705	96.162747
61019		-29.835610	-12.361642	96.266106
61020		-29.852711	-12.344687	96.382154
61021		-29.886203	-12.327664	96.466652
61022		-29.950795	-12.319328	96.545402
61023		-30.009335	-12.323452	96.640506
61024		-30.112315	-12.326191	96.739950
61025		-30.142073	-12.303385	96.835696
61026		-30.123480	-12.256832	96.933412
61027		-30.143237	-12.192733	97.038080
61028		-30.141245	-12.147119	97.177665
61029		-30.095113	-12.123019	97.296766
61030		-30.104239	-12.102731	97.396421
61031		-30.156430	-12.065836	97.529696
61032		-30.175205	-12.011688	97.701188
61033		-30.159821	-11.915788	97.874742
61034		-30.136046	-11.797853	98.059384
61035		-30.185390	-11.651182	98.261424
61036		-30.325821	-11.482982	98.487385
61037		-30.383584	-11.324069	98.721319
61038		-30.490320	-11.149370	98.960580
61039		-30.641080	-10.935199	99.203897
61040		-30.706105	-10.710869	99.475579
61041		-30.705605	-10.479082	99.765212
61042		-30.641217	-10.225015	100.050447
61043		-30.678490	-9.943738	100.301531
61044		-30.804845	-9.645751	100.513260
61045		-31.002193	-9.334421	100.731406
61046		-31.262272	-9.056705	100.965249
61047		-31.463304	-8.816434	101.195912
61048		-31.705248	-8.653630	101.373309
61049		-32.223201	-8.587204	101.521996
61050		-32.415990	-8.371772	101.572451
61051		-32.866210	-8.089042	101.607608
61052		-33.332458	-7.728764	101.659489
61053		-33.616760	-7.303403	101.636220
61054		-34.165093	-6.923776	101.697524
61055		-34.568775	-6.561902	101.822562
61056		-34.749222	-6.305273	101.879377
61057		-35.071246	-6.158084	101.880197
61058		-35.398447	-6.076517	101.883257
61059		-35.440410	-6.059101	101.924368
61060		-35.236030	-6.113547	101.973057
61061		-35.006129	-6.178691	102.047000
61062		-34.808993	-6.236983	102.157319
61063		-34.697531	-6.318360	102.252085
61064		-34.807546	-6.406626	102.314353
61065		-35.046611	-6.462496	102.322976
61066		-35.325623	-6.491736	102.313983
61067		-35.517045	-6.472837	102.323824
61068		-35.706011	-6.405366	102.359043
61069		-35.989506	-6.301330	102.464650
61070		-36.417959	-6.207712	102.652512
61071		-36.847458	-6.061491	102.827150
61072		-37.176615	-5.827792	102.983178
61073		-37.406658	-5.610735	103.163913
61074		-37.690303	-5.380979	103.410413
61075		-37.968860	-5.118909	103.691048
61076		-38.235831	-4.840907	103.963343
61077		-38.561361	-4.532643	104.230787
61078		-38.906235	-4.226463	104.556776
61079		-39.276273	-3.914228	104.872738
61080		-39.849676	-3.539616	105.101922
61081		-40.556697	-3.134713	105.231806
61082		-41.350024	-2.748199	105.304429
61083		-42.028841	-2.367782	105.352956
61084		-42.412841	-1.988511	105.349122
61085		-42.682038	-1.645771	105.400645
61086		-42.940269	-1.310626	105.386718
61087		-43.198372	-0.999777	105.324750
61088		-43.564424	-0.750185	105.275407
61089		-43.771572	-0.534746	105.198037
61090		-43.837035	-0.398826	105.079292
61091		-43.953539	-0.293057	104.915060
61092		-44.084560	-0.153107	104.781520
61093		-44.099971	-0.011783	104.669939
61094		-44.058170	0.131896	104.556133
61095		-44.130750	0.276856	104.455548
61096		-44.238558	0.422789	104.372384
61097		-44.373808	0.582754	104.301392
61098		-44.493156	0.767668	104.244467
61099		-44.610285	0.915808	104.217305
61100		-44.708152	1.008613	104.219021
61101		-44.719744	1.041985	104.225183
61102		-44.749410	1.041898	104.287719
61103		-44.692667	1.028292	104.383811
61104		-44.643512	1.008968	104.490630
61105		-44.592663	1.002444	104.577293
61106		-44.577658	0.994654	104.634794
61107		-44.591764	0.993660	104.651502
61108		-44.583540	1.009180	104.627319
61109		-44.621504	1.021792	104.595088
61110		-44.614850	1.047130	104.544365
61111		-44.606552	1.064674	104.505044
61112		-44.614245	1.078148	104.479847
61113		-44.584279	1.084688	104.450895
61114		-44.552848	1.083160	104.438076
61115		-44.543361	1.084107	104.431195
61116		-44.528989	1.083606	104.426804
61117		-44.525046	1.078435	104.424778
61118		-44.516423	1.080523	104.416077
61119		-44.509591	1.085621	104.414991
61120		-44.471006	1.096795	104.414536
61121		-44.463056	1.093272	104.425387
61122		-44.472127	1.082576	104.442501
61123		-44.475105	1.076804	104.455714
61124		-44.478183	1.071283	104.463278
61125		-44.474057	1.068318	104.468786
61126		-44.475630	1.074652	104.476873
61127		-44.475358	1.083921	104.486626
61128		-44.471636	1.097573	104.489854
61129		-44.473837	1.104583	104.493740
61130		-44.473208	1.113165	104.493112
61131		-44.468652	1.115454	104.497533
61132		-44.469799	1.121549	104.512226
61133		-44.437822	1.121143	104.529620
61134		-44.434455	1.110046	104.552937
61135		-44.398558	1.084608	104.591971
61136		-44.324789	1.054573	104.643671
61137		-44.318315	1.027542	104.680941
61138		-44.281680	0.997367	104.714455
61139		-44.137875	0.959287	104.787247
61140		-44.028944	0.916404	104.868288
61141		-44.047165	0.812248	104.930127
61142		-44.059884	0.702743	104.986635
61143		-43.922457	0.628062	105.024557
61144		-43.732974	0.511646	105.041864
61145		-43.506522	0.345148	105.110577
61146		-43.254921	0.143217	105.219411
61147		-43.071695	-0.083030	105.342187
61148		-42.928871	-0.338021	105.445039
61149		-42.670333	-0.636746	105.492343
61150		-42.468507	-0.934529	105.495594
61151		-42.353131	-1.239652	105.495823
61152		-42.119289	-1.628692	105.481167
61153		-41.844806	-2.056190	105.456560
61154		-41.593414	-2.420422	105.328379
61155		-41.334253	-2.811437	105.132471
61156		-40.997003	-3.284846	104.920993
61157		-40.630718	-3.759290	104.745224
61158		-40.174669	-4.185499	104.599509
61159		-39.685202	-4.629017	104.427929
61160		-39.241224	-5.150370	104.181190
61161		-38.811780	-5.578700	103.895319
61162		-38.426746	-6.219832	103.544385
61163		-38.948930	-6.986506	103.363601
61164		-39.430517	-7.667763	103.219435
61165		-38.572056	-7.168920	102.940004
61166		-37.001746	-7.693745	102.562631
61167		-36.209300	-8.249245	102.179670
61168		-35.983221	-8.712437	101.874475
61169		-35.837447	-9.137790	101.629260
61170		-35.400763	-9.547845	101.354921
61171		-34.881895	-9.844805	101.063490
61172		-34.492514	-10.089747	100.786293
61173		-34.188695	-10.360765	100.534594
61174		-33.899377	-10.623048	100.260910
61175		-33.649517	-10.850069	99.956872
61176		-33.503209	-11.092327	99.587933
61177		-33.437187	-11.377861	99.176384
61178		-33.359754	-11.648191	98.747069
61179		-33.182329	-11.873852	98.328474
61180		-32.923424	-12.096499	97.937557
61181		-32.647225	-12.332561	97.561732
61182		-32.355111	-12.550317	97.224450
61183		-32.018642	-12.730202	96.924360
61184		-31.743928	-12.900023	96.653626
61185		-31.563000	-13.036475	96.419493
61186		-31.367493	-13.142165	96.215369
61187		-31.197762	-13.254934	96.061180
61188		-31.034228	-13.353251	95.950446
61189		-30.879111	-13.425296	95.868849
61190		-30.733220	-13.485227	95.813657
61191		-30.598303	-13.538836	95.799066
61192		-30.523868	-13.573858	95.804322
61193		-30.570852	-13.578374	95.827043
61194		-30.573494	-13.565301	95.835650
61195		-30.626509	-13.557959	95.835593
61196		-30.690981	-13.554205	95.841015
61197		-30.652808	-13.595686	95.839957
61198		-30.649281	-13.684232	95.841821
61199		-30.743748	-13.742273	95.855056
61200		-30.741378	-13.763049	95.891958
61201		-30.696837	-13.788876	95.943522
61202		-30.653595	-13.849734	95.979054
61203		-30.664952	-13.894357	95.961378
61204		-30.646821	-13.874995	95.927813
61205		-30.763010	-13.892354	95.942237
61206		-30.757942	-13.910330	95.963573
61207		-30.402060	-14.003375	95.885377
61208		-30.144183	-14.120677	95.797156
61209		-30.008028	-14.160884	95.767108
61210		-29.761268	-14.216784	95.754382
61211		-29.553381	-14.310226	95.712721
61212		-29.361946	-14.415024	95.646389
61213		-29.287353	-14.488872	95.577586
61214		-29.181192	-14.555579	95.523185
61215		-29.143703	-14.637260	95.457269
61216		-29.114489	-14.725798	95.347341
61217		-28.917041	-14.777699	95.312768
61218		-28.636887	-14.813420	95.287690
61219		-28.544710	-14.796585	95.236131
61220		-28.464197	-14.790674	95.149534
61221		-28.448459	-14.790105	95.059690
61222		-28.416104	-14.752629	94.983093
61223		-28.206581	-14.733189	94.905299
61224		-28.119322	-14.749937	94.826978
61225		-28.110968	-14.775465	94.760832
61226		-28.091999	-14.786908	94.705809
61227		-28.052890	-14.761916	94.656536
61228		-27.948366	-14.740775	94.625468
61229		-27.852289	-14.707414	94.610125
61230		-27.690917	-14.690944	94.584295
61231		-27.566344	-14.685682	94.537122
61232		-27.510836	-14.689535	94.501183
61233		-27.511448	-14.672783	94.484122
61234		-27.581747	-14.633602	94.486134
61235		-27.635012	-14.595246	94.488387
61236		-27.690044	-14.566575	94.501126
61237		-27.686765	-14.554415	94.500071
61238		-27.655614	-14.547728	94.489141
61239		-27.611464	-14.544662	94.488767
61240		-27.556138	-14.538870	94.489332
61241		-27.570266	-14.524332	94.495206
61242		-27.620974	-14.497037	94.517244
61243		-27.649689	-14.461970	94.533999
61244		-27.712392	-14.417525	94.567511
61245		-27.772200	-14.357394	94.635723
61246		-27.787796	-14.289166	94.720574
61247		-27.886034	-14.230028	94.796737
61248		-28.030373	-14.168568	94.856326
61249		-28.190604	-14.080780	94.936166
61250		-28.350948	-13.982707	95.030083
61251		-28.479981	-13.894639	95.095865
61252		-28.639714	-13.794288	95.161398
61253		-28.778376	-13.673647	95.226748
61254		-28.902879	-13.561681	95.302485
61255		-29.007635	-13.454405	95.392399
61256		-29.165480	-13.340785	95.518181
61257		-29.290613	-13.216103	95.667587
61258		-29.443464	-13.082567	95.838750
61259		-29.594086	-12.942387	96.011708
61260		-29.649642	-12.838414	96.216460
61261		-29.654806	-12.763479	96.437683
61262		-29.723315	-12.683524	96.654172
61263		-29.736066	-12.610033	96.838134
61264		-29.723988	-12.565054	96.992583
61265		-29.754281	-12.522629	97.132190
61266		-29.819264	-12.461539	97.287124
61267		-29.914711	-12.377494	97.479819
61268		-29.925590	-12.294959	97.697499
61269		-29.981067	-12.175901	97.940920
61270		-30.067273	-12.025169	98.225845
61271		-30.129976	-11.866956	98.523799
61272		-30.133377	-11.719087	98.836455
61273		-30.181758	-11.601375	99.203517
61274		-30.179218	-11.484280	99.606166
61275		-30.174545	-11.352195	100.039177
61276		-30.152184	-11.224468	100.432679
61277		-30.121789	-11.106032	100.725345
61278		-30.161088	-10.960439	100.977287
61279		-30.217691	-10.755958	101.245515
61280		-30.292423	-10.515087	101.562987
61281		-30.416167	-10.226114	101.854380
61282		-30.564262	-9.899507	102.035523
61283		-30.793119	-9.585462	102.137652
61284		-31.253276	-9.397914	102.191987
61285		-31.424007	-9.113395	102.207066
61286		-31.463964	-8.773808	102.127790
61287		-31.859060	-8.495510	102.143460
61288		-32.330374	-8.196977	102.186295
61289		-32.586259	-7.954325	102.181156
61290		-32.732316	-7.782335	102.155994
61291		-32.874852	-7.615779	102.148090
61292		-33.057415	-7.477654	102.197130
61293		-33.172590	-7.396248	102.265660
61294		-33.235452	-7.317897	102.264093
61295		-33.361074	-7.202040	102.237334
61296		-33.467069	-7.124321	102.213780
61297		-33.550631	-7.104624	102.164571
61298		-33.690991	-7.098853	102.107252
61299		-33.854541	-7.084141	102.113501
61300		-33.986630	-7.064749	102.186497
61301		-34.147646	-7.051110	102.267201
61302		-34.437815	-7.000047	102.380927
61303		-34.827208	-6.886019	102.506999
61304		-35.268944	-6.731377	102.649812
61305		-35.781896	-6.515194	102.783082
61306		-36.313187	-6.201380	102.952264
61307		-36.738882	-5.880106	103.158404
61308		-37.201839	-5.559284	103.396312
61309		-37.554014	-5.207870	103.677123
61310		-37.876792	-4.817868	103.984282
61311		-38.164896	-4.466578	104.261807
61312		-38.471834	-4.164483	104.528504
61313		-38.868949	-3.878646	104.794558
61314		-39.410167	-3.594240	105.032743
61315		-39.986061	-3.330888	105.201881
61316		-40.453471	-3.090036	105.344546
61317		-40.747512	-2.818928	105.442167
61318		-41.112200	-2.584044	105.557447
61319		-41.466677	-2.392830	105.693297
61320		-41.548406	-2.180222	105.829167
61321		-41.603809	-1.958857	105.947455
61322		-41.764674	-1.768294	106.026986
61323		-41.994259	-1.604895	106.077892
61324		-42.169071	-1.487354	106.048332
61325		-42.258007	-1.435178	105.935151
61326		-42.298169	-1.347904	105.795187
61327		-42.318250	-1.234218	105.698815
61328		-42.296522	-1.123742	105.640267
61329		-42.223229	-1.005972	105.563354
61330		-42.191796	-0.880626	105.442024
61331		-42.252140	-0.745686	105.322702
61332		-42.279260	-0.624816	105.238112
61333		-42.274353	-0.522956	105.182063
61334		-42.250884	-0.434961	105.123536
61335		-42.290674	-0.375799	105.080562
61336		-42.342130	-0.333709	105.067734
61337		-42.348625	-0.290953	105.077530
61338		-42.359499	-0.259506	105.106444
61339		-42.343732	-0.236927	105.125990
61340		-42.343457	-0.227627	105.132833
61341		-42.369299	-0.216879	105.126730
61342		-42.386884	-0.194764	105.125217
61343		-42.381935	-0.172617	105.129833
61344		-42.383756	-0.158640	105.145604
61345		-42.386223	-0.150355	105.167475
61346		-42.375353	-0.144087	105.181911
61347		-42.362429	-0.141905	105.197808
61348		-42.355711	-0.134061	105.211655
61349		-42.362068	-0.126044	105.222620
61350		-42.380034	-0.122757	105.232744
61351		-42.388115	-0.112174	105.227158
61352		-42.394426	-0.107590	105.231703
61353		-42.387474	-0.097062	105.234469
61354		-42.396806	-0.078454	105.238945
61355		-42.370466	-0.065161	105.242799
61356		-42.376180	-0.059757	105.246772
61357		-42.395012	-0.060757	105.250181
61358		-42.415812	-0.059067	105.244162
61359		-42.426997	-0.059364	105.235822
61360		-42.419289	-0.067573	105.233068
61361		-42.414775	-0.067878	105.234901
61362		-42.407297	-0.072529	105.245702
61363		-42.389288	-0.080039	105.251295
61364		-42.388026	-0.093585	105.256721
61365		-42.388524	-0.095052	105.267253
61366		-42.367390	-0.097977	105.273178
61367		-42.355438	-0.110481	105.283095
61368		-42.349457	-0.130460	105.296528
61369		-42.340842	-0.157144	105.304437
61370		-42.325730	-0.189500	105.315346
61371		-42.282141	-0.218959	105.329607
61372		-42.205516	-0.258902	105.362306
61373		-42.143152	-0.296599	105.395019
61374		-42.124749	-0.351507	105.399073
61375		-42.043753	-0.381901	105.389453
61376		-42.025447	-0.413312	105.387263
61377		-42.036583	-0.462259	105.347772
61378		-41.989524	-0.520744	105.317717
61379		-41.986348	-0.563951	105.340809
61380		-41.964515	-0.645561	105.391019
61381		-41.855325	-0.709390	105.435045
61382		-41.835337	-0.795896	105.445577
61383		-41.966782	-0.896269	105.440224
61384		-41.955496	-0.988478	105.437675
61385		-41.850989	-1.094462	105.422563
61386		-41.821462	-1.213134	105.391970
61387		-41.838495	-1.365882	105.345308
61388		-41.778690	-1.576667	105.320207
61389		-41.570976	-1.853010	105.330804
61390		-41.313918	-2.187737	105.340338
61391		-41.061306	-2.552081	105.338024
61392		-40.758794	-2.918770	105.271570
61393		-40.520560	-3.319370	105.152493
61394		-40.316829	-3.772773	105.001760
61395		-40.078909	-4.215841	104.820985
61396		-39.754136	-4.654067	104.574940
61397		-39.412068	-5.114286	104.301706
61398		-39.131676	-5.578131	104.012289
61399		-38.729769	-5.960978	103.729417
61400		-38.320422	-6.272612	103.520626
61401		-37.994082	-6.847783	103.246275
61402		-38.257866	-7.483051	103.046668
61403		-38.402204	-7.829219	102.961821
61404		-37.889146	-7.597483	102.812110
61405		-37.083743	-8.004902	102.563713
61406		-36.494420	-8.561885	102.317562
61407		-36.287759	-9.008954	102.103946
61408		-36.171761	-9.474728	101.906137
61409		-35.804888	-9.934544	101.683727
61410		-35.219769	-10.323131	101.439921
61411		-34.738350	-10.705417	101.145953
61412		-34.578317	-11.065531	100.820555
61413		-34.404010	-11.356370	100.446343
61414		-34.205455	-11.621809	100.019758
61415		-34.082272	-11.853742	99.583656
61416		-33.942783	-12.057106	99.179602
61417		-33.719646	-12.268192	98.783311
61418		-33.441564	-12.484525	98.393768
61419		-33.048683	-12.650548	97.994065
61420		-32.636412	-12.791850	97.600738
61421		-32.397085	-12.953635	97.249759
61422		-32.206619	-13.095764	96.941403
61423		-31.933450	-13.207192	96.653131
61424		-31.652813	-13.306050	96.417228
61425		-31.421658	-13.405530	96.282603
61426		-31.191245	-13.468755	96.227176
61427		-30.963453	-13.489915	96.217983
61428		-30.823136	-13.502848	96.211458
61429		-30.820173	-13.507981	96.220975
61430		-30.764471	-13.516676	96.223920
61431		-30.697443	-13.538082	96.219387
61432		-30.625338	-13.556216	96.206339
61433		-30.510010	-13.591104	96.203278
61434		-30.355902	-13.627916	96.205903
61435		-30.266439	-13.658961	96.227841
61436		-30.330319	-13.688854	96.292482
61437		-30.448741	-13.799005	96.341136
61438		-30.731009	-13.928186	96.328652
61439		-30.977019	-13.932954	96.345109
61440		-31.064894	-13.977858	96.397322
61441		-31.191168	-14.084453	96.445135
61442		-31.115415	-14.181843	96.437917
61443		-30.935480	-14.251785	96.436945
61444		-30.927509	-14.285822	96.442135
61445		-30.911216	-14.334057	96.438207
61446		-30.865875	-14.376135	96.427951
61447		-30.771433	-14.456368	96.397321
61448		-30.644438	-14.542267	96.341949
61449		-30.399472	-14.599374	96.288327
61450		-30.290420	-14.681922	96.244898
61451		-30.308082	-14.764452	96.189148
61452		-30.327688	-14.825745	96.111716
61453		-30.292721	-14.876484	96.083776
61454		-30.144403	-14.908687	96.030347
61455		-30.082704	-14.938202	95.985946
61456		-30.041980	-14.969733	95.933879
61457		-30.010459	-14.999404	95.888487
61458		-29.977761	-15.018699	95.795874
61459		-29.658108	-15.056466	95.622308
61460		-29.373804	-15.072974	95.513711
61461		-29.146158	-15.079874	95.437161
61462		-29.022183	-15.081220	95.364378
61463		-28.915926	-15.067850	95.322306
61464		-28.890295	-15.034558	95.332555
61465		-28.867357	-14.987433	95.346774
61466		-28.869570	-14.938577	95.362042
61467		-28.782705	-14.867683	95.382485
61468		-28.567968	-14.805362	95.385091
61469		-28.409749	-14.765110	95.365439
61470		-28.355190	-14.734753	95.336047
61471		-28.307787	-14.701303	95.308464
61472		-28.240267	-14.679903	95.297805
61473		-28.187830	-14.659456	95.290338
61474		-28.198136	-14.642369	95.286876
61475		-28.232276	-14.611249	95.288709
61476		-28.211410	-14.580346	95.294987
61477		-28.173100	-14.554305	95.300372
61478		-28.156033	-14.558452	95.281769
61479		-28.176501	-14.573196	95.260804
61480		-28.143388	-14.567036	95.253472
61481		-28.092321	-14.550575	95.251824
61482		-28.098766	-14.540578	95.258005
61483		-28.141494	-14.536706	95.262259
61484		-28.206238	-14.515150	95.264669
61485		-28.264447	-14.501829	95.275935
61486		-28.270495	-14.497893	95.301456
61487		-28.237487	-14.488704	95.316532
61488		-28.294431	-14.477185	95.358344
61489		-28.387457	-14.481693	95.415322
61490		-28.438284	-14.467941	95.469883
61491		-28.489500	-14.409073	95.542521
61492		-28.554004	-14.336643	95.652213
61493		-28.668821	-14.279567	95.756497
61494		-28.848301	-14.219361	95.870562
61495		-29.034234	-14.135769	95.992054
61496		-29.165031	-14.066322	96.113874
61497		-29.229217	-14.004187	96.256586
61498		-29.250469	-13.946568	96.411575
61499		-29.313028	-13.862024	96.590563
61500		-29.362838	-13.764620	96.793687
61501		-29.382686	-13.686644	96.992146
61502		-29.411230	-13.622960	97.185035
61503		-29.530515	-13.546083	97.367197
61504		-29.699422	-13.446647	97.575339
61505		-29.751076	-13.349587	97.821297
61506		-29.708822	-13.256802	98.074814
61507		-29.756057	-13.147105	98.304575
61508		-29.867053	-13.035885	98.545111
61509		-29.941615	-12.922435	98.809790
61510		-29.870673	-12.847036	99.051122
61511		-29.781523	-12.832938	99.261692
61512		-29.738202	-12.835187	99.471776
61513		-29.695872	-12.825639	99.690569
61514		-29.652572	-12.790506	99.877198
61515		-29.724393	-12.723847	100.048585
61516		-29.839323	-12.607278	100.270511
61517		-29.999586	-12.465334	100.568972
61518		-30.092833	-12.304336	100.862761
61519		-30.213323	-12.117533	101.143271
61520		-30.391231	-11.874394	101.478991
61521		-30.528506	-11.592238	101.849828
61522		-30.571525	-11.287190	102.199763
61523		-30.681582	-10.969383	102.526501
61524		-30.779615	-10.654411	102.857651
61525		-30.819664	-10.352570	103.132684
61526		-30.903661	-10.073737	103.346457
61527		-31.129997	-9.941295	103.550079
61528		-31.429897	-9.795775	103.761142
61529		-31.712639	-9.551816	103.871261
61530		-32.362678	-9.259586	103.973416
61531		-32.887511	-8.909844	104.067805
61532		-33.218488	-8.618638	104.149690
61533		-33.615786	-8.372511	104.139684
61534		-34.045910	-8.143941	104.028065
61535		-34.543868	-7.967524	103.880109
61536		-34.925873	-7.762330	103.731110
61537		-35.164879	-7.516208	103.640302
61538		-35.331499	-7.238728	103.669008
61539		-35.414453	-6.957798	103.775672
61540		-35.589059	-6.669412	103.857045
61541		-35.871409	-6.372843	103.911616
61542		-36.213989	-6.113903	103.991437
61543		-36.512291	-5.917480	104.031492
61544		-36.719420	-5.743952	103.982142
61545		-36.902958	-5.603696	103.914794
61546		-37.036979	-5.499162	103.874233
61547		-37.042143	-5.416728	103.813388
61548		-37.014140	-5.381796	103.720829
61549		-37.075210	-5.373400	103.655999
61550		-37.124981	-5.381459	103.613565
61551		-37.243838	-5.394034	103.584844
61552		-37.500653	-5.395651	103.587942
61553		-37.761317	-5.370362	103.614480
61554		-38.052350	-5.313006	103.708581
61555		-38.303202	-5.219983	103.858767
61556		-38.474219	-5.084559	103.982795
61557		-38.749992	-4.963200	104.102188
61558		-39.010570	-4.824288	104.240518
61559		-39.241547	-4.668772	104.413985
61560		-39.382277	-4.494171	104.625094
61561		-39.443982	-4.298032	104.860960
61562		-39.547498	-4.135155	105.082151
61563		-39.828626	-3.986473	105.309395
61564		-40.208086	-3.827051	105.545487
61565		-40.602066	-3.652834	105.749143
61566		-40.984613	-3.464259	105.845027
61567		-41.329027	-3.249123	105.915824
61568		-41.702665	-3.061028	105.986364
61569		-41.842335	-2.897096	106.035441
61570		-41.890804	-2.727480	106.043327
61571		-42.027577	-2.560416	106.012474
61572		-42.172232	-2.369479	105.949876
61573		-42.350649	-2.223712	105.854130
61574		-42.426055	-2.093758	105.754243
61575		-42.380801	-1.950917	105.658488
61576		-42.346666	-1.820762	105.611332
61577		-42.316782	-1.694562	105.591113
61578		-42.260007	-1.562365	105.548773
61579		-42.269027	-1.469508	105.505822
61580		-42.263118	-1.415724	105.463355
61581		-42.265353	-1.353904	105.425922
61582		-42.304173	-1.310845	105.399876
61583		-42.332031	-1.270068	105.391446
61584		-42.335441	-1.238206	105.383768
61585		-42.342627	-1.209809	105.375152
61586		-42.355935	-1.175171	105.366707
61587		-42.339795	-1.131768	105.354804
61588		-42.339150	-1.098485	105.350643
61589		-42.348511	-1.084451	105.356368
61590		-42.350101	-1.070137	105.367565
61591		-42.350759	-1.056805	105.387763
61592		-42.343516	-1.043964	105.415885
61593		-42.313088	-1.035841	105.444970
61594		-42.297230	-1.034644	105.475598
61595		-42.298879	-1.029149	105.503081
61596		-42.308168	-1.030290	105.523924
61597		-42.317236	-1.041819	105.535987
61598		-42.314160	-1.052552	105.541420
61599		-42.304100	-1.060260	105.546421
61600		-42.303184	-1.066739	105.568324
61601		-42.306326	-1.076984	105.593190
61602		-42.297370	-1.085951	105.613741
61603		-42.290733	-1.093854	105.628812
61604		-42.279767	-1.096991	105.646483
61605		-42.281536	-1.105503	105.659091
61606		-42.272479	-1.111083	105.666886
61607		-42.275491	-1.110500	105.673846
61608		-42.281642	-1.107431	105.680505
61609		-42.288045	-1.102826	105.682260
61610		-42.282794	-1.112581	105.679726
61611		-42.273919	-1.128615	105.677893
61612		-42.259218	-1.142590	105.686367
61613		-42.265797	-1.153764	105.711990
61614		-42.258675	-1.159914	105.731143
61615		-42.250534	-1.172290	105.739960
61616		-42.261925	-1.186864	105.739151
61617		-42.275795	-1.193003	105.738646
61618		-42.242624	-1.176174	105.739624
61619		-42.196761	-1.196127	105.736551
61620		-42.137588	-1.226293	105.741306
61621		-42.106680	-1.253641	105.766675
61622		-42.078970	-1.323508	105.786824
61623		-41.994350	-1.368717	105.808171
61624		-42.017235	-1.385708	105.861942
61625		-42.024006	-1.417635	105.906569
61626		-41.949550	-1.441494	105.928265
61627		-41.924234	-1.432285	105.936239
61628		-41.965458	-1.452450	105.911329
61629		-41.987626	-1.500438	105.947060
61630		-41.909369	-1.519492	105.958505
61631		-41.859890	-1.568231	105.961909
61632		-41.740604	-1.631442	105.976907
61633		-41.678783	-1.696189	105.982848
61634		-41.701022	-1.794483	105.976461
61635		-41.633476	-1.944432	105.968978
61636		-41.487764	-2.141638	105.958207
61637		-41.469630	-2.360250	105.964653
61638		-41.430858	-2.578500	105.989535
61639		-41.332524	-2.832478	106.012167
61640		-41.090675	-3.147314	106.024920
61641		-40.779211	-3.459067	106.019224
61642		-40.475804	-3.774882	105.992007
61643		-40.197371	-4.134351	105.950366
61644		-39.874521	-4.529333	105.890915
61645		-39.513769	-4.861555	105.821616
61646		-39.075620	-5.158038	105.710198
61647		-38.733517	-5.520296	105.541452
61648		-38.443498	-5.946509	105.308252
61649		-38.133968	-6.318329	105.030375
61650		-37.896827	-6.624867	104.754771
61651		-37.701108	-7.030617	104.459609
61652		-37.629700	-7.382118	104.214957
61653		-37.310481	-7.751530	103.950686
61654		-37.714298	-8.122585	103.742636
61655		-36.886894	-8.294657	103.492559
61656		-36.148523	-8.691327	103.178597
61657		-35.724588	-9.156096	102.875124
61658		-35.381768	-9.584306	102.584832
61659		-35.074314	-9.892239	102.323084
61660		-34.751762	-10.135741	102.073662
61661		-34.505347	-10.386251	101.826180
61662		-34.207828	-10.640367	101.569247
61663		-33.875829	-10.887648	101.304403
61664		-33.590643	-11.125870	101.012519
61665		-33.323048	-11.354162	100.664465
61666		-33.124613	-11.582668	100.298990
61667		-33.042653	-11.770415	99.981600
61668		-32.958875	-11.938075	99.705570
61669		-32.832656	-12.108688	99.432504
61670		-32.640985	-12.305635	99.138610
61671		-32.447270	-12.491083	98.857770
61672		-32.222298	-12.642641	98.593260
61673		-32.002875	-12.779415	98.331853
61674		-31.872736	-12.901520	98.108403
61675		-31.696277	-13.017773	97.904166
61676		-31.445593	-13.098571	97.713354
61677		-31.243932	-13.158149	97.550311
61678		-31.130192	-13.206278	97.399582
61679		-31.113209	-13.266985	97.265449
61680		-31.073669	-13.292424	97.151465
61681		-30.979576	-13.315960	97.053733
61682		-30.831562	-13.352897	96.960810
61683		-30.701025	-13.410942	96.874339
61684		-30.581572	-13.473323	96.796566
61685		-30.407742	-13.526252	96.723977
61686		-30.293271	-13.595373	96.666603
61687		-30.246598	-13.662028	96.631733
61688		-30.214674	-13.717085	96.618107
61689		-30.225318	-13.743979	96.631754
61690		-30.337805	-13.794460	96.661827
61691		-30.519538	-13.863824	96.705160
61692		-30.685820	-13.914827	96.744451
61693		-30.790736	-13.932482	96.786845
61694		-30.794517	-13.949960	96.797403
61695		-30.712690	-13.983154	96.800349
61696		-30.650715	-14.035518	96.780260
61697		-30.639966	-14.119548	96.745641
61698		-30.519015	-14.218619	96.671714
61699		-30.392055	-14.317601	96.588696
61700		-30.214969	-14.358290	96.493209
61701		-30.001211	-14.394949	96.370866
61702		-29.655026	-14.522592	96.233686
61703		-29.355195	-14.687088	96.117546
61704		-28.928964	-14.764112	96.088589
61705		-28.517234	-14.822048	96.058058
61706		-28.312245	-14.902159	96.009382
61707		-28.337551	-14.985713	95.919382
61708		-28.534760	-15.065538	95.830886
61709		-28.554277	-15.155799	95.775151
61710		-28.508271	-15.271956	95.730731
61711		-28.572157	-15.430990	95.656413
61712		-28.553642	-15.532335	95.572950
61713		-28.171716	-15.608269	95.476171
61714		-27.852322	-15.658898	95.389524
61715		-27.746985	-15.700224	95.319274
61716		-27.830474	-15.715500	95.224047
61717		-27.569916	-15.700652	95.168444
61718		-27.264300	-15.669012	95.141704
61719		-27.087764	-15.633349	95.126095
61720		-27.020584	-15.615955	95.098353
61721		-26.967094	-15.588804	95.081742
61722		-26.897584	-15.565147	95.074265
61723		-26.755223	-15.504193	95.074969
61724		-26.528862	-15.457171	95.089224
61725		-26.379916	-15.438349	95.090953
61726		-26.267279	-15.421100	95.085836
61727		-26.152834	-15.401523	95.087383
61728		-26.040326	-15.374004	95.083774
61729		-25.974460	-15.369227	95.071554
61730		-25.963432	-15.367832	95.065187
61731		-25.927859	-15.352225	95.065375
61732		-25.866580	-15.340009	95.069180
61733		-25.872925	-15.335796	95.065437
61734		-25.929594	-15.323116	95.063888
61735		-26.004892	-15.286722	95.087463
61736		-26.005166	-15.230063	95.131614
61737		-25.989832	-15.195203	95.182330
61738		-26.039708	-15.167567	95.243578
61739		-26.163177	-15.121445	95.302375
61740		-26.311969	-15.036313	95.416391
61741		-26.371126	-14.916572	95.577232
61742		-26.277360	-14.795427	95.717838
61743		-26.313198	-14.703659	95.860539
61744		-26.563696	-14.633528	96.027563
61745		-26.731574	-14.562466	96.212135
61746		-26.796369	-14.482505	96.395392
61747		-26.840260	-14.371026	96.600206
61748		-26.858675	-14.246511	96.794402
61749		-26.982805	-14.129176	96.999587
61750		-27.205278	-13.980773	97.201666
61751		-27.382345	-13.807316	97.394183
61752		-27.600857	-13.661950	97.588721
61753		-27.901565	-13.516543	97.786868
61754		-28.119125	-13.370303	97.961417
61755		-28.181753	-13.236089	98.122977
61756		-28.245456	-13.104207	98.316470
61757		-28.332748	-12.937697	98.558768
61758		-28.383966	-12.771748	98.819388
61759		-28.515366	-12.597229	99.072996
61760		-28.693484	-12.396119	99.317441
61761		-28.806700	-12.193918	99.542397
61762		-28.952659	-11.983450	99.734713
61763		-29.144988	-11.744739	99.944482
61764		-29.333272	-11.474425	100.184150
61765		-29.568320	-11.161217	100.452435
61766		-29.823003	-10.833676	100.735915
61767		-30.006822	-10.503377	101.041887
61768		-30.097379	-10.179684	101.364338
61769		-30.097858	-9.890925	101.696993
61770		-30.112417	-9.668763	101.944578
61771		-30.203728	-9.492575	102.071684
61772		-30.362824	-9.316619	102.185954
61773		-30.513895	-9.096799	102.333351
61774		-30.518072	-8.844760	102.504967
61775		-30.571767	-8.684448	102.681962
61776		-30.872248	-8.529652	102.770658
61777		-31.029851	-8.303354	102.775213
61778		-31.345243	-8.092286	102.780298
61779		-31.918823	-7.862621	102.834248
61780		-32.214130	-7.588390	102.862501
61781		-32.369333	-7.323411	102.882247
61782		-32.553746	-7.013046	102.937088
61783		-32.868595	-6.706509	103.070902
61784		-33.191905	-6.448509	103.226534
61785		-33.427402	-6.188528	103.328125
61786		-33.668329	-5.920449	103.368639
61787		-33.973593	-5.704785	103.360837
61788		-34.355292	-5.539333	103.319017
61789		-34.678555	-5.417353	103.233943
61790		-34.845667	-5.369585	103.115204
61791		-34.919964	-5.379340	103.023514
61792		-34.857684	-5.397333	102.977605
61793		-34.691687	-5.426633	102.960145
61794		-34.618193	-5.479203	102.956214
61795		-34.723113	-5.538623	102.962374
61796		-34.877137	-5.581139	102.972745
61797		-35.000748	-5.604387	102.993407
61798		-35.117459	-5.625115	103.025335
61799		-35.303817	-5.632103	103.054938
61800		-35.609481	-5.608148	103.088031
61801		-35.997500	-5.559923	103.182609
61802		-36.398793	-5.463964	103.325516
61803		-36.759372	-5.326742	103.455595
61804		-37.112409	-5.157098	103.567520
61805		-37.553676	-4.972117	103.672672
61806		-37.995619	-4.766360	103.780750
61807		-38.370298	-4.575124	103.934763
61808		-38.635499	-4.342357	104.125004
61809		-38.883847	-4.121324	104.335830
61810		-39.112390	-3.896481	104.604433
61811		-39.317563	-3.656260	104.872762
61812		-39.663448	-3.414950	105.133449
61813		-39.994391	-3.166869	105.412835
61814		-40.217195	-2.929779	105.653761
61815		-40.652288	-2.752917	105.871647
61816		-41.149544	-2.553033	106.040974
61817		-41.721735	-2.391266	106.166439
61818		-42.188217	-2.232990	106.275953
61819		-42.525139	-2.074010	106.327094
61820		-42.690118	-1.865435	106.338415
61821		-42.751355	-1.708216	106.344397
61822		-42.736325	-1.615840	106.440116
61823		-42.798095	-1.529102	106.461578
61824		-42.899422	-1.400873	106.406691
61825		-43.002116	-1.255575	106.338597
61826		-43.095928	-1.154285	106.314237
61827		-43.105136	-1.049869	106.304797
61828		-43.089578	-0.968848	106.263998
61829		-43.106863	-0.897339	106.229000
61830		-43.114638	-0.838492	106.219745
61831		-43.074490	-0.808059	106.219352
61832		-43.060705	-0.785152	106.253349
61833		-43.003205	-0.750516	106.278732
61834		-42.941125	-0.722386	106.290447
61835		-42.910554	-0.717356	106.311407
61836		-42.857844	-0.712257	106.321148
61837		-42.820567	-0.708176	106.326341
61838		-42.795306	-0.702071	106.338128
61839		-42.779502	-0.694493	106.346842
61840		-42.797882	-0.681238	106.359997
61841		-42.785848	-0.646489	106.365353
61842		-42.766642	-0.626285	106.374126
61843		-42.766824	-0.627662	106.387033
61844		-42.754008	-0.631118	106.392476
61845		-42.729922	-0.632711	106.407293
61846		-42.707006	-0.639306	106.435682
61847		-42.687019	-0.639236	106.463816
61848		-42.673885	-0.636775	106.482544
61849		-42.664887	-0.637217	106.501982
61850		-42.609406	-0.631716	106.510442
61851		-42.591383	-0.635405	106.522530
61852		-42.588398	-0.642304	106.540271
61853		-42.581294	-0.650244	106.557054
61854		-42.585956	-0.658788	106.580898
61855		-42.574724	-0.661952	106.599029
61856		-42.569918	-0.660306	106.613020
61857		-42.584471	-0.655482	106.626236
61858		-42.573020	-0.648398	106.639123
61859		-42.555806	-0.644453	106.636271
61860		-42.559894	-0.655212	106.632588
61861		-42.549148	-0.665336	106.632844
61862		-42.533525	-0.679144	106.640884
61863		-42.533427	-0.696726	106.651433
61864		-42.522284	-0.716220	106.656186
61865		-42.509236	-0.732140	106.663339
61866		-42.494045	-0.748324	106.666099
61867		-42.490729	-0.761406	106.662587
61868		-42.493002	-0.765088	106.669357
61869		-42.486342	-0.778031	106.670306
61870		-42.481822	-0.793142	106.661197
61871		-42.480637	-0.815620	106.659494
61872		-42.460462	-0.827534	106.670478
61873		-42.444663	-0.845511	106.679440
61874		-42.429398	-0.860362	106.689367
61875		-42.358735	-0.895008	106.707678
61876		-42.296060	-0.939818	106.725741
61877		-42.318648	-1.029023	106.721021
61878		-42.327890	-1.094575	106.743432
61879		-42.228675	-1.115260	106.827338
61880		-42.064442	-1.144916	106.866582
61881		-41.813903	-1.140550	106.902691
61882		-41.765414	-1.148819	106.940920
61883		-41.666545	-1.203520	106.967004
61884		-41.574206	-1.294640	106.985277
61885		-41.503982	-1.376475	106.983865
61886		-41.449870	-1.462214	106.980585
61887		-41.446807	-1.614936	107.015193
61888		-41.309418	-1.803313	107.073074
61889		-41.079433	-2.057181	107.129032
61890		-40.865135	-2.316273	107.168711
61891		-40.618789	-2.575286	107.204499
61892		-40.393749	-2.859446	107.257449
61893		-40.174643	-3.195115	107.351734
61894		-39.967618	-3.541234	107.465858
61895		-39.820725	-3.861548	107.589866
61896		-39.517475	-4.211898	107.668911
61897		-39.135736	-4.654485	107.703476
61898		-38.872931	-5.141359	107.695309
61899		-38.525654	-5.585507	107.659400
61900		-38.062506	-5.996920	107.591038
61901		-37.696621	-6.343610	107.505425
61902		-37.383523	-6.677288	107.380316
61903		-36.976953	-7.040585	107.186806
61904		-36.575831	-7.372701	106.949969
61905		-36.344196	-7.669915	106.711134
61906		-36.193270	-7.974448	106.440595
61907		-35.922576	-8.261500	106.131049
61908		-35.640009	-8.499116	105.791840
61909		-35.418616	-8.752097	105.473112
61910		-35.102515	-9.035576	105.156559
61911		-34.817070	-9.282756	104.833525
61912		-34.651695	-9.512916	104.479273
61913		-34.412728	-9.752861	104.084547
61914		-34.218737	-10.014388	103.670061
61915		-34.096775	-10.244976	103.230813
61916		-33.943627	-10.469915	102.799341
61917		-33.700795	-10.665977	102.400222
61918		-33.449474	-10.866839	102.011103
61919		-33.314321	-11.106474	101.600296
61920		-33.162810	-11.352451	101.186465
61921		-32.877558	-11.545561	100.792010
61922		-32.599815	-11.733305	100.438003
61923		-32.348999	-11.961950	100.101074
61924		-32.072807	-12.180278	99.769053
61925		-31.670783	-12.361693	99.440100
61926		-31.290371	-12.563510	99.129829
61927		-30.971055	-12.753541	98.837523
61928		-30.682637	-12.916409	98.559289
61929		-30.499502	-13.058948	98.347649
61930		-30.302696	-13.188229	98.169370
61931		-30.117786	-13.285178	98.023837
61932		-29.997324	-13.347310	97.904023
61933		-29.955201	-13.406309	97.820148
61934		-29.882667	-13.424637	97.772942
61935		-29.760947	-13.433261	97.733780
61936		-29.700822	-13.454221	97.717641
61937		-29.607672	-13.478602	97.711902
61938		-29.529614	-13.494232	97.727969
61939		-29.510537	-13.516778	97.754706
61940		-29.576428	-13.551257	97.772227
61941		-29.629989	-13.578502	97.800867
61942		-29.655375	-13.583599	97.810406
61943		-29.705884	-13.601689	97.810038
61944		-29.721415	-13.634193	97.823145
61945		-29.690004	-13.697385	97.846649
61946		-29.682820	-13.762725	97.848139
61947		-29.641634	-13.840110	97.819134
61948		-29.653604	-13.934751	97.773178
61949		-29.737033	-14.051869	97.752632
61950		-29.673254	-14.168684	97.682959
61951		-29.501725	-14.282630	97.599191
61952		-29.374579	-14.389097	97.523938
61953		-29.228055	-14.476681	97.464098
61954		-29.094925	-14.534879	97.420849
61955		-28.966830	-14.637857	97.382498
61956		-28.710914	-14.780411	97.270134
61957		-28.440423	-14.924208	97.150162
61958		-28.196308	-14.949542	97.149995
61959		-27.925502	-14.982207	97.149840
61960		-27.679731	-15.066779	97.113859
61961		-27.538922	-15.115423	97.058869
61962		-27.584348	-15.128846	97.015430
61963		-27.573066	-15.160820	96.955694
61964		-27.591871	-15.213636	96.913076
61965		-27.574447	-15.236793	96.920484
61966		-27.454341	-15.251019	96.912272
61967		-27.398900	-15.254377	96.888500
61968		-27.412990	-15.216438	96.836466
61969		-27.247728	-15.219947	96.753930
61970		-27.134008	-15.226982	96.648090
61971		-27.040642	-15.204649	96.562634
61972		-26.875815	-15.192085	96.501169
61973		-26.686119	-15.183778	96.419901
61974		-26.512358	-15.165112	96.365151
61975		-26.371618	-15.154474	96.318277
61976		-26.255562	-15.140051	96.287009
61977		-26.129268	-15.090496	96.289560
61978		-26.000124	-15.012838	96.297803
61979		-25.891543	-14.966696	96.287888
61980		-25.837059	-14.942476	96.263814
61981		-25.738025	-14.920335	96.243336
61982		-25.581207	-14.910923	96.226520
61983		-25.485425	-14.905219	96.210342
61984		-25.485550	-14.881532	96.208212
61985		-25.474349	-14.855540	96.212489
61986		-25.506160	-14.847251	96.204207
61987		-25.600119	-14.845284	96.214365
61988		-25.642299	-14.844272	96.227285
61989		-25.592161	-14.873625	96.224240
61990		-25.566845	-14.887217	96.236309
61991		-25.575473	-14.859382	96.282945
61992		-25.544647	-14.838265	96.324251
61993		-25.570989	-14.829929	96.344145
61994		-25.710936	-14.796506	96.390341
61995		-25.847810	-14.731293	96.490412
61996		-25.941144	-14.652794	96.600289
61997		-26.069642	-14.575103	96.700531
61998		-26.260945	-14.488063	96.826429
61999		-26.384485	-14.410880	96.982136
62000		-26.405304	-14.328855	97.144789
62001		-26.526417	-14.245854	97.306284
62002		-26.779082	-14.139544	97.493646
62003		-27.006610	-14.015072	97.698984
62004		-27.111813	-13.892316	97.938325
62005		-27.148871	-13.766131	98.198095
62006		-27.287592	-13.613485	98.481461
62007		-27.540478	-13.434494	98.784804
62008		-27.793937	-13.258342	99.120207
62009		-28.032745	-13.077434	99.510098
62010		-28.173192	-12.863721	99.913601
62011		-28.253718	-12.655583	100.337907
62012		-28.443660	-12.408479	100.784535
62013		-28.699004	-12.139858	101.293125
62014		-28.880666	-11.829361	101.842421
62015		-29.022106	-11.460286	102.446683
62016		-29.146649	-11.106423	103.021481
62017		-29.242773	-10.755049	103.498039
62018		-29.472636	-10.388564	103.969423
62019		-29.871176	-10.036919	104.517869
62020		-30.096875	-9.671511	105.028797
62021		-30.154869	-9.307551	105.445298
62022		-30.301624	-8.975143	105.766979
62023		-30.451444	-8.643084	105.986350
62024		-30.725221	-8.361369	106.185028
62025		-31.164191	-8.129004	106.403020
62026		-31.531632	-7.891864	106.584631
62027		-32.020508	-7.572509	106.649581
62028		-32.503813	-7.174425	106.638187
62029		-32.939521	-6.837389	106.663755
62030		-33.170907	-6.571172	106.692882
62031		-33.386707	-6.329954	106.669015
62032		-33.674576	-6.091463	106.633191
62033		-33.835308	-5.936718	106.636318
62034		-33.841448	-5.859320	106.608502
62035		-33.880290	-5.820937	106.533691
62036		-33.908978	-5.814662	106.462701
62037		-33.884117	-5.825856	106.445354
62038		-33.797985	-5.860920	106.443024
62039		-33.769851	-5.912020	106.416782
62040		-33.931427	-5.985844	106.403495
62041		-34.116166	-6.087797	106.431431
62042		-34.300876	-6.120875	106.459010
62043		-34.558922	-6.066454	106.458987
62044		-34.965916	-5.993887	106.498240
62045		-35.432337	-5.845638	106.587483
62046		-35.829686	-5.631549	106.664765
62047		-36.218147	-5.431608	106.723349
62048		-36.680034	-5.205409	106.790905
62049		-36.995791	-4.920509	106.858025
62050		-37.256329	-4.682674	106.950164
62051		-37.615121	-4.451092	107.098845
62052		-37.982145	-4.226643	107.288435
62053		-38.299819	-4.023765	107.493408
62054		-38.546564	-3.829137	107.713969
62055		-38.714503	-3.594026	107.953397
62056		-39.064834	-3.349076	108.144191
62057		-39.561801	-3.100202	108.264348
62058		-40.221073	-2.844659	108.333991
62059		-40.978845	-2.524622	108.330767
62060		-41.733687	-2.281872	108.345443
62061		-42.260305	-2.090481	108.365836
62062		-42.400811	-1.855689	108.327551
62063		-42.531814	-1.584458	108.237010
62064		-42.830073	-1.372982	108.178481
62065		-43.129201	-1.211103	108.122331
62066		-43.233572	-1.050951	108.033431
62067		-43.259016	-0.937691	107.976443
62068		-43.256581	-0.858491	107.976089
62069		-43.254711	-0.819757	107.985262
62070		-43.251035	-0.756358	107.981717
62071		-43.285810	-0.666833	107.974580
62072		-43.335155	-0.574840	107.977139
62073		-43.320631	-0.488476	107.979906
62074		-43.321810	-0.441125	107.989697
62075		-43.337664	-0.423828	107.985851
62076		-43.370870	-0.396653	107.966098
62077		-43.408087	-0.362730	107.956232
62078		-43.389575	-0.319145	107.951589
62079		-43.353583	-0.287659	107.955533
62080		-43.338634	-0.262996	107.961220
62081		-43.349015	-0.238327	107.951164
62082		-43.355657	-0.187427	107.932470
62083		-43.348240	-0.154826	107.916996
62084		-43.351003	-0.148263	107.904627
62085		-43.372730	-0.134087	107.885105
62086		-43.353078	-0.116039	107.865680
62087		-43.344342	-0.114306	107.872349
62088		-43.308279	-0.122584	107.885195
62089		-43.293634	-0.142940	107.885837
62090		-43.294098	-0.174925	107.894279
62091		-43.278529	-0.196866	107.907662
62092		-43.267283	-0.211393	107.928460
62093		-43.257418	-0.225010	107.943773
62094		-43.239715	-0.226844	107.950530
62095		-43.232436	-0.229608	107.952077
62096		-43.226132	-0.232334	107.947991
62097		-43.221207	-0.232385	107.933946
62098		-43.226884	-0.242407	107.917500
62099		-43.230515	-0.241544	107.901146
62100		-43.222555	-0.230737	107.892820
62101		-43.200888	-0.223856	107.893144
62102		-43.181877	-0.237839	107.894273
62103		-43.171834	-0.261191	107.901777
62104		-43.166041	-0.284941	107.913636
62105		-43.154433	-0.294076	107.937905
62106		-43.146027	-0.305860	107.964817
62107		-43.141872	-0.316526	107.982431
62108		-43.132754	-0.324573	107.991693
62109		-43.138104	-0.334750	107.989573
62110		-43.191482	-0.340974	107.978701
62111		-43.235025	-0.321072	107.950377
62112		-43.185570	-0.327502	107.926853
62113		-43.146295	-0.364441	107.934347
62114		-43.108201	-0.434367	107.947396
62115		-43.067874	-0.476789	107.964677
62116		-43.099363	-0.485462	107.944721
62117		-43.156732	-0.502241	107.925281
62118		-43.125715	-0.519992	107.927460
62119		-43.088157	-0.520923	107.944576
62120		-43.118845	-0.521226	107.947834
62121		-43.130685	-0.530726	107.945537
62122		-43.045528	-0.537511	107.994752
62123		-42.989665	-0.562299	108.038910
62124		-43.049724	-0.655961	108.077915
62125		-43.032793	-0.752579	108.150368
62126		-42.990712	-0.788913	108.228737
62127		-42.961425	-0.821014	108.247327
62128		-42.883178	-0.858634	108.273880
62129		-42.720142	-0.924382	108.333098
62130		-42.586986	-1.044083	108.379711
62131		-42.459864	-1.222810	108.451808
62132		-42.230022	-1.452479	108.550829
62133		-42.030437	-1.744873	108.676110
62134		-41.874709	-2.017498	108.806005
62135		-41.539621	-2.307039	108.918109
62136		-41.115648	-2.630883	108.981929
62137		-40.923703	-2.974326	108.982771
62138		-40.878439	-3.349101	108.941611
62139		-40.637525	-3.685681	108.891428
62140		-40.280686	-4.003258	108.845135
62141		-40.024794	-4.363007	108.783198
62142		-39.695065	-4.790937	108.662572
62143		-39.302259	-5.219853	108.529475
62144		-38.963403	-5.627410	108.379345
62145		-38.645093	-6.068761	108.159389
62146		-38.242637	-6.570247	107.869193
62147		-37.906591	-6.971702	107.594990
62148		-37.568831	-7.405071	107.362480
62149		-37.256645	-7.593652	107.191696
62150		-36.953369	-8.050124	106.963364
62151		-36.265586	-8.417566	106.612450
62152		-35.534139	-8.882258	106.183775
62153		-35.246580	-9.270269	105.764581
62154		-34.980227	-9.570154	105.402771
62155		-34.657621	-9.865308	105.069913
62156		-34.329822	-10.164432	104.722733
62157		-33.987893	-10.454025	104.336294
62158		-33.644659	-10.699320	103.911409
62159		-33.470664	-10.883839	103.471812
62160		-33.358214	-11.130982	103.029209
62161		-33.170299	-11.408086	102.559734
62162		-32.974244	-11.673973	102.080967
62163		-32.733412	-11.919317	101.602018
62164		-32.465637	-12.177929	101.157753
62165		-32.120053	-12.407260	100.742741
62166		-31.741832	-12.599630	100.405073
62167		-31.350847	-12.769514	100.116574
62168		-31.015319	-12.913426	99.870067
62169		-30.877900	-13.022161	99.693377
62170		-30.797984	-13.085847	99.572929
62171		-30.708122	-13.124534	99.513644
62172		-30.620617	-13.152076	99.486760
62173		-30.552201	-13.172185	99.480905
62174		-30.518033	-13.191101	99.500046
62175		-30.507904	-13.221782	99.521256
62176		-30.512123	-13.251319	99.532220
62177		-30.524559	-13.283877	99.534262
62178		-30.499609	-13.389713	99.514425
62179		-30.528300	-13.533902	99.456508
62180		-30.584155	-13.624735	99.359577
62181		-30.564226	-13.695573	99.257134
62182		-30.408699	-13.804490	99.141731
62183		-30.197682	-13.937127	98.998734
62184		-30.058253	-14.104574	98.855208
62185		-29.859319	-14.308479	98.692130
62186		-29.502510	-14.480018	98.512993
62187		-29.104186	-14.697188	98.327479
62188		-28.778027	-14.918467	98.131448
62189		-28.354796	-15.105541	97.964617
62190		-27.855987	-15.291255	97.814547
62191		-27.396117	-15.479952	97.674499
62192		-27.029857	-15.639093	97.482402
62193		-26.879595	-15.766320	97.313025
62194		-26.712669	-15.871297	97.229406
62195		-26.516596	-15.966326	97.184360
62196		-26.358374	-16.043588	97.112383
62197		-26.365725	-16.130511	97.026913
62198		-26.342585	-16.175102	96.932326
62199		-26.009862	-16.223983	96.822240
62200		-25.585228	-16.274402	96.727481
62201		-25.195034	-16.332240	96.593268
62202		-24.998753	-16.384459	96.445370
62203		-24.912969	-16.394943	96.336238
62204		-24.771410	-16.333942	96.281770
62205		-24.575946	-16.233535	96.266641
62206		-24.436411	-16.113888	96.281553
62207		-24.270161	-16.003414	96.308005
62208		-24.080577	-15.946441	96.326900
62209		-23.928985	-15.907730	96.324956
62210		-23.796479	-15.882773	96.325524
62211		-23.668150	-15.847566	96.338398
62212		-23.550932	-15.812618	96.351140
62213		-23.505762	-15.784933	96.367463
62214		-23.448901	-15.776658	96.381798
62215		-23.423171	-15.771934	96.405280
62216		-23.402149	-15.768479	96.415382
62217		-23.442397	-15.764919	96.421057
62218		-23.442692	-15.755334	96.425965
62219		-23.443677	-15.743756	96.434314
62220		-23.412552	-15.738139	96.436147
62221		-23.389190	-15.746916	96.428310
62222		-23.375598	-15.746070	96.433290
62223		-23.355338	-15.743375	96.437551
62224		-23.389230	-15.734523	96.444148
62225		-23.401652	-15.722738	96.447951
62226		-23.398217	-15.715376	96.447903
62227		-23.422180	-15.715740	96.447010
62228		-23.432808	-15.712414	96.444669
62229		-23.426613	-15.710628	96.438020
62230		-23.452484	-15.700769	96.428412
62231		-23.469192	-15.694304	96.421673
62232		-23.463109	-15.684110	96.416335
62233		-23.456953	-15.673006	96.415166
62234		-23.464645	-15.669864	96.408051
62235		-23.490651	-15.664476	96.400795
62236		-23.509145	-15.655512	96.402783
62237		-23.496283	-15.649952	96.400467
