// General information: 
//  MT Manager version: 2022.2.0 
//  XDA version: 2022.2.0 build 7381 rev 124627 built on 2023-07-19
// Device information: 
//  DeviceId: 00B44804
//  ProductCode: MTW2-3A7G6
//  Firmware Version: 4.3.5
//  Hardware Version: 2.0.0
// Device settings: 
//  Filter Profile: human(46.1)
//  Option Flags: Orientation Smoother Disabled, Position/Velocity Smoother Disabled, Continuous Zero Rotation Update Disabled, AHS Disabled, ICC Disabled
// Coordinate system: ENU
PacketCounter	SampleTimeFine	Roll	Pitch	Yaw
43510		-18.712258	14.958549	-47.667630
43511		-18.732160	14.939916	-47.690126
43512		-18.722433	14.916142	-47.711943
43513		-18.709872	14.902698	-47.725034
43514		-18.716492	14.896804	-47.732598
43515		-18.718160	14.889726	-47.734288
43516		-18.702720	14.871781	-47.732542
43517		-18.674692	14.862710	-47.723491
43518		-18.660137	14.874708	-47.706831
43519		-18.656866	14.903767	-47.685539
43520		-18.641355	14.933094	-47.678520
43521		-18.641473	14.938834	-47.705739
43522		-18.663972	14.932871	-47.750707
43523		-18.700921	14.914194	-47.773292
43524		-18.729482	14.896665	-47.763874
43525		-18.737815	14.880045	-47.727867
43526		-18.737641	14.860474	-47.679905
43527		-18.730402	14.839018	-47.632184
43528		-18.706848	14.804919	-47.585426
43529		-18.641773	14.720513	-47.539054
43530		-18.580010	14.590522	-47.490510
43531		-18.630241	14.447199	-47.458577
43532		-18.744063	14.298645	-47.452090
43533		-18.820986	14.129700	-47.450806
43534		-18.784911	13.952556	-47.439286
43535		-18.851531	13.836820	-47.415346
43536		-18.998806	13.789794	-47.379445
43537		-19.094682	13.787787	-47.337293
43538		-19.075562	13.799340	-47.336638
43539		-19.012809	13.826346	-47.377568
43540		-18.984613	13.842274	-47.454195
43541		-19.002082	13.825431	-47.543212
43542		-18.997316	13.772327	-47.603828
43543		-18.956823	13.695607	-47.638945
43544		-19.030686	13.600181	-47.654549
43545		-19.093848	13.433309	-47.627170
43546		-19.074309	13.222856	-47.569367
43547		-19.101969	13.015301	-47.474731
43548		-19.241239	12.849685	-47.348541
43549		-19.587507	12.642876	-47.203996
43550		-19.890769	12.370519	-47.118111
43551		-19.964376	12.045781	-46.997538
43552		-19.775001	11.636554	-46.885625
43553		-19.925319	11.129009	-46.853596
43554		-20.050468	10.553372	-46.757981
43555		-19.910354	9.833232	-46.607904
43556		-19.410624	9.148394	-46.363262
43557		-19.040683	8.465159	-46.098742
43558		-18.969380	7.723501	-45.779515
43559		-18.938163	6.983044	-45.425770
43560		-19.361650	6.242721	-45.108896
43561		-19.983745	5.564855	-44.834151
43562		-20.124537	5.146350	-44.604263
43563		-20.246293	4.891781	-44.498957
43564		-19.890992	4.576882	-44.398171
43565		-18.904406	3.879534	-44.383740
43566		-18.451880	2.907245	-44.393421
43567		-17.914243	2.058575	-44.381138
43568		-17.319730	1.401952	-44.404926
43569		-16.982791	0.872089	-44.620709
43570		-16.805838	0.327547	-45.006902
43571		-16.329912	-0.188779	-45.406834
43572		-16.084522	-0.582161	-45.803872
43573		-16.031040	-0.953135	-46.172734
43574		-16.003646	-1.350709	-46.547250
43575		-15.796091	-1.696810	-47.018643
43576		-15.934742	-2.023566	-47.540675
43577		-15.823736	-2.375607	-47.914853
43578		-15.685930	-2.712632	-48.216646
43579		-15.656584	-2.950961	-48.594586
43580		-15.765984	-3.035726	-49.124132
43581		-16.029383	-3.133228	-49.732191
43582		-15.975312	-3.231555	-50.115976
43583		-15.631889	-3.314789	-50.318728
43584		-15.350050	-3.391968	-50.496446
43585		-15.257391	-3.415582	-50.790784
43586		-15.187587	-3.433233	-51.226036
43587		-15.344056	-3.511359	-51.672574
43588		-15.336621	-3.609754	-51.978552
43589		-15.228450	-3.680984	-52.211996
43590		-15.151298	-3.696396	-52.468528
43591		-15.243588	-3.680622	-52.744857
43592		-15.036474	-3.690808	-52.938187
43593		-14.765559	-3.650559	-53.046520
43594		-14.489291	-3.535120	-53.113016
43595		-14.200767	-3.392777	-53.166596
43596		-13.945218	-3.229503	-53.200392
43597		-13.891990	-3.065515	-53.226229
43598		-14.064569	-2.979873	-53.223023
43599		-14.262166	-2.950364	-53.196803
43600		-14.412001	-2.918854	-53.176693
43601		-14.430429	-2.908595	-53.148854
43602		-14.342251	-2.933926	-53.110181
43603		-14.253901	-2.980415	-53.067506
43604		-14.276569	-3.040057	-53.024526
43605		-14.528076	-3.099481	-53.042504
43606		-14.746486	-3.109481	-53.057603
43607		-14.804167	-3.133101	-53.068104
43608		-14.792642	-3.176048	-53.094669
43609		-14.805658	-3.229499	-53.144900
43610		-14.759165	-3.336356	-53.207913
43611		-14.674406	-3.485023	-53.228163
43612		-14.583316	-3.629561	-53.203118
43613		-14.489130	-3.763128	-53.177230
43614		-14.467585	-3.871849	-53.208564
43615		-14.440443	-3.956011	-53.250163
43616		-14.455490	-4.049876	-53.256585
43617		-14.501153	-4.111782	-53.276086
43618		-14.402418	-4.138777	-53.283367
43619		-14.218707	-4.193039	-53.308514
43620		-14.259864	-4.264855	-53.342370
43621		-14.179845	-4.325906	-53.340362
43622		-13.930121	-4.408919	-53.340158
43623		-13.698925	-4.458646	-53.304696
43624		-13.429108	-4.507142	-53.301393
43625		-13.310165	-4.529414	-53.286946
43626		-13.354667	-4.575785	-53.262762
43627		-13.190391	-4.604542	-53.227448
43628		-12.938706	-4.628226	-53.223421
43629		-12.874850	-4.645651	-53.228358
43630		-12.925824	-4.651363	-53.236056
43631		-12.859989	-4.634051	-53.249415
43632		-12.777399	-4.607495	-53.256831
43633		-12.754449	-4.572323	-53.269721
43634		-12.781071	-4.563432	-53.282850
43635		-12.750082	-4.557127	-53.298415
43636		-12.647860	-4.569985	-53.312436
43637		-12.539090	-4.587124	-53.327201
43638		-12.448529	-4.601671	-53.338465
43639		-12.392337	-4.607271	-53.358623
43640		-12.368469	-4.601612	-53.387032
43641		-12.352243	-4.577645	-53.429053
43642		-12.265726	-4.538793	-53.469753
43643		-12.046727	-4.515829	-53.513171
43644		-12.003266	-4.537005	-53.564868
43645		-11.970714	-4.564181	-53.586810
43646		-11.979368	-4.572921	-53.575293
43647		-11.923494	-4.587572	-53.515642
43648		-11.890033	-4.574510	-53.450811
43649		-11.850824	-4.548951	-53.370102
43650		-11.842344	-4.505018	-53.286706
43651		-11.868117	-4.430494	-53.205266
43652		-11.808702	-4.357212	-53.127060
43653		-11.721363	-4.286836	-53.054526
43654		-11.738342	-4.203716	-52.999712
43655		-11.759714	-4.086272	-52.902610
43656		-11.704309	-3.918139	-52.712654
43657		-11.566365	-3.691465	-52.448926
43658		-11.487544	-3.446068	-52.178716
43659		-11.616213	-3.191071	-51.899769
43660		-11.703303	-2.967452	-51.582226
43661		-11.675289	-2.798226	-51.233016
43662		-11.664966	-2.640697	-50.875675
43663		-11.662101	-2.476402	-50.551650
43664		-11.769922	-2.289035	-50.231102
43665		-11.776355	-2.088806	-49.907466
43666		-11.594043	-1.919088	-49.578448
43667		-11.473209	-1.755735	-49.257270
43668		-11.444251	-1.540168	-48.927080
43669		-11.481481	-1.308782	-48.635730
43670		-11.502553	-1.045968	-48.402679
43671		-11.471539	-0.749318	-48.160770
43672		-11.167994	-0.426727	-47.754066
43673		-10.509448	-0.076197	-47.233008
43674		-9.914722	0.284594	-46.726403
43675		-9.632638	0.667601	-46.268100
43676		-9.831915	1.131195	-45.856044
43677		-10.054251	1.594071	-45.527492
43678		-10.060270	2.041185	-45.281959
43679		-9.621837	2.483152	-45.044023
43680		-8.643899	2.850623	-44.820632
43681		-7.401900	2.863251	-44.669716
43682		-7.598756	3.008646	-44.684434
43683		-9.542964	3.428633	-44.821914
43684		-10.544211	3.619629	-44.994052
43685		-10.803277	3.556514	-45.046804
43686		-10.563516	3.461048	-44.964786
43687		-10.297239	3.429509	-44.861076
43688		-10.295772	3.453673	-44.804340
43689		-10.317516	3.482578	-44.748450
43690		-10.251426	3.473431	-44.685765
43691		-10.125383	3.452629	-44.620039
43692		-10.058800	3.446318	-44.562868
43693		-9.992333	3.454749	-44.524797
43694		-9.866227	3.462202	-44.477343
43695		-9.720882	3.448598	-44.397356
43696		-9.501832	3.433326	-44.301142
43697		-9.295975	3.395980	-44.152186
43698		-9.360220	3.400535	-43.989298
43699		-9.360303	3.414816	-43.859256
43700		-9.446306	3.429430	-43.812632
43701		-9.702714	3.469970	-43.833941
43702		-10.020859	3.467097	-43.842988
43703		-10.123970	3.496450	-43.767189
43704		-10.008480	3.555495	-43.651072
43705		-10.207856	3.551437	-43.561757
43706		-10.781203	3.576724	-43.547927
43707		-11.841251	3.631960	-43.594684
43708		-13.044027	3.653310	-43.633988
43709		-14.232047	3.658676	-43.623836
43710		-15.035639	3.638683	-43.609069
43711		-15.569777	3.623224	-43.593425
43712		-16.026274	3.599014	-43.552790
43713		-16.631976	3.537884	-43.542845
43714		-17.090661	3.516987	-43.554514
43715		-17.173324	3.551255	-43.537961
43716		-17.007570	3.591508	-43.509694
43717		-16.652429	3.656538	-43.483128
43718		-16.502831	3.691420	-43.488391
43719		-16.426798	3.730448	-43.505684
43720		-16.375278	3.773784	-43.513293
43721		-16.287144	3.804095	-43.517456
43722		-16.249297	3.826597	-43.525166
43723		-16.250647	3.850774	-43.534241
43724		-16.240255	3.860878	-43.541986
43725		-16.181966	3.862223	-43.535818
43726		-16.114951	3.848798	-43.536547
43727		-16.068511	3.833019	-43.537456
43728		-16.065280	3.835465	-43.537307
43729		-16.065484	3.848982	-43.539156
43730		-16.033199	3.853582	-43.538858
43731		-15.979735	3.827104	-43.537103
43732		-15.919765	3.811086	-43.527966
43733		-15.897638	3.778941	-43.495291
43734		-15.863167	3.730459	-43.442760
43735		-15.866881	3.679440	-43.392894
43736		-15.885765	3.603593	-43.349051
43737		-15.865046	3.505989	-43.307075
43738		-15.850489	3.412762	-43.279001
43739		-15.869108	3.332538	-43.280911
43740		-15.918645	3.264136	-43.306867
43741		-15.937554	3.205856	-43.315052
43742		-15.981922	3.126652	-43.323892
43743		-16.175771	3.025964	-43.353052
43744		-16.464380	2.870554	-43.380936
43745		-16.784116	2.622114	-43.416041
43746		-17.012500	2.403361	-43.479895
43747		-17.312173	2.235649	-43.595738
43748		-17.753581	1.993980	-43.673728
43749		-17.992310	1.698764	-43.711410
43750		-17.885356	1.383666	-43.683683
43751		-17.583183	1.040800	-43.641205
43752		-17.466275	0.709360	-43.608759
43753		-17.436396	0.477690	-43.599451
43754		-17.415481	0.228237	-43.603240
43755		-17.334942	-0.015670	-43.596714
43756		-17.435580	-0.255966	-43.595057
43757		-17.538111	-0.462125	-43.615213
43758		-17.378934	-0.624195	-43.710369
43759		-17.607152	-0.940232	-43.887915
43760		-17.473330	-1.440884	-44.073907
43761		-16.790307	-2.029093	-44.226517
43762		-16.209250	-2.592702	-44.379744
43763		-15.978076	-2.962537	-44.627482
43764		-15.847261	-3.281873	-44.884721
43765		-15.501029	-3.603813	-45.117833
43766		-15.231606	-3.902376	-45.346556
43767		-14.924290	-4.147224	-45.566387
43768		-14.771299	-4.356099	-45.813805
43769		-14.719109	-4.577703	-46.134086
43770		-14.673133	-4.785860	-46.495753
43771		-14.627438	-4.924810	-46.841193
43772		-14.569379	-5.032379	-47.176739
43773		-14.479621	-5.152171	-47.519162
43774		-14.370282	-5.270973	-47.824812
43775		-14.293285	-5.358744	-48.074649
43776		-14.240507	-5.482448	-48.316397
43777		-14.239325	-5.617453	-48.559628
43778		-14.204224	-5.729805	-48.828266
43779		-14.226594	-5.825158	-49.154411
43780		-14.196086	-5.895713	-49.442984
43781		-14.021987	-5.927861	-49.653004
43782		-13.921165	-5.961950	-49.822110
43783		-13.820448	-6.038500	-49.958889
43784		-13.742207	-6.148296	-50.065778
43785		-13.646647	-6.294236	-50.129567
43786		-13.535615	-6.409311	-50.203994
43787		-13.455841	-6.463119	-50.341654
43788		-13.361722	-6.463840	-50.467864
43789		-13.269944	-6.417141	-50.612425
43790		-13.373834	-6.360863	-50.784917
43791		-13.463599	-6.302099	-50.960029
43792		-13.493893	-6.217566	-51.122049
43793		-13.481707	-6.085804	-51.251714
43794		-13.388226	-5.916560	-51.298330
43795		-13.137093	-5.763281	-51.234840
43796		-12.922059	-5.612976	-51.127839
43797		-13.126756	-5.448788	-51.067995
43798		-13.424794	-5.338802	-51.008333
43799		-13.570286	-5.286097	-50.940154
43800		-13.649047	-5.265148	-50.871252
43801		-13.692827	-5.256937	-50.820919
43802		-13.715664	-5.263560	-50.779688
43803		-13.726862	-5.280073	-50.732235
43804		-13.862093	-5.339083	-50.665180
43805		-14.086532	-5.471162	-50.640317
43806		-14.317484	-5.602669	-50.710856
43807		-14.396088	-5.764962	-50.789243
43808		-14.355487	-6.000802	-50.874810
43809		-14.139715	-6.189764	-51.007304
43810		-13.982671	-6.360202	-51.169938
43811		-13.905818	-6.493854	-51.350468
43812		-13.829882	-6.626259	-51.506781
43813		-13.754097	-6.748553	-51.620759
43814		-13.449174	-6.877777	-51.755860
43815		-13.163331	-6.990057	-51.888863
43816		-12.996790	-7.085462	-51.977462
43817		-12.968870	-7.168727	-52.089066
43818		-12.849468	-7.234513	-52.232888
43819		-12.896941	-7.315636	-52.334436
43820		-12.865393	-7.391395	-52.375745
43821		-12.538644	-7.495600	-52.413616
43822		-12.356682	-7.510026	-52.424910
43823		-12.191322	-7.521052	-52.471735
43824		-12.159370	-7.511080	-52.484401
43825		-12.148870	-7.481131	-52.480895
43826		-12.081157	-7.434919	-52.488800
43827		-12.061366	-7.381157	-52.458716
43828		-12.056365	-7.344270	-52.420358
43829		-12.006753	-7.300494	-52.411681
43830		-11.982623	-7.253944	-52.406640
43831		-11.919556	-7.234078	-52.411108
43832		-11.876353	-7.221287	-52.418797
43833		-11.847172	-7.205218	-52.444510
43834		-11.819235	-7.214858	-52.469908
43835		-11.805152	-7.235347	-52.506976
43836		-11.785723	-7.242824	-52.558052
43837		-11.794056	-7.257164	-52.610765
43838		-11.775393	-7.272154	-52.663958
43839		-11.707226	-7.258193	-52.727064
43840		-11.623666	-7.239387	-52.802810
43841		-11.493608	-7.223264	-52.881465
43842		-11.308802	-7.216433	-52.972708
43843		-11.138191	-7.244154	-53.101942
43844		-11.142980	-7.329651	-53.227739
43845		-11.138715	-7.439938	-53.319005
43846		-11.093610	-7.527759	-53.386134
43847		-11.011775	-7.576258	-53.445476
43848		-10.993933	-7.578582	-53.494455
43849		-10.972792	-7.568147	-53.539850
43850		-10.945280	-7.514037	-53.601309
43851		-11.007615	-7.447599	-53.664459
43852		-11.119385	-7.388540	-53.711560
43853		-11.111045	-7.370045	-53.723762
43854		-11.095275	-7.358980	-53.706321
43855		-11.090245	-7.365503	-53.668992
43856		-11.085885	-7.383062	-53.617508
43857		-11.049626	-7.391484	-53.525651
43858		-10.978136	-7.385597	-53.403068
43859		-10.926041	-7.361302	-53.282554
43860		-10.915528	-7.326778	-53.198823
43861		-10.855270	-7.291775	-53.132776
43862		-10.845770	-7.248693	-53.089168
43863		-10.893064	-7.203534	-53.088723
43864		-10.939027	-7.160567	-53.091074
43865		-10.951863	-7.134399	-53.098491
43866		-10.974163	-7.114702	-53.111239
43867		-10.970608	-7.091691	-53.109627
43868		-10.980774	-7.088847	-53.114248
43869		-11.027480	-7.079700	-53.136750
43870		-11.057586	-7.070572	-53.157905
43871		-11.097518	-7.031380	-53.162271
43872		-11.142371	-6.941098	-53.130513
43873		-11.130086	-6.812654	-53.064103
43874		-11.078371	-6.683888	-52.956310
43875		-11.082693	-6.559830	-52.833809
43876		-11.170010	-6.440861	-52.709220
43877		-11.284642	-6.308306	-52.569727
43878		-11.352678	-6.140011	-52.402645
43879		-11.353948	-5.960631	-52.188792
43880		-11.295676	-5.796943	-51.943331
43881		-11.236244	-5.662987	-51.720187
43882		-11.238168	-5.542867	-51.537936
43883		-11.322923	-5.420623	-51.379399
43884		-11.419875	-5.251908	-51.216459
43885		-11.365605	-5.052430	-51.039118
43886		-11.137659	-4.858742	-50.813492
43887		-10.888269	-4.678070	-50.570166
43888		-10.871858	-4.516901	-50.334754
43889		-10.990096	-4.376936	-50.083193
43890		-11.061893	-4.204726	-49.811233
43891		-11.075921	-3.998973	-49.533045
43892		-11.073702	-3.763836	-49.239994
43893		-11.073562	-3.465849	-48.901807
43894		-11.030201	-3.151369	-48.540262
43895		-10.979539	-2.865450	-48.209825
43896		-10.898304	-2.635946	-47.961254
43897		-10.703633	-2.464644	-47.774627
43898		-10.515416	-2.379619	-47.666989
43899		-10.402281	-2.374546	-47.616946
43900		-10.303819	-2.424294	-47.610467
43901		-10.159330	-2.494714	-47.621518
43902		-9.981187	-2.567250	-47.615347
43903		-9.842350	-2.603747	-47.581904
43904		-9.674402	-2.609838	-47.507706
43905		-9.629987	-2.589980	-47.404129
43906		-9.591698	-2.471017	-47.244651
43907		-9.322147	-2.299737	-46.948237
43908		-8.829619	-2.107383	-46.481249
43909		-8.296218	-1.997033	-45.919884
43910		-8.592806	-1.686286	-45.339368
43911		-10.079262	-1.146796	-44.712950
43912		-10.936590	-0.680206	-44.218072
43913		-11.478121	-0.326522	-43.780724
43914		-11.986558	0.022750	-43.365654
43915		-12.392136	0.399812	-42.996973
43916		-12.605231	0.801429	-42.711019
43917		-12.793065	1.176294	-42.479771
43918		-12.940826	1.557120	-42.287130
43919		-13.176747	1.924591	-42.092281
43920		-13.585837	2.260228	-41.878921
43921		-14.189780	2.552882	-41.726889
43922		-15.198572	2.823820	-41.627613
43923		-16.332474	3.113567	-41.567441
43924		-17.278571	3.384286	-41.540847
43925		-17.879970	3.630505	-41.516508
43926		-18.393988	3.832093	-41.514186
43927		-18.425357	3.994897	-41.497458
43928		-18.237776	4.136739	-41.465536
43929		-18.011032	4.270502	-41.432496
43930		-17.855187	4.404495	-41.436775
43931		-17.841074	4.552010	-41.454121
43932		-17.838921	4.691002	-41.466535
43933		-17.774044	4.788093	-41.475805
43934		-17.687075	4.851607	-41.478554
43935		-17.614429	4.891516	-41.481388
43936		-17.604128	4.925645	-41.490708
43937		-17.591110	4.952419	-41.504069
43938		-17.540043	4.966312	-41.507238
43939		-17.476585	4.981087	-41.499152
43940		-17.458352	5.005895	-41.482057
43941		-17.467743	5.017620	-41.461459
43942		-17.437341	5.009470	-41.435674
43943		-17.430953	5.001007	-41.429367
43944		-17.441973	4.993487	-41.438962
43945		-17.413788	4.985959	-41.447172
43946		-17.351216	4.958210	-41.453164
43947		-17.313979	4.914910	-41.442393
43948		-17.280954	4.827094	-41.408007
43949		-17.160154	4.689227	-41.344146
43950		-17.066996	4.529272	-41.265793
43951		-17.045897	4.354131	-41.190147
43952		-17.044162	4.192308	-41.122168
43953		-16.910582	4.032724	-41.060668
43954		-16.782822	3.865581	-41.007802
43955		-16.717287	3.705954	-40.965472
43956		-16.718878	3.575720	-40.978731
43957		-16.768621	3.414002	-41.003427
43958		-16.745117	3.188889	-41.016693
43959		-16.581162	2.915408	-40.990142
43960		-16.534449	2.638245	-40.974459
43961		-16.567018	2.349662	-40.986695
43962		-16.748202	2.006645	-41.001311
43963		-16.776795	1.606730	-41.016187
43964		-16.574478	1.136549	-41.024673
43965		-16.473480	0.643235	-41.021619
43966		-16.428340	0.215896	-41.076777
43967		-16.355592	-0.254161	-41.196693
43968		-16.263834	-0.815020	-41.390502
43969		-16.254019	-1.343213	-41.564963
43970		-16.119577	-1.876141	-41.710217
43971		-15.731172	-2.490313	-41.768634
43972		-15.289298	-3.122171	-41.784115
43973		-15.171516	-3.685289	-41.846216
43974		-14.870103	-4.239242	-42.026513
43975		-14.497253	-4.793747	-42.275934
43976		-14.304560	-5.284917	-42.569391
43977		-14.186529	-5.731508	-42.888810
43978		-13.863783	-6.144917	-43.197760
43979		-13.560042	-6.492261	-43.491295
43980		-13.368971	-6.784842	-43.769259
43981		-13.237121	-7.010663	-44.039621
43982		-13.095061	-7.141384	-44.278344
43983		-12.938063	-7.219525	-44.487029
43984		-12.873495	-7.245847	-44.699658
43985		-12.945598	-7.210368	-44.940949
43986		-13.083066	-7.160543	-45.226374
43987		-13.200350	-7.138055	-45.521018
43988		-13.236811	-7.134541	-45.759035
43989		-13.286463	-7.134587	-45.987274
43990		-13.281713	-7.167363	-46.231911
43991		-13.183638	-7.241203	-46.468181
43992		-13.021209	-7.327659	-46.647383
43993		-12.959225	-7.384784	-46.780720
43994		-13.002345	-7.430260	-46.938494
43995		-12.986737	-7.491130	-47.114616
43996		-12.899966	-7.550499	-47.314560
43997		-12.826617	-7.633670	-47.523013
43998		-12.771567	-7.722194	-47.727084
43999		-12.832609	-7.764734	-47.943468
44000		-12.928619	-7.779072	-48.184884
44001		-12.962336	-7.757277	-48.438200
44002		-12.982486	-7.701259	-48.730251
44003		-13.062323	-7.661772	-49.031327
44004		-13.103884	-7.623600	-49.308538
44005		-13.177900	-7.565917	-49.563985
44006		-13.369945	-7.460239	-49.797814
44007		-13.597677	-7.306410	-49.966692
44008		-13.438868	-7.133810	-50.022240
44009		-13.369871	-6.976631	-49.969670
44010		-13.355454	-6.795205	-49.888752
44011		-13.620611	-6.647804	-49.837316
44012		-13.834960	-6.579420	-49.785816
44013		-13.867962	-6.577952	-49.720498
44014		-13.793878	-6.647367	-49.634477
44015		-13.799682	-6.791761	-49.552840
44016		-13.917880	-6.912796	-49.554435
44017		-13.981051	-7.001382	-49.607893
44018		-13.893457	-7.185901	-49.680823
44019		-13.859836	-7.383825	-49.774991
44020		-13.903306	-7.562703	-49.890336
44021		-13.842791	-7.764960	-50.041165
44022		-13.670720	-7.960646	-50.228088
44023		-13.461478	-8.194938	-50.419415
44024		-13.393645	-8.417567	-50.595631
44025		-13.276882	-8.652987	-50.814337
44026		-13.331592	-8.812313	-51.027913
44027		-13.088173	-9.004777	-51.152838
44028		-12.657046	-9.213946	-51.291537
44029		-12.420798	-9.376571	-51.481993
44030		-12.396278	-9.461414	-51.654329
44031		-12.409725	-9.554124	-51.811241
44032		-12.239118	-9.611669	-51.953274
44033		-12.136334	-9.632414	-52.084786
44034		-12.181150	-9.604833	-52.146668
44035		-11.990016	-9.558949	-52.170771
44036		-11.860160	-9.516632	-52.172530
44037		-11.671145	-9.510394	-52.191715
44038		-11.397410	-9.515560	-52.194064
44039		-11.123789	-9.552943	-52.171490
44040		-11.083302	-9.552601	-52.124752
44041		-11.203336	-9.514714	-52.111961
44042		-11.251906	-9.473450	-52.117501
44043		-11.243805	-9.434541	-52.126310
44044		-11.244881	-9.420527	-52.135527
44045		-11.239936	-9.419394	-52.157867
44046		-11.235464	-9.441636	-52.181546
44047		-11.218880	-9.468576	-52.215360
44048		-11.233686	-9.456600	-52.257415
44049		-11.240598	-9.464070	-52.295613
44050		-11.213864	-9.490149	-52.296023
44051		-11.241409	-9.519444	-52.290683
44052		-11.290081	-9.520625	-52.290325
44053		-11.299432	-9.531303	-52.276954
44054		-11.335718	-9.533378	-52.257802
44055		-11.394009	-9.508764	-52.253335
44056		-11.409559	-9.472159	-52.260303
44057		-11.388711	-9.451620	-52.281571
44058		-11.341306	-9.453092	-52.301741
44059		-11.296236	-9.452278	-52.294894
44060		-11.336232	-9.432598	-52.288239
44061		-11.424445	-9.418106	-52.252715
44062		-11.448627	-9.397858	-52.239794
44063		-11.539721	-9.373382	-52.248262
44064		-11.689438	-9.331874	-52.276534
44065		-11.830181	-9.297178	-52.289978
44066		-12.017652	-9.286600	-52.310009
44067		-12.084086	-9.299336	-52.333408
44068		-11.982877	-9.347591	-52.346642
44069		-11.854365	-9.382108	-52.382744
44070		-11.747192	-9.397760	-52.428387
44071		-11.664539	-9.395693	-52.421751
44072		-11.596985	-9.379336	-52.382549
44073		-11.576248	-9.349057	-52.360956
44074		-11.570279	-9.339545	-52.361153
44075		-11.601051	-9.347348	-52.356413
44076		-11.588011	-9.357610	-52.337592
44077		-11.526199	-9.375296	-52.312044
44078		-11.416210	-9.394381	-52.277631
44079		-11.320483	-9.397655	-52.225977
44080		-11.230351	-9.384833	-52.147963
44081		-11.175877	-9.371824	-52.018703
44082		-11.181753	-9.321771	-51.847506
44083		-11.273359	-9.214163	-51.685016
44084		-11.334074	-9.072425	-51.530428
44085		-11.316410	-8.941043	-51.320882
44086		-11.292354	-8.818868	-51.043364
44087		-11.244513	-8.695681	-50.691331
44088		-11.134199	-8.576992	-50.291894
44089		-11.109044	-8.473026	-49.858605
44090		-11.040038	-8.382903	-49.308794
44091		-10.815542	-8.372481	-48.596227
44092		-10.429485	-8.404398	-47.817425
44093		-9.989994	-8.401968	-47.037984
44094		-9.772366	-8.370866	-46.299045
44095		-9.846159	-8.302775	-45.657691
44096		-9.806556	-8.166638	-45.050512
44097		-9.784670	-7.979718	-44.475812
44098		-9.882161	-7.732885	-43.920571
44099		-9.902395	-7.447556	-43.351326
44100		-9.937729	-7.070952	-42.854227
44101		-10.002434	-6.684550	-42.352514
44102		-10.100054	-6.342851	-41.850405
44103		-10.224456	-6.017265	-41.380157
44104		-10.383258	-5.700465	-40.960342
44105		-10.551460	-5.453498	-40.550113
44106		-10.617688	-5.240483	-40.159017
44107		-10.589393	-5.048209	-39.807498
44108		-10.559096	-4.896834	-39.523857
44109		-10.468402	-4.765545	-39.324986
44110		-10.357138	-4.643610	-39.219140
44111		-10.281300	-4.519956	-39.237196
44112		-10.223554	-4.373782	-39.352157
44113		-10.031534	-4.217212	-39.501974
44114		-9.742033	-4.028404	-39.622937
44115		-9.704049	-3.777638	-39.710779
44116		-9.902886	-3.464342	-39.764059
44117		-9.997509	-3.151685	-39.738955
44118		-9.824560	-2.874989	-39.602064
44119		-9.548344	-2.602120	-39.400197
44120		-9.262204	-2.362156	-39.242124
44121		-8.993826	-2.164009	-39.134857
44122		-8.784420	-2.022941	-39.029965
44123		-8.943816	-1.900825	-38.928239
44124		-9.133572	-1.775520	-38.864268
44125		-9.217996	-1.659496	-38.882678
44126		-9.376453	-1.532312	-38.991845
44127		-9.463645	-1.430828	-39.141227
44128		-9.426619	-1.387357	-39.258582
44129		-9.330166	-1.322929	-39.351625
44130		-9.272520	-1.210331	-39.451674
44131		-9.357252	-1.080458	-39.578029
44132		-9.607895	-0.940383	-39.627773
44133		-10.078281	-0.740517	-39.568039
44134		-10.377538	-0.481810	-39.410460
44135		-10.588220	-0.240777	-39.209914
44136		-10.902987	-0.003480	-38.955224
44137		-11.416905	0.240059	-38.647063
44138		-12.014094	0.480036	-38.347305
44139		-12.415061	0.728728	-38.059024
44140		-12.488205	0.994087	-37.787879
44141		-12.606407	1.191193	-37.508479
44142		-13.131474	1.380776	-37.233943
44143		-13.930745	1.531806	-36.951057
44144		-14.994152	1.625745	-36.702063
44145		-15.912563	1.753127	-36.535522
44146		-16.649674	1.908710	-36.377355
44147		-17.411057	2.022850	-36.193003
44148		-18.088226	2.107490	-36.103733
44149		-18.594492	2.207459	-36.092707
44150		-18.892499	2.293132	-36.088676
44151		-19.124284	2.330376	-36.060069
44152		-19.087477	2.352117	-36.005069
44153		-19.016140	2.374476	-35.919692
44154		-18.823738	2.414018	-35.836550
44155		-18.766926	2.453050	-35.784115
44156		-18.857751	2.481678	-35.747862
44157		-18.914272	2.506844	-35.713057
44158		-18.860631	2.531423	-35.708649
44159		-18.771657	2.573981	-35.733845
44160		-18.666819	2.621150	-35.761244
44161		-18.652038	2.646343	-35.798936
44162		-18.698659	2.651627	-35.797908
44163		-18.700305	2.625316	-35.736423
44164		-18.661392	2.551674	-35.628876
44165		-18.692357	2.449035	-35.491473
44166		-18.714653	2.322469	-35.336672
44167		-18.635977	2.209797	-35.192812
44168		-18.552034	2.116708	-35.108463
44169		-18.569630	1.979246	-35.016451
44170		-18.486312	1.757725	-34.879117
44171		-18.376373	1.480878	-34.749641
44172		-18.461267	1.156625	-34.619363
44173		-18.418479	0.781964	-34.514611
44174		-18.305088	0.390550	-34.456189
44175		-18.459005	0.026292	-34.445032
44176		-18.734780	-0.315135	-34.486440
44177		-18.489467	-0.712558	-34.548274
44178		-18.256110	-1.154296	-34.628249
44179		-18.206583	-1.637241	-34.722610
44180		-18.284505	-2.162322	-34.867074
44181		-18.150817	-2.674995	-35.049613
44182		-18.004729	-3.177618	-35.265596
44183		-17.947700	-3.653558	-35.525719
44184		-17.664250	-4.149701	-35.797229
44185		-17.278645	-4.629085	-36.047719
44186		-17.062997	-5.044323	-36.280965
44187		-16.936721	-5.445670	-36.535673
44188		-16.715900	-5.948521	-36.820453
44189		-16.151289	-6.527202	-37.101146
44190		-15.639690	-7.078482	-37.428887
44191		-15.549011	-7.560042	-37.832659
44192		-15.308383	-8.025807	-38.255181
44193		-14.900863	-8.479384	-38.660740
44194		-14.641127	-8.827764	-39.066297
44195		-14.500195	-9.108295	-39.553680
44196		-14.156674	-9.371537	-40.074154
44197		-13.944619	-9.567530	-40.557668
44198		-13.856449	-9.687861	-41.004143
44199		-13.905484	-9.766677	-41.459391
44200		-13.899562	-9.796306	-41.937478
44201		-13.841342	-9.731622	-42.401767
44202		-13.915990	-9.677767	-42.856226
44203		-13.876762	-9.668778	-43.295894
44204		-13.806389	-9.611668	-43.708279
44205		-13.694205	-9.498615	-44.117730
44206		-13.837631	-9.340294	-44.527570
44207		-13.840657	-9.077423	-44.923943
44208		-13.836000	-8.756666	-45.356216
44209		-13.708013	-8.584559	-45.737753
44210		-13.603195	-8.581811	-46.086062
44211		-13.527677	-8.682198	-46.421806
44212		-13.428855	-8.806697	-46.719171
44213		-13.372402	-8.907260	-46.990646
44214		-13.324654	-8.973782	-47.227305
44215		-13.193326	-8.979029	-47.422774
44216		-13.149945	-8.919731	-47.647991
44217		-13.263696	-8.878690	-47.908867
44218		-13.388804	-8.854796	-48.140356
44219		-13.519952	-8.839378	-48.334058
44220		-13.442083	-8.823673	-48.435857
44221		-13.362280	-8.779090	-48.436710
44222		-13.326370	-8.719176	-48.355285
44223		-13.437936	-8.615546	-48.240223
44224		-13.601588	-8.526113	-48.098535
44225		-13.699474	-8.530978	-47.991613
44226		-13.752468	-8.604803	-47.925531
44227		-13.688093	-8.734137	-47.845081
44228		-13.535542	-8.950353	-47.830922
44229		-13.354129	-9.098068	-47.929415
44230		-13.243091	-9.265929	-48.061681
44231		-13.136043	-9.438014	-48.202268
44232		-13.118931	-9.587206	-48.352403
44233		-12.978175	-9.688449	-48.542418
44234		-12.960612	-9.747389	-48.685942
44235		-12.798216	-9.854458	-48.805640
44236		-12.549777	-9.993215	-48.928665
44237		-12.125374	-10.147895	-49.012061
44238		-11.771569	-10.284630	-49.088292
44239		-11.466554	-10.396718	-49.199216
44240		-11.202627	-10.493018	-49.354985
44241		-10.897305	-10.611714	-49.527031
44242		-10.785124	-10.706645	-49.711741
44243		-10.845147	-10.763488	-49.905223
44244		-10.903064	-10.735299	-50.084761
44245		-10.678209	-10.747027	-50.242905
44246		-10.497716	-10.754262	-50.399257
44247		-10.172502	-10.737458	-50.533128
44248		-9.690450	-10.754945	-50.588098
44249		-9.427505	-10.775711	-50.600666
44250		-9.408205	-10.770016	-50.596178
44251		-9.607636	-10.756166	-50.580742
44252		-9.735838	-10.753291	-50.555089
44253		-9.705711	-10.737853	-50.542138
44254		-9.636967	-10.706352	-50.560814
44255		-9.646245	-10.645186	-50.608069
44256		-9.681289	-10.594945	-50.660196
44257		-9.701718	-10.560720	-50.718486
44258		-9.622851	-10.525402	-50.788449
44259		-9.517337	-10.487222	-50.880283
44260		-9.430817	-10.458148	-50.982270
44261		-9.340468	-10.435011	-51.093622
44262		-9.277230	-10.427513	-51.209809
44263		-9.231100	-10.439590	-51.309010
44264		-9.170871	-10.440394	-51.382757
44265		-9.105908	-10.421819	-51.427989
44266		-9.101294	-10.400883	-51.464872
44267		-9.162161	-10.379787	-51.491939
44268		-9.138863	-10.348818	-51.514811
44269		-9.059296	-10.317170	-51.566200
44270		-9.059529	-10.281022	-51.628506
44271		-9.104566	-10.241417	-51.700589
44272		-9.007700	-10.211776	-51.746500
44273		-8.875222	-10.155015	-51.779762
44274		-8.793659	-10.111222	-51.800721
44275		-8.679297	-10.150639	-51.785618
44276		-8.628963	-10.231571	-51.740658
44277		-8.650326	-10.287563	-51.691808
44278		-8.683416	-10.302099	-51.647002
44279		-8.660051	-10.289583	-51.604109
44280		-8.582438	-10.266997	-51.534435
44281		-8.519544	-10.234057	-51.445827
44282		-8.537534	-10.206352	-51.370431
44283		-8.617633	-10.164470	-51.302878
44284		-8.703382	-10.087574	-51.257311
44285		-8.755943	-9.988376	-51.251626
44286		-8.795958	-9.863849	-51.207795
44287		-8.652180	-9.761725	-51.052381
44288		-8.625339	-9.671116	-50.791735
44289		-8.687916	-9.599467	-50.501107
44290		-8.733711	-9.566713	-50.182608
44291		-8.764404	-9.527018	-49.848681
44292		-8.783035	-9.472932	-49.503245
44293		-8.810948	-9.422804	-49.142113
44294		-8.857613	-9.353253	-48.756984
44295		-8.777076	-9.263256	-48.373705
44296		-8.845987	-9.248339	-48.066721
44297		-8.933885	-9.292049	-47.823512
44298		-9.071799	-9.321999	-47.594254
44299		-9.037203	-9.277568	-47.281708
44300		-8.858557	-9.115072	-46.877958
44301		-8.782440	-8.826715	-46.429462
44302		-8.861372	-8.411628	-45.935036
44303		-8.989595	-7.873316	-45.357773
44304		-9.206905	-7.207981	-44.638132
44305		-9.287258	-6.541574	-43.949454
44306		-9.486368	-6.033371	-43.407370
44307		-9.754625	-5.650528	-43.015232
44308		-9.946877	-5.395317	-42.668941
44309		-9.879386	-5.154013	-42.315221
44310		-9.562078	-4.926944	-41.951552
44311		-9.280773	-4.748789	-41.567970
44312		-9.208045	-4.620564	-41.212057
44313		-9.390094	-4.514034	-40.919228
44314		-9.542214	-4.443861	-40.652252
44315		-9.601967	-4.374400	-40.375585
44316		-9.607460	-4.287641	-40.050642
44317		-9.594022	-4.148457	-39.688558
44318		-9.546292	-3.996992	-39.361418
44319		-9.484252	-3.853304	-39.051903
44320		-9.302456	-3.755000	-38.830864
44321		-9.154613	-3.685419	-38.766903
44322		-9.118522	-3.668730	-38.843013
44323		-9.088450	-3.702499	-38.938933
44324		-8.792865	-3.731829	-38.998543
44325		-8.439604	-3.752416	-39.036835
44326		-8.260551	-3.766428	-39.080072
44327		-8.213181	-3.768725	-39.117644
44328		-8.186606	-3.758227	-39.095676
44329		-8.421303	-3.741755	-38.893764
44330		-8.504401	-3.671866	-38.580184
44331		-9.111349	-3.512227	-38.149680
44332		-10.079340	-3.248878	-37.566601
44333		-12.216889	-3.037117	-36.804168
44334		-13.526472	-2.835132	-36.101395
44335		-13.200235	-2.485640	-35.704756
44336		-13.908405	-1.999247	-35.456969
44337		-13.876601	-1.538229	-35.268654
44338		-13.900429	-1.162743	-35.085342
44339		-14.077056	-0.810625	-34.905796
44340		-14.233506	-0.468493	-34.696609
44341		-14.318064	-0.186383	-34.453597
44342		-14.626403	0.038821	-34.166092
44343		-15.002554	0.223890	-33.856581
44344		-15.453372	0.359805	-33.654275
44345		-16.518120	0.508303	-33.568871
44346		-17.474983	0.654172	-33.492734
44347		-18.076342	0.755490	-33.417695
44348		-18.105705	0.860966	-33.298256
44349		-18.108151	0.918319	-33.162002
44350		-18.153373	0.999749	-33.052949
44351		-18.173838	1.096937	-33.001921
44352		-18.278029	1.192588	-32.973075
44353		-18.404522	1.253466	-32.954912
44354		-18.354717	1.293524	-32.915920
44355		-18.298007	1.356117	-32.885015
44356		-18.406959	1.422414	-32.906700
44357		-18.491509	1.490745	-32.934499
44358		-18.485206	1.550931	-32.939273
44359		-18.464755	1.587482	-32.976051
44360		-18.524142	1.619117	-33.028754
44361		-18.560956	1.659686	-33.071527
44362		-18.619502	1.684241	-33.110057
44363		-18.652611	1.705640	-33.143363
44364		-18.685783	1.713430	-33.165182
44365		-18.670589	1.695855	-33.175289
44366		-18.661002	1.659717	-33.176913
44367		-18.680763	1.613819	-33.168974
44368		-18.693598	1.564643	-33.148516
44369		-18.709138	1.520465	-33.114247
44370		-18.733903	1.444426	-33.070013
44371		-18.674754	1.375142	-33.037270
44372		-18.854826	1.311231	-33.028653
44373		-18.897722	1.226884	-32.999702
44374		-18.776886	1.141397	-32.969182
44375		-18.738914	1.065169	-32.946237
44376		-18.743120	0.996755	-32.936337
44377		-18.743657	0.945743	-32.938711
44378		-18.751422	0.892934	-32.939283
44379		-18.747890	0.843871	-32.935415
44380		-18.753673	0.794166	-32.932177
44381		-18.706660	0.722102	-32.923999
44382		-18.732886	0.623176	-32.901661
44383		-18.841896	0.504968	-32.863992
44384		-18.960916	0.355303	-32.805806
44385		-19.022201	0.188927	-32.744420
44386		-19.012099	0.004519	-32.666397
44387		-18.975633	-0.206254	-32.597681
44388		-18.972428	-0.429900	-32.571141
44389		-19.032494	-0.650145	-32.601059
44390		-18.943582	-0.860658	-32.699978
44391		-18.881882	-1.112623	-32.873315
44392		-18.979116	-1.414005	-33.100981
44393		-18.832492	-1.749755	-33.356336
44394		-18.516435	-2.117255	-33.579412
44395		-18.183853	-2.494760	-33.775000
44396		-17.850342	-2.876491	-33.959988
44397		-17.582990	-3.285634	-34.130336
44398		-17.384639	-3.702045	-34.291735
44399		-17.057705	-4.123111	-34.454467
44400		-16.672063	-4.537576	-34.648155
44401		-16.386889	-4.931374	-34.880652
44402		-16.217215	-5.304373	-35.143620
44403		-16.020731	-5.662644	-35.427568
44404		-15.694148	-6.019267	-35.743336
44405		-15.488864	-6.346336	-36.111424
44406		-15.317984	-6.648609	-36.507705
44407		-15.132381	-6.867608	-36.960988
44408		-14.980326	-7.090719	-37.471030
44409		-14.851991	-7.288300	-37.965209
44410		-14.731103	-7.433747	-38.479606
44411		-14.697408	-7.592589	-39.026064
44412		-14.598669	-7.753328	-39.572179
44413		-14.566477	-7.860553	-40.137708
44414		-14.541434	-7.989024	-40.737302
44415		-14.459965	-8.127900	-41.338745
44416		-14.408127	-8.217481	-41.919566
44417		-14.414359	-8.269623	-42.510554
44418		-14.346588	-8.394904	-43.072533
44419		-14.198876	-8.533859	-43.559090
44420		-14.139986	-8.650571	-44.005995
44421		-14.153259	-8.724754	-44.453707
44422		-14.064159	-8.823276	-44.890075
44423		-13.909808	-8.927424	-45.280168
44424		-13.781375	-9.028029	-45.620387
44425		-13.746170	-9.109061	-45.978547
44426		-13.724576	-9.174700	-46.345166
44427		-13.628399	-9.272077	-46.708012
44428		-13.587502	-9.383145	-47.050941
44429		-13.607236	-9.460205	-47.372304
44430		-13.588622	-9.489241	-47.698266
44431		-13.569238	-9.455960	-48.055947
44432		-13.677240	-9.389325	-48.415951
44433		-13.654200	-9.372112	-48.727985
44434		-13.616865	-9.381740	-49.028326
44435		-13.642609	-9.390668	-49.310519
44436		-13.709002	-9.371908	-49.548944
44437		-13.737985	-9.357604	-49.738466
44438		-13.844047	-9.286580	-49.868684
44439		-13.869311	-9.201215	-49.919994
44440		-13.950228	-9.114133	-49.956582
44441		-14.045057	-9.003800	-49.990750
44442		-14.034429	-8.879388	-49.981993
44443		-13.882678	-8.749598	-49.948926
44444		-13.878704	-8.658993	-49.920482
44445		-13.932255	-8.622796	-49.866880
44446		-14.037108	-8.600078	-49.807217
44447		-14.068428	-8.601131	-49.733903
44448		-13.989857	-8.672941	-49.615515
44449		-13.980603	-8.773735	-49.513829
44450		-14.048404	-8.923279	-49.529782
44451		-14.120126	-9.071407	-49.570392
44452		-14.208197	-9.164813	-49.641495
44453		-14.139323	-9.286573	-49.732203
44454		-14.061276	-9.439579	-49.903906
44455		-13.820340	-9.567383	-50.052780
44456		-13.470603	-9.680624	-50.172657
44457		-13.267954	-9.756166	-50.279565
44458		-13.079666	-9.841984	-50.381636
44459		-12.811026	-9.938392	-50.474365
44460		-12.607025	-10.021845	-50.524882
44461		-12.437903	-10.080868	-50.574365
44462		-12.256347	-10.144387	-50.640213
44463		-12.115269	-10.197194	-50.741657
44464		-12.132530	-10.225498	-50.848607
44465		-11.962423	-10.245817	-50.922720
44466		-11.763746	-10.255754	-51.000006
44467		-11.540843	-10.223658	-51.064708
44468		-11.332104	-10.193580	-51.094866
44469		-11.192423	-10.189444	-51.107495
44470		-11.059057	-10.195106	-51.101966
44471		-10.906629	-10.194723	-51.152045
44472		-10.746467	-10.199777	-51.197860
44473		-10.553727	-10.222472	-51.249619
44474		-10.314422	-10.234045	-51.271129
44475		-9.976970	-10.245253	-51.263052
44476		-9.721332	-10.251408	-51.247783
44477		-9.571536	-10.233931	-51.237496
44478		-9.575478	-10.229361	-51.220647
44479		-9.541232	-10.228294	-51.197925
44480		-9.560540	-10.211166	-51.179941
44481		-9.493985	-10.194539	-51.173588
44482		-9.457787	-10.191693	-51.191151
44483		-9.459671	-10.167405	-51.221539
44484		-9.399611	-10.131036	-51.261767
44485		-9.333409	-10.099731	-51.340434
44486		-9.156132	-10.075933	-51.428173
44487		-8.941612	-10.041413	-51.535937
44488		-8.814101	-10.025932	-51.672705
44489		-8.672059	-10.034105	-51.812190
44490		-8.516012	-10.053189	-51.922444
44491		-8.436713	-10.036970	-52.004289
44492		-8.471606	-10.007033	-52.084391
44493		-8.560476	-9.962323	-52.153180
44494		-8.643956	-9.928623	-52.215718
44495		-8.692842	-9.924629	-52.274149
44496		-8.759717	-9.940679	-52.315616
44497		-8.857894	-9.944387	-52.351279
44498		-8.891385	-9.921170	-52.359094
44499		-8.919209	-9.887655	-52.342343
44500		-8.978389	-9.865165	-52.298277
44501		-9.018472	-9.845585	-52.248475
44502		-9.040359	-9.830309	-52.214359
44503		-9.079168	-9.829959	-52.200142
44504		-9.117423	-9.806835	-52.204796
44505		-9.205348	-9.756241	-52.245675
44506		-9.243984	-9.723150	-52.267169
44507		-9.312767	-9.696686	-52.232519
44508		-9.346436	-9.675757	-52.159434
44509		-9.444149	-9.657858	-52.083446
44510		-9.524034	-9.624521	-51.974615
44511		-9.521233	-9.598833	-51.806511
44512		-9.503065	-9.574237	-51.600204
44513		-9.567872	-9.511097	-51.368048
44514		-9.636630	-9.446232	-51.133116
44515		-9.707901	-9.384168	-50.909686
44516		-9.750562	-9.316644	-50.587149
44517		-8.967334	-9.417898	-50.056435
44518		-8.488467	-9.504432	-49.589624
44519		-8.510723	-9.503556	-49.270357
44520		-8.618294	-9.395089	-48.999328
44521		-8.523941	-9.218124	-48.683318
44522		-8.617006	-8.994699	-48.433443
44523		-9.008068	-8.770682	-48.306139
44524		-9.283569	-8.584465	-48.219186
44525		-9.340102	-8.393985	-48.067305
44526		-9.291699	-8.168764	-47.868605
44527		-9.477487	-7.962182	-47.690594
44528		-9.889258	-7.776943	-47.502024
44529		-10.159117	-7.611929	-47.238269
44530		-10.116022	-7.474567	-46.829029
44531		-10.065829	-7.295961	-46.315704
44532		-10.160945	-7.086128	-45.788037
44533		-10.259700	-6.886731	-45.260744
44534		-10.341785	-6.704579	-44.699881
44535		-10.362664	-6.530573	-44.116178
44536		-10.273236	-6.390574	-43.500064
44537		-9.978238	-6.321842	-42.760387
44538		-9.786002	-6.295887	-41.980029
44539		-9.891520	-6.248699	-41.307470
44540		-10.045349	-6.162344	-40.813305
44541		-10.190877	-6.059473	-40.461078
44542		-10.167867	-5.962594	-40.237505
44543		-9.978849	-5.888307	-40.180047
44544		-9.809280	-5.906364	-40.258067
44545		-9.649034	-5.927323	-40.351058
44546		-9.480270	-5.922437	-40.424531
44547		-9.407879	-5.907355	-40.481668
44548		-9.527646	-5.851168	-40.537600
44549		-9.670122	-5.792175	-40.593211
44550		-9.740303	-5.723002	-40.647516
44551		-9.836660	-5.628484	-40.707088
44552		-9.864894	-5.517489	-40.778662
44553		-9.723124	-5.390975	-40.849419
44554		-9.696247	-5.223496	-40.924334
44555		-9.854564	-4.994422	-41.012377
44556		-10.252709	-4.717293	-41.049620
44557		-10.443715	-4.511935	-40.950112
44558		-10.735173	-4.273431	-40.790014
44559		-11.121428	-4.046707	-40.549394
44560		-11.555886	-3.872523	-40.093737
44561		-11.473290	-3.747719	-39.446123
44562		-11.225177	-3.639300	-38.717704
44563		-12.039618	-3.521834	-37.962013
44564		-12.983155	-3.228603	-37.242545
44565		-13.332265	-2.973391	-36.691263
44566		-13.654641	-2.767887	-36.251396
44567		-13.809472	-2.589341	-35.876915
44568		-14.072965	-2.371522	-35.569021
44569		-14.510346	-2.150322	-35.299846
44570		-14.807298	-1.959972	-35.047625
44571		-15.280175	-1.757358	-34.866381
44572		-16.048124	-1.516144	-34.713750
44573		-16.843447	-1.272246	-34.620388
44574		-17.291299	-1.028469	-34.557757
44575		-17.680547	-0.777704	-34.512939
44576		-18.251845	-0.514791	-34.479298
44577		-18.521419	-0.308991	-34.413823
44578		-18.545915	-0.150347	-34.360227
44579		-18.570326	-0.007527	-34.344869
44580		-18.632184	0.112707	-34.388591
44581		-18.702023	0.205901	-34.427221
44582		-18.544053	0.232466	-34.436103
44583		-18.375909	0.234324	-34.432928
44584		-18.326148	0.251515	-34.420716
44585		-18.303804	0.272500	-34.399498
44586		-18.309533	0.289872	-34.379502
44587		-18.294592	0.300275	-34.358986
44588		-18.252959	0.289040	-34.339339
44589		-18.189553	0.271700	-34.318735
44590		-18.171131	0.255370	-34.300280
44591		-18.164512	0.234148	-34.279195
44592		-18.120772	0.194113	-34.247665
44593		-18.079200	0.127154	-34.210135
44594		-18.020397	0.012057	-34.144939
44595		-18.023952	-0.128841	-34.068199
44596		-18.053363	-0.286678	-33.971940
44597		-17.942525	-0.466667	-33.848755
44598		-17.854606	-0.665683	-33.709575
44599		-17.835572	-0.859415	-33.575139
44600		-17.711690	-1.059138	-33.466559
44601		-17.534025	-1.240863	-33.389700
44602		-17.382364	-1.430200	-33.336862
44603		-17.225705	-1.607738	-33.339737
44604		-17.253589	-1.807703	-33.397147
44605		-17.235382	-2.020160	-33.483253
44606		-17.186316	-2.268412	-33.572549
44607		-17.193500	-2.535380	-33.675983
44608		-17.286434	-2.785859	-33.836869
44609		-17.412585	-3.033556	-34.049350
44610		-17.505036	-3.280524	-34.316586
44611		-17.457156	-3.584094	-34.594251
44612		-17.302949	-3.918254	-34.860544
44613		-17.109562	-4.240935	-35.120712
44614		-16.970071	-4.547667	-35.388175
44615		-16.877977	-4.852996	-35.677374
44616		-16.645696	-5.172825	-35.983914
44617		-16.359041	-5.485777	-36.296004
44618		-16.119500	-5.776279	-36.603899
44619		-15.920618	-6.063061	-36.904363
44620		-15.726876	-6.353167	-37.177361
44621		-15.515081	-6.611998	-37.472237
44622		-15.365087	-6.863277	-37.817497
44623		-15.233094	-7.121010	-38.188453
44624		-15.008158	-7.370357	-38.552229
44625		-14.848879	-7.584834	-38.891052
44626		-14.627897	-7.765815	-39.210880
44627		-14.422817	-7.930090	-39.522877
44628		-14.293194	-8.045247	-39.827030
44629		-14.251207	-8.123330	-40.142673
44630		-14.157960	-8.194768	-40.472512
44631		-14.105060	-8.270932	-40.797652
44632		-14.052038	-8.351864	-41.083677
44633		-14.048731	-8.411066	-41.371498
44634		-14.081696	-8.483025	-41.660586
44635		-14.037691	-8.577920	-41.971221
44636		-14.017489	-8.684837	-42.292022
44637		-13.936592	-8.796703	-42.599372
44638		-13.885100	-8.866710	-42.965422
44639		-13.907173	-8.934991	-43.390843
44640		-13.880495	-8.985351	-43.796101
44641		-13.854039	-9.000144	-44.173105
44642		-13.848490	-9.014631	-44.537052
44643		-13.856793	-9.016372	-44.915655
44644		-13.924359	-8.988369	-45.286624
44645		-13.972001	-8.992868	-45.604535
44646		-13.930564	-9.017016	-45.877594
44647		-13.960220	-9.045724	-46.149529
44648		-13.899473	-9.083564	-46.428014
44649		-13.855470	-9.131790	-46.748752
44650		-13.829419	-9.185492	-47.062397
44651		-13.750247	-9.203811	-47.332234
44652		-13.777393	-9.158257	-47.586655
44653		-13.869687	-9.068603	-47.786522
44654		-13.814474	-8.998314	-47.881956
44655		-13.737019	-8.934993	-47.895182
44656		-13.772928	-8.829785	-47.837015
44657		-13.881382	-8.720584	-47.699113
44658		-14.070246	-8.601275	-47.564453
44659		-14.307288	-8.488920	-47.490127
44660		-14.347644	-8.426244	-47.448133
44661		-14.222417	-8.401459	-47.400501
44662		-14.082084	-8.405222	-47.343287
44663		-13.967888	-8.423675	-47.275488
44664		-13.970645	-8.482540	-47.209015
44665		-14.029001	-8.644661	-47.170159
44666		-13.815187	-8.846084	-47.155793
44667		-13.811250	-9.035738	-47.237829
44668		-13.713849	-9.194592	-47.404408
44669		-13.633509	-9.337243	-47.599618
44670		-13.344330	-9.450860	-47.755850
44671		-13.082578	-9.603447	-47.914483
44672		-12.746151	-9.776184	-48.087774
44673		-12.391402	-9.910347	-48.243083
44674		-12.166089	-10.029801	-48.398565
44675		-12.062894	-10.159924	-48.570379
44676		-11.873338	-10.285962	-48.741766
44677		-11.608323	-10.402489	-48.888149
44678		-11.307468	-10.474474	-49.025206
44679		-10.984829	-10.512386	-49.179777
44680		-10.670436	-10.537603	-49.344035
44681		-10.277716	-10.545750	-49.469558
44682		-9.675477	-10.549911	-49.625951
44683		-9.339227	-10.542852	-49.794787
44684		-9.121304	-10.547730	-49.986433
44685		-8.884151	-10.549074	-50.158444
44686		-8.638454	-10.556353	-50.271488
44687		-8.513656	-10.557254	-50.334878
44688		-8.447989	-10.530083	-50.377915
44689		-8.407274	-10.480067	-50.397632
44690		-8.450355	-10.440302	-50.380590
44691		-8.545649	-10.404086	-50.353975
44692		-8.694725	-10.368627	-50.360866
44693		-8.685531	-10.347614	-50.373414
44694		-8.595060	-10.335568	-50.384585
44695		-8.589689	-10.302214	-50.416731
44696		-8.593209	-10.255667	-50.476358
44697		-8.479090	-10.202051	-50.567315
44698		-8.324442	-10.163142	-50.673459
44699		-8.266010	-10.144159	-50.772371
44700		-8.316145	-10.132902	-50.856569
44701		-8.450704	-10.126916	-50.929306
44702		-8.583272	-10.089923	-50.964772
44703		-8.677695	-10.068519	-50.966795
44704		-8.804691	-10.053568	-50.966093
44705		-8.956873	-10.028768	-50.959799
44706		-9.113917	-10.032980	-50.970125
44707		-9.176387	-10.054553	-50.979758
44708		-9.146328	-10.068710	-50.956127
44709		-9.133987	-10.060673	-50.921343
44710		-9.177414	-10.054724	-50.864076
44711		-9.247204	-10.049838	-50.781494
44712		-9.303129	-10.017339	-50.682537
44713		-9.378037	-9.974356	-50.595379
44714		-9.461112	-9.916293	-50.518585
44715		-9.510656	-9.853629	-50.433232
44716		-9.490510	-9.803767	-50.314980
44717		-9.479291	-9.768241	-50.155890
44718		-9.582555	-9.719895	-50.008095
44719		-9.721684	-9.662464	-49.876721
44720		-9.838705	-9.571424	-49.735899
44721		-9.777371	-9.484762	-49.530234
44722		-9.647088	-9.429880	-49.272498
44723		-9.643069	-9.372008	-49.022857
44724		-9.704283	-9.275052	-48.748488
44725		-9.640633	-9.155716	-48.396572
44726		-9.597161	-9.031634	-48.035480
44727		-9.736232	-8.913240	-47.740174
44728		-9.914559	-8.836844	-47.503560
44729		-9.894602	-8.812837	-47.269511
44730		-9.774525	-8.761331	-47.031844
44731		-9.631589	-8.650159	-46.765019
44732		-9.519967	-8.492965	-46.449984
44733		-9.619101	-8.283132	-46.104645
44734		-9.842409	-8.077590	-45.759274
44735		-10.103558	-7.912844	-45.407551
44736		-10.322440	-7.778479	-45.035646
44737		-10.446795	-7.647021	-44.642681
44738		-10.529613	-7.486434	-44.214161
44739		-10.683553	-7.275485	-43.736441
44740		-10.773116	-7.044740	-43.202271
44741		-10.769618	-6.795041	-42.619814
44742		-10.778918	-6.546079	-42.055937
44743		-10.943254	-6.268720	-41.504409
44744		-11.070108	-5.991515	-40.941244
44745		-11.074130	-5.721399	-40.409148
44746		-11.122012	-5.470260	-39.963895
44747		-11.126408	-5.266984	-39.624175
44748		-10.993107	-5.126494	-39.360577
44749		-10.860588	-5.032663	-39.183546
44750		-10.812298	-4.981560	-39.118565
44751		-10.649780	-4.970181	-39.112123
44752		-10.331989	-4.959988	-39.104103
44753		-10.130079	-4.868845	-39.050670
44754		-10.108025	-4.701878	-38.919193
44755		-10.090165	-4.437915	-38.823099
44756		-10.010203	-4.173742	-38.739701
44757		-10.035213	-3.933004	-38.643203
44758		-10.421145	-3.695766	-38.584777
44759		-11.081395	-3.437864	-38.593324
44760		-11.602923	-3.187930	-38.582220
44761		-11.996538	-2.861576	-38.547512
44762		-12.307009	-2.428801	-38.559485
44763		-12.638049	-1.977407	-38.570364
44764		-12.485625	-1.577174	-38.516830
44765		-12.404842	-1.241137	-38.443733
44766		-12.552714	-0.988548	-38.368826
44767		-12.668936	-0.828841	-38.285460
44768		-12.622847	-0.741217	-38.192848
44769		-12.660886	-0.712530	-38.110581
44770		-12.621612	-0.729820	-38.020463
44771		-12.510415	-0.755543	-37.939000
44772		-12.426849	-0.783662	-37.860288
44773		-12.389810	-0.801419	-37.800395
44774		-12.356509	-0.787493	-37.761875
44775		-12.511594	-0.756869	-37.635684
44776		-12.480902	-0.697896	-37.443405
44777		-12.665719	-0.585180	-37.186121
44778		-13.254746	-0.392205	-36.821969
44779		-13.816681	-0.167163	-36.399863
44780		-14.199919	0.067632	-35.962466
44781		-14.705940	0.318255	-35.523560
44782		-15.026250	0.535817	-35.126552
44783		-15.338739	0.787865	-34.875353
44784		-15.800328	1.033420	-34.803073
44785		-16.550275	1.259103	-34.800017
44786		-17.048557	1.477445	-34.771248
44787		-17.109879	1.679927	-34.690749
44788		-17.135010	1.860801	-34.548859
44789		-17.373752	1.983171	-34.335564
44790		-17.655119	2.043229	-34.090343
44791		-17.870933	2.079989	-33.850757
44792		-18.091415	2.109677	-33.635845
44793		-18.152677	2.168514	-33.418623
44794		-18.256895	2.212466	-33.222913
44795		-18.459883	2.275936	-33.101557
44796		-18.779213	2.379131	-33.049842
44797		-19.056553	2.483302	-33.009450
44798		-19.358637	2.600425	-32.961559
44799		-19.452097	2.722846	-32.950944
44800		-19.406065	2.821701	-32.917279
44801		-19.184703	2.907686	-32.896087
44802		-19.180153	2.997332	-32.921625
44803		-19.155005	3.100123	-32.953914
44804		-19.095363	3.203233	-33.006560
44805		-19.009118	3.297349	-33.091370
44806		-18.986387	3.390580	-33.206200
44807		-18.956112	3.481624	-33.304437
44808		-18.983249	3.579009	-33.388755
44809		-19.065611	3.684837	-33.459179
44810		-19.134599	3.759208	-33.524329
44811		-19.077675	3.794414	-33.542586
44812		-19.020977	3.809181	-33.543803
44813		-19.042369	3.814269	-33.538031
44814		-19.088411	3.803123	-33.532074
44815		-19.070332	3.776132	-33.517314
44816		-19.042320	3.738391	-33.491745
44817		-19.029527	3.675327	-33.449207
44818		-19.015915	3.597314	-33.395785
44819		-19.030979	3.513166	-33.330398
44820		-19.069861	3.417316	-33.265337
44821		-19.224763	3.326475	-33.216416
44822		-19.332332	3.246222	-33.177848
44823		-19.266973	3.140043	-33.127215
44824		-19.211837	2.980210	-33.054246
44825		-19.023444	2.777073	-32.987670
44826		-18.717275	2.596245	-33.003221
44827		-19.249789	2.398030	-33.027450
44828		-19.375548	2.111842	-33.072299
44829		-19.509820	1.768719	-33.159053
44830		-19.607398	1.393201	-33.298007
44831		-19.503440	0.983529	-33.463601
44832		-19.403294	0.520017	-33.651288
44833		-19.255310	0.015837	-33.808963
44834		-19.191927	-0.490491	-33.920227
44835		-19.211433	-0.984489	-33.983027
44836		-19.030366	-1.475023	-34.081963
44837		-18.767081	-2.042835	-34.218772
44838		-18.479146	-2.575689	-34.389306
44839		-18.232629	-3.064546	-34.610510
44840		-18.007853	-3.546271	-34.857219
44841		-17.913107	-3.980049	-35.142034
44842		-17.660215	-4.409160	-35.457988
44843		-17.370538	-4.799379	-35.831457
44844		-17.242206	-5.163682	-36.239375
44845		-16.952799	-5.496086	-36.642992
44846		-16.668839	-5.752082	-37.069587
44847		-16.523313	-5.943052	-37.506491
44848		-16.311620	-6.105004	-37.928212
44849		-16.115051	-6.238891	-38.375515
44850		-15.959741	-6.365332	-38.846746
44851		-15.817060	-6.476845	-39.334891
44852		-15.662675	-6.595090	-39.795529
44853		-15.477738	-6.687197	-40.236150
44854		-15.351713	-6.744591	-40.670240
44855		-15.177264	-6.831402	-41.077403
44856		-15.008005	-6.943530	-41.431029
44857		-14.862437	-7.037604	-41.740463
44858		-14.702000	-7.120770	-42.055303
44859		-14.486019	-7.252260	-42.405163
44860		-14.319934	-7.408824	-42.776037
44861		-14.199879	-7.540704	-43.118430
44862		-13.876946	-7.698981	-43.439786
44863		-13.602815	-7.830370	-43.819311
44864		-13.447101	-7.926664	-44.200974
44865		-13.381045	-7.972951	-44.581746
44866		-13.331902	-8.030593	-44.936069
44867		-13.181747	-8.108344	-45.239692
44868		-13.077175	-8.178417	-45.522593
44869		-13.040144	-8.245146	-45.824799
44870		-13.018809	-8.314994	-46.121370
44871		-12.918476	-8.357773	-46.393856
44872		-12.926361	-8.360135	-46.688835
44873		-12.948058	-8.334944	-46.973804
44874		-12.874871	-8.288066	-47.168770
44875		-12.775572	-8.235303	-47.268045
44876		-12.685183	-8.153640	-47.295666
44877		-12.689846	-8.034250	-47.257632
44878		-12.869877	-7.934363	-47.172989
44879		-13.098318	-7.862168	-47.101901
44880		-13.222669	-7.851383	-47.043956
44881		-13.188610	-7.898927	-46.973224
44882		-13.153667	-7.983212	-46.845092
44883		-13.130607	-8.084007	-46.735943
44884		-13.076157	-8.261956	-46.674048
44885		-13.004886	-8.465207	-46.654173
44886		-13.067612	-8.696882	-46.669810
44887		-12.995562	-8.964306	-46.753398
44888		-12.735586	-9.201575	-46.896071
44889		-12.422812	-9.411405	-47.092053
44890		-12.066701	-9.628713	-47.321755
44891		-11.743461	-9.789105	-47.534092
44892		-11.199284	-9.944007	-47.665472
44893		-10.616409	-10.087586	-47.758164
44894		-10.318626	-10.199268	-47.930492
44895		-10.241734	-10.283851	-48.155836
44896		-10.311867	-10.372599	-48.394362
44897		-10.285345	-10.471231	-48.633381
44898		-10.208974	-10.578261	-48.884792
44899		-9.993604	-10.653440	-49.157515
44900		-9.826013	-10.677691	-49.423133
44901		-9.564518	-10.660400	-49.645421
44902		-9.152366	-10.621346	-49.832837
44903		-8.729673	-10.588323	-50.007989
44904		-8.503872	-10.581823	-50.125229
44905		-8.342843	-10.572106	-50.172924
44906		-8.188849	-10.553560	-50.195369
44907		-8.220895	-10.527844	-50.202474
44908		-8.257148	-10.486797	-50.184980
44909		-8.261447	-10.428823	-50.163357
44910		-8.323946	-10.368288	-50.140943
44911		-8.335395	-10.330492	-50.141722
44912		-8.324351	-10.305175	-50.160911
44913		-8.294961	-10.283414	-50.179379
44914		-8.292376	-10.272649	-50.202718
44915		-8.278630	-10.258625	-50.217491
44916		-8.277060	-10.226045	-50.226759
44917		-8.353603	-10.172588	-50.243715
44918		-8.364357	-10.123622	-50.262945
44919		-8.383553	-10.084768	-50.301590
44920		-8.480189	-10.076128	-50.368823
44921		-8.546582	-10.118436	-50.422572
44922		-8.489998	-10.167686	-50.435051
44923		-8.397884	-10.172589	-50.414193
44924		-8.409793	-10.150434	-50.372757
44925		-8.447600	-10.147396	-50.332219
44926		-8.439082	-10.151837	-50.293445
44927		-8.503661	-10.180973	-50.281707
44928		-8.543799	-10.208351	-50.297567
44929		-8.564339	-10.245074	-50.305195
44930		-8.512491	-10.286694	-50.276698
44931		-8.485502	-10.304380	-50.219130
44932		-8.495440	-10.297678	-50.123157
44933		-8.512260	-10.275828	-50.023457
44934		-8.528694	-10.266696	-49.919610
44935		-8.527918	-10.263926	-49.823093
44936		-8.567495	-10.281786	-49.756345
44937		-8.594910	-10.289787	-49.702686
44938		-8.612786	-10.299510	-49.640179
44939		-8.608515	-10.293216	-49.573495
44940		-8.667151	-10.259846	-49.522298
44941		-8.707688	-10.219754	-49.450586
44942		-8.655401	-10.220457	-49.343997
44943		-8.632903	-10.232722	-49.243825
44944		-8.697231	-10.218579	-49.166501
44945		-8.756804	-10.171770	-49.090088
44946		-8.727687	-10.107543	-48.984314
44947		-8.724655	-10.034576	-48.843500
44948		-8.718431	-9.973235	-48.682532
44949		-8.809845	-9.888374	-48.539391
44950		-8.964905	-9.765471	-48.402889
44951		-9.107657	-9.628596	-48.296406
44952		-9.243722	-9.523566	-48.232775
44953		-9.417629	-9.400414	-48.180853
44954		-9.491283	-9.272245	-48.077686
44955		-9.449634	-9.155949	-47.886050
44956		-9.431247	-9.009722	-47.616793
44957		-9.469249	-8.868365	-47.330924
44958		-9.515355	-8.774701	-47.084258
44959		-9.572396	-8.710472	-46.851152
44960		-9.502358	-8.670201	-46.607783
44961		-9.404168	-8.605746	-46.340878
44962		-9.442673	-8.473654	-46.036056
44963		-9.588227	-8.285334	-45.647145
44964		-9.755632	-8.079035	-45.188924
44965		-10.024567	-7.852033	-44.663512
44966		-10.556586	-7.652754	-44.013142
44967		-11.018719	-7.524380	-43.229332
44968		-11.374419	-7.441362	-42.401105
44969		-11.722175	-7.342232	-41.640044
44970		-11.934660	-7.190358	-40.954757
44971		-11.894704	-6.950298	-40.248843
44972		-11.678344	-6.625293	-39.540475
44973		-11.393372	-6.231857	-38.891798
44974		-11.238514	-5.791742	-38.348156
44975		-11.176204	-5.332880	-37.877497
44976		-10.918392	-4.862234	-37.439843
44977		-11.029172	-4.446519	-37.011269
44978		-12.019492	-3.950801	-36.751244
44979		-12.472549	-3.482617	-36.691456
44980		-12.767738	-3.130080	-36.724984
44981		-12.716155	-2.893474	-36.795734
44982		-12.413483	-2.764898	-36.839059
44983		-12.252723	-2.690695	-36.836818
44984		-12.122881	-2.655166	-36.825510
44985		-12.200252	-2.577570	-36.854233
44986		-12.291550	-2.475717	-36.919789
44987		-12.246856	-2.378804	-37.011487
44988		-12.193591	-2.260874	-37.138329
44989		-12.129957	-2.155956	-37.260418
44990		-11.974010	-2.075837	-37.363954
44991		-11.818379	-1.993701	-37.465142
44992		-11.741905	-1.874102	-37.574824
44993		-11.884016	-1.705007	-37.690146
44994		-12.199478	-1.550270	-37.770316
44995		-12.744463	-1.324974	-37.665024
44996		-12.564341	-1.144837	-37.490049
44997		-12.731907	-0.941629	-37.311536
44998		-13.221993	-0.675786	-37.139065
44999		-13.699304	-0.385140	-36.931924
45000		-14.084723	-0.068511	-36.665642
45001		-14.271407	0.270056	-36.395588
45002		-14.564665	0.652359	-36.214168
45003		-15.099542	1.050898	-36.121193
45004		-15.881677	1.480469	-36.065162
45005		-16.493478	1.836441	-35.980862
45006		-16.966640	2.154932	-35.891130
45007		-17.215056	2.448223	-35.762712
45008		-17.257435	2.687637	-35.555420
45009		-17.326020	2.874047	-35.295004
45010		-17.466869	3.026561	-34.991815
45011		-17.639776	3.116915	-34.725208
45012		-17.766667	3.230066	-34.494762
45013		-17.920270	3.398477	-34.329166
45014		-18.173719	3.542327	-34.285559
45015		-18.691371	3.680409	-34.318558
45016		-19.176453	3.804715	-34.346168
45017		-19.250699	3.904524	-34.347226
45018		-19.143237	4.008231	-34.375217
45019		-19.277655	4.138968	-34.444393
45020		-19.397805	4.262167	-34.537314
45021		-19.426946	4.367903	-34.625355
45022		-19.373679	4.464956	-34.705933
45023		-19.468152	4.568673	-34.801728
45024		-19.588997	4.643251	-34.878742
45025		-19.602348	4.684048	-34.915335
45026		-19.594814	4.708276	-34.934290
45027		-19.634204	4.716350	-34.946812
45028		-19.657701	4.698465	-34.931141
45029		-19.675187	4.661717	-34.904859
45030		-19.731890	4.609181	-34.883657
45031		-19.864020	4.552304	-34.870349
45032		-19.994837	4.486363	-34.850800
45033		-20.005287	4.419878	-34.822796
45034		-20.026116	4.352864	-34.800217
45035		-19.900904	4.259097	-34.799794
45036		-20.085471	4.148149	-34.827159
45037		-20.232274	3.993605	-34.841425
45038		-20.019997	3.827367	-34.795326
45039		-19.969685	3.682430	-34.769499
45040		-20.137572	3.541748	-34.752849
45041		-20.322016	3.300074	-34.754481
45042		-20.406605	3.033006	-34.772810
45043		-20.404541	2.747206	-34.803614
45044		-20.538497	2.457439	-34.836277
45045		-20.504216	2.192751	-34.861381
45046		-20.235742	1.860463	-34.894416
45047		-19.953019	1.480019	-34.897358
45048		-19.608681	1.076817	-34.926124
45049		-19.273929	0.690101	-34.993948
45050		-18.873744	0.319577	-35.075237
45051		-18.651192	-0.049078	-35.118796
45052		-18.532707	-0.434422	-35.139773
45053		-18.511998	-0.807824	-35.180753
45054		-18.377482	-1.198990	-35.272489
45055		-18.226107	-1.610409	-35.371036
45056		-18.032706	-2.036600	-35.459362
45057		-17.908335	-2.468475	-35.577041
45058		-17.895878	-2.881318	-35.743845
45059		-17.919858	-3.276333	-35.958450
45060		-17.848328	-3.628514	-36.217054
45061		-17.720582	-3.975222	-36.491325
45062		-17.550170	-4.318639	-36.781803
45063		-17.520644	-4.641542	-37.107847
45064		-17.407901	-4.952476	-37.473784
45065		-17.280691	-5.233986	-37.831103
45066		-17.197306	-5.495549	-38.191776
45067		-16.964236	-5.763700	-38.603920
45068		-16.724679	-5.978350	-39.008389
45069		-16.492381	-6.175739	-39.418671
45070		-16.342716	-6.329403	-39.864035
45071		-16.378251	-6.532170	-40.224199
45072		-16.161352	-6.674982	-40.625176
45073		-15.758470	-6.866800	-41.001924
45074		-15.697989	-7.022232	-41.373225
45075		-15.579023	-7.132706	-41.742996
45076		-15.482480	-7.194011	-42.165566
45077		-15.195656	-7.319212	-42.596892
45078		-14.696252	-7.524647	-42.927077
45079		-14.500175	-7.666679	-43.281195
45080		-14.289985	-7.823570	-43.714210
45081		-13.935004	-8.012030	-44.124225
45082		-13.382302	-8.205590	-44.490579
45083		-13.114855	-8.357256	-44.852419
45084		-12.930875	-8.513861	-45.183572
45085		-12.776199	-8.667682	-45.523765
45086		-12.657285	-8.805678	-45.868077
45087		-12.484157	-8.934913	-46.124133
45088		-12.296424	-9.046899	-46.322355
45089		-12.079111	-9.136672	-46.500508
45090		-11.983581	-9.188891	-46.689306
45091		-11.994819	-9.220020	-46.888146
45092		-11.877434	-9.247661	-47.094792
45093		-11.874834	-9.256327	-47.301736
45094		-11.663959	-9.237794	-47.470371
45095		-11.551649	-9.188547	-47.665998
45096		-11.550677	-9.185019	-47.809455
45097		-11.461087	-9.186727	-47.928463
45098		-11.390681	-9.172608	-47.952801
45099		-11.397637	-9.130385	-47.909490
45100		-11.383668	-9.090717	-47.792000
45101		-11.495364	-9.018102	-47.655708
45102		-11.798106	-8.981507	-47.512166
45103		-12.053959	-9.015902	-47.403442
45104		-12.183778	-9.070266	-47.352376
45105		-12.089830	-9.126163	-47.341067
45106		-11.927030	-9.223970	-47.338978
45107		-11.640710	-9.350105	-47.377772
45108		-11.450008	-9.481810	-47.414792
45109		-11.449935	-9.590839	-47.446723
45110		-11.388790	-9.690987	-47.448863
45111		-11.181899	-9.806900	-47.483154
45112		-10.903893	-9.926728	-47.537463
45113		-10.642610	-10.027371	-47.601483
45114		-10.371544	-10.111305	-47.661785
45115		-10.064703	-10.182529	-47.734451
45116		-9.904364	-10.258234	-47.825151
45117		-9.851712	-10.326685	-47.887390
45118		-9.804922	-10.400355	-47.944857
45119		-9.831037	-10.461202	-47.979967
45120		-9.853637	-10.504973	-48.000902
45121		-9.871981	-10.523691	-48.016524
45122		-9.676541	-10.548088	-48.035639
45123		-9.403533	-10.561234	-48.101714
45124		-9.152224	-10.547595	-48.166852
45125		-8.846693	-10.565862	-48.271195
45126		-8.625383	-10.575802	-48.393774
45127		-8.301616	-10.587169	-48.508255
45128		-8.093885	-10.576389	-48.552353
45129		-7.855444	-10.577171	-48.527898
45130		-7.726675	-10.548574	-48.507791
45131		-7.833832	-10.510827	-48.510151
45132		-8.012992	-10.461016	-48.523127
45133		-7.990585	-10.451570	-48.514304
45134		-7.922086	-10.438834	-48.504879
45135		-7.969025	-10.415958	-48.521531
45136		-8.022464	-10.391780	-48.543703
45137		-8.001025	-10.368909	-48.547014
45138		-8.037627	-10.351983	-48.560434
45139		-8.069268	-10.329294	-48.581328
45140		-8.087304	-10.297075	-48.607954
45141		-8.123604	-10.268977	-48.650449
45142		-8.129846	-10.233384	-48.709882
45143		-8.114935	-10.190599	-48.781319
45144		-8.156271	-10.163999	-48.865952
45145		-8.205910	-10.172889	-48.938186
45146		-8.244864	-10.172322	-48.975619
45147		-8.305287	-10.125589	-48.995453
45148		-8.444606	-10.073613	-49.040769
45149		-8.517106	-10.031579	-49.086476
45150		-8.570261	-9.971908	-49.114283
45151		-8.629015	-9.899511	-49.161779
45152		-8.756937	-9.847122	-49.219458
45153		-8.865096	-9.807298	-49.250463
45154		-8.965649	-9.783190	-49.260206
45155		-9.127453	-9.803032	-49.282338
45156		-9.253376	-9.826903	-49.294615
45157		-9.309361	-9.850173	-49.260787
45158		-9.338717	-9.863403	-49.191054
45159		-9.417479	-9.848736	-49.099366
45160		-9.458800	-9.797192	-48.974060
45161		-9.447992	-9.751700	-48.816973
45162		-9.458498	-9.699926	-48.690165
45163		-9.545610	-9.674674	-48.610414
45164		-9.532890	-9.682697	-48.531249
45165		-9.476249	-9.682229	-48.438834
45166		-9.405220	-9.674462	-48.340024
45167		-9.414257	-9.666043	-48.251389
45168		-9.431737	-9.656352	-48.160210
45169		-9.401256	-9.621936	-48.050773
45170		-9.396995	-9.575671	-47.948319
45171		-9.405848	-9.547310	-47.837219
45172		-9.379999	-9.519384	-47.698485
45173		-9.336177	-9.479944	-47.526221
45174		-9.328722	-9.429053	-47.371751
45175		-9.367138	-9.385965	-47.248865
45176		-9.377482	-9.342343	-47.134814
45177		-9.281242	-9.309434	-47.018689
45178		-9.254856	-9.242893	-46.942932
45179		-9.333370	-9.183364	-46.887787
45180		-9.384763	-9.129767	-46.823047
45181		-9.380088	-9.083321	-46.759797
45182		-9.433472	-9.032560	-46.710168
45183		-9.462845	-8.968081	-46.658343
45184		-9.439578	-8.905261	-46.583032
45185		-9.404558	-8.817715	-46.457141
45186		-9.371893	-8.693705	-46.296097
45187		-9.359374	-8.540897	-46.115172
45188		-9.390650	-8.359934	-45.899023
45189		-9.483773	-8.175764	-45.673492
45190		-9.588699	-8.022227	-45.472093
45191		-9.741945	-7.872218	-45.286346
45192		-9.859151	-7.711671	-45.087393
45193		-9.844873	-7.533045	-44.809742
45194		-9.805063	-7.322688	-44.473568
45195		-9.842767	-7.093951	-44.143923
45196		-9.943851	-6.861606	-43.827823
45197		-10.066570	-6.621347	-43.526607
45198		-10.168763	-6.372534	-43.205422
45199		-10.221238	-6.105444	-42.857473
45200		-10.318418	-5.801029	-42.498211
45201		-10.593024	-5.405253	-42.152531
45202		-10.786142	-5.011061	-41.803470
45203		-10.773767	-4.621663	-41.403318
45204		-10.729844	-4.233243	-40.947118
45205		-10.601057	-3.880068	-40.524950
45206		-10.526803	-3.588965	-40.196347
45207		-10.367665	-3.320356	-39.934287
45208		-10.422130	-3.204986	-39.655424
45209		-11.160098	-2.903852	-39.409819
45210		-12.052803	-2.513093	-39.266857
45211		-12.482488	-2.197620	-39.205438
45212		-12.562073	-1.904641	-39.227221
45213		-12.566554	-1.583716	-39.329133
45214		-12.713163	-1.204023	-39.502109
45215		-12.942267	-0.762618	-39.697721
45216		-13.205807	-0.239532	-39.881705
45217		-13.582234	0.310752	-39.968620
45218		-13.605587	0.802268	-39.944931
45219		-13.667309	1.199853	-39.967268
45220		-14.077123	1.443662	-40.010765
45221		-14.402662	1.530158	-40.003112
45222		-14.361589	1.487207	-39.895899
45223		-14.119925	1.425638	-39.769199
45224		-13.989317	1.387024	-39.660898
45225		-13.894324	1.370583	-39.551371
45226		-13.755360	1.383657	-39.448303
45227		-13.622126	1.425976	-39.363101
45228		-13.525112	1.489950	-39.331052
45229		-13.455790	1.548858	-39.310234
45230		-13.600141	1.543136	-39.149262
45231		-13.543622	1.579364	-38.870654
45232		-13.561481	1.649775	-38.516719
45233		-13.832710	1.730318	-38.059318
45234		-14.237891	1.821023	-37.530137
45235		-14.882438	1.948436	-36.974384
45236		-15.400647	2.124473	-36.462863
45237		-15.949191	2.276667	-36.046130
45238		-16.412449	2.415804	-35.814900
45239		-16.940291	2.555873	-35.709819
45240		-17.219285	2.698725	-35.680892
45241		-17.306593	2.796641	-35.629682
45242		-17.189721	2.842333	-35.537888
45243		-16.994051	2.833058	-35.461243
45244		-16.835055	2.919926	-35.377012
45245		-16.726558	3.034946	-35.290333
45246		-16.815015	3.071327	-35.157217
45247		-16.702841	3.158895	-35.035970
45248		-17.152478	3.179232	-34.946045
45249		-17.743076	3.231785	-34.885663
45250		-17.755984	3.320361	-34.795614
45251		-17.647456	3.415502	-34.739124
45252		-17.844863	3.524126	-34.724528
45253		-18.063080	3.730782	-34.704579
45254		-18.124978	3.917805	-34.689822
45255		-18.176535	4.031602	-34.695457
45256		-18.168687	4.087231	-34.719972
45257		-18.095702	4.113320	-34.751472
45258		-18.043519	4.106103	-34.788110
45259		-18.039775	4.108444	-34.824914
45260		-18.029291	4.157907	-34.852120
45261		-18.040170	4.253153	-34.898190
45262		-18.122232	4.339952	-34.956288
45263		-18.182576	4.397559	-35.001841
45264		-18.225435	4.423485	-35.038598
45265		-18.274509	4.417979	-35.052814
45266		-18.366322	4.371106	-35.055950
45267		-18.426456	4.305371	-35.042137
45268		-18.461994	4.236242	-35.010156
45269		-18.516035	4.169003	-34.982646
45270		-18.575308	4.109778	-34.958160
45271		-18.640319	4.066918	-34.939237
45272		-18.724608	4.059137	-34.934190
45273		-18.836688	4.058328	-34.941741
45274		-18.889897	4.034207	-34.956116
45275		-18.987303	4.007643	-34.975551
45276		-19.272737	3.992867	-34.994883
45277		-19.632125	3.977697	-35.021963
45278		-19.722653	3.982900	-35.114739
45279		-19.756115	3.964025	-35.198109
45280		-19.688038	3.911054	-35.197715
45281		-19.548490	3.831667	-35.132640
45282		-19.649201	3.679221	-35.059761
45283		-19.848237	3.496602	-35.045823
45284		-20.001274	3.317310	-35.073047
45285		-20.063743	3.083212	-35.111154
45286		-20.167336	2.816568	-35.147592
45287		-20.303633	2.469258	-35.191348
45288		-20.104691	2.042773	-35.259879
45289		-19.696789	1.585894	-35.353293
45290		-19.259176	1.126382	-35.501828
45291		-19.108973	0.690881	-35.694441
45292		-18.880235	0.182163	-35.883750
45293		-18.385698	-0.402767	-36.047417
45294		-17.810240	-1.016704	-36.194585
45295		-17.342937	-1.618444	-36.362856
45296		-16.963770	-2.156002	-36.543505
45297		-16.708083	-2.689530	-36.763460
45298		-16.495750	-3.219812	-37.017656
45299		-16.153758	-3.677042	-37.289577
45300		-15.856959	-4.037057	-37.588850
45301		-15.774209	-4.361632	-37.926080
45302		-15.797222	-4.680411	-38.295934
45303		-15.734771	-4.967722	-38.711021
45304		-15.546617	-5.174472	-39.172136
45305		-15.335088	-5.380014	-39.635137
45306		-15.252758	-5.580127	-40.108608
45307		-15.125125	-5.754586	-40.552492
45308		-14.817522	-5.961522	-40.992676
45309		-14.553160	-6.216126	-41.431550
45310		-14.356111	-6.483639	-41.832229
45311		-14.131436	-6.717186	-42.222676
45312		-13.938576	-6.926931	-42.663937
45313		-13.812170	-7.110087	-43.082535
45314		-13.832441	-7.241007	-43.471273
45315		-13.876340	-7.396728	-43.852869
45316		-13.739021	-7.521256	-44.233612
45317		-13.667466	-7.591223	-44.614267
45318		-13.587557	-7.627549	-45.006184
45319		-13.505623	-7.675745	-45.377238
45320		-13.371025	-7.738175	-45.682614
45321		-13.278345	-7.785193	-45.973193
45322		-13.246003	-7.812874	-46.265325
45323		-13.237880	-7.814822	-46.535429
45324		-13.171727	-7.809699	-46.768392
45325		-13.134233	-7.770400	-46.994718
45326		-13.253842	-7.753280	-47.235544
45327		-13.267936	-7.764977	-47.460589
45328		-13.230839	-7.767393	-47.662802
45329		-13.268751	-7.742726	-47.851033
45330		-13.140676	-7.735605	-47.946611
45331		-12.980588	-7.711959	-47.959533
45332		-12.991107	-7.638944	-47.928342
45333		-13.087784	-7.538202	-47.878888
45334		-13.260986	-7.462668	-47.823216
45335		-13.335097	-7.411895	-47.781089
45336		-13.315414	-7.402551	-47.723771
45337		-13.173270	-7.453705	-47.626118
45338		-13.154046	-7.504011	-47.517266
45339		-13.262678	-7.582912	-47.392142
45340		-13.405714	-7.711794	-47.307109
45341		-13.334599	-7.906751	-47.269248
45342		-13.224433	-8.110643	-47.295065
45343		-12.999164	-8.310855	-47.370932
45344		-12.805249	-8.437918	-47.496778
45345		-12.435123	-8.570364	-47.630061
45346		-11.973752	-8.683191	-47.846873
45347		-11.786572	-8.750618	-48.067415
45348		-11.396139	-8.828476	-48.248450
45349		-11.034609	-8.922426	-48.418931
45350		-10.765149	-8.992934	-48.625378
45351		-10.740101	-9.025412	-48.839666
45352		-10.721350	-9.101376	-48.994159
45353		-10.608294	-9.164145	-49.116978
45354		-10.645345	-9.177449	-49.244980
45355		-10.607593	-9.145016	-49.347793
45356		-10.525214	-9.085856	-49.427208
45357		-10.469476	-9.010613	-49.481458
45358		-10.120056	-8.958205	-49.501651
45359		-9.787128	-8.930392	-49.545038
45360		-9.575664	-8.962017	-49.613918
45361		-9.687244	-9.005867	-49.708254
45362		-9.993650	-9.027202	-49.812006
45363		-10.142581	-9.017752	-49.872343
45364		-10.044560	-9.018244	-49.923074
45365		-9.967677	-9.028215	-49.999547
45366		-9.896032	-9.027296	-50.079000
45367		-9.762552	-9.031430	-50.131855
45368		-9.677434	-9.033484	-50.158783
45369		-9.681759	-9.030779	-50.182910
45370		-9.653085	-9.017059	-50.187030
45371		-9.642342	-9.009571	-50.174408
45372		-9.653000	-9.006352	-50.174475
45373		-9.629142	-8.995455	-50.182817
45374		-9.629401	-8.971711	-50.196265
45375		-9.657412	-8.965515	-50.228357
45376		-9.618020	-8.959361	-50.285094
45377		-9.540755	-8.932832	-50.353051
45378		-9.432618	-8.906589	-50.408486
45379		-9.409260	-8.893547	-50.463353
45380		-9.400105	-8.865426	-50.507517
45381		-9.456328	-8.806968	-50.560832
45382		-9.432210	-8.766220	-50.611311
45383		-9.472647	-8.729215	-50.657551
45384		-9.538567	-8.708288	-50.695635
45385		-9.678242	-8.698875	-50.756465
45386		-9.793164	-8.718049	-50.813766
45387		-9.812224	-8.722717	-50.842154
45388		-9.822737	-8.690673	-50.858226
45389		-9.893546	-8.669486	-50.879258
45390		-10.016195	-8.662738	-50.889414
45391		-10.060492	-8.675221	-50.859601
45392		-10.060742	-8.709479	-50.797427
45393		-10.125921	-8.728049	-50.748472
45394		-10.179056	-8.747962	-50.698600
45395		-10.223970	-8.759185	-50.658189
45396		-10.268567	-8.782947	-50.629970
45397		-10.327119	-8.797636	-50.619474
45398		-10.391218	-8.818773	-50.620414
45399		-10.442349	-8.824002	-50.610064
45400		-10.524131	-8.800310	-50.608288
45401		-10.528365	-8.785408	-50.580088
45402		-10.552412	-8.773668	-50.513296
45403		-10.610869	-8.739684	-50.401523
45404		-10.676945	-8.673189	-50.248795
45405		-10.611019	-8.588312	-50.034120
45406		-10.620304	-8.444462	-49.787185
45407		-10.588241	-8.271105	-49.511977
45408		-10.318337	-8.135651	-49.098953
45409		-10.031093	-8.012439	-48.579257
45410		-10.159874	-7.864669	-48.106877
45411		-10.606205	-7.733632	-47.722118
45412		-10.856241	-7.645844	-47.378023
45413		-11.006251	-7.552237	-47.037648
45414		-11.184513	-7.502087	-46.709612
45415		-11.230288	-7.462864	-46.338507
45416		-11.295612	-7.337636	-45.882860
45417		-11.489868	-7.116172	-45.390988
45418		-11.790952	-6.958822	-44.903950
45419		-12.074880	-6.843876	-44.371111
45420		-12.227294	-6.738641	-43.769236
45421		-12.287554	-6.555216	-43.146153
45422		-12.372953	-6.242991	-42.534059
45423		-12.553287	-5.919180	-41.966722
45424		-12.670711	-5.619526	-41.393325
45425		-12.668076	-5.324629	-40.687813
45426		-12.452869	-5.029163	-39.793698
45427		-12.019319	-4.747792	-38.892543
45428		-11.662342	-4.456352	-38.192347
45429		-11.491101	-4.198252	-37.677231
45430		-11.993905	-3.965374	-37.243461
45431		-12.747643	-3.608364	-36.939816
45432		-13.041815	-3.248379	-36.788768
45433		-13.057441	-2.861801	-36.591810
45434		-12.871326	-2.462311	-36.389350
45435		-12.963673	-2.066777	-36.298392
45436		-13.237840	-1.663732	-36.254764
45437		-13.251264	-1.274746	-36.085892
45438		-13.131690	-0.872080	-35.836133
45439		-13.174393	-0.468809	-35.642829
45440		-13.488073	-0.146371	-35.538338
45441		-13.700149	0.084296	-35.484653
45442		-13.710094	0.216478	-35.450863
45443		-13.770409	0.279816	-35.406112
45444		-13.679108	0.308362	-35.309000
45445		-13.584553	0.329776	-35.239706
45446		-13.573120	0.372903	-35.219993
45447		-13.595381	0.445256	-35.242010
45448		-13.611904	0.541480	-35.316867
45449		-13.527830	0.689230	-35.445243
45450		-13.389555	0.881773	-35.601865
45451		-13.183288	1.045796	-35.732187
45452		-13.482650	1.229837	-35.724661
45453		-13.859616	1.457123	-35.592842
45454		-14.177618	1.700767	-35.399377
45455		-14.506236	1.903556	-35.052417
45456		-14.274711	2.030233	-34.674383
45457		-14.121501	2.149572	-34.388507
45458		-14.162882	2.307792	-34.328080
45459		-14.637851	2.548879	-34.476891
45460		-15.362456	2.781400	-34.699601
45461		-15.953971	2.980744	-34.815610
45462		-16.153618	3.123798	-34.783071
45463		-16.106344	3.226312	-34.672487
45464		-16.450506	3.306940	-34.567023
45465		-17.072155	3.348742	-34.477035
45466		-17.423152	3.457655	-34.407352
45467		-17.518094	3.599369	-34.345551
45468		-17.806902	3.734836	-34.311689
45469		-18.132900	3.889380	-34.289113
45470		-18.275553	3.999264	-34.251856
45471		-18.352864	4.081611	-34.222429
45472		-18.537743	4.164541	-34.235682
45473		-18.883279	4.251915	-34.314884
45474		-19.034524	4.351309	-34.383583
45475		-18.953475	4.465193	-34.440883
45476		-18.906283	4.569750	-34.540038
45477		-18.924469	4.672716	-34.679488
45478		-18.981950	4.804772	-34.842522
45479		-19.051223	4.930288	-35.010193
45480		-19.065587	5.050570	-35.138439
45481		-19.052660	5.140739	-35.240542
45482		-19.081647	5.207630	-35.323874
45483		-19.145414	5.265790	-35.379916
45484		-19.197378	5.287537	-35.404071
45485		-19.217163	5.274358	-35.383783
45486		-19.230911	5.227876	-35.323727
45487		-19.275420	5.167723	-35.254060
45488		-19.368928	5.102437	-35.159741
45489		-19.451841	5.029372	-35.041766
45490		-19.611419	4.955422	-34.910370
45491		-19.846465	4.887540	-34.796951
45492		-19.895113	4.788358	-34.675630
45493		-19.888925	4.679728	-34.551969
45494		-19.771345	4.531751	-34.436818
45495		-19.553140	4.378077	-34.384530
45496		-19.703951	4.210314	-34.325613
45497		-19.643466	3.989191	-34.213792
45498		-19.552676	3.737358	-34.111083
45499		-19.629522	3.489590	-34.014397
45500		-19.660230	3.230776	-33.938540
45501		-19.662179	2.918614	-33.899618
45502		-19.567665	2.570986	-33.912097
45503		-19.568815	2.240666	-34.003580
45504		-19.654897	1.925324	-34.161144
45505		-19.500579	1.597185	-34.353058
45506		-19.363998	1.272371	-34.546621
45507		-19.398479	0.966776	-34.754529
45508		-19.408357	0.648203	-34.934813
45509		-19.390049	0.379342	-35.109240
45510		-19.285803	0.131733	-35.313495
45511		-19.014442	-0.180406	-35.584526
45512		-18.758592	-0.516104	-35.874737
45513		-18.614095	-1.008899	-36.255706
45514		-18.417145	-1.321639	-36.621804
45515		-18.403954	-1.700003	-36.964718
45516		-18.196637	-2.098031	-37.326036
45517		-17.934128	-2.499206	-37.697640
45518		-17.676441	-2.873845	-38.091856
45519		-17.336446	-3.239288	-38.524917
45520		-17.054652	-3.576921	-38.972547
45521		-16.791462	-3.875471	-39.420531
45522		-16.524085	-4.127297	-39.832925
45523		-16.304489	-4.309083	-40.215758
45524		-16.133962	-4.485095	-40.593291
45525		-15.937211	-4.682178	-40.971228
45526		-15.816971	-4.877836	-41.331007
45527		-15.692873	-5.087320	-41.642835
45528		-15.523633	-5.261994	-41.914170
45529		-15.360424	-5.396406	-42.194812
45530		-15.319840	-5.541344	-42.494996
45531		-15.231769	-5.706206	-42.769543
45532		-15.139570	-5.831341	-42.998615
45533		-15.012311	-5.902661	-43.241352
45534		-15.045334	-5.903482	-43.548125
45535		-15.058587	-5.891987	-43.888805
45536		-15.018348	-5.908155	-44.206430
45537		-14.937959	-5.923806	-44.545016
45538		-14.958080	-5.947023	-44.941948
45539		-14.926980	-5.951944	-45.312162
45540		-14.897554	-5.932649	-45.642449
45541		-14.827074	-5.909303	-45.954969
45542		-14.736847	-5.915987	-46.237704
45543		-14.756509	-5.960596	-46.498119
45544		-14.791738	-5.970384	-46.738512
45545		-14.729920	-5.969430	-46.949158
45546		-14.699466	-5.982789	-47.108830
45547		-14.549839	-5.998756	-47.179366
45548		-14.357969	-5.982188	-47.154872
45549		-14.398238	-5.966942	-47.056762
45550		-14.538100	-5.910154	-46.938992
45551		-14.737383	-5.835989	-46.813410
45552		-14.828487	-5.799900	-46.681629
45553		-14.855581	-5.765888	-46.619757
45554		-14.864247	-5.736661	-46.614017
45555		-14.773930	-5.737459	-46.621867
45556		-14.659358	-5.726815	-46.622532
45557		-14.644405	-5.700098	-46.621319
45558		-14.670798	-5.698092	-46.605787
45559		-14.690655	-5.724414	-46.558568
45560		-14.763676	-5.778455	-46.484092
45561		-14.837342	-5.877266	-46.418006
45562		-14.757815	-5.985425	-46.365133
45563		-14.586608	-6.150022	-46.332565
45564		-14.509304	-6.383605	-46.328710
45565		-14.444797	-6.532099	-46.411811
45566		-14.262822	-6.688416	-46.495745
45567		-13.999977	-6.858695	-46.587980
45568		-13.655869	-6.978671	-46.723343
45569		-13.471058	-7.120401	-46.911222
45570		-13.279650	-7.245307	-47.039246
45571		-12.817447	-7.377127	-47.142986
45572		-12.476358	-7.491042	-47.262931
45573		-12.302344	-7.563671	-47.443439
45574		-12.347182	-7.622194	-47.634328
45575		-12.332082	-7.696608	-47.788419
45576		-12.221289	-7.750295	-47.920406
45577		-12.163265	-7.781885	-48.064140
45578		-12.189446	-7.819024	-48.198121
45579		-12.185260	-7.832080	-48.282425
45580		-12.164146	-7.843526	-48.318741
45581		-12.080684	-7.873369	-48.327413
45582		-11.911162	-7.896397	-48.339911
45583		-11.793357	-7.909009	-48.364804
45584		-11.660304	-7.892609	-48.411293
45585		-11.425632	-7.898516	-48.534087
45586		-11.354195	-7.887355	-48.744465
45587		-11.062132	-7.897757	-48.966106
45588		-10.774256	-7.941706	-49.121220
45589		-10.499142	-7.950177	-49.235433
45590		-10.319460	-7.932146	-49.265980
45591		-10.236342	-7.901306	-49.214970
45592		-10.398992	-7.836517	-49.145783
45593		-10.569041	-7.755362	-49.076701
45594		-10.595725	-7.705017	-49.007340
45595		-10.681782	-7.681215	-48.987417
45596		-10.686097	-7.678003	-49.022835
45597		-10.557723	-7.677010	-49.075394
45598		-10.474582	-7.669747	-49.129175
45599		-10.496049	-7.659716	-49.163017
45600		-10.539229	-7.628876	-49.192372
45601		-10.610191	-7.587278	-49.223021
45602		-10.656260	-7.560550	-49.270766
45603		-10.601968	-7.560749	-49.321626
45604		-10.479258	-7.544721	-49.372641
45605		-10.394932	-7.528809	-49.432534
45606		-10.392670	-7.520809	-49.497630
45607		-10.355724	-7.514610	-49.553605
45608		-10.340625	-7.487832	-49.595525
45609		-10.385530	-7.474335	-49.650629
45610		-10.429600	-7.475863	-49.699202
45611		-10.465546	-7.471753	-49.728497
45612		-10.469949	-7.468638	-49.756507
45613		-10.497517	-7.460841	-49.789143
45614		-10.507826	-7.457405	-49.812363
45615		-10.575408	-7.481628	-49.824298
45616		-10.648446	-7.474673	-49.841728
45617		-10.731684	-7.482912	-49.844914
45618		-10.781556	-7.475887	-49.830347
45619		-10.845480	-7.481782	-49.810288
45620		-10.903718	-7.489860	-49.786452
45621		-10.943532	-7.485410	-49.751013
45622		-11.011841	-7.481384	-49.728517
45623		-11.055259	-7.496453	-49.721414
45624		-11.096649	-7.496658	-49.710487
45625		-11.126074	-7.486872	-49.695332
45626		-11.141606	-7.474644	-49.673826
45627		-11.173379	-7.466403	-49.636291
45628		-11.200067	-7.455199	-49.575716
45629		-11.233025	-7.451917	-49.507731
45630		-11.220085	-7.439936	-49.429083
45631		-11.183387	-7.418508	-49.330128
45632		-11.154188	-7.397820	-49.240163
45633		-11.158569	-7.388376	-49.172818
45634		-11.151565	-7.383232	-49.085090
45635		-11.067395	-7.353593	-48.945306
45636		-10.965752	-7.323817	-48.761415
45637		-10.919546	-7.279777	-48.533236
45638		-10.806868	-7.220864	-48.229481
45639		-10.647075	-7.129994	-47.849539
45640		-10.504821	-6.988529	-47.466061
45641		-10.460505	-6.881203	-47.089880
45642		-10.435076	-6.808085	-46.675732
45643		-10.353114	-6.743149	-46.153754
45644		-10.281718	-6.603431	-45.579291
45645		-10.323039	-6.406354	-44.966892
45646		-10.378173	-6.259779	-44.307268
45647		-10.359424	-6.187928	-43.650988
45648		-10.406330	-6.136368	-43.073055
45649		-10.535038	-6.113781	-42.573351
45650		-10.614796	-6.077044	-42.095582
45651		-10.610065	-5.972907	-41.621541
45652		-10.558979	-5.811410	-41.162735
45653		-10.518452	-5.579743	-40.747358
45654		-10.540128	-5.284325	-40.389688
45655		-10.583801	-4.970268	-40.078425
45656		-10.687098	-4.634785	-39.820366
45657		-10.851832	-4.268236	-39.579031
45658		-10.900421	-3.871618	-39.248262
45659		-10.960723	-3.414128	-38.850830
45660		-11.027493	-2.869096	-38.431492
45661		-10.947640	-2.309981	-37.987589
45662		-10.516719	-1.802717	-37.553480
45663		-10.224693	-1.386709	-37.161070
45664		-11.459216	-0.851251	-36.897728
45665		-12.388784	-0.302103	-36.832311
45666		-12.724540	0.060660	-36.802130
45667		-12.659888	0.341056	-36.729544
45668		-12.570439	0.575320	-36.703079
45669		-12.713244	0.766357	-36.755408
45670		-12.735052	0.885943	-36.825892
45671		-12.630930	0.969918	-36.873912
45672		-12.545787	1.050742	-36.896153
45673		-12.555203	1.148309	-36.900691
45674		-12.622543	1.252941	-36.898531
45675		-12.706827	1.346189	-36.900723
45676		-12.712354	1.436715	-36.919262
45677		-12.639303	1.558871	-36.972586
45678		-12.510014	1.711921	-37.043114
45679		-12.365102	1.860852	-37.085215
45680		-12.352924	1.991913	-37.072261
45681		-12.621490	2.104724	-36.954454
45682		-12.845517	2.234670	-36.745950
45683		-13.104095	2.415564	-36.498655
45684		-13.282008	2.624343	-36.155875
45685		-13.296962	2.871058	-35.783417
45686		-13.586891	3.163806	-35.486379
45687		-14.083731	3.488566	-35.289651
45688		-14.748980	3.816338	-35.092474
45689		-15.038527	4.093899	-34.875675
45690		-15.121717	4.304456	-34.677342
45691		-15.165443	4.515835	-34.545176
45692		-15.141726	4.757183	-34.620566
45693		-15.485689	4.990330	-34.741850
45694		-15.912976	5.107800	-34.800288
45695		-16.230318	5.191179	-34.801482
45696		-16.144106	5.309921	-34.813801
45697		-16.336895	5.368052	-34.790401
45698		-16.529831	5.408840	-34.706658
45699		-16.778902	5.477204	-34.614941
45700		-17.180880	5.545425	-34.536261
45701		-17.552553	5.627807	-34.427311
45702		-17.732044	5.704656	-34.321545
45703		-17.839120	5.789720	-34.254965
45704		-17.957642	5.897440	-34.242593
45705		-18.226565	6.018119	-34.262281
45706		-18.413748	6.162743	-34.279281
45707		-18.497016	6.332396	-34.328899
45708		-18.755309	6.493712	-34.468348
45709		-19.079227	6.659551	-34.652318
45710		-19.132906	6.840952	-34.811999
45711		-19.078931	7.006159	-34.980770
45712		-19.111682	7.188901	-35.171881
45713		-19.265312	7.358200	-35.382130
45714		-19.433617	7.522747	-35.631889
45715		-19.534051	7.700409	-35.883535
45716		-19.652114	7.878918	-36.128364
45717		-19.666558	8.016780	-36.314504
45718		-19.614024	8.108448	-36.441929
45719		-19.591056	8.179369	-36.521615
45720		-19.605724	8.215209	-36.554002
45721		-19.578723	8.213960	-36.534008
45722		-19.551474	8.190814	-36.481510
45723		-19.544623	8.153707	-36.422514
45724		-19.535948	8.117752	-36.374840
45725		-19.530399	8.083004	-36.336344
45726		-19.515262	8.056370	-36.310336
45727		-19.480629	8.030587	-36.291230
45728		-19.498568	8.007629	-36.292802
45729		-19.543202	7.973526	-36.304871
45730		-19.550723	7.912131	-36.277481
45731		-19.536679	7.834171	-36.199651
45732		-19.605049	7.743770	-36.091617
45733		-19.720501	7.653033	-35.986089
45734		-19.715192	7.546926	-35.872162
45735		-19.682981	7.437251	-35.768185
45736		-19.694927	7.327616	-35.687985
45737		-19.577902	7.217712	-35.617685
45738		-19.462926	7.163228	-35.577603
45739		-19.609087	7.159312	-35.597122
45740		-19.691830	7.148213	-35.610466
45741		-19.609378	7.120061	-35.592258
45742		-19.572783	7.102208	-35.588722
45743		-19.615581	7.113753	-35.604258
45744		-19.664753	7.128694	-35.632238
45745		-19.689812	7.138883	-35.651404
45746		-19.698628	7.130137	-35.660086
45747		-19.678324	7.108558	-35.662164
45748		-19.673827	7.079209	-35.652245
45749		-19.618255	7.021224	-35.608287
45750		-19.635931	6.950509	-35.529507
45751		-19.725802	6.845531	-35.451290
45752		-20.119761	6.722697	-35.346886
45753		-20.272602	6.616410	-35.264402
45754		-20.266048	6.510333	-35.266654
45755		-20.141782	6.336477	-35.338139
45756		-20.077154	6.095182	-35.441562
45757		-19.949966	5.732733	-35.524245
45758		-19.825489	5.281082	-35.594515
45759		-19.622939	4.794189	-35.636242
45760		-19.537394	4.269452	-35.639509
45761		-19.366528	3.699435	-35.596407
45762		-19.129783	3.157521	-35.534210
45763		-18.619934	2.576248	-35.534278
45764		-18.386639	1.927907	-35.586719
45765		-18.046172	1.192212	-35.706931
45766		-17.631970	0.613672	-35.871783
45767		-17.495497	0.118265	-36.057615
45768		-17.471705	-0.383238	-36.305418
45769		-17.109200	-0.937322	-36.543493
45770		-16.750573	-1.460628	-36.787342
45771		-16.503403	-1.946508	-37.009103
45772		-16.252349	-2.391992	-37.220494
45773		-15.988876	-2.783870	-37.433327
45774		-15.750027	-3.146743	-37.680985
45775		-15.498138	-3.490860	-37.958678
45776		-15.240475	-3.820348	-38.262231
45777		-15.134218	-4.109372	-38.603453
45778		-15.037905	-4.371130	-38.979417
45779		-15.021535	-4.605357	-39.393995
45780		-14.975370	-4.783964	-39.822228
45781		-14.890575	-4.941652	-40.281065
45782		-14.828153	-5.099304	-40.776933
45783		-14.836966	-5.208534	-41.268412
45784		-14.867414	-5.295249	-41.796413
45785		-14.837748	-5.428584	-42.305583
45786		-14.640207	-5.625309	-42.778461
45787		-14.480395	-5.865974	-43.219045
45788		-14.345981	-6.099786	-43.593714
45789		-14.107856	-6.289199	-43.892487
45790		-13.885120	-6.413057	-44.184910
45791		-13.621249	-6.519798	-44.441330
45792		-13.439587	-6.576465	-44.717624
45793		-13.418436	-6.620391	-45.041299
45794		-13.418991	-6.697273	-45.399111
45795		-13.330498	-6.794194	-45.750729
45796		-13.304054	-6.874297	-46.113546
45797		-13.362596	-6.939653	-46.455535
45798		-13.362990	-6.984743	-46.739964
45799		-13.259382	-7.002851	-46.942766
45800		-13.053682	-7.042821	-47.043797
45801		-12.926485	-7.064149	-47.112600
45802		-13.007467	-7.054563	-47.202361
45803		-13.094835	-7.022350	-47.274327
45804		-13.056188	-6.945188	-47.286025
45805		-13.062914	-6.827429	-47.272004
45806		-13.158087	-6.700966	-47.274416
45807		-13.246671	-6.633560	-47.240653
45808		-13.361583	-6.622848	-47.146865
45809		-13.525010	-6.658295	-47.018789
45810		-13.764285	-6.725261	-46.889224
45811		-13.922796	-6.859524	-46.801242
45812		-13.750270	-7.060841	-46.769412
45813		-13.564503	-7.278049	-46.784416
45814		-13.438149	-7.472283	-46.880417
45815		-13.274517	-7.609109	-47.005695
45816		-13.006199	-7.736596	-47.119169
45817		-12.746996	-7.892549	-47.229066
45818		-12.513449	-8.076736	-47.409239
45819		-12.278236	-8.186791	-47.530551
45820		-12.028309	-8.289796	-47.640321
45821		-11.871607	-8.366752	-47.782746
45822		-11.661354	-8.460439	-47.923517
45823		-11.550761	-8.535749	-48.056742
45824		-11.465397	-8.590573	-48.167872
45825		-11.330657	-8.605515	-48.279355
45826		-11.246509	-8.593856	-48.394772
45827		-11.214376	-8.576963	-48.489805
45828		-11.175222	-8.570512	-48.547508
45829		-11.117785	-8.567734	-48.617902
45830		-11.134175	-8.581542	-48.672672
45831		-11.133957	-8.576473	-48.679365
45832		-11.096638	-8.570256	-48.675876
45833		-11.101600	-8.559805	-48.678072
45834		-10.966384	-8.516372	-48.692439
45835		-10.795528	-8.450573	-48.729157
45836		-10.745890	-8.405273	-48.793381
45837		-10.573721	-8.389918	-48.868082
45838		-10.304403	-8.408982	-48.919917
45839		-10.098144	-8.439408	-48.975163
45840		-10.040556	-8.447426	-49.007708
45841		-10.048300	-8.446140	-49.018096
45842		-10.080464	-8.415774	-48.999675
45843		-10.105920	-8.369941	-48.970865
45844		-10.125255	-8.324597	-48.943078
45845		-10.151756	-8.287708	-48.939472
45846		-10.177792	-8.255902	-48.959448
45847		-10.121737	-8.234502	-48.996110
45848		-10.067362	-8.211437	-49.041711
45849		-10.015518	-8.181514	-49.093823
45850		-9.978508	-8.142240	-49.147344
45851		-9.929132	-8.086569	-49.203278
45852		-9.904761	-8.038716	-49.261843
45853		-9.936899	-7.998673	-49.329713
45854		-9.979091	-7.985741	-49.406958
45855		-9.971025	-7.984567	-49.453712
45856		-9.951417	-7.967205	-49.487641
45857		-9.964139	-7.947261	-49.517693
45858		-10.002013	-7.937457	-49.543044
45859		-10.037821	-7.948667	-49.549727
45860		-10.086871	-7.978509	-49.567704
45861		-10.081502	-7.997390	-49.580108
45862		-10.082799	-7.997245	-49.579090
45863		-10.072975	-7.998430	-49.562646
45864		-10.009142	-7.983368	-49.528741
45865		-9.950934	-7.953780	-49.488817
45866		-10.026377	-7.948209	-49.466635
45867		-10.088414	-7.971096	-49.439880
45868		-10.086125	-7.985176	-49.400702
45869		-10.043042	-7.974843	-49.356557
45870		-10.032286	-7.942380	-49.303225
45871		-10.054323	-7.875525	-49.238564
45872		-10.046380	-7.812998	-49.177721
45873		-10.089063	-7.779693	-49.158746
45874		-10.158867	-7.755730	-49.178714
45875		-10.155063	-7.722386	-49.222344
45876		-10.144703	-7.690114	-49.277205
45877		-10.120305	-7.677934	-49.301303
45878		-10.046526	-7.697013	-49.271804
45879		-10.014001	-7.722531	-49.232074
45880		-9.980542	-7.750803	-49.151513
45881		-9.898166	-7.769511	-49.006748
45882		-9.805783	-7.758913	-48.806148
45883		-9.735407	-7.706940	-48.554081
45884		-9.703753	-7.603237	-48.245016
45885		-9.691793	-7.432817	-47.890671
45886		-9.722167	-7.224142	-47.514966
45887		-9.926937	-7.014168	-47.060954
45888		-10.450948	-6.772439	-46.514036
45889		-10.953360	-6.487004	-45.834281
45890		-11.322753	-6.176934	-45.100378
45891		-11.614438	-5.880431	-44.441774
45892		-11.871826	-5.624503	-43.862691
45893		-12.038066	-5.413218	-43.331032
45894		-12.097095	-5.196405	-42.818412
45895		-12.074767	-4.932328	-42.299959
45896		-12.031370	-4.611643	-41.767797
45897		-12.005188	-4.235290	-41.201310
45898		-11.957559	-3.768588	-40.642943
45899		-11.768461	-3.257378	-40.041984
45900		-11.495813	-2.731870	-39.350423
45901		-11.391478	-2.197389	-38.718748
45902		-11.413019	-1.689682	-38.205228
45903		-11.455006	-1.253996	-37.758370
45904		-11.128816	-0.884860	-37.348564
45905		-10.649669	-0.585568	-36.978004
45906		-10.045619	-0.342785	-36.650680
45907		-10.205962	-0.185971	-36.357035
45908		-11.322637	0.187866	-36.192606
45909		-12.012673	0.598421	-36.082410
45910		-12.163410	0.885756	-35.962616
45911		-12.101453	1.099151	-35.891053
45912		-12.153865	1.261074	-35.927338
45913		-12.342265	1.434770	-36.024577
45914		-12.365644	1.660628	-36.126996
45915		-12.332951	1.985502	-36.194981
45916		-12.354943	2.427200	-36.192323
45917		-12.304913	2.885376	-36.122316
45918		-12.227308	3.324081	-36.107944
45919		-12.519828	3.698632	-36.166097
45920		-12.876611	3.980828	-36.270193
45921		-13.006064	4.171341	-36.357297
45922		-12.867499	4.300655	-36.421555
45923		-12.875980	4.410157	-36.443457
45924		-12.932031	4.485690	-36.426655
45925		-12.997777	4.561956	-36.395717
45926		-13.032381	4.628555	-36.353163
45927		-12.980821	4.671157	-36.309156
45928		-12.906557	4.717257	-36.295891
45929		-12.817817	4.787829	-36.308097
45930		-12.739600	4.875466	-36.339283
45931		-12.602023	4.946863	-36.344126
45932		-12.712978	5.016547	-36.206641
45933		-12.509099	5.065607	-35.888062
45934		-12.488853	5.102575	-35.439212
45935		-12.641450	5.147280	-34.930916
45936		-12.578720	5.178339	-34.407713
45937		-12.503095	5.166907	-33.974449
45938		-12.634917	5.144890	-33.619132
45939		-12.933233	5.124917	-33.286405
45940		-12.854518	5.090617	-33.077191
45941		-13.038916	5.090810	-33.010924
45942		-13.638446	5.163274	-33.172194
45943		-14.635489	5.252110	-33.372673
45944		-15.245130	5.310905	-33.501413
45945		-15.178837	5.366156	-33.507069
45946		-14.804465	5.411031	-33.488456
45947		-14.731066	5.443531	-33.477986
45948		-14.876626	5.441790	-33.496811
45949		-15.309598	5.462078	-33.527193
45950		-15.846669	5.513374	-33.494885
45951		-16.326384	5.544348	-33.435773
45952		-16.660011	5.612479	-33.366681
45953		-16.781246	5.682508	-33.259651
45954		-16.863362	5.745631	-33.171754
45955		-17.056247	5.834405	-33.110306
45956		-17.257494	5.927768	-33.068834
45957		-17.431114	6.038387	-33.073475
45958		-17.784044	6.171913	-33.138959
45959		-18.090775	6.275288	-33.220384
45960		-18.088605	6.355278	-33.306420
45961		-17.926531	6.445525	-33.433371
45962		-17.942834	6.561758	-33.654590
45963		-18.057127	6.713884	-33.929592
45964		-18.202692	6.880805	-34.214003
45965		-18.354341	7.055472	-34.511170
45966		-18.511025	7.245627	-34.818399
45967		-18.746119	7.435905	-35.144262
45968		-18.970622	7.598956	-35.457362
45969		-19.068610	7.734647	-35.719968
45970		-19.122059	7.835130	-35.907337
45971		-19.237231	7.905030	-36.032578
45972		-19.403540	7.939298	-36.102132
45973		-19.487530	7.933171	-36.119543
45974		-19.518227	7.881092	-36.098864
45975		-19.600822	7.797530	-36.063393
45976		-19.662657	7.690364	-36.020309
45977		-19.678489	7.574851	-35.981385
45978		-19.658000	7.463234	-35.946225
45979		-19.620326	7.347981	-35.926232
45980		-19.501036	7.255178	-35.927921
45981		-19.645300	7.196654	-35.966778
45982		-19.794992	7.118866	-35.957896
45983		-19.733117	7.028588	-35.925596
45984		-19.647541	6.957581	-35.935513
45985		-19.899938	6.918220	-35.983244
45986		-20.060771	6.848902	-36.026442
45987		-20.049477	6.743109	-36.059602
45988		-20.002967	6.606803	-36.113115
45989		-20.182244	6.446174	-36.204255
45990		-20.387128	6.237213	-36.335000
45991		-20.449515	5.972339	-36.475417
45992		-20.394245	5.667322	-36.592510
45993		-20.467055	5.322820	-36.702314
45994		-20.559165	4.925628	-36.813428
45995		-20.637499	4.471029	-36.911843
45996		-20.537519	3.971645	-36.934863
45997		-20.184006	3.475954	-36.858540
45998		-19.775511	2.999054	-36.715582
45999		-19.410007	2.543419	-36.510024
46000		-19.149530	2.085640	-36.225757
46001		-19.180951	1.614420	-35.931505
46002		-19.073681	1.113843	-35.683848
46003		-18.887876	0.634324	-35.548827
46004		-18.661733	0.134021	-35.614865
46005		-18.259785	-0.447790	-35.754820
46006		-18.297632	-1.136125	-35.943129
46007		-18.140995	-1.614545	-36.133155
46008		-17.825180	-2.087763	-36.315414
46009		-17.705949	-2.571691	-36.523085
46010		-17.355859	-3.065841	-36.768718
46011		-17.094426	-3.541210	-37.045605
46012		-16.809047	-4.008887	-37.402670
46013		-16.620812	-4.432808	-37.806484
46014		-16.278330	-4.835779	-38.195610
46015		-15.971202	-5.182495	-38.574116
46016		-15.720146	-5.465583	-38.937942
46017		-15.524266	-5.680381	-39.300502
46018		-15.304153	-5.818734	-39.621930
46019		-15.107256	-5.934556	-39.932719
46020		-14.968716	-6.028055	-40.244961
46021		-14.877900	-6.091465	-40.531299
46022		-14.830886	-6.150354	-40.813455
46023		-14.669437	-6.232625	-41.063906
46024		-14.515852	-6.329670	-41.279995
46025		-14.493032	-6.391955	-41.443458
46026		-14.466860	-6.415500	-41.611032
46027		-14.431196	-6.423245	-41.790822
46028		-14.315407	-6.384561	-42.030420
46029		-14.343129	-6.323111	-42.357093
46030		-14.407055	-6.316347	-42.728608
46031		-14.307511	-6.348498	-43.109252
46032		-14.285290	-6.403631	-43.498982
46033		-14.211562	-6.464078	-43.868798
46034		-14.195085	-6.507477	-44.207873
46035		-14.122874	-6.548449	-44.491171
46036		-14.059641	-6.566799	-44.764512
46037		-14.011418	-6.545410	-45.018799
46038		-13.966257	-6.523890	-45.264442
46039		-13.933868	-6.531423	-45.471865
46040		-13.720610	-6.542299	-45.636281
46041		-13.729367	-6.553230	-45.810963
46042		-13.771789	-6.563283	-45.956785
46043		-13.540133	-6.581574	-46.013106
46044		-13.584867	-6.558423	-46.015739
46045		-13.693661	-6.465767	-45.969105
46046		-13.898670	-6.307906	-45.908612
46047		-14.044437	-6.093466	-45.851465
46048		-14.216184	-5.899370	-45.835297
46049		-14.378713	-5.802936	-45.851887
46050		-14.306834	-5.794909	-45.868233
46051		-14.303937	-5.875350	-45.827188
46052		-14.346901	-5.993412	-45.716958
46053		-14.426225	-6.111368	-45.608984
46054		-14.442833	-6.290830	-45.526603
46055		-14.373907	-6.457521	-45.467519
46056		-14.389390	-6.634915	-45.459611
46057		-14.330678	-6.810566	-45.531680
46058		-14.187419	-6.933588	-45.686439
46059		-14.082887	-7.037412	-45.872999
46060		-13.893865	-7.135365	-46.008111
46061		-13.352108	-7.222767	-46.103151
46062		-12.963683	-7.322247	-46.213560
46063		-12.892638	-7.416088	-46.356661
46064		-12.918474	-7.504329	-46.493433
46065		-12.897146	-7.575382	-46.599951
46066		-12.844121	-7.643386	-46.711728
46067		-12.762905	-7.707321	-46.827660
46068		-12.715911	-7.739890	-46.982641
46069		-12.677908	-7.743868	-47.137494
46070		-12.684356	-7.726877	-47.250409
46071		-12.617353	-7.705465	-47.322684
46072		-12.532431	-7.675186	-47.394609
46073		-12.438144	-7.659439	-47.481471
46074		-12.251071	-7.683851	-47.569860
46075		-12.129395	-7.740673	-47.666720
46076		-11.952506	-7.814168	-47.811410
46077		-11.736330	-7.902310	-47.974978
46078		-11.558999	-7.957003	-48.130558
46079		-11.393002	-7.973171	-48.243955
46080		-11.300339	-7.971727	-48.295481
46081		-11.253630	-7.965660	-48.291199
46082		-11.116167	-7.948677	-48.269916
46083		-11.123061	-7.909903	-48.245373
46084		-11.273337	-7.855398	-48.206723
46085		-11.369212	-7.831614	-48.175830
46086		-11.361902	-7.819539	-48.167419
46087		-11.300440	-7.796990	-48.175046
46088		-11.273727	-7.763017	-48.212073
46089		-11.227701	-7.744162	-48.257887
46090		-11.194831	-7.722539	-48.302968
46091		-11.160802	-7.690151	-48.356425
46092		-11.108840	-7.653283	-48.417516
46093		-11.048929	-7.608705	-48.479332
46094		-10.972011	-7.550752	-48.548598
46095		-10.836072	-7.504228	-48.599738
46096		-10.629394	-7.456641	-48.668103
46097		-10.567107	-7.437435	-48.733981
46098		-10.498107	-7.446755	-48.779974
46099		-10.490345	-7.463465	-48.806412
46100		-10.478393	-7.477541	-48.806556
46101		-10.451231	-7.485553	-48.778692
46102		-10.446534	-7.481759	-48.733533
46103		-10.459431	-7.466485	-48.684545
46104		-10.453176	-7.449710	-48.633741
46105		-10.417220	-7.462579	-48.594841
46106		-10.382296	-7.477921	-48.548223
46107		-10.339223	-7.482079	-48.480991
46108		-10.339183	-7.469494	-48.417485
46109		-10.324981	-7.460724	-48.352672
46110		-10.298588	-7.454149	-48.289984
46111		-10.293314	-7.446775	-48.237524
46112		-10.299226	-7.435699	-48.200869
46113		-10.336048	-7.402358	-48.204382
46114		-10.320735	-7.357702	-48.216215
46115		-10.262599	-7.354690	-48.219214
46116		-10.243462	-7.410563	-48.210542
46117		-10.281254	-7.487434	-48.202055
46118		-10.294580	-7.567648	-48.189770
46119		-10.226701	-7.638938	-48.145255
46120		-10.148348	-7.683762	-48.072528
46121		-10.093439	-7.719657	-48.005154
46122		-10.124709	-7.741680	-47.957389
46123		-10.196079	-7.745122	-47.905050
46124		-10.158078	-7.742473	-47.824877
46125		-10.137353	-7.744050	-47.717781
46126		-10.200167	-7.736756	-47.570026
46127		-10.288046	-7.678108	-47.344146
46128		-10.382653	-7.560338	-47.044166
46129		-10.459985	-7.412509	-46.720788
46130		-10.601104	-7.300280	-46.418412
46131		-10.781386	-7.209195	-46.116757
46132		-10.866366	-7.120958	-45.790072
46133		-10.815847	-6.991825	-45.421578
46134		-10.768534	-6.806948	-45.058317
46135		-10.801123	-6.683541	-44.720061
46136		-10.840151	-6.633358	-44.331312
46137		-10.844481	-6.614152	-43.845950
46138		-10.872536	-6.564295	-43.391393
46139		-11.122205	-6.472461	-43.069262
46140		-11.321119	-6.385257	-42.819095
46141		-11.365718	-6.271940	-42.559625
46142		-11.302567	-6.098965	-42.259933
46143		-11.163694	-5.858676	-41.944191
46144		-11.066351	-5.543344	-41.625753
46145		-11.070853	-5.166206	-41.311426
46146		-11.130128	-4.778996	-41.006325
46147		-11.195072	-4.424510	-40.714787
46148		-11.413093	-4.083108	-40.434042
46149		-11.645306	-3.777191	-40.124201
46150		-11.851895	-3.484212	-39.767236
46151		-12.019245	-3.222671	-39.423542
46152		-12.063444	-3.015931	-39.120148
46153		-12.061358	-2.821277	-38.876009
46154		-11.904833	-2.604339	-38.612950
46155		-11.626280	-2.418933	-38.260249
46156		-12.068474	-2.131191	-37.908424
46157		-12.801765	-1.696454	-37.630890
46158		-13.076428	-1.297274	-37.388476
46159		-13.069983	-0.933645	-37.190957
46160		-13.001515	-0.607877	-37.101360
46161		-13.101674	-0.308384	-37.126362
46162		-13.223308	-0.036775	-37.239140
46163		-13.216747	0.195645	-37.428785
46164		-13.394270	0.390012	-37.687730
46165		-13.572730	0.521251	-37.876574
46166		-13.469907	0.592396	-37.987705
46167		-13.343223	0.649376	-38.045464
46168		-13.392263	0.717380	-38.083513
46169		-13.532979	0.788093	-38.115690
46170		-13.652266	0.863563	-38.162516
46171		-13.653738	0.956023	-38.233965
46172		-13.519731	1.059899	-38.313229
46173		-13.357841	1.166709	-38.361953
46174		-13.421996	1.278854	-38.322420
46175		-13.312099	1.454992	-38.224743
46176		-13.436776	1.676380	-38.090880
46177		-13.536711	1.929068	-37.933060
46178		-13.786710	2.188488	-37.796636
46179		-14.049827	2.473049	-37.650884
46180		-14.347139	2.741503	-37.458444
46181		-14.676283	3.007169	-37.232520
46182		-14.904580	3.263366	-37.003213
46183		-14.881903	3.477593	-36.814285
46184		-14.766166	3.682065	-36.674697
46185		-14.642231	3.899477	-36.647074
46186		-14.743847	4.120548	-36.685705
46187		-15.071827	4.324601	-36.765334
46188		-15.297956	4.526203	-36.811073
46189		-15.308237	4.683417	-36.804787
46190		-15.211312	4.801414	-36.788838
46191		-15.235060	4.889833	-36.735791
46192		-15.460358	4.958322	-36.666720
46193		-15.676374	5.032661	-36.598204
46194		-15.847298	5.102534	-36.543349
46195		-16.020292	5.218109	-36.531055
46196		-16.386062	5.358663	-36.544082
46197		-16.678544	5.496963	-36.558325
46198		-17.003141	5.658493	-36.605717
46199		-17.313648	5.850803	-36.726724
46200		-17.790894	6.041145	-36.921173
46201		-18.304403	6.239207	-37.128524
46202		-18.705315	6.445487	-37.340952
46203		-18.981119	6.654556	-37.585604
46204		-18.980296	6.833938	-37.829626
46205		-19.046425	7.020172	-38.101481
46206		-19.180799	7.193429	-38.402426
46207		-19.374752	7.349709	-38.692201
46208		-19.454572	7.482682	-38.912760
46209		-19.420388	7.572510	-39.046709
46210		-19.409564	7.612806	-39.125300
46211		-19.416192	7.618481	-39.151586
46212		-19.444427	7.602486	-39.130540
46213		-19.478342	7.560333	-39.081814
46214		-19.475483	7.506978	-39.016894
46215		-19.446249	7.455185	-38.961436
46216		-19.452743	7.406144	-38.917089
46217		-19.473819	7.362552	-38.878991
46218		-19.497932	7.317923	-38.831742
46219		-19.535293	7.273334	-38.789596
46220		-19.561609	7.224203	-38.754658
46221		-19.618694	7.183876	-38.732616
46222		-19.668655	7.153428	-38.709155
46223		-19.684185	7.126761	-38.692550
46224		-19.675353	7.097668	-38.682428
46225		-19.671052	7.067253	-38.671396
46226		-19.714645	7.030946	-38.658432
46227		-19.747687	6.987499	-38.631197
46228		-19.771742	6.948097	-38.592169
46229		-19.776607	6.918903	-38.537544
46230		-19.736593	6.873667	-38.464758
46231		-19.646828	6.794889	-38.363960
46232		-19.519641	6.694960	-38.232296
46233		-19.411427	6.582971	-38.068041
46234		-19.306881	6.468279	-37.896642
46235		-19.004047	6.357130	-37.743386
46236		-19.172975	6.243367	-37.618222
46237		-19.111583	6.108397	-37.529825
46238		-18.901207	5.916860	-37.494927
46239		-18.661565	5.618701	-37.481412
46240		-18.513167	5.298970	-37.456052
46241		-18.475394	4.965570	-37.449846
46242		-18.416950	4.615895	-37.452667
46243		-18.213580	4.218166	-37.430210
46244		-18.112689	3.777823	-37.380345
46245		-17.927857	3.299475	-37.316289
46246		-17.709134	2.810198	-37.220835
46247		-17.473223	2.355935	-37.153385
46248		-17.142686	1.851133	-37.126872
46249		-16.748891	1.284152	-37.116621
46250		-16.377672	0.682086	-37.152759
46251		-16.099719	0.019239	-37.239201
46252		-16.042547	-0.536740	-37.364082
46253		-16.334455	-1.122030	-37.591454
46254		-16.282885	-1.752770	-37.941742
46255		-16.249242	-2.350743	-38.356384
46256		-16.090019	-2.951673	-38.777987
46257		-15.761195	-3.520324	-39.192201
46258		-15.450671	-4.012443	-39.620536
46259		-15.141476	-4.436554	-40.013390
46260		-14.730246	-4.793796	-40.366480
46261		-14.311271	-5.119621	-40.696800
46262		-13.883696	-5.453916	-41.039279
46263		-13.558338	-5.749837	-41.365326
46264		-13.316467	-6.011226	-41.682480
46265		-13.127067	-6.279091	-41.996901
46266		-12.898929	-6.541321	-42.298794
46267		-12.766082	-6.766121	-42.603488
46268		-12.861999	-6.933898	-42.927329
46269		-12.824536	-7.066334	-43.258110
46270		-12.767391	-7.180107	-43.637611
46271		-12.700539	-7.314251	-44.081572
46272		-12.609186	-7.472423	-44.515665
46273		-12.504067	-7.627347	-44.908695
46274		-12.387415	-7.751505	-45.277356
46275		-12.311597	-7.862167	-45.652696
46276		-12.212046	-7.959186	-46.021700
46277		-12.151840	-8.014530	-46.361967
46278		-12.090996	-8.042089	-46.699234
46279		-12.059960	-8.048677	-47.018758
46280		-12.006213	-8.035463	-47.303443
46281		-11.943302	-7.996472	-47.557672
46282		-11.883689	-7.976466	-47.783330
46283		-11.833443	-8.000745	-47.962023
46284		-11.892908	-8.016712	-48.100854
46285		-11.968374	-8.003474	-48.162157
46286		-11.913195	-7.981678	-48.099229
46287		-11.987714	-7.913666	-48.003157
46288		-12.119313	-7.820782	-47.858124
46289		-12.280831	-7.719845	-47.715262
46290		-12.470323	-7.632449	-47.644397
46291		-12.529323	-7.552849	-47.626181
46292		-12.533919	-7.466032	-47.627059
46293		-12.519779	-7.414579	-47.609164
46294		-12.543889	-7.406451	-47.567494
46295		-12.681853	-7.410194	-47.514823
46296		-12.941973	-7.471208	-47.458582
46297		-13.164343	-7.579008	-47.415893
46298		-13.240394	-7.807310	-47.401578
46299		-13.359250	-8.036933	-47.408381
46300		-13.368003	-8.245874	-47.536907
46301		-13.263069	-8.395376	-47.714542
46302		-13.096040	-8.527829	-47.872629
46303		-12.785248	-8.652833	-47.985912
46304		-12.412604	-8.737022	-48.142171
46305		-12.063632	-8.798707	-48.293385
46306		-11.898800	-8.871140	-48.476077
46307		-11.928568	-8.921841	-48.650703
46308		-11.926556	-8.961847	-48.794389
46309		-11.843639	-9.023733	-48.922757
46310		-11.654760	-9.099274	-49.050045
46311		-11.652162	-9.136930	-49.189765
46312		-11.682429	-9.140436	-49.287790
46313		-11.632362	-9.132878	-49.343797
46314		-11.362226	-9.101640	-49.380917
46315		-11.177656	-9.061061	-49.423325
46316		-11.114775	-9.058371	-49.499121
46317		-10.935655	-9.105191	-49.537587
46318		-10.672924	-9.165697	-49.554319
46319		-10.521757	-9.208084	-49.534845
46320		-10.216765	-9.211454	-49.521743
46321		-10.014615	-9.171486	-49.523240
46322		-10.044740	-9.101243	-49.536726
46323		-10.025485	-9.056711	-49.519696
46324		-10.019774	-9.020272	-49.497244
46325		-10.034949	-8.975569	-49.481871
46326		-10.037345	-8.942812	-49.474134
46327		-10.015704	-8.924826	-49.473468
46328		-9.994584	-8.908955	-49.485608
46329		-9.985433	-8.904811	-49.501802
46330		-9.960222	-8.892814	-49.528261
46331		-9.966998	-8.851060	-49.568154
46332		-9.957053	-8.792209	-49.617826
46333		-9.922609	-8.748225	-49.696624
46334		-9.885777	-8.714403	-49.814070
46335		-9.875981	-8.741417	-49.955713
46336		-9.828029	-8.807649	-50.040806
46337		-9.859273	-8.857114	-50.082227
46338		-9.973950	-8.913061	-50.102450
46339		-10.042198	-8.981017	-50.100051
46340		-10.004198	-9.034752	-50.046516
46341		-9.975374	-9.030083	-49.985097
46342		-9.988611	-9.001582	-49.936623
46343		-10.021955	-8.953967	-49.887334
46344		-10.049382	-8.899758	-49.847556
46345		-10.076076	-8.857093	-49.803872
46346		-10.100196	-8.845473	-49.758560
46347		-10.049992	-8.846407	-49.684434
46348		-9.990931	-8.829859	-49.599055
46349		-9.987767	-8.837218	-49.507595
46350		-10.023377	-8.866156	-49.410114
46351		-10.046089	-8.879911	-49.285609
46352		-10.078948	-8.852692	-49.174394
46353		-10.136022	-8.825406	-49.097887
46354		-10.183037	-8.812205	-49.038459
46355		-10.219970	-8.800830	-48.982690
46356		-10.249385	-8.791836	-48.948882
46357		-10.268861	-8.789448	-48.928890
46358		-10.248762	-8.793101	-48.901663
46359		-10.251217	-8.807841	-48.868699
46360		-10.261387	-8.829528	-48.838433
46361		-10.263373	-8.870423	-48.794516
46362		-10.282954	-8.894743	-48.748405
46363		-10.336241	-8.901148	-48.713800
46364		-10.353241	-8.894371	-48.684176
46365		-10.362359	-8.867466	-48.635915
46366		-10.387394	-8.834389	-48.574972
46367		-10.429501	-8.807849	-48.514327
46368		-10.481596	-8.787637	-48.441768
46369		-10.493167	-8.759569	-48.349332
46370		-10.501538	-8.721935	-48.250136
46371		-10.537793	-8.663099	-48.149991
46372		-10.557384	-8.580100	-48.011295
46373		-10.486370	-8.485330	-47.809807
46374		-10.421577	-8.371369	-47.581701
46375		-10.444595	-8.251499	-47.363623
46376		-10.479399	-8.156698	-47.134578
46377		-10.497495	-8.063138	-46.860572
46378		-10.495984	-7.938682	-46.532518
46379		-10.479718	-7.805821	-46.224047
46380		-10.553379	-7.674227	-45.954430
46381		-10.690898	-7.499709	-45.687799
46382		-10.717036	-7.307716	-45.406472
46383		-10.634889	-7.138464	-45.128495
46384		-10.679117	-7.006131	-44.906427
46385		-10.810290	-6.937879	-44.711114
46386		-10.954962	-6.889146	-44.513402
46387		-11.064030	-6.814672	-44.280914
46388		-11.094665	-6.703298	-44.012064
46389		-11.010482	-6.545224	-43.697661
46390		-11.000850	-6.321483	-43.360075
46391		-11.107146	-6.006159	-42.987802
46392		-11.181342	-5.622032	-42.550167
46393		-11.156962	-5.204687	-42.066960
46394		-11.242026	-4.748218	-41.579080
46395		-11.368872	-4.251529	-41.093176
46396		-11.392875	-3.754838	-40.623816
46397		-11.311555	-3.250891	-40.227081
46398		-11.097015	-2.856098	-39.888296
46399		-10.867977	-2.567278	-39.600840
46400		-11.423672	-2.257445	-39.357334
46401		-12.328599	-1.831846	-39.156893
46402		-12.555342	-1.401432	-39.015812
46403		-12.625034	-0.926958	-38.791827
46404		-12.529604	-0.440715	-38.526382
46405		-12.609737	0.064878	-38.352385
46406		-12.969941	0.561696	-38.232225
46407		-13.184123	1.060050	-38.075035
46408		-13.380524	1.602980	-37.872826
46409		-13.541058	2.112102	-37.706491
46410		-13.706044	2.538698	-37.711719
46411		-14.122108	2.847675	-37.787762
46412		-14.370109	2.955677	-37.857719
46413		-14.089201	2.960594	-37.833294
46414		-13.587162	2.936867	-37.762897
46415		-13.352763	2.923230	-37.700955
46416		-13.387981	2.948604	-37.653041
46417		-13.454327	2.975125	-37.588544
46418		-13.440211	2.986224	-37.525373
46419		-13.396418	3.017211	-37.485987
46420		-13.350572	3.076961	-37.481790
46421		-13.313600	3.174341	-37.521696
46422		-13.283862	3.310910	-37.602319
46423		-13.217639	3.464430	-37.707100
46424		-13.053077	3.622180	-37.832936
46425		-12.945910	3.791555	-37.971183
46426		-12.982921	3.971529	-38.123214
46427		-12.986605	4.148250	-38.239870
46428		-12.947308	4.280083	-38.198733
46429		-12.686233	4.392748	-38.076362
46430		-12.691050	4.510498	-37.939580
46431		-12.753882	4.641591	-37.793059
46432		-12.868833	4.760372	-37.627766
46433		-13.145831	4.834444	-37.438599
46434		-13.510729	4.936516	-37.265566
46435		-13.806608	5.058608	-37.168679
46436		-14.384596	5.207243	-37.164459
46437		-14.968991	5.367649	-37.243841
46438		-15.551080	5.556277	-37.354813
46439		-15.962675	5.681709	-37.415479
46440		-16.141412	5.752209	-37.401929
46441		-15.891319	5.881058	-37.385335
46442		-15.752410	5.955886	-37.313811
46443		-15.722070	5.946091	-37.176762
46444		-15.546805	5.932166	-37.002663
46445		-15.670110	6.002910	-36.871443
46446		-16.002747	6.100507	-36.799709
46447		-16.410275	6.177769	-36.726840
46448		-16.613303	6.282780	-36.666381
46449		-16.870667	6.444650	-36.679491
46450		-17.409281	6.646500	-36.830345
46451		-18.055010	6.871997	-37.031108
46452		-18.388493	7.100007	-37.220942
46453		-18.421296	7.326867	-37.430820
46454		-18.434440	7.567581	-37.709322
46455		-18.613671	7.831517	-38.062670
46456		-18.890046	8.095770	-38.465872
46457		-19.110385	8.339315	-38.842925
46458		-19.156783	8.529050	-39.141909
46459		-19.118297	8.672204	-39.352648
46460		-19.104321	8.792977	-39.475299
46461		-19.209115	8.864914	-39.528461
46462		-19.306379	8.878316	-39.514107
46463		-19.281670	8.863332	-39.448394
46464		-19.256140	8.833427	-39.379379
46465		-19.270103	8.799137	-39.334498
46466		-19.253454	8.770523	-39.303475
46467		-19.268675	8.737964	-39.302697
46468		-19.295196	8.718866	-39.315049
46469		-19.260463	8.711405	-39.326204
46470		-19.263709	8.702271	-39.347340
46471		-19.333122	8.708396	-39.369745
46472		-19.354464	8.701208	-39.374872
46473		-19.334038	8.688887	-39.367207
46474		-19.357067	8.665772	-39.357398
46475		-19.375234	8.630904	-39.332123
46476		-19.349673	8.587780	-39.295366
46477		-19.326867	8.543008	-39.262785
46478		-19.343790	8.499653	-39.234509
46479		-19.369359	8.452316	-39.205833
46480		-19.362551	8.399022	-39.189926
46481		-19.373791	8.353272	-39.186205
46482		-19.406469	8.321349	-39.183487
46483		-19.428161	8.282951	-39.165207
46484		-19.477318	8.231394	-39.126815
46485		-19.509729	8.154906	-39.062312
46486		-19.431317	8.048251	-38.955288
46487		-19.322902	7.941290	-38.808992
46488		-19.369241	7.833517	-38.667472
46489		-19.494677	7.710487	-38.544414
46490		-19.491972	7.571778	-38.413392
46491		-19.467859	7.444474	-38.268080
46492		-19.597920	7.308582	-38.130095
46493		-19.667938	7.155416	-38.001308
46494		-19.653290	6.965195	-37.862357
46495		-19.576259	6.750168	-37.713722
46496		-19.406539	6.516319	-37.585101
46497		-19.339050	6.175177	-37.502919
46498		-19.332842	5.782166	-37.420948
46499		-19.339469	5.365634	-37.360199
46500		-18.982669	4.853126	-37.324938
46501		-18.579937	4.319703	-37.245872
46502		-18.170786	3.776079	-37.138221
46503		-18.126404	3.253971	-37.015179
46504		-17.814541	2.746705	-36.952803
46505		-17.247930	2.090103	-36.914782
46506		-16.835113	1.319267	-36.889696
46507		-16.397382	0.417650	-36.877062
46508		-16.104589	-0.130053	-36.861140
46509		-16.059258	-0.783801	-36.864275
46510		-15.725272	-1.531619	-36.946398
46511		-15.309053	-2.249061	-37.074447
46512		-15.005504	-2.905672	-37.231847
46513		-14.695729	-3.521755	-37.422193
46514		-14.333288	-4.050089	-37.623598
46515		-13.928992	-4.517242	-37.817419
46516		-13.617304	-4.898407	-38.016768
46517		-13.411325	-5.227382	-38.229600
46518		-13.125497	-5.493751	-38.441200
46519		-12.968484	-5.700918	-38.694811
46520		-12.872975	-5.848380	-38.973185
46521		-12.890615	-5.972808	-39.306241
46522		-12.827087	-6.082766	-39.672631
46523		-12.726982	-6.200622	-40.069938
46524		-12.744809	-6.311444	-40.539235
46525		-12.805763	-6.419347	-41.004487
46526		-12.791201	-6.566689	-41.408975
46527		-13.025393	-6.702452	-41.796698
46528		-13.259928	-6.794038	-42.166266
46529		-13.017440	-6.909376	-42.481646
46530		-12.790645	-7.015535	-42.815478
46531		-12.585136	-7.092706	-43.147195
46532		-12.529522	-7.177382	-43.528858
46533		-12.423364	-7.289441	-43.889940
46534		-12.095605	-7.418013	-44.174598
46535		-11.878107	-7.524299	-44.469926
46536		-11.830144	-7.602345	-44.770732
46537		-11.793159	-7.654294	-45.045515
46538		-11.719014	-7.701501	-45.283348
46539		-11.691974	-7.704681	-45.495531
46540		-11.669733	-7.682993	-45.695699
46541		-11.724927	-7.667415	-45.854635
46542		-11.745452	-7.630128	-45.973477
46543		-11.736591	-7.591429	-46.025486
46544		-11.716212	-7.512585	-46.064566
46545		-11.571919	-7.344165	-46.067216
46546		-11.543813	-7.186683	-46.063376
46547		-11.645278	-7.081308	-46.046308
46548		-11.764077	-6.999217	-46.028661
46549		-11.853415	-6.938789	-46.013164
46550		-11.882673	-6.929158	-45.981413
46551		-11.892263	-6.926762	-45.957584
46552		-11.895021	-6.896370	-45.946464
46553		-11.883667	-6.888864	-45.914794
46554		-11.985835	-6.891460	-45.888087
46555		-12.099920	-6.897095	-45.899487
46556		-12.090295	-6.916923	-45.913183
46557		-11.885933	-7.025364	-45.948616
46558		-11.757988	-7.087072	-45.996432
46559		-11.539819	-7.113446	-46.052581
46560		-11.196044	-7.171194	-46.101884
46561		-11.012274	-7.226027	-46.158232
46562		-10.959371	-7.259971	-46.202459
46563		-10.903348	-7.260296	-46.243127
46564		-10.808771	-7.294089	-46.291618
46565		-10.725772	-7.361507	-46.346420
46566		-10.737864	-7.411206	-46.409616
46567		-10.748411	-7.452299	-46.450399
46568		-10.681656	-7.488144	-46.477052
46569		-10.523975	-7.508734	-46.501118
46570		-10.421560	-7.505026	-46.514408
46571		-10.337889	-7.511368	-46.521960
46572		-10.205584	-7.551473	-46.538495
46573		-10.047558	-7.607785	-46.566735
46574		-9.793867	-7.707645	-46.604617
46575		-9.603482	-7.784416	-46.634075
46576		-9.297369	-7.848432	-46.626711
46577		-9.034090	-7.892972	-46.627382
46578		-8.964248	-7.888988	-46.637527
46579		-9.016986	-7.841363	-46.640724
46580		-8.974815	-7.784275	-46.625525
46581		-8.985198	-7.739203	-46.616681
46582		-9.041705	-7.712817	-46.613204
46583		-9.034958	-7.697065	-46.618445
46584		-9.034619	-7.698165	-46.627135
46585		-9.057162	-7.696982	-46.638034
46586		-9.094750	-7.676433	-46.651755
46587		-9.103656	-7.659536	-46.677543
46588		-9.093540	-7.636264	-46.716953
46589		-9.062318	-7.611808	-46.754419
46590		-9.008824	-7.586757	-46.798712
46591		-8.987603	-7.570655	-46.861217
46592		-9.000723	-7.552075	-46.941858
46593		-8.981266	-7.519870	-47.028350
46594		-8.963672	-7.498009	-47.099755
46595		-8.995007	-7.476789	-47.159936
46596		-9.072430	-7.430387	-47.201523
46597		-9.138767	-7.375043	-47.235049
46598		-9.287079	-7.338025	-47.296517
46599		-9.427339	-7.350591	-47.340210
46600		-9.504622	-7.355367	-47.390976
46601		-9.574556	-7.380934	-47.430381
46602		-9.639700	-7.397594	-47.463323
