// General information: 
//  MT Manager version: 2022.2.0 
//  XDA version: 2022.2.0 build 7381 rev 124627 built on 2023-07-19
// Device information: 
//  DeviceId: 00B447F8
//  ProductCode: MTW2-3A7G6
//  Firmware Version: 4.3.5
//  Hardware Version: 2.0.0
// Device settings: 
//  Filter Profile: human(46.1)
//  Option Flags: Orientation Smoother Disabled, Position/Velocity Smoother Disabled, Continuous Zero Rotation Update Disabled, AHS Disabled, ICC Disabled
// Coordinate system: ENU
PacketCounter	SampleTimeFine	Roll	Pitch	Yaw
43510		52.526393	52.694719	101.702119
43511		52.500474	52.670538	101.663877
43512		52.457862	52.643097	101.627128
43513		52.418563	52.619620	101.606220
43514		52.376635	52.610880	101.585358
43515		52.315135	52.598940	101.542288
43516		52.257912	52.583292	101.505675
43517		52.246261	52.562399	101.475538
43518		52.271762	52.545523	101.473769
43519		52.271181	52.527784	101.478593
43520		52.239632	52.489163	101.479488
43521		52.239914	52.448669	101.489498
43522		52.308055	52.412001	101.514955
43523		52.402198	52.377837	101.557545
43524		52.448180	52.324844	101.588109
43525		52.370560	52.259253	101.570415
43526		52.272128	52.224258	101.550029
43527		52.178192	52.203306	101.526808
43528		52.109185	52.199525	101.487428
43529		51.884583	52.118208	101.239108
43530		51.610054	52.007980	101.007918
43531		51.432524	51.933044	100.844834
43532		51.299958	51.853091	100.675416
43533		51.070071	51.724953	100.451570
43534		50.824195	51.559421	100.237972
43535		50.600605	51.385980	99.967254
43536		50.393672	51.275130	99.721843
43537		50.201220	51.209023	99.548791
43538		50.103807	51.170965	99.513492
43539		50.095131	51.186321	99.556056
43540		50.146302	51.217693	99.571109
43541		50.219057	51.225240	99.546492
43542		50.227357	51.201317	99.492072
43543		50.187345	51.144327	99.419987
43544		50.088623	51.072001	99.328439
43545		49.814694	50.984912	99.132480
43546		49.401997	50.853921	98.876640
43547		49.016551	50.758313	98.699164
43548		48.719852	50.682675	98.560930
43549		48.380535	50.508735	98.333926
43550		47.897953	50.176810	97.994339
43551		47.366466	49.787567	97.607632
43552		46.888825	49.423708	97.340114
43553		46.466027	49.051741	97.156575
43554		45.932147	48.670138	96.894399
43555		45.043176	48.242876	96.582330
43556		44.166929	47.904792	96.288614
43557		43.199619	47.614400	95.852144
43558		42.028009	47.208441	95.203602
43559		41.092152	46.757718	94.593887
43560		40.285083	46.245576	94.083707
43561		39.471053	45.648606	93.570354
43562		38.716112	45.065241	93.163749
43563		37.958756	44.482635	92.826998
43564		37.264910	43.790129	92.556061
43565		36.515543	42.938389	92.350857
43566		35.708633	42.113198	92.407925
43567		35.026440	41.481384	92.665641
43568		34.323663	40.962612	92.997635
43569		33.581205	40.363148	93.492508
43570		33.046444	39.751364	94.257344
43571		32.723007	39.142968	95.051983
43572		32.617977	38.640601	95.857649
43573		32.693639	38.068834	96.488311
43574		32.964349	37.409289	97.110986
43575		33.224570	36.774296	97.955916
43576		33.358619	36.170207	98.771534
43577		33.249352	35.551137	99.269808
43578		32.991306	35.047515	99.635353
43579		32.790807	34.732790	100.178749
43580		32.789713	34.361945	100.938883
43581		32.830740	33.805345	101.602632
43582		33.069154	33.325557	102.072412
43583		33.169231	33.161295	102.438666
43584		33.174616	33.119299	102.798112
43585		33.238556	32.918131	103.337005
43586		33.161648	32.552393	104.062917
43587		32.815685	32.018932	104.650739
43588		32.504442	31.578380	105.086881
43589		32.256764	31.355662	105.349977
43590		32.396824	31.271109	105.678292
43591		32.574684	31.132170	106.132890
43592		32.472555	30.960608	106.461524
43593		32.132225	31.003574	106.652885
43594		31.900173	31.234843	106.860093
43595		31.925095	31.473532	107.081105
43596		32.016547	31.622599	107.181141
43597		32.105046	31.732041	107.177316
43598		32.312604	31.761712	107.147123
43599		32.605193	31.705709	107.173104
43600		32.862192	31.705991	107.249423
43601		32.920598	31.735834	107.285761
43602		32.756268	31.722689	107.261875
43603		32.553048	31.706093	107.236261
43604		32.494397	31.691618	107.224722
43605		32.562226	31.660275	107.190575
43606		32.633058	31.594970	107.127733
43607		32.710618	31.513979	107.061772
43608		32.729577	31.440565	107.006521
43609		32.703486	31.403493	106.999507
43610		32.568370	31.362773	106.980456
43611		32.411416	31.322485	106.960673
43612		32.248137	31.281957	106.941563
43613		32.106785	31.244139	106.936051
43614		31.966717	31.206573	106.938606
43615		31.851209	31.179481	106.924070
43616		31.748928	31.169568	106.894925
43617		31.687026	31.175856	106.893271
43618		31.645959	31.157361	106.883757
43619		31.585438	31.143935	106.876795
43620		31.509569	31.193789	106.888544
43621		31.391059	31.185132	106.890223
43622		31.269425	31.136675	106.917265
43623		31.159491	31.126667	106.950700
43624		31.029134	31.139464	106.969624
43625		30.933389	31.169912	107.022556
43626		30.854754	31.156639	107.043707
43627		30.850778	31.144068	107.080021
43628		30.831114	31.141602	107.122828
43629		30.763559	31.142102	107.165746
43630		30.693987	31.147776	107.192999
43631		30.665000	31.161871	107.208176
43632		30.662827	31.163851	107.212245
43633		30.681656	31.153709	107.214502
43634		30.701908	31.124649	107.214802
43635		30.734164	31.101310	107.225601
43636		30.746217	31.108573	107.248882
43637		30.729053	31.086152	107.269745
43638		30.706760	31.052363	107.300351
43639		30.712347	31.028244	107.328546
43640		30.760880	30.981219	107.342483
43641		30.795096	30.893842	107.344488
43642		30.852715	30.799485	107.330258
43643		30.914959	30.713682	107.317058
43644		30.967046	30.643649	107.311596
43645		30.986628	30.605684	107.282537
43646		30.958274	30.621995	107.200504
43647		30.936304	30.637344	107.091714
43648		30.923160	30.658919	106.961564
43649		30.932393	30.718963	106.788441
43650		30.993288	30.819838	106.590752
43651		31.077999	30.963803	106.376064
43652		31.196898	31.105449	106.136589
43653		31.310884	31.211145	105.861661
43654		31.435688	31.320431	105.554295
43655		31.581618	31.472710	105.207750
43656		31.784637	31.688369	104.755126
43657		32.103836	32.052984	104.239210
43658		32.416793	32.553949	103.757337
43659		32.594599	33.058106	103.236651
43660		32.589915	33.503954	102.598198
43661		32.487886	33.864341	101.914356
43662		32.475117	34.231726	101.229700
43663		32.611633	34.708981	100.524871
43664		32.826996	35.299932	99.798820
43665		32.977140	35.847424	99.130086
43666		33.075095	36.242885	98.559746
43667		33.187725	36.529152	97.985433
43668		33.361958	36.898253	97.330666
43669		33.633392	37.423676	96.701521
43670		34.016536	37.967394	96.179583
43671		34.323333	38.471868	95.732217
43672		34.391538	38.959960	95.191092
43673		34.389831	39.461034	94.650505
43674		34.446619	39.984951	94.195961
43675		34.545097	40.538397	93.712094
43676		34.656799	41.209211	93.121194
43677		34.812246	41.888923	92.552277
43678		35.082050	42.549759	92.129365
43679		35.448887	43.229934	91.771486
43680		35.821340	43.916004	91.322204
43681		36.057084	44.474606	91.004835
43682		36.243692	44.877572	90.905609
43683		36.786744	45.262933	91.005336
43684		37.325176	45.420133	91.190121
43685		37.552025	45.212465	91.372060
43686		37.549896	45.119089	91.549278
43687		37.312231	45.233998	91.621547
43688		37.103997	45.334474	91.651683
43689		37.026030	45.298624	91.693624
43690		36.994371	45.247435	91.721797
43691		37.028636	45.224055	91.694111
43692		37.105645	45.210399	91.645850
43693		37.152838	45.193494	91.623522
43694		37.117394	45.205180	91.628093
43695		37.042374	45.224995	91.583119
43696		36.998396	45.223145	91.486126
43697		36.959049	45.242895	91.382313
43698		36.928682	45.276595	91.245570
43699		36.918783	45.264415	91.047040
43700		36.913963	45.268676	90.885581
43701		36.924433	45.297234	90.795062
43702		36.976354	45.344414	90.712079
43703		37.018206	45.455869	90.615150
43704		36.989822	45.598842	90.519697
43705		36.945637	45.690493	90.450976
43706		36.965897	45.760421	90.364823
43707		37.062183	45.823458	90.238673
43708		37.215756	45.858882	90.117166
43709		37.347288	45.880670	90.021638
43710		37.396378	45.878959	89.962400
43711		37.373166	45.883985	89.941938
43712		37.315756	45.916074	89.942093
43713		37.214440	45.921262	89.915500
43714		37.200395	45.939755	89.903756
43715		37.238187	46.005656	89.889682
43716		37.277294	46.073579	89.895153
43717		37.307299	46.116418	89.920397
43718		37.336643	46.156153	89.971242
43719		37.360043	46.217829	89.990496
43720		37.403585	46.258919	89.986017
43721		37.452946	46.271080	90.010909
43722		37.513658	46.256622	90.028360
43723		37.561012	46.252758	90.036320
43724		37.580132	46.256892	90.038192
43725		37.571713	46.253716	90.048331
43726		37.557683	46.231202	90.060866
43727		37.551268	46.206419	90.071813
43728		37.567028	46.202748	90.083062
43729		37.577796	46.188730	90.068792
43730		37.579829	46.159684	90.060686
43731		37.576538	46.118292	90.057373
43732		37.555552	46.076253	90.044518
43733		37.452222	46.015668	90.016404
43734		37.315795	45.930119	89.965024
43735		37.191422	45.859324	89.909924
43736		37.072810	45.778162	89.868125
43737		36.944137	45.686847	89.832843
43738		36.807441	45.600089	89.785304
43739		36.709630	45.522390	89.752292
43740		36.656931	45.443065	89.733080
43741		36.596641	45.359525	89.697989
43742		36.541930	45.244421	89.648668
43743		36.548820	45.077610	89.592063
43744		36.513861	44.924345	89.516161
43745		36.371401	44.740690	89.442440
43746		36.241963	44.506086	89.418528
43747		36.079918	44.280726	89.471592
43748		35.841462	44.028287	89.506260
43749		35.549963	43.744968	89.507712
43750		35.233893	43.480449	89.518857
43751		34.917367	43.224456	89.582599
43752		34.611448	43.025849	89.654542
43753		34.333283	42.882454	89.673514
43754		34.047344	42.717067	89.685492
43755		33.856263	42.497767	89.704876
43756		33.694923	42.234153	89.744200
43757		33.490075	41.893121	89.785724
43758		33.332170	41.449240	89.945161
43759		33.155028	40.897479	90.181170
43760		32.986496	40.267391	90.472859
43761		32.651824	39.669002	90.897119
43762		32.095749	39.170811	91.445334
43763		31.594917	38.755815	92.036429
43764		31.158373	38.349120	92.586552
43765		30.698275	37.930681	93.205282
43766		30.403739	37.568365	93.916084
43767		30.263918	37.214022	94.585503
43768		30.193357	36.779607	95.170427
43769		30.224871	36.357808	95.842820
43770		30.262825	35.941481	96.588141
43771		30.163513	35.557468	97.296708
43772		30.028538	35.215563	97.937231
43773		29.958470	34.881332	98.541128
43774		29.852033	34.528112	99.071693
43775		29.700849	34.240876	99.527859
43776		29.751294	34.003911	99.933886
43777		29.960626	33.742402	100.468231
43778		29.960424	33.373916	101.019211
43779		29.813175	33.047220	101.593202
43780		29.661280	32.819706	102.173053
43781		29.482017	32.631403	102.660547
43782		29.330387	32.493612	103.102767
43783		29.202960	32.388970	103.504474
43784		28.826072	32.296454	103.875234
43785		28.196904	32.169881	104.160797
43786		27.648813	31.995940	104.470650
43787		27.298642	31.840064	104.822538
43788		27.135532	31.706962	105.124816
43789		26.982750	31.586745	105.341997
43790		26.856911	31.488654	105.499795
43791		26.820720	31.428101	105.642476
43792		26.784850	31.468025	105.749675
43793		26.784352	31.625736	105.895299
43794		26.767521	31.843282	106.038920
43795		26.612251	31.968830	106.048725
43796		26.536835	32.041014	105.982977
43797		26.687978	32.115130	105.912236
43798		26.928824	32.135226	105.865599
43799		27.070830	32.111673	105.838031
43800		27.027432	32.123474	105.813699
43801		26.835968	32.142755	105.775098
43802		26.672754	32.125758	105.741611
43803		26.600573	32.079890	105.708053
43804		26.660413	32.032523	105.668015
43805		26.796787	31.928047	105.601799
43806		26.889308	31.824491	105.555058
43807		26.891350	31.727132	105.560076
43808		26.785920	31.594353	105.579015
43809		26.683692	31.483264	105.641360
43810		26.551863	31.394721	105.706029
43811		26.431316	31.300408	105.765321
43812		26.358486	31.204996	105.821758
43813		26.327956	31.115914	105.872136
43814		26.284709	31.033227	105.914580
43815		26.190230	30.971590	105.955946
43816		26.041052	30.940196	105.995989
43817		25.853067	30.892944	106.039050
43818		25.731835	30.829910	106.090987
43819		25.703458	30.793170	106.144022
43820		25.681467	30.791896	106.192230
43821		25.585325	30.771186	106.248827
43822		25.479644	30.770226	106.323041
43823		25.366381	30.807967	106.379635
43824		25.284188	30.847996	106.426536
43825		25.279775	30.876234	106.461851
43826		25.363758	30.895422	106.517292
43827		25.418741	30.903247	106.558807
43828		25.401351	30.892380	106.591557
43829		25.395748	30.900976	106.626941
43830		25.369439	30.937783	106.656756
43831		25.336399	30.938426	106.685302
43832		25.340968	30.920601	106.705630
43833		25.395755	30.928286	106.728006
43834		25.445866	30.914025	106.759227
43835		25.470049	30.875217	106.787487
43836		25.479383	30.836146	106.803826
43837		25.490984	30.796288	106.825843
43838		25.532746	30.741595	106.853646
43839		25.608780	30.717778	106.875070
43840		25.654124	30.696645	106.882428
43841		25.682584	30.648535	106.879680
43842		25.710323	30.594360	106.859200
43843		25.711383	30.528987	106.859103
43844		25.673208	30.464047	106.886179
43845		25.619988	30.407938	106.904085
43846		25.572648	30.366809	106.887569
43847		25.531225	30.336960	106.871154
43848		25.518259	30.311515	106.841479
43849		25.593147	30.260479	106.772636
43850		25.740282	30.209608	106.697756
43851		25.931919	30.204932	106.642523
43852		26.116918	30.226224	106.581649
43853		26.190383	30.239789	106.482437
43854		26.180979	30.279450	106.382582
43855		26.154868	30.332650	106.268403
43856		26.171730	30.375468	106.124873
43857		26.189762	30.440680	105.943992
43858		26.205264	30.500193	105.735271
43859		26.257519	30.562016	105.540956
43860		26.302553	30.635801	105.378454
43861		26.312342	30.699786	105.213811
43862		26.389399	30.748068	105.035026
43863		26.574634	30.800035	104.875573
43864		26.800615	30.869473	104.730604
43865		27.044215	30.909002	104.596235
43866		27.276265	30.921802	104.481370
43867		27.455226	30.956914	104.356435
43868		27.659197	30.980954	104.219587
43869		27.882798	30.989680	104.098922
43870		28.095684	31.012205	103.975848
43871		28.309261	31.065327	103.839036
43872		28.497825	31.149192	103.683011
43873		28.654400	31.273441	103.500178
43874		28.804960	31.341543	103.280126
43875		29.011063	31.362139	103.025943
43876		29.277269	31.400154	102.726900
43877		29.559016	31.466356	102.381869
43878		29.883456	31.564728	102.032237
43879		30.174354	31.732001	101.668463
43880		30.305844	31.899235	101.289062
43881		30.352174	32.011122	100.958619
43882		30.381676	32.056497	100.659866
43883		30.434887	32.115596	100.338981
43884		30.608291	32.214980	99.980613
43885		30.907995	32.350971	99.578341
43886		31.202275	32.504817	99.164663
43887		31.392562	32.688934	98.751873
43888		31.487090	32.862329	98.335152
43889		31.590001	33.000419	97.921073
43890		31.764844	33.121161	97.502156
43891		31.980022	33.280446	97.056894
43892		32.178044	33.497009	96.579419
43893		32.347405	33.791293	96.087444
43894		32.431389	34.110182	95.608295
43895		32.516255	34.371758	95.228525
43896		32.654702	34.544365	94.928592
43897		32.782124	34.671154	94.683708
43898		32.882291	34.772943	94.538500
43899		32.956697	34.783747	94.463496
43900		32.988827	34.708539	94.444069
43901		32.987712	34.623395	94.476996
43902		32.951580	34.546358	94.549600
43903		32.956163	34.485977	94.585553
43904		32.981958	34.479199	94.559070
43905		33.057183	34.502240	94.482739
43906		33.258422	34.629532	94.323764
43907		33.483975	35.034076	94.159880
43908		33.591271	35.579907	93.876932
43909		33.541580	36.225554	93.513065
43910		33.319972	36.949696	93.021791
43911		33.135626	37.738997	92.549488
43912		33.027471	38.419777	92.105443
43913		33.043416	38.899469	91.651149
43914		33.272877	39.256556	91.199677
43915		33.670210	39.723155	90.647477
43916		34.110118	40.268276	90.096949
43917		34.455094	40.720380	89.680808
43918		34.700293	41.129212	89.369454
43919		34.840325	41.624658	89.051260
43920		34.853093	42.153713	88.688411
43921		34.894775	42.626692	88.338101
43922		35.004294	43.008645	88.020196
43923		35.252743	43.379314	87.741197
43924		35.476741	43.683759	87.452158
43925		35.670345	43.877491	87.203276
43926		35.824529	44.036728	87.063058
43927		35.930705	44.190161	87.013357
43928		35.965587	44.360380	87.025216
43929		35.940874	44.562700	87.055551
43930		35.888693	44.775516	87.055835
43931		35.861401	44.949585	87.034716
43932		35.875330	45.068978	87.004146
43933		35.957626	45.136440	87.009592
43934		36.045862	45.187486	87.039195
43935		36.102364	45.259047	87.040888
43936		36.067221	45.340969	87.013628
43937		36.029988	45.396023	87.000000
43938		36.014754	45.418706	86.997815
43939		36.024524	45.432991	86.980046
43940		36.020797	45.468881	86.951940
43941		35.980990	45.474734	86.900959
43942		35.913360	45.461811	86.860239
43943		35.858351	45.459667	86.823656
43944		35.824540	45.455801	86.786540
43945		35.805815	45.430310	86.767343
43946		35.766718	45.380409	86.723568
43947		35.689834	45.326580	86.662411
43948		35.560345	45.242794	86.582381
43949		35.392371	45.083365	86.479981
43950		35.168098	44.900408	86.365286
43951		34.922843	44.715385	86.253390
43952		34.715686	44.521877	86.166170
43953		34.507812	44.344556	86.097696
43954		34.305633	44.180785	86.008135
43955		34.162343	44.034774	85.954827
43956		34.074383	43.890281	85.920554
43957		34.016575	43.712435	85.841224
43958		33.879661	43.461674	85.771392
43959		33.663044	43.167730	85.753155
43960		33.480337	42.880773	85.794873
43961		33.324406	42.598470	85.824280
43962		32.982794	42.281494	85.809996
43963		32.560641	41.890620	85.800166
43964		32.197461	41.454223	85.885557
43965		31.932183	40.981283	86.069173
43966		31.670581	40.507412	86.272550
43967		31.299681	40.003883	86.463187
43968		30.926257	39.442503	86.710193
43969		30.677907	38.915816	87.048362
43970		30.317950	38.471731	87.382736
43971		29.804858	37.911470	87.655005
43972		29.270684	37.290596	88.080636
43973		28.688911	36.739912	88.652650
43974		28.081760	36.224278	89.273302
43975		27.517547	35.688011	89.925035
43976		26.991852	35.216093	90.611291
43977		26.562437	34.783098	91.249474
43978		26.312065	34.345024	91.906060
43979		26.093247	33.888087	92.622587
43980		25.904049	33.483309	93.327473
43981		25.699827	33.172874	93.963569
43982		25.462002	32.942382	94.535404
43983		25.239360	32.774612	95.083400
43984		25.130419	32.628364	95.624954
43985		25.159182	32.534748	96.193349
43986		25.242421	32.467812	96.715827
43987		25.411072	32.394539	97.183488
43988		25.560880	32.322058	97.633591
43989		25.690177	32.247966	98.080287
43990		25.777084	32.148663	98.577187
43991		25.642868	31.994348	99.107150
43992		25.281171	31.875278	99.583639
43993		24.857568	31.863435	100.006830
43994		24.501937	31.878312	100.457636
43995		24.256082	31.812481	100.933464
43996		24.041149	31.668758	101.379130
43997		23.800342	31.521911	101.800649
43998		23.568156	31.412573	102.181603
43999		23.412452	31.313933	102.534383
44000		23.363222	31.236496	102.935408
44001		23.310113	31.139834	103.345029
44002		23.233682	31.048865	103.758534
44003		23.137068	30.939289	104.136246
44004		23.100237	30.810229	104.468858
44005		23.155745	30.781763	104.707230
44006		23.254168	30.849552	104.897698
44007		23.337517	30.970881	105.048713
44008		23.297173	31.121377	105.067989
44009		23.199351	31.218286	104.995748
44010		23.320287	31.304074	104.925402
44011		23.560087	31.339082	104.848572
44012		23.785464	31.298708	104.792611
44013		23.863081	31.253427	104.732914
44014		23.677438	31.240024	104.644604
44015		23.380351	31.210939	104.577781
44016		23.191605	31.176749	104.551312
44017		23.126994	31.158502	104.545499
44018		23.088006	31.089022	104.529258
44019		23.157825	30.995814	104.536073
44020		23.185162	30.900697	104.553358
44021		23.103720	30.772802	104.585502
44022		22.962259	30.614614	104.647656
44023		22.746590	30.427554	104.736352
44024		22.586220	30.226728	104.820166
44025		22.525244	30.085925	104.899263
44026		22.500282	30.008125	104.987920
44027		22.377475	29.945298	105.063987
44028		22.220177	29.841609	105.156109
44029		22.106297	29.777591	105.284864
44030		21.928129	29.762919	105.365481
44031		21.721743	29.721508	105.425886
44032		21.617269	29.680223	105.513260
44033		21.613279	29.709719	105.599547
44034		21.627712	29.753630	105.655735
44035		21.642375	29.776318	105.679393
44036		21.698718	29.832221	105.737521
44037		21.712451	29.855499	105.803706
44038		21.698821	29.888699	105.881262
44039		21.609590	29.910909	105.939575
44040		21.485316	29.931781	105.958850
44041		21.422281	29.949594	105.989416
44042		21.425289	29.934530	106.041899
44043		21.484863	29.902542	106.093969
44044		21.557009	29.874671	106.143944
44045		21.635373	29.851956	106.184492
44046		21.666520	29.828427	106.233054
44047		21.639950	29.804908	106.290629
44048		21.659052	29.793644	106.324825
44049		21.689134	29.816686	106.355819
44050		21.723114	29.833786	106.392034
44051		21.694936	29.833601	106.413061
44052		21.699168	29.829794	106.427521
44053		21.714695	29.817149	106.435813
44054		21.805549	29.807854	106.471010
44055		21.916246	29.794770	106.512342
44056		22.012611	29.760390	106.545020
44057		22.107102	29.749933	106.590115
44058		22.180002	29.732944	106.640072
44059		22.180622	29.682020	106.684297
44060		22.155335	29.593851	106.725257
44061		22.140421	29.488914	106.746081
44062		22.161139	29.353380	106.756185
44063		22.269590	29.219776	106.767858
44064		22.441126	29.101271	106.782967
44065		22.629827	29.009678	106.795462
44066		22.797991	28.939885	106.831422
44067		22.885584	28.850080	106.875714
44068		22.886944	28.748787	106.897801
44069		22.899781	28.672906	106.934291
44070		22.907027	28.623464	106.962530
44071		22.926324	28.583629	106.942924
44072		23.001186	28.544587	106.903534
44073		23.147089	28.511475	106.904749
44074		23.332524	28.444266	106.915135
44075		23.471235	28.374576	106.887332
44076		23.552384	28.343805	106.824142
44077		23.584206	28.304973	106.748775
44078		23.583064	28.265454	106.658677
44079		23.601705	28.272281	106.537315
44080		23.713841	28.317834	106.397440
44081		23.811660	28.356404	106.188240
44082		23.897057	28.411179	105.904765
44083		24.035586	28.532097	105.597495
44084		24.221973	28.681615	105.259812
44085		24.376517	28.828334	104.871032
44086		24.502215	28.963863	104.415743
44087		24.700986	29.128069	103.915498
44088		24.836857	29.302007	103.352870
44089		24.849337	29.521546	102.727097
44090		24.786336	29.840350	102.010674
44091		24.503817	30.119014	101.036841
44092		24.242123	30.314620	99.889086
44093		24.027003	30.578231	98.831979
44094		23.725031	30.963607	97.834315
44095		23.477629	31.413321	96.819091
44096		23.368675	31.918097	95.851887
44097		23.320972	32.390051	94.937929
44098		23.493954	32.903387	94.017310
44099		23.855729	33.445255	93.091377
44100		24.353792	34.008789	92.192569
44101		24.819384	34.613124	91.361335
44102		25.040091	35.086760	90.585120
44103		25.182298	35.572193	89.861556
44104		25.140927	36.167709	89.092784
44105		24.944561	36.770649	88.262433
44106		24.767415	37.315384	87.537444
44107		24.593237	37.823031	86.959299
44108		24.385845	38.285551	86.452837
44109		24.263936	38.619716	86.082388
44110		24.330198	38.842248	85.898358
44111		24.563782	39.030266	85.801809
44112		24.883402	39.192216	85.799783
44113		25.204832	39.353318	85.848448
44114		25.499884	39.548557	85.869780
44115		25.801761	39.792946	85.825118
44116		26.125950	40.135975	85.697718
44117		26.379851	40.552712	85.477936
44118		26.537716	40.913104	85.221011
44119		26.649763	41.256219	84.989096
44120		26.709057	41.629027	84.728208
44121		26.780509	41.989559	84.489005
44122		26.775401	42.228397	84.270736
44123		26.842261	42.466373	84.042510
44124		26.903686	42.678260	83.869628
44125		27.034931	42.852792	83.827532
44126		27.275895	42.987248	83.885512
44127		27.530490	43.041250	83.996095
44128		27.728383	43.045380	84.105614
44129		27.933929	43.061449	84.182155
44130		28.157191	43.113392	84.238375
44131		28.388612	43.173575	84.320247
44132		28.648374	43.287884	84.387896
44133		28.875220	43.526258	84.328123
44134		29.140142	43.900693	84.163554
44135		29.329120	44.304997	83.931566
44136		29.487945	44.680207	83.697646
44137		29.628605	45.096481	83.469902
44138		29.687874	45.545407	83.194026
44139		29.778790	45.994642	82.922316
44140		29.828275	46.425652	82.605479
44141		29.844617	46.800952	82.264067
44142		29.886752	47.163584	81.942834
44143		29.919079	47.551508	81.585502
44144		29.834895	47.885639	81.189806
44145		29.842909	48.176541	80.887858
44146		29.820820	48.470017	80.596094
44147		29.650234	48.699613	80.219669
44148		29.541502	48.888226	79.905869
44149		29.554345	49.012853	79.712461
44150		29.555878	49.068386	79.577909
44151		29.482957	49.039637	79.513646
44152		29.320642	48.997947	79.459742
44153		29.079798	49.067428	79.321231
44154		28.780965	49.162434	79.158103
44155		28.539608	49.219803	79.054602
44156		28.410857	49.221278	79.017186
44157		28.344083	49.233821	78.994614
44158		28.309129	49.265124	78.966061
44159		28.342062	49.302124	78.957386
44160		28.397990	49.350911	78.988877
44161		28.449098	49.366230	79.034718
44162		28.477408	49.338786	79.012574
44163		28.472211	49.267460	78.950951
44164		28.347815	49.146428	78.892967
44165		28.168989	48.964090	78.811628
44166		27.942685	48.754834	78.705471
44167		27.701316	48.521757	78.585407
44168		27.590320	48.237772	78.520356
44169		27.403365	47.929761	78.479070
44170		27.086165	47.554521	78.363036
44171		26.755831	47.165307	78.300419
44172		26.399443	46.736444	78.253846
44173		25.975855	46.262784	78.266712
44174		25.630803	45.842160	78.377172
44175		25.389382	45.467854	78.532657
44176		25.080862	45.043050	78.656691
44177		24.776639	44.563339	78.799524
44178		24.561282	44.069507	79.028924
44179		24.313845	43.540272	79.329412
44180		24.066729	42.955909	79.657810
44181		23.954397	42.395714	80.089926
44182		23.753737	41.884567	80.561087
44183		23.310384	41.433606	81.066631
44184		22.899060	40.959237	81.648057
44185		22.644374	40.460840	82.291510
44186		22.465274	39.924596	82.939134
44187		22.200825	39.412893	83.609081
44188		21.946020	38.890824	84.350584
44189		21.699264	38.265585	85.125945
44190		21.409291	37.650671	85.978034
44191		21.098552	37.092870	86.841437
44192		20.836744	36.553109	87.752986
44193		20.570598	35.948984	88.694869
44194		20.395856	35.377181	89.643074
44195		20.273778	34.908376	90.572685
44196		20.166694	34.416059	91.448970
44197		20.066702	34.022942	92.335725
44198		19.984899	33.783776	93.168472
44199		20.005899	33.660149	94.055944
44200		20.009193	33.502039	95.001481
44201		19.894071	33.320990	95.914684
44202		19.746199	33.214249	96.729392
44203		19.726148	33.119938	97.462215
44204		19.761013	32.998578	98.186258
44205		19.825206	32.855284	98.876872
44206		19.894695	32.740962	99.657428
44207		19.977319	32.690663	100.572867
44208		20.015954	32.653867	101.301661
44209		19.905246	32.466373	101.775747
44210		19.712880	32.177732	102.149407
44211		19.578268	31.975509	102.482283
44212		19.447206	31.852886	102.865249
44213		19.235633	31.673805	103.266732
44214		18.967118	31.437185	103.598900
44215		18.747497	31.252228	103.870153
44216		18.689565	31.138544	104.106821
44217		18.780374	30.969821	104.342044
44218		18.954641	30.813041	104.582782
44219		18.980175	30.739442	104.702945
44220		18.968975	30.710950	104.792190
44221		18.931130	30.680422	104.864672
44222		18.874945	30.643074	104.820518
44223		18.866279	30.646701	104.706562
44224		18.903757	30.635367	104.585261
44225		18.970843	30.534674	104.524413
44226		19.020092	30.419961	104.510902
44227		18.984973	30.373078	104.508569
44228		18.859943	30.296876	104.486586
44229		18.786646	30.196406	104.530808
44230		18.730152	30.115681	104.620350
44231		18.712593	30.014343	104.700293
44232		18.755138	29.918751	104.779078
44233		18.714819	29.885793	104.877214
44234		18.587109	29.849086	104.940413
44235		18.475678	29.771999	105.017504
44236		18.388042	29.686929	105.115225
44237		18.301606	29.632430	105.226480
44238		18.111098	29.537774	105.329046
44239		17.858162	29.453723	105.412454
44240		17.635504	29.400503	105.498267
44241		17.500162	29.331052	105.611230
44242		17.464628	29.251538	105.730488
44243		17.505770	29.172919	105.846990
44244		17.557808	29.114619	105.944273
44245		17.593256	29.065545	106.029382
44246		17.577462	29.061057	106.141418
44247		17.478478	29.061713	106.204660
44248		17.330591	29.059575	106.225882
44249		17.234358	29.066131	106.234653
44250		17.181184	29.120335	106.222964
44251		17.117042	29.164318	106.190257
44252		17.057677	29.184923	106.144895
44253		17.074263	29.204582	106.118089
44254		17.107325	29.227775	106.117830
44255		17.125807	29.243652	106.119165
44256		17.165781	29.257969	106.114896
44257		17.243819	29.277264	106.126829
44258		17.342092	29.287365	106.150930
44259		17.410071	29.303726	106.170462
44260		17.468886	29.296986	106.184273
44261		17.570478	29.280915	106.201433
44262		17.690601	29.282705	106.253724
44263		17.770600	29.278621	106.322229
44264		17.789205	29.270306	106.351003
44265		17.779440	29.300566	106.353784
44266		17.786697	29.345439	106.372848
44267		17.844035	29.363500	106.401922
44268		17.925285	29.357492	106.420687
44269		18.048175	29.340023	106.431649
44270		18.225700	29.346544	106.447878
44271		18.429189	29.362397	106.471499
44272		18.628580	29.385604	106.473195
44273		18.793161	29.448489	106.470306
44274		18.958276	29.547421	106.476189
44275		18.977844	29.568784	106.463450
44276		18.942068	29.557369	106.436082
44277		18.911997	29.587467	106.387477
44278		18.848898	29.663387	106.304733
44279		18.756988	29.742683	106.197004
44280		18.663698	29.817526	106.057701
44281		18.691452	29.889587	105.891924
44282		18.950397	29.963157	105.758490
44283		19.291010	30.059525	105.621480
44284		19.649631	30.191092	105.403893
44285		20.083143	30.346261	105.197379
44286		20.589164	30.564242	105.023258
44287		21.004991	30.796185	104.789282
44288		21.185616	31.021062	104.503703
44289		21.146407	31.251476	104.179891
44290		20.962282	31.428755	103.772724
44291		20.750244	31.608054	103.328577
44292		20.620584	31.841321	102.895279
44293		20.539592	32.074936	102.440533
44294		20.545813	32.291409	101.907835
44295		20.585008	32.589918	101.369823
44296		20.533858	32.799164	100.926311
44297		20.393028	32.846309	100.595939
44298		20.339551	32.869989	100.261347
44299		20.438795	32.978596	99.815840
44300		20.697288	33.223342	99.248728
44301		21.057947	33.608682	98.601547
44302		21.532150	34.097111	97.926194
44303		22.168211	34.728851	97.185953
44304		23.003100	35.495267	96.247461
44305		23.832663	36.344113	95.124617
44306		24.391086	36.937459	94.060575
44307		24.694838	37.294622	93.339853
44308		24.724141	37.575894	92.797241
44309		24.865763	37.850436	92.176291
44310		25.149087	38.196182	91.527142
44311		25.262661	38.503795	90.885851
44312		25.245918	38.743106	90.283440
44313		25.137516	38.934963	89.778132
44314		24.971909	39.118462	89.267197
44315		24.863881	39.310828	88.746791
44316		24.751815	39.560968	88.269922
44317		24.536865	39.871705	87.787889
44318		24.293395	40.195960	87.349060
44319		24.027596	40.466352	86.986145
44320		23.697345	40.629805	86.689757
44321		23.529014	40.720348	86.616486
44322		23.599167	40.828804	86.771798
44323		23.684477	40.910526	86.904891
44324		23.629597	40.960422	86.917429
44325		23.538897	40.976630	86.897232
44326		23.527407	40.933684	86.942434
44327		23.694455	40.788881	87.026192
44328		24.034325	40.660229	87.085587
44329		24.428481	40.702509	87.048501
44330		24.898073	40.789024	86.905121
44331		25.704425	40.975056	86.541007
44332		26.601994	41.439822	86.160101
44333		26.976498	41.853369	85.611817
44334		27.131754	42.187855	85.102229
44335		27.089200	42.718933	84.740795
44336		26.961136	43.219645	84.400366
44337		27.194910	43.546971	84.215027
44338		27.596580	43.867112	84.142144
44339		27.891455	44.147676	84.008511
44340		28.115121	44.441043	83.808116
44341		28.262724	44.762637	83.585243
44342		28.225728	45.062712	83.364934
44343		28.066030	45.369223	83.159000
44344		27.850110	45.674341	82.953757
44345		27.718161	45.942079	82.709779
44346		27.670858	46.149066	82.405004
44347		27.633222	46.282748	82.064657
44348		27.529167	46.401031	81.727355
44349		27.322070	46.532727	81.412100
44350		27.085870	46.641990	81.195053
44351		26.865720	46.718779	81.061471
44352		26.675535	46.765005	80.989116
44353		26.506672	46.802225	80.926073
44354		26.398160	46.844839	80.869755
44355		26.304703	46.932256	80.820792
44356		26.261223	47.003203	80.830851
44357		26.285703	47.017323	80.885812
44358		26.306319	47.054801	80.901681
44359		26.305503	47.104282	80.903996
44360		26.382063	47.135853	80.918416
44361		26.465308	47.156392	80.921294
44362		26.523021	47.175430	80.928716
44363		26.585253	47.196076	80.948019
44364		26.612432	47.218316	80.936898
44365		26.608036	47.217322	80.912624
44366		26.592136	47.205047	80.884589
44367		26.550651	47.197205	80.850890
44368		26.496217	47.183259	80.802428
44369		26.422805	47.155178	80.745237
44370		26.340724	47.092495	80.680094
44371		26.245924	46.993730	80.608194
44372		26.205123	46.894570	80.556485
44373		26.192415	46.816313	80.515441
44374		26.115465	46.779427	80.450690
44375		25.989567	46.741948	80.369792
44376		25.876926	46.680801	80.301194
44377		25.830370	46.632527	80.263320
44378		25.831955	46.579774	80.212063
44379		25.808985	46.508767	80.148711
44380		25.781147	46.437748	80.084698
44381		25.757363	46.323094	80.033141
44382		25.698145	46.150220	79.977114
44383		25.601238	45.916538	79.892169
44384		25.468502	45.660090	79.799688
44385		25.346451	45.389543	79.694932
44386		25.240367	45.083545	79.625517
44387		25.036997	44.710160	79.589580
44388		24.789398	44.296202	79.592863
44389		24.642483	43.847876	79.661103
44390		24.561826	43.365494	79.827718
44391		24.493780	42.851869	80.088155
44392		24.466038	42.349141	80.416205
44393		24.478333	41.861790	80.804434
44394		24.408658	41.393853	81.243919
44395		24.233318	40.919778	81.736470
44396		24.015304	40.420619	82.273600
44397		23.808169	39.913371	82.864819
44398		23.611916	39.384812	83.460415
44399		23.390157	38.838489	84.065928
44400		23.145924	38.320647	84.707807
44401		22.907644	37.846407	85.386760
44402		22.701078	37.375340	86.067089
44403		22.540344	36.886075	86.752505
44404		22.405745	36.395254	87.504198
44405		22.292157	35.941688	88.297869
44406		22.157699	35.513062	89.086580
44407		22.026764	35.173281	89.941840
44408		21.931813	34.886596	90.817668
44409		21.851723	34.550161	91.669034
44410		21.796388	34.224945	92.534259
44411		21.792790	33.940659	93.360606
44412		21.821365	33.654951	94.207097
44413		21.783333	33.400846	95.100620
44414		21.613482	33.238387	95.972999
44415		21.445859	33.058516	96.818497
44416		21.254249	32.845381	97.632993
44417		21.067058	32.649033	98.450143
44418		20.912129	32.419539	99.225676
44419		20.760019	32.097664	99.899419
44420		20.674575	31.828429	100.438958
44421		20.608125	31.608216	100.991295
44422		20.516794	31.352753	101.607570
44423		20.385224	31.119369	102.138935
44424		20.145932	30.923542	102.551331
44425		19.889109	30.705829	102.977988
44426		19.761590	30.453210	103.432858
44427		19.708657	30.163314	103.832586
44428		19.674696	29.932282	104.158716
44429		19.662136	29.727374	104.487227
44430		19.688541	29.527253	104.884408
44431		19.801342	29.307289	105.316217
44432		19.927029	29.094636	105.713321
44433		20.005130	28.911187	106.050267
44434		20.053179	28.786215	106.266687
44435		20.107250	28.717633	106.496229
44436		20.081039	28.657177	106.718874
44437		20.087543	28.578651	106.902187
44438		20.175739	28.496036	107.042851
44439		20.296491	28.437756	107.128701
44440		20.446049	28.367078	107.161481
44441		20.614645	28.389830	107.182631
44442		20.585810	28.470440	107.195002
44443		20.461762	28.509909	107.165726
44444		20.457859	28.534280	107.150644
44445		20.524272	28.533658	107.152380
44446		20.577385	28.507447	107.133049
44447		20.493259	28.529094	107.081100
44448		20.288546	28.550289	107.026573
44449		20.162145	28.491820	106.991888
44450		20.128113	28.432548	106.956292
44451		20.155088	28.405559	106.956939
44452		20.147499	28.351144	106.955423
44453		20.131085	28.290910	106.990946
44454		20.080349	28.206297	107.051218
44455		19.977175	28.180980	107.106206
44456		19.836238	28.162398	107.155465
44457		19.711143	28.131736	107.220880
44458		19.587759	28.099160	107.261460
44459		19.456411	28.088064	107.279585
44460		19.274744	28.117484	107.290538
44461		19.063308	28.111467	107.291051
44462		18.877222	28.088989	107.293803
44463		18.760020	28.074066	107.300429
44464		18.694820	28.073349	107.322885
44465		18.609897	28.067211	107.343502
44466		18.496896	28.054715	107.362874
44467		18.452461	28.070234	107.386363
44468		18.395025	28.092270	107.393319
44469		18.323411	28.098964	107.407015
44470		18.266733	28.061922	107.410746
44471		18.213198	28.037532	107.420746
44472		18.157788	28.029222	107.440904
44473		18.092269	28.016218	107.478508
44474		18.003778	28.014097	107.520267
44475		17.940872	28.022994	107.568153
44476		17.923420	28.011880	107.610219
44477		17.923659	28.007042	107.642121
44478		17.867608	27.995030	107.652987
44479		17.800530	27.985833	107.653382
44480		17.758190	27.993573	107.654914
44481		17.701270	27.989883	107.669477
44482		17.655503	27.977565	107.694507
44483		17.682131	27.970501	107.708570
44484		17.769864	27.961598	107.738741
44485		17.875108	27.942489	107.804825
44486		17.986254	27.899913	107.868113
44487		18.129840	27.867040	107.928962
44488		18.272521	27.839116	108.020671
44489		18.404456	27.778407	108.128597
44490		18.533714	27.729439	108.218446
44491		18.619238	27.726316	108.274663
44492		18.651988	27.737883	108.314400
44493		18.682531	27.751117	108.343436
44494		18.766580	27.761520	108.366994
44495		18.886238	27.749168	108.385398
44496		18.985844	27.737883	108.384592
44497		19.048283	27.734561	108.356924
44498		19.076035	27.758597	108.295211
44499		19.117275	27.814355	108.234391
44500		19.205718	27.870038	108.163732
44501		19.351718	27.915754	108.076496
44502		19.525582	27.990715	107.986255
44503		19.605436	28.063166	107.890443
44504		19.652989	28.131447	107.763605
44505		19.739166	28.207877	107.632878
44506		19.851804	28.270890	107.518753
44507		20.057915	28.346616	107.377197
44508		20.325188	28.442148	107.181421
44509		20.549986	28.543912	106.962817
44510		20.668255	28.663739	106.725828
44511		20.668660	28.800672	106.460068
44512		20.642407	28.915511	106.151101
44513		20.691222	29.049499	105.814756
44514		20.797670	29.189557	105.470257
44515		20.891311	29.257896	105.122052
44516		20.891563	29.275311	104.710952
44517		20.508859	29.126852	104.172901
44518		19.973686	28.903450	103.685035
44519		19.601345	28.852537	103.375536
44520		19.606213	28.918650	103.049440
44521		19.981962	29.050403	102.551653
44522		20.613292	29.286227	102.022104
44523		21.268812	29.548927	101.619957
44524		21.769629	29.697419	101.317508
44525		22.218054	29.809452	100.984630
44526		22.672062	30.081720	100.618818
44527		23.197733	30.351394	100.273582
44528		23.610712	30.532188	99.922863
44529		23.956095	30.688054	99.475490
44530		24.305247	30.878052	98.873692
44531		24.710277	31.171281	98.188667
44532		25.112655	31.554246	97.524041
44533		25.379416	31.912801	96.891167
44534		25.411820	32.200871	96.293254
44535		25.384349	32.454449	95.680051
44536		25.438987	32.714046	94.954679
44537		25.455723	32.958543	94.160932
44538		25.302385	33.138327	93.412663
44539		25.151178	33.279500	92.838041
44540		25.069616	33.427284	92.448016
44541		24.987687	33.600603	92.140162
44542		24.779701	33.772666	91.923217
44543		24.593312	33.907922	91.922087
44544		24.456668	34.072691	92.183265
44545		24.459247	34.306778	92.486379
44546		24.400812	34.494003	92.604162
44547		24.303123	34.583870	92.599429
44548		24.281123	34.587310	92.629516
44549		24.408268	34.558632	92.697052
44550		24.610739	34.541399	92.725968
44551		24.860370	34.574898	92.695984
44552		25.136155	34.639762	92.627469
44553		25.439512	34.660403	92.560843
44554		25.865477	34.616269	92.482580
44555		26.464563	34.634490	92.398353
44556		27.085726	34.759313	92.276860
44557		27.577374	34.950023	92.037382
44558		27.976466	35.142407	91.705018
44559		28.320275	35.389537	91.321716
44560		28.581415	35.628373	90.808998
44561		28.694346	35.872635	90.177419
44562		28.649381	36.229298	89.507394
44563		28.456282	36.705559	88.771359
44564		28.264856	37.219001	88.048566
44565		28.082272	37.725912	87.392459
44566		27.822062	38.057465	86.754690
44567		27.739564	38.353745	86.182629
44568		27.791812	38.649259	85.578086
44569		27.918529	38.937586	84.976529
44570		28.008927	39.160236	84.436943
44571		28.119442	39.388574	84.011701
44572		28.194612	39.736571	83.638104
44573		28.139872	40.056661	83.235435
44574		28.177760	40.279079	82.937580
44575		28.304390	40.511896	82.737266
44576		28.504779	40.731933	82.544693
44577		28.647450	40.890020	82.320662
44578		28.753463	41.028216	82.160466
44579		28.736823	41.170735	82.077445
44580		28.721571	41.273654	82.049767
44581		28.750471	41.358234	82.078495
44582		28.703578	41.406288	82.099713
44583		28.638730	41.426669	82.086768
44584		28.633989	41.458293	82.055888
44585		28.611331	41.492595	82.025926
44586		28.546847	41.514340	81.988366
44587		28.472904	41.537329	81.948038
44588		28.407647	41.558430	81.908945
44589		28.370818	41.541467	81.875936
44590		28.353884	41.528942	81.851225
44591		28.300102	41.507016	81.818798
44592		28.205975	41.462896	81.782055
44593		28.149755	41.391963	81.744707
44594		28.039887	41.284872	81.698903
44595		27.867150	41.182191	81.632969
44596		27.645802	41.065813	81.521615
44597		27.370140	40.934903	81.424001
44598		27.038986	40.788563	81.343722
44599		26.687673	40.616591	81.259351
44600		26.366918	40.424153	81.186402
44601		26.088496	40.218499	81.135961
44602		25.876749	40.031647	81.117970
44603		25.713886	39.844674	81.121148
44604		25.577271	39.576715	81.165676
44605		25.498092	39.285423	81.313094
44606		25.387448	38.981242	81.495032
44607		25.250713	38.642758	81.740903
44608		25.111830	38.315141	82.076069
44609		24.912171	37.959748	82.442836
44610		24.818388	37.566609	82.871451
44611		24.787683	37.162755	83.382800
44612		24.740587	36.758399	83.907634
44613		24.595838	36.381504	84.439856
44614		24.352356	36.012303	84.966804
44615		23.990194	35.668426	85.582097
44616		23.692359	35.296162	86.228029
44617		23.383230	34.949254	86.846456
44618		23.066087	34.628599	87.420401
44619		22.779324	34.315587	87.991585
44620		22.553741	34.005126	88.595646
44621		22.318588	33.718508	89.231020
44622		22.032093	33.480036	89.914627
44623		21.671157	33.196657	90.562573
44624		21.324504	32.928711	91.215325
44625		21.048371	32.750975	91.850476
44626		20.818166	32.587723	92.430322
44627		20.634782	32.359034	93.017662
44628		20.505979	32.153099	93.696727
44629		20.404153	32.041711	94.401023
44630		20.290009	32.010017	95.056743
44631		20.070859	31.975012	95.631905
44632		19.735623	31.915069	96.142874
44633		19.481328	31.867275	96.695181
44634		19.354732	31.773001	97.268055
44635		19.284034	31.632933	97.839656
44636		19.251802	31.467573	98.360611
44637		19.150468	31.267182	98.826138
44638		19.057959	31.101968	99.349180
44639		18.961531	30.939083	99.923476
44640		18.830152	30.728142	100.468868
44641		18.732417	30.536024	100.925583
44642		18.712290	30.365504	101.359274
44643		18.821031	30.209564	101.850822
44644		18.948422	30.078805	102.310597
44645		18.951824	29.936451	102.669560
44646		18.878096	29.794461	102.989422
44647		18.839114	29.685926	103.279494
44648		18.772394	29.571832	103.606624
44649		18.660137	29.375432	103.961808
44650		18.566059	29.150358	104.295268
44651		18.520001	29.009369	104.555975
44652		18.596990	28.969974	104.771865
44653		18.707632	29.035995	105.001772
44654		18.557328	29.071826	105.107170
44655		18.472195	29.067289	105.129395
44656		18.526631	29.147825	105.138854
44657		18.520905	29.236760	105.069324
44658		18.570203	29.295533	104.971700
44659		18.642248	29.332307	104.907004
44660		18.678609	29.331988	104.903417
44661		18.621881	29.329561	104.913297
44662		18.503088	29.353828	104.903436
44663		18.418813	29.352865	104.865572
44664		18.318726	29.319960	104.807680
44665		18.271210	29.250754	104.770167
44666		18.205675	29.133992	104.766904
44667		18.128658	29.022108	104.777531
44668		18.036764	28.969569	104.835762
44669		17.806616	28.907289	104.893248
44670		17.560053	28.839641	104.966302
44671		17.440775	28.769046	105.058680
44672		17.373296	28.696634	105.165652
44673		17.247707	28.629282	105.253735
44674		16.986487	28.563820	105.309361
44675		16.734500	28.473137	105.365553
44676		16.611003	28.405588	105.438538
44677		16.489957	28.334149	105.482722
44678		16.373689	28.233687	105.525235
44679		16.250246	28.165621	105.585224
44680		16.118080	28.111761	105.666874
44681		16.086060	28.040609	105.766777
44682		16.101461	27.975233	105.870365
44683		16.085390	27.927905	105.972871
44684		16.053650	27.860488	106.094728
44685		16.060262	27.803309	106.242895
44686		16.044413	27.787446	106.358471
44687		16.024983	27.784423	106.440494
44688		16.015281	27.806556	106.488798
44689		15.995048	27.842349	106.501078
44690		15.969123	27.860722	106.475129
44691		16.015157	27.891435	106.454914
44692		16.087218	27.906414	106.469281
44693		16.116690	27.908804	106.489810
44694		16.079792	27.916820	106.481222
44695		16.118055	27.940307	106.485760
44696		16.227780	27.954873	106.529396
44697		16.376791	27.943504	106.591211
44698		16.549125	27.927800	106.654879
44699		16.730049	27.921481	106.726082
44700		16.860172	27.885597	106.786284
44701		16.939286	27.854479	106.835016
44702		16.992771	27.867147	106.867242
44703		17.029699	27.860680	106.877879
44704		17.116242	27.853425	106.886472
44705		17.246230	27.851715	106.891314
44706		17.373332	27.863346	106.907609
44707		17.433379	27.882788	106.902589
44708		17.470020	27.905709	106.861331
44709		17.574399	27.969433	106.814051
44710		17.664703	28.023446	106.756887
44711		17.694173	28.080959	106.658760
44712		17.735511	28.155192	106.506552
44713		17.829136	28.247998	106.336717
44714		17.955954	28.328017	106.178668
44715		18.125040	28.397016	106.022043
44716		18.404520	28.460137	105.831682
44717		18.697473	28.504856	105.622081
44718		18.968838	28.589157	105.414472
44719		19.180798	28.702270	105.188403
44720		19.275085	28.818176	104.904263
44721		19.231401	28.929901	104.533667
44722		19.076205	28.978217	104.106874
44723		19.014160	28.983672	103.674938
44724		19.155420	29.031961	103.242707
44725		19.509705	29.172984	102.758474
44726		20.031524	29.345505	102.225625
44727		20.540600	29.541433	101.703878
44728		20.807488	29.725359	101.262119
44729		20.789393	29.838729	100.866599
44730		20.720825	29.957799	100.490436
44731		20.787066	30.148864	100.087339
44732		21.006715	30.377125	99.625506
44733		21.315012	30.642669	99.112673
44734		21.575142	30.926830	98.611600
44735		21.872971	31.117045	98.110860
44736		22.251669	31.255421	97.591564
44737		22.714099	31.434214	96.994819
44738		23.198174	31.707972	96.332872
44739		23.588163	32.071526	95.622407
44740		23.927767	32.473256	94.846918
44741		24.214652	32.831889	94.053380
44742		24.519218	33.222110	93.297197
44743		24.806786	33.661692	92.540348
44744		24.990411	34.088399	91.762195
44745		25.069021	34.452457	91.051877
44746		25.111352	34.781261	90.520124
44747		25.257658	35.039536	90.067220
44748		25.300990	35.264080	89.716594
44749		25.290440	35.427033	89.517996
44750		25.324542	35.548375	89.424222
44751		25.295454	35.614021	89.405007
44752		25.286373	35.680569	89.397005
44753		25.500236	35.820480	89.335462
44754		25.719229	36.062519	89.212103
44755		26.043446	36.434266	88.993780
44756		26.178163	36.931287	88.787758
44757		26.100019	37.318489	88.704279
44758		26.211406	37.562973	88.606419
44759		26.572070	37.787417	88.435598
44760		26.987974	38.169520	88.211972
44761		27.400090	38.642937	87.953994
44762		27.900190	39.194316	87.709579
44763		28.307056	39.755082	87.489987
44764		28.540675	40.199966	87.344659
44765		28.818804	40.512847	87.258307
44766		29.130307	40.639084	87.128786
44767		29.430104	40.707647	86.971844
44768		29.537936	40.803806	86.880394
44769		29.402399	40.962588	86.927759
44770		29.112713	41.128173	86.966800
44771		28.728179	41.257018	86.926734
44772		28.405401	41.332330	86.876589
44773		28.305677	41.347801	86.854596
44774		28.387603	41.359807	86.808788
44775		28.541548	41.443443	86.677952
44776		28.652293	41.569539	86.437761
44777		28.848196	41.712545	86.103913
44778		29.146831	41.947187	85.748468
44779		29.416906	42.210300	85.320512
44780		29.682753	42.527888	84.841746
44781		29.802307	42.832218	84.329701
44782		29.895653	43.128371	83.820122
44783		29.959949	43.442270	83.389478
44784		30.098293	43.714864	83.035527
44785		30.320506	43.993045	82.709763
44786		30.446012	44.258665	82.323009
44787		30.484812	44.454875	81.893593
44788		30.543185	44.610715	81.537276
44789		30.503493	44.776054	81.194672
44790		30.234581	44.951854	80.799718
44791		29.875923	45.141663	80.399168
44792		29.486606	45.266738	79.993779
44793		29.234505	45.401353	79.682615
44794		28.977467	45.526023	79.408999
44795		28.784536	45.629983	79.184870
44796		28.700755	45.753973	78.995548
44797		28.657899	45.854279	78.782190
44798		28.664494	45.953548	78.636758
44799		28.655246	46.064391	78.559386
44800		28.608638	46.182101	78.490162
44801		28.501497	46.324590	78.487977
44802		28.412438	46.501163	78.522138
44803		28.335902	46.675858	78.558494
44804		28.259455	46.808365	78.629317
44805		28.251003	46.902610	78.747052
44806		28.324053	47.034373	78.841701
44807		28.359378	47.183495	78.869748
44808		28.410648	47.277550	78.864073
44809		28.571207	47.331698	78.915143
44810		28.742566	47.349217	79.001922
44811		28.833720	47.336759	79.033624
44812		28.857552	47.343740	78.995932
44813		28.892393	47.351785	78.962998
44814		28.924543	47.341312	78.961074
44815		28.962581	47.323070	78.979529
44816		28.962055	47.277982	78.971780
44817		28.939873	47.178947	78.941283
44818		28.913132	47.055057	78.907152
44819		28.851247	46.934689	78.880017
44820		28.779382	46.810101	78.856908
44821		28.711793	46.652377	78.850722
44822		28.652606	46.479698	78.861039
44823		28.553434	46.307975	78.835873
44824		28.414169	46.120436	78.815970
44825		28.210284	45.889477	78.843528
44826		28.045807	45.627379	78.909825
44827		27.837790	45.250275	78.963367
44828		27.685972	44.799192	79.081619
44829		27.545519	44.271283	79.260952
44830		27.442652	43.741714	79.544534
44831		27.255787	43.171698	79.807317
44832		26.950714	42.599249	80.134144
44833		26.584537	42.056432	80.549455
44834		26.140251	41.520267	81.012004
44835		25.636766	40.962005	81.444817
44836		25.141547	40.324489	81.849409
44837		24.683872	39.651968	82.328150
44838		24.235405	39.069700	82.897766
44839		23.782386	38.596247	83.443625
44840		23.271324	38.140804	83.979760
44841		22.834908	37.694377	84.623081
44842		22.488503	37.245853	85.316677
44843		22.142249	36.862259	86.050393
44844		21.759360	36.558912	86.811182
44845		21.363136	36.235263	87.561971
44846		21.114466	35.927788	88.327508
44847		20.944775	35.661112	89.101960
44848		20.806642	35.385467	89.887004
44849		20.703376	35.197154	90.699486
44850		20.546798	35.073866	91.507911
44851		20.342640	34.847879	92.316086
44852		20.137435	34.520901	93.075444
44853		20.035973	34.212262	93.825340
44854		20.086681	33.954517	94.604992
44855		20.172709	33.695849	95.351744
44856		20.174697	33.377511	96.057157
44857		20.121619	33.091853	96.691269
44858		20.032975	32.887223	97.312715
44859		19.797036	32.690024	97.977332
44860		19.439781	32.442150	98.623552
44861		19.053607	32.186897	99.156530
44862		18.724803	31.886705	99.632160
44863		18.624857	31.592369	100.155863
44864		18.603613	31.323754	100.697966
44865		18.582546	31.042342	101.137863
44866		18.581308	30.796955	101.548090
44867		18.519380	30.559385	101.917902
44868		18.446833	30.407611	102.207779
44869		18.314918	30.302517	102.540482
44870		18.073922	30.122108	102.900716
44871		17.868870	29.893095	103.214766
44872		17.880679	29.733188	103.490692
44873		18.028916	29.664900	103.763564
44874		18.051128	29.657065	103.955203
44875		17.952810	29.664232	104.051405
44876		17.886719	29.705680	104.100289
44877		17.855432	29.761767	104.072064
44878		17.912938	29.760781	104.029131
44879		18.077309	29.740009	103.998598
44880		18.205190	29.735159	103.977588
44881		18.151064	29.708058	103.963122
44882		17.981590	29.674695	103.913409
44883		17.770317	29.654073	103.823655
44884		17.685594	29.653007	103.760168
44885		17.656217	29.588476	103.745520
44886		17.622595	29.476247	103.754084
44887		17.542661	29.265740	103.787284
44888		17.445217	29.119915	103.894994
44889		17.189573	29.008013	103.988888
44890		16.915629	28.897864	104.108632
44891		16.709998	28.833101	104.268980
44892		16.517276	28.815758	104.407152
44893		16.369099	28.766278	104.529156
44894		16.272974	28.695224	104.654914
44895		16.208297	28.649300	104.787412
44896		16.198148	28.563740	104.900181
44897		16.236084	28.463298	105.026125
44898		16.284857	28.368498	105.199576
44899		16.340279	28.279086	105.400831
44900		16.328015	28.194422	105.575346
44901		16.329236	28.122283	105.721445
44902		16.436308	28.081922	105.877815
44903		16.528268	28.041339	106.042318
44904		16.557175	27.974441	106.167639
44905		16.523991	27.928511	106.237568
44906		16.503275	27.939107	106.288599
44907		16.481714	27.940883	106.316256
44908		16.470904	27.943193	106.317970
44909		16.480888	27.971199	106.294848
44910		16.475874	28.009416	106.281052
44911		16.498801	28.009101	106.287209
44912		16.566919	28.010932	106.304524
44913		16.593869	28.033872	106.323822
44914		16.587777	28.043514	106.338453
44915		16.599646	28.029079	106.337141
44916		16.636529	28.036871	106.340220
44917		16.740566	28.069681	106.348050
44918		16.845231	28.067560	106.339829
44919		16.971253	28.045552	106.354520
44920		17.106861	28.023424	106.401389
44921		17.163219	27.976453	106.424494
44922		17.152227	27.935581	106.410921
44923		17.134800	27.949139	106.396466
44924		17.119476	27.990640	106.378890
44925		17.104514	27.986787	106.337427
44926		17.116424	27.973274	106.270385
44927		17.199055	27.996025	106.232703
44928		17.266790	28.019458	106.206177
44929		17.283720	28.014242	106.133780
44930		17.306727	27.996908	106.041983
44931		17.369392	27.995603	105.937755
44932		17.455656	28.028422	105.808521
44933		17.527000	28.101453	105.668675
44934		17.543806	28.162652	105.497438
44935		17.554684	28.209649	105.320891
44936		17.645179	28.264466	105.162205
44937		17.716925	28.318314	105.009629
44938		17.799797	28.362777	104.861871
44939		17.922531	28.394267	104.710090
44940		18.126413	28.423666	104.560842
44941		18.353702	28.470668	104.412292
44942		18.513658	28.472568	104.247934
44943		18.678629	28.465394	104.088646
44944		18.830898	28.492685	103.934962
44945		18.938716	28.549986	103.767397
44946		19.018320	28.598043	103.589569
44947		19.139417	28.643635	103.402009
44948		19.322995	28.656749	103.192111
44949		19.605049	28.661454	102.948569
44950		19.907692	28.707063	102.673894
44951		20.133086	28.772545	102.394939
44952		20.210962	28.784686	102.106810
44953		20.174084	28.782034	101.780216
44954		20.136803	28.853378	101.413697
44955		20.316028	28.895627	100.992065
44956		20.761957	28.959380	100.495226
44957		21.234850	29.103018	99.954718
44958		21.517963	29.247578	99.473702
44959		21.529909	29.365945	99.101339
44960		21.477515	29.457069	98.735182
44961		21.568623	29.562214	98.300201
44962		21.847024	29.756861	97.772982
44963		22.247020	30.089659	97.137564
44964		22.691788	30.417978	96.408294
44965		23.277870	30.729354	95.581689
44966		23.947390	31.078130	94.624089
44967		24.511192	31.338752	93.570771
44968		24.829142	31.580153	92.552261
44969		24.770647	31.867969	91.613342
44970		24.544487	32.259162	90.750021
44971		24.329616	32.823639	89.955861
44972		24.070189	33.440653	89.183729
44973		23.963783	34.030957	88.469347
44974		24.174096	34.562241	87.838969
44975		24.656164	35.070896	87.254980
44976		25.253267	35.603500	86.681894
44977		25.848513	36.211514	86.134684
44978		26.383552	36.867369	85.703407
44979		26.880884	37.574971	85.517473
44980		27.026638	38.164276	85.453274
44981		27.061346	38.511192	85.544143
44982		26.964228	38.755057	85.768039
44983		26.723910	38.912362	85.940444
44984		26.588720	39.001442	86.013467
44985		26.548629	39.092925	86.028561
44986		26.555816	39.167042	86.040003
44987		26.616648	39.197706	86.129024
44988		26.807313	39.248510	86.232956
44989		27.031941	39.316232	86.296715
44990		27.309316	39.347072	86.325066
44991		27.646337	39.383856	86.333970
44992		27.953136	39.470324	86.348012
44993		28.247076	39.591937	86.344226
44994		28.594886	39.743196	86.302263
44995		28.850222	39.976347	86.151118
44996		29.064851	40.232926	85.925390
44997		29.239158	40.517608	85.659453
44998		29.472195	40.831292	85.405773
44999		29.756157	41.222850	85.148954
45000		29.961531	41.657776	84.815330
45001		30.125052	42.136915	84.456586
45002		30.280605	42.633006	84.118012
45003		30.488090	43.154810	83.768489
45004		30.762895	43.658860	83.372399
45005		31.044083	44.121378	82.944944
45006		31.271334	44.591640	82.547486
45007		31.378066	45.093739	82.159137
45008		31.354056	45.517222	81.751958
45009		31.295340	45.919931	81.394589
45010		31.069417	46.315157	80.979580
45011		30.801603	46.685965	80.581588
45012		30.558691	47.010771	80.237276
45013		30.371355	47.298773	79.938474
45014		30.288891	47.509099	79.680784
45015		30.367937	47.675398	79.517434
45016		30.487330	47.836849	79.400336
45017		30.528905	47.946635	79.350718
45018		30.531212	48.085647	79.390502
45019		30.563919	48.259867	79.489312
45020		30.619645	48.454641	79.576065
45021		30.628399	48.630872	79.587474
45022		30.714263	48.766937	79.603453
45023		30.912886	48.878617	79.659458
45024		31.100971	48.954707	79.684980
45025		31.187913	48.989872	79.650719
45026		31.240308	49.028480	79.624085
45027		31.282185	49.059492	79.627100
45028		31.271685	49.057585	79.630459
45029		31.221682	49.032906	79.600162
45030		31.187447	48.976679	79.568572
45031		31.171306	48.881382	79.558006
45032		31.148964	48.754206	79.571432
45033		31.109032	48.638329	79.583791
45034		31.064247	48.530768	79.588009
45035		30.934088	48.449708	79.560281
45036		30.783913	48.341932	79.492189
45037		30.677893	48.174271	79.455054
45038		30.511441	48.018985	79.439822
45039		30.290684	47.832347	79.438670
45040		30.059593	47.527933	79.425769
45041		29.846941	47.115313	79.454061
45042		29.768790	46.692112	79.618561
45043		29.622735	46.232129	79.809099
45044		29.441223	45.757343	80.048971
45045		29.300382	45.279998	80.357707
45046		29.022453	44.808602	80.722075
45047		28.699480	44.331366	81.133854
45048		28.315020	43.842799	81.555495
45049		27.931017	43.375703	81.967801
45050		27.666196	42.933135	82.371391
45051		27.372029	42.505570	82.746676
45052		27.032339	42.059548	83.100551
45053		26.676893	41.609610	83.461082
45054		26.331580	41.155440	83.814898
45055		25.980629	40.718841	84.187153
45056		25.500507	40.308097	84.510169
45057		24.899944	39.963604	84.828900
45058		24.304662	39.631714	85.203845
45059		23.870960	39.265709	85.672711
45060		23.581500	38.845334	86.202961
45061		23.347082	38.446596	86.786052
45062		23.093010	38.046950	87.387279
45063		22.898120	37.691140	88.024113
45064		22.692630	37.303359	88.622344
45065		22.494211	36.936681	89.260584
45066		22.288705	36.605085	89.937481
45067		22.050433	36.276729	90.628848
45068		21.834501	35.946691	91.337968
45069		21.653085	35.638425	92.040141
45070		21.536878	35.345401	92.692028
45071		21.468346	35.076595	93.320975
45072		21.334338	34.822818	93.930121
45073		21.181189	34.610923	94.525243
45074		20.998303	34.423644	95.167788
45075		20.798119	34.185585	95.846943
45076		20.656301	33.929799	96.501428
45077		20.567506	33.660101	97.096755
45078		20.492427	33.382073	97.658526
45079		20.470290	33.125297	98.212159
45080		20.409817	32.844577	98.778125
45081		20.282611	32.542641	99.383541
45082		20.133096	32.279879	99.944660
45083		19.955666	32.065777	100.418301
45084		19.707937	31.887244	100.869906
45085		19.411966	31.616773	101.270095
45086		19.226753	31.343601	101.671016
45087		19.022253	31.158623	102.039906
45088		18.749349	31.010314	102.292285
45089		18.495404	30.890269	102.511086
45090		18.303467	30.804420	102.787606
45091		18.120004	30.701609	103.070514
45092		17.959618	30.527669	103.318823
45093		17.929000	30.387459	103.577559
45094		17.948625	30.285782	103.837299
45095		18.020735	30.184370	104.081602
45096		18.003315	30.110115	104.309232
45097		17.928560	30.047967	104.449024
45098		17.980292	30.039177	104.565975
45099		17.981287	30.097975	104.633206
45100		17.848375	30.127324	104.589745
45101		17.802161	30.149355	104.519247
45102		17.843696	30.175527	104.494549
45103		17.896308	30.129711	104.485766
45104		17.936475	30.082251	104.470425
45105		17.859576	30.058858	104.480619
45106		17.690091	30.020616	104.513724
45107		17.531327	29.939780	104.556439
45108		17.447505	29.889601	104.608591
45109		17.344033	29.864518	104.642483
45110		17.207203	29.795550	104.678922
45111		17.062077	29.722258	104.715324
45112		16.917909	29.683288	104.765365
45113		16.796736	29.660836	104.831630
45114		16.645614	29.629278	104.887368
45115		16.520310	29.579911	104.939669
45116		16.497295	29.572289	105.011739
45117		16.444454	29.574830	105.056745
45118		16.331870	29.563171	105.052885
45119		16.249871	29.575965	105.050846
45120		16.208982	29.564199	105.042292
45121		16.217112	29.548592	105.052396
45122		16.191504	29.512648	105.078719
45123		16.152590	29.482755	105.112238
45124		16.116634	29.456825	105.169103
45125		16.090165	29.408409	105.262233
45126		16.081826	29.366721	105.375041
45127		16.057746	29.336587	105.466718
45128		16.019808	29.320628	105.535385
45129		15.925196	29.301743	105.579706
45130		15.878525	29.281483	105.592337
45131		15.923661	29.296960	105.595767
45132		15.980808	29.318076	105.601458
45133		16.011685	29.298865	105.619279
45134		16.072765	29.292930	105.639008
45135		16.117585	29.322417	105.659805
45136		16.098295	29.340712	105.675014
45137		16.066781	29.336564	105.673812
45138		16.121396	29.339887	105.693027
45139		16.226009	29.351375	105.725464
45140		16.278225	29.348755	105.740524
45141		16.334927	29.342497	105.760937
45142		16.453992	29.331090	105.805433
45143		16.607722	29.322589	105.861859
45144		16.759259	29.317041	105.937302
45145		16.880943	29.294460	106.008494
45146		16.940126	29.259888	106.048620
45147		16.982787	29.257130	106.071970
45148		17.057912	29.240064	106.106117
45149		17.170647	29.200071	106.143071
45150		17.331103	29.156530	106.158101
45151		17.520610	29.138587	106.190265
45152		17.687713	29.125252	106.244233
45153		17.804578	29.097526	106.266517
45154		17.861858	29.085621	106.269726
45155		17.898106	29.098710	106.290710
45156		17.929088	29.114273	106.297785
45157		17.926209	29.118321	106.234266
45158		17.900872	29.131726	106.127350
45159		17.920440	29.172298	105.991204
45160		17.979750	29.225404	105.822363
45161		18.052296	29.267859	105.607384
45162		18.147947	29.317664	105.412843
45163		18.244882	29.399628	105.270782
45164		18.260385	29.429344	105.126705
45165		18.255167	29.441579	104.935946
45166		18.236801	29.484447	104.725591
45167		18.239498	29.547820	104.532332
45168		18.263441	29.596790	104.339498
45169		18.333444	29.654657	104.116332
45170		18.463216	29.730550	103.875462
45171		18.632462	29.804135	103.657610
45172		18.811773	29.853278	103.430291
45173		18.970790	29.906147	103.155827
45174		19.099988	29.974147	102.894174
45175		19.210840	30.030604	102.674054
45176		19.304393	30.071658	102.455955
45177		19.424829	30.114662	102.223196
45178		19.570319	30.204356	102.034547
45179		19.733481	30.297221	101.899130
45180		19.891387	30.346236	101.747866
45181		20.070792	30.383119	101.572062
45182		20.253430	30.426262	101.393662
45183		20.392764	30.493111	101.215252
45184		20.493656	30.557096	101.006046
45185		20.597253	30.629360	100.749650
45186		20.778041	30.744173	100.469519
45187		21.050743	30.880547	100.161736
45188		21.338091	31.066925	99.827044
45189		21.605338	31.270615	99.475848
45190		21.858683	31.413537	99.097993
45191		22.162507	31.512554	98.677805
45192		22.535429	31.668360	98.195417
45193		22.911521	31.896302	97.662809
45194		23.216944	32.170965	97.111106
45195		23.483243	32.444102	96.600680
45196		23.708600	32.688954	96.129225
45197		23.923694	32.926682	95.642630
45198		24.166394	33.206757	95.107556
45199		24.461393	33.548137	94.501058
45200		24.825540	33.935523	93.828111
45201		25.163280	34.434773	93.153743
45202		25.389328	35.036115	92.526121
45203		25.540668	35.616911	91.918360
45204		25.554625	36.264874	91.320419
45205		25.407613	36.897886	90.678212
45206		25.339290	37.439735	90.047675
45207		25.372210	37.866888	89.540842
45208		25.465740	38.215950	89.058647
45209		25.739335	38.526845	88.606994
45210		26.279439	38.873072	88.297069
45211		26.789368	39.168104	88.070352
45212		27.246612	39.342001	87.912517
45213		27.831934	39.571744	87.881299
45214		28.582084	39.998650	87.908091
45215		29.510940	40.511439	87.879695
45216		30.720459	41.113261	87.766450
45217		31.587686	41.938249	87.552532
45218		31.687882	42.731314	87.394267
45219		31.871683	43.434008	87.613750
45220		32.111589	43.703158	87.799922
45221		32.277298	43.681960	87.839403
45222		32.229284	43.702732	87.809610
45223		31.971208	43.807749	87.752218
45224		31.623404	43.893970	87.663113
45225		31.353055	43.888040	87.623516
45226		31.185386	43.819010	87.571572
45227		31.139569	43.746078	87.459915
45228		31.268394	43.726703	87.340362
45229		31.558608	43.744143	87.251915
45230		31.825764	43.857172	87.108757
45231		31.800412	44.029079	86.833980
45232		31.642891	44.249823	86.447236
45233		31.506013	44.543911	86.075236
45234		31.319707	44.827362	85.591292
45235		30.998758	45.164599	84.924551
45236		30.599082	45.522810	84.164863
45237		30.355328	45.854799	83.483078
45238		30.240762	46.076723	82.893058
45239		30.294030	46.291292	82.415810
45240		30.392269	46.525965	82.025283
45241		30.318109	46.738619	81.678303
45242		30.182256	46.906995	81.474540
45243		29.983341	47.139464	81.294761
45244		29.562691	47.489072	80.963978
45245		29.095899	47.861813	80.527657
45246		28.753570	48.027041	80.083243
45247		28.653773	48.132417	79.677756
45248		28.584678	48.248054	79.207627
45249		28.703587	48.311426	78.819342
45250		28.739032	48.415144	78.489718
45251		28.530370	48.502007	78.173670
45252		28.425942	48.575040	77.982814
45253		28.447791	48.702471	77.951507
45254		28.356545	48.795369	77.900213
45255		28.306875	48.876211	77.867980
45256		28.312797	49.002936	77.848797
45257		28.288728	49.149421	77.842963
45258		28.227475	49.294531	77.803163
45259		28.210924	49.427290	77.786992
45260		28.288792	49.556786	77.849112
45261		28.517813	49.631389	77.970283
45262		28.767426	49.659804	78.095451
45263		28.924229	49.683156	78.159634
45264		28.999622	49.724469	78.179799
45265		29.033173	49.712710	78.207461
45266		29.041837	49.646892	78.248294
45267		29.004690	49.546284	78.282339
45268		28.949414	49.451858	78.287218
45269		28.866377	49.353150	78.266145
45270		28.816689	49.252244	78.257196
45271		28.807361	49.182587	78.252886
45272		28.832533	49.155861	78.252901
45273		28.881747	49.115950	78.249393
45274		28.891007	49.021097	78.242483
45275		28.916632	48.883691	78.217006
45276		29.024263	48.700066	78.210793
45277		29.125497	48.469442	78.225753
45278		29.240586	48.187594	78.310396
45279		29.336574	47.852208	78.472821
45280		29.301721	47.487791	78.616088
45281		29.174145	47.108806	78.732421
45282		28.963184	46.659821	78.927576
45283		28.889899	46.177241	79.269685
45284		28.830948	45.648476	79.621355
45285		28.634964	45.063002	79.992330
45286		28.467852	44.482384	80.452275
45287		28.351477	43.867000	80.983597
45288		28.157218	43.214447	81.538174
45289		27.887359	42.602307	82.153404
45290		27.497220	42.033874	82.777794
45291		26.987054	41.502221	83.458085
45292		26.529629	40.963867	84.217435
45293		26.079615	40.426240	85.063901
45294		25.556371	39.924495	85.930432
45295		24.934306	39.403471	86.753203
45296		24.291395	38.845234	87.537796
45297		23.690726	38.311644	88.304700
45298		23.151174	37.813466	89.089307
45299		22.718039	37.350860	89.898451
45300		22.351855	36.945020	90.753732
45301		22.081786	36.533846	91.589727
45302		21.830685	36.091958	92.361188
45303		21.643967	35.662887	93.132385
45304		21.584982	35.371375	93.988825
45305		21.462313	35.084138	94.877319
45306		21.372692	34.770368	95.776640
45307		21.318899	34.497059	96.621713
45308		21.212206	34.183962	97.343543
45309		21.094094	33.755223	98.056400
45310		20.923102	33.282171	98.829747
45311		20.752821	32.871910	99.548037
45312		20.693302	32.575407	100.219000
45313		20.671296	32.320617	100.873147
45314		20.581451	32.151019	101.449779
45315		20.418638	32.019861	101.941537
45316		20.324062	31.765004	102.451650
45317		20.347808	31.474630	102.976778
45318		20.472713	31.212795	103.474525
45319		20.609577	30.920109	103.937829
45320		20.713015	30.617773	104.336264
45321		20.758286	30.364604	104.607923
45322		20.680078	30.168888	104.901070
45323		20.440710	30.025868	105.234471
45324		20.189035	29.881215	105.499175
45325		20.150695	29.733813	105.731371
45326		20.293262	29.589564	105.990468
45327		20.528052	29.353150	106.222675
45328		20.766528	29.151466	106.407408
45329		20.859837	29.074057	106.587029
45330		20.725720	29.027962	106.725502
45331		20.570239	29.041794	106.775149
45332		20.478958	29.147004	106.766826
45333		20.395623	29.220458	106.715287
45334		20.400745	29.199643	106.651379
45335		20.480220	29.180973	106.612906
45336		20.501831	29.191316	106.592694
45337		20.393944	29.165734	106.542640
45338		20.256554	29.154318	106.470298
45339		20.123337	29.164849	106.389857
45340		19.990908	29.139517	106.303948
45341		19.954741	29.059854	106.265461
45342		19.877806	29.018471	106.263743
45343		19.668190	28.974285	106.253495
45344		19.475419	28.911696	106.269934
45345		19.292726	28.860704	106.318702
45346		19.196381	28.747410	106.398802
45347		19.200481	28.650088	106.512857
45348		19.113195	28.596990	106.586302
45349		18.942247	28.551893	106.635941
45350		18.806233	28.514294	106.712605
45351		18.712104	28.485415	106.784864
45352		18.616461	28.424209	106.843771
45353		18.593810	28.345496	106.890109
45354		18.582835	28.317567	106.946257
45355		18.561807	28.297441	106.993971
45356		18.546130	28.254343	107.054637
45357		18.589380	28.233028	107.123044
45358		18.623244	28.209669	107.171443
45359		18.642962	28.168780	107.244044
45360		18.656281	28.119408	107.316764
45361		18.672205	28.067380	107.376406
45362		18.736700	28.052584	107.420561
45363		18.784421	28.050967	107.454898
45364		18.781695	28.041015	107.496880
45365		18.770316	28.037184	107.551448
45366		18.791676	28.048893	107.607617
45367		18.792601	28.047498	107.656848
45368		18.765276	28.049724	107.692145
45369		18.744521	28.051726	107.709403
45370		18.744853	28.070225	107.707903
45371		18.728281	28.088077	107.699773
45372		18.727694	28.101893	107.705716
45373		18.745845	28.100925	107.704792
45374		18.769659	28.099217	107.708112
45375		18.808023	28.091729	107.728568
45376		18.874080	28.055327	107.751532
45377		18.948827	28.021347	107.784354
45378		19.000541	28.000089	107.816314
45379		19.057800	27.962018	107.835660
45380		19.121547	27.929290	107.835631
45381		19.172667	27.920337	107.826066
45382		19.220286	27.925799	107.809612
45383		19.284165	27.942378	107.792458
45384		19.353504	27.946183	107.784717
45385		19.436528	27.947947	107.795103
45386		19.507142	27.957778	107.798239
45387		19.558207	28.001918	107.774696
45388		19.600562	28.058117	107.751644
45389		19.691115	28.125929	107.748848
45390		19.807965	28.193194	107.734680
45391		19.894092	28.256353	107.699742
45392		19.903944	28.299071	107.645598
45393		19.905441	28.361507	107.580091
45394		19.892913	28.440605	107.502182
45395		19.857518	28.509250	107.424790
45396		19.880108	28.562434	107.353684
45397		19.998006	28.614107	107.283011
45398		20.194574	28.654246	107.214319
45399		20.408785	28.698621	107.144113
45400		20.634994	28.765643	107.065387
45401		20.810024	28.821151	106.977168
45402		20.954804	28.856672	106.853889
45403		21.135592	28.920695	106.686349
45404		21.331318	29.032264	106.474117
45405		21.488806	29.140344	106.217129
45406		21.618558	29.301218	105.931399
45407		21.799988	29.605031	105.653656
45408		21.868326	29.922991	105.287818
45409		21.873459	30.204273	104.817592
45410		21.938074	30.518059	104.331626
45411		22.133762	30.842605	103.904595
45412		22.357240	31.132247	103.515851
45413		22.581958	31.405838	103.051403
45414		22.826705	31.705016	102.521476
45415		23.016101	31.913260	101.919447
45416		23.231016	32.155259	101.280465
45417		23.480144	32.600413	100.640067
45418		23.754171	33.027921	99.993840
45419		23.950285	33.249644	99.308254
45420		24.204815	33.449554	98.531566
45421		24.594755	33.855082	97.626059
45422		24.903416	34.577603	96.701640
45423		25.030226	35.315710	95.933818
45424		24.972085	35.862600	95.250540
45425		24.929228	36.299369	94.415014
45426		25.087132	36.809159	93.287153
45427		25.330282	37.419492	92.046084
45428		25.321994	38.046293	91.048627
45429		25.167714	38.604273	90.475053
45430		24.746160	38.980469	90.035481
45431		24.696335	39.295918	89.636775
45432		25.153332	39.767062	89.260367
45433		25.613145	40.321503	88.784811
45434		26.058373	40.791358	88.309420
45435		26.624735	41.203096	87.963813
45436		27.320114	41.634460	87.650702
45437		27.787813	42.185661	87.255780
45438		27.959609	42.819854	86.766194
45439		27.850765	43.470489	86.448231
45440		27.861209	43.956639	86.346035
45441		27.951092	44.239510	86.270640
45442		27.965596	44.448569	86.277199
45443		27.983417	44.623884	86.410454
45444		27.924852	44.775093	86.506648
45445		27.742892	44.908117	86.455635
45446		27.563027	45.036750	86.403665
45447		27.512216	45.119351	86.430707
45448		27.645920	45.163983	86.500550
45449		28.005678	45.199742	86.549829
45450		28.545814	45.236221	86.530954
45451		29.050635	45.299820	86.538363
45452		29.500863	45.355526	86.526966
45453		29.993605	45.530909	86.404110
45454		30.398139	45.786013	86.158747
45455		30.573380	46.078463	85.838499
45456		30.539764	46.375613	85.397611
45457		30.473088	46.676876	84.959079
45458		30.634654	46.918956	84.675963
45459		30.979708	47.108971	84.502564
45460		31.379852	47.284115	84.299882
45461		31.815432	47.407364	84.023677
45462		32.147983	47.528214	83.788865
45463		32.259349	47.696266	83.552454
45464		32.173335	47.956107	83.308470
45465		31.971664	48.231539	83.006988
45466		31.881027	48.487450	82.746375
45467		31.815811	48.716839	82.504381
45468		31.750845	48.865977	82.256180
45469		31.796780	48.979057	82.035340
45470		31.823970	49.083893	81.822920
45471		31.788218	49.208646	81.644050
45472		31.759947	49.354301	81.572066
45473		31.753914	49.446145	81.617262
45474		31.804413	49.577114	81.730262
45475		31.852592	49.766241	81.833564
45476		31.883514	49.983043	81.890592
45477		32.005128	50.182517	81.957299
45478		32.222249	50.390230	82.101710
45479		32.455452	50.584168	82.290386
45480		32.676504	50.736077	82.403180
45481		32.808653	50.870154	82.435983
45482		32.916929	50.979999	82.453767
45483		33.087276	51.053636	82.515829
45484		33.214202	51.083862	82.558879
45485		33.247291	51.060076	82.514632
45486		33.184022	51.008668	82.434938
45487		33.115004	50.918570	82.362082
45488		33.046381	50.782384	82.268906
45489		32.945154	50.623844	82.165623
45490		32.787624	50.396486	82.020521
45491		32.647855	50.135629	81.898721
45492		32.479353	49.925154	81.809181
45493		32.315420	49.669261	81.724120
45494		32.099871	49.389811	81.665712
45495		31.837122	49.079139	81.616393
45496		31.590856	48.726853	81.594650
45497		31.353223	48.314127	81.582599
45498		31.083977	47.864309	81.635456
45499		30.875966	47.397165	81.738243
45500		30.645523	46.873559	81.836685
45501		30.369748	46.355446	82.027202
45502		30.117572	45.843609	82.298659
45503		29.914372	45.346960	82.667723
45504		29.754653	44.832455	83.066056
45505		29.642711	44.321306	83.539366
45506		29.543960	43.825217	84.073895
45507		29.443007	43.358946	84.636918
45508		29.345369	42.885858	85.160292
45509		29.233737	42.441360	85.659835
45510		29.048279	42.006619	86.173324
45511		28.827150	41.524204	86.754660
45512		28.667122	40.993979	87.406523
45513		28.467637	40.508767	88.003311
45514		28.243465	40.067509	88.557174
45515		28.024126	39.531150	89.192530
45516		27.859789	38.926276	89.911599
45517		27.592723	38.339416	90.650349
45518		27.173810	37.807704	91.383101
45519		26.828980	37.329608	92.137786
45520		26.485749	36.886785	92.915137
45521		26.081229	36.539656	93.691080
45522		25.682261	36.220777	94.431098
45523		25.369437	35.897478	95.235211
45524		25.159922	35.611359	96.051082
45525		24.985801	35.312304	96.736484
45526		24.757886	35.025185	97.363638
45527		24.478331	34.802054	97.913371
45528		24.254861	34.604372	98.448280
45529		24.057351	34.370448	99.018401
45530		23.821695	34.111801	99.530972
45531		23.543851	33.808909	100.002648
45532		23.272503	33.509295	100.414012
45533		23.199980	33.303686	100.867584
45534		23.293414	33.105426	101.402079
45535		23.435632	32.913039	101.929893
45536		23.430791	32.672009	102.366654
45537		23.330409	32.377136	102.779327
45538		23.350391	32.067512	103.291322
45539		23.530743	31.751364	103.868225
45540		23.722327	31.452113	104.342166
45541		23.861081	31.153091	104.748383
45542		23.911703	30.786862	105.167846
45543		23.965160	30.409297	105.557611
45544		24.042742	30.101394	105.877230
45545		24.077550	29.922530	106.167246
45546		23.985147	29.820816	106.424707
45547		23.738931	29.809982	106.582556
45548		23.393228	29.911370	106.559799
45549		23.098946	29.988085	106.480224
45550		23.058395	29.990697	106.444058
45551		23.166844	29.994839	106.402627
45552		23.184558	30.001521	106.341533
45553		23.139577	29.994090	106.310417
45554		23.088775	29.997670	106.312548
45555		22.958714	30.006361	106.326601
45556		22.874427	29.993865	106.319041
45557		22.907177	29.989506	106.305013
45558		22.990228	29.984461	106.306433
45559		23.043103	29.963916	106.276716
45560		23.005218	29.943501	106.210040
45561		22.896551	29.900559	106.163109
45562		22.772906	29.859718	106.131595
45563		22.637267	29.831047	106.085658
45564		22.554288	29.776922	106.078489
45565		22.489738	29.701588	106.098085
45566		22.352889	29.635055	106.116028
45567		22.171210	29.535860	106.148014
45568		22.008273	29.433818	106.218137
45569		21.887094	29.362468	106.294070
45570		21.793659	29.318968	106.372127
45571		21.622184	29.249818	106.422467
45572		21.468009	29.177378	106.502248
45573		21.349189	29.145025	106.590592
45574		21.250274	29.097164	106.665304
45575		21.153799	28.998034	106.732680
45576		21.122949	28.897468	106.801816
45577		21.127652	28.841278	106.877665
45578		21.081007	28.792233	106.951112
45579		21.020612	28.741783	107.000705
45580		21.005857	28.693976	107.038063
45581		20.986094	28.630031	107.074903
45582		20.949902	28.568008	107.122212
45583		20.861682	28.546398	107.158846
45584		20.756642	28.517877	107.186619
45585		20.707289	28.467624	107.266606
45586		20.680036	28.413733	107.381645
45587		20.666299	28.355994	107.520210
45588		20.690794	28.298308	107.653921
45589		20.663263	28.279435	107.769641
45590		20.612963	28.289271	107.836116
45591		20.524329	28.303460	107.818941
45592		20.494387	28.350997	107.772177
45593		20.504078	28.404746	107.733787
45594		20.499678	28.413725	107.699097
45595		20.531644	28.425428	107.689631
45596		20.568712	28.432850	107.728970
45597		20.538459	28.426885	107.766593
45598		20.486063	28.430926	107.780188
45599		20.512067	28.428312	107.784501
45600		20.611890	28.412022	107.793984
45601		20.716361	28.415578	107.807491
45602		20.780538	28.414739	107.824978
45603		20.838898	28.395956	107.848002
45604		20.894724	28.383719	107.879512
45605		20.936511	28.366914	107.924542
45606		21.003065	28.324424	107.972155
45607		21.107124	28.277424	108.006455
45608		21.220138	28.273837	108.031943
45609		21.309698	28.285525	108.080741
45610		21.374411	28.276980	108.130178
45611		21.424808	28.276995	108.156987
45612		21.448451	28.289056	108.183595
45613		21.446936	28.278232	108.207906
45614		21.467981	28.263060	108.228864
45615		21.509404	28.284915	108.253164
45616		21.532601	28.316407	108.274314
45617		21.564570	28.346569	108.272083
45618		21.603087	28.391072	108.257290
45619		21.634631	28.426935	108.244502
45620		21.681120	28.452717	108.216930
45621		21.734371	28.495728	108.167172
45622		21.761129	28.526903	108.121491
45623		21.805888	28.517362	108.081925
45624		21.902952	28.526410	108.031272
45625		22.051386	28.569787	107.977138
45626		22.178249	28.608457	107.925248
45627		22.296682	28.637850	107.869603
45628		22.408487	28.670044	107.791534
45629		22.515224	28.699387	107.698589
45630		22.599622	28.725782	107.607615
45631		22.703735	28.766526	107.481285
45632		22.824533	28.793853	107.349700
45633		22.925635	28.801426	107.228046
45634		23.022880	28.819961	107.093331
45635		23.150543	28.881407	106.912970
45636		23.318454	28.948905	106.687176
45637		23.470560	29.015050	106.440521
45638		23.577159	29.083047	106.139879
45639		23.698604	29.213705	105.750749
45640		23.815865	29.430841	105.322329
45641		23.866523	29.655794	104.912224
45642		23.768518	29.807793	104.451495
45643		23.633629	29.959934	103.844450
45644		23.620742	30.212046	103.119049
45645		23.695007	30.613826	102.347313
45646		23.653165	30.991401	101.507553
45647		23.603133	31.218245	100.629232
45648		23.676498	31.430197	99.786901
45649		23.753000	31.633057	99.014697
45650		23.768668	31.829362	98.271078
45651		23.791888	32.138240	97.523651
45652		23.810961	32.574691	96.770295
45653		23.941971	33.011430	96.042650
45654		24.198605	33.435976	95.411102
45655		24.548990	33.826818	94.866182
45656		25.059395	34.187493	94.348889
45657		25.730603	34.571096	93.799329
45658		26.377924	35.010530	93.174418
45659		26.921504	35.489222	92.508065
45660		27.378873	36.054979	91.888319
45661		27.623763	36.669391	91.236779
45662		27.608520	37.272888	90.462560
45663		27.417057	37.995568	89.740508
45664		27.254654	38.722329	89.158420
45665		27.812731	39.327398	88.906456
45666		28.568881	39.830970	88.790699
45667		29.105032	40.082432	88.587365
45668		29.579331	40.316820	88.455927
45669		29.991230	40.535929	88.452799
45670		30.288979	40.666818	88.586945
45671		30.354833	40.815561	88.840519
45672		30.257175	41.026834	89.069540
45673		30.155518	41.269877	89.181431
45674		30.124196	41.456032	89.209311
45675		30.180190	41.555995	89.223132
45676		30.298522	41.631925	89.259629
45677		30.529281	41.714589	89.287568
45678		30.847438	41.816342	89.285365
45679		31.049046	41.913379	89.261989
45680		31.177166	41.938334	89.174977
45681		31.399762	41.952473	89.019334
45682		31.636909	42.110167	88.741079
45683		31.778755	42.381445	88.364287
45684		31.874956	42.680930	87.929832
45685		31.917519	42.983958	87.455922
45686		31.935471	43.381923	86.957612
45687		32.016684	43.825053	86.460947
45688		32.209801	44.226510	85.994189
45689		32.344191	44.542398	85.455677
45690		32.383448	44.898155	84.943564
45691		32.437932	45.236737	84.561019
45692		32.536432	45.483686	84.260709
45693		32.627042	45.737935	83.972933
45694		32.679574	45.914514	83.637515
45695		32.804614	46.059991	83.384407
45696		32.850977	46.262961	83.153714
45697		32.756513	46.426722	82.860248
45698		32.744563	46.529626	82.637383
45699		32.738828	46.724644	82.439423
45700		32.526959	46.975670	82.114846
45701		32.349791	47.236594	81.731916
45702		32.242367	47.493575	81.409418
45703		32.162286	47.752731	81.170797
45704		32.156005	48.030673	80.985877
45705		32.210650	48.334542	80.864737
45706		32.228036	48.600142	80.716748
45707		32.251408	48.891304	80.726003
45708		32.369618	49.228494	80.926086
45709		32.574195	49.531515	81.183470
45710		32.726677	49.797752	81.389440
45711		32.801242	50.036277	81.517206
45712		32.973616	50.311304	81.653826
45713		33.206137	50.609396	81.793713
45714		33.498756	50.854140	81.984322
45715		33.873626	51.067459	82.244600
45716		34.216959	51.269112	82.466781
45717		34.395818	51.429160	82.589620
45718		34.494449	51.537792	82.646463
45719		34.580943	51.612364	82.702582
45720		34.651547	51.634739	82.744347
45721		34.629356	51.599258	82.726549
45722		34.545584	51.555977	82.643908
45723		34.453990	51.517705	82.547813
45724		34.370314	51.482511	82.478463
45725		34.297568	51.446899	82.432317
45726		34.241138	51.403797	82.397094
45727		34.193874	51.351367	82.340715
45728		34.242090	51.295196	82.293170
45729		34.396155	51.184626	82.268146
45730		34.466772	51.032794	82.237381
45731		34.346863	50.888490	82.155633
45732		34.187257	50.700244	82.036140
45733		34.090471	50.447035	81.958614
45734		33.958780	50.231173	81.896927
45735		33.784245	50.076195	81.815863
45736		33.648106	49.941966	81.743093
45737		33.509016	49.812772	81.676208
45738		33.443394	49.736547	81.634463
45739		33.491269	49.640115	81.574502
45740		33.586370	49.519093	81.530773
45741		33.582280	49.452888	81.514425
45742		33.548986	49.454618	81.492837
45743		33.555933	49.489010	81.478117
45744		33.574676	49.486393	81.458260
45745		33.586594	49.465691	81.425796
45746		33.603349	49.448588	81.382138
45747		33.614880	49.407606	81.345927
45748		33.602755	49.329823	81.304049
45749		33.511214	49.216170	81.247105
45750		33.405719	49.075346	81.135351
45751		33.245325	48.863541	80.994816
45752		33.037749	48.558852	80.882767
45753		32.935148	48.186676	80.846147
45754		32.826462	47.728731	80.928171
45755		32.772889	47.228193	81.159342
45756		32.701338	46.732331	81.438272
45757		32.483793	46.158756	81.727684
45758		32.251219	45.501234	82.124141
45759		32.021446	44.803546	82.560300
45760		31.672772	44.095439	83.022591
45761		31.128163	43.396119	83.538573
45762		30.533205	42.690573	84.107309
45763		29.963002	41.982953	84.680845
45764		29.385172	41.272751	85.264306
45765		28.856897	40.618361	85.891120
45766		28.342149	40.062791	86.482097
45767		27.850114	39.518942	87.030087
45768		27.431446	38.939026	87.666992
45769		27.191892	38.398214	88.425699
45770		26.803719	37.842845	89.094742
45771		26.361803	37.329657	89.681621
45772		25.952192	36.895256	90.295625
45773		25.572971	36.552562	90.978277
45774		25.064215	36.191164	91.639498
45775		24.526326	35.772726	92.313844
45776		24.059843	35.362019	93.039021
45777		23.745325	34.985415	93.756905
45778		23.618078	34.634485	94.390252
45779		23.541876	34.318765	95.031735
45780		23.459281	34.076637	95.683275
45781		23.269970	33.883560	96.394903
45782		23.058404	33.650552	97.169900
45783		22.879996	33.388677	97.925579
45784		22.746115	33.148361	98.631248
45785		22.669122	32.897003	99.290352
45786		22.513509	32.611883	99.895395
45787		22.358933	32.339284	100.407188
45788		22.157225	32.121511	100.938765
45789		21.881324	31.836782	101.497463
45790		21.631604	31.555574	102.044766
45791		21.417304	31.309526	102.551885
45792		21.260024	31.011807	102.999760
45793		21.305439	30.747042	103.380581
45794		21.444954	30.459446	103.766154
45795		21.601238	30.142249	104.166900
45796		21.751466	29.903642	104.543467
45797		21.714546	29.771382	104.917009
45798		21.488345	29.637043	105.220434
45799		21.302720	29.573301	105.455082
45800		21.162233	29.528298	105.648439
45801		21.144255	29.396005	105.840757
45802		21.237890	29.257906	106.038245
45803		21.327022	29.172516	106.157752
45804		21.315085	29.239938	106.176795
45805		21.166674	29.375306	106.126840
45806		21.081848	29.422361	106.092913
45807		21.138458	29.402131	106.109181
45808		21.257800	29.405124	106.116178
45809		21.269910	29.413942	106.067336
45810		21.156612	29.416380	105.982982
45811		20.957676	29.362712	105.905689
45812		20.808926	29.281407	105.913385
45813		20.712318	29.191803	105.961723
45814		20.626800	29.097204	106.000345
45815		20.534413	29.022084	106.072313
45816		20.391802	28.905297	106.149354
45817		20.300537	28.809949	106.240196
45818		20.207282	28.726032	106.337444
45819		20.076686	28.661071	106.417613
45820		19.888602	28.591460	106.470674
45821		19.762714	28.503756	106.546052
45822		19.693813	28.420706	106.637009
45823		19.623077	28.358768	106.700169
45824		19.551878	28.323796	106.747347
45825		19.459288	28.310977	106.780315
45826		19.444361	28.306995	106.816961
45827		19.498216	28.297590	106.862132
45828		19.539952	28.301145	106.901460
45829		19.528409	28.302846	106.922016
45830		19.492214	28.322423	106.934561
45831		19.494070	28.334563	106.950851
45832		19.482078	28.332288	106.962482
45833		19.417695	28.348879	106.969199
45834		19.373037	28.337383	106.976560
45835		19.387259	28.339837	107.030794
45836		19.382760	28.325742	107.091467
45837		19.367238	28.290881	107.151258
45838		19.359538	28.252228	107.213553
45839		19.376147	28.229788	107.287138
45840		19.330845	28.208557	107.341017
45841		19.265893	28.210241	107.359652
45842		19.235376	28.239872	107.353884
45843		19.230252	28.273758	107.339613
45844		19.262725	28.272116	107.337130
45845		19.334299	28.277576	107.356986
45846		19.384143	28.300107	107.392832
45847		19.368573	28.299387	107.414051
45848		19.373831	28.290478	107.432102
45849		19.438780	28.298813	107.469507
45850		19.537449	28.292313	107.508789
45851		19.657726	28.273769	107.541676
45852		19.792450	28.261314	107.577833
45853		19.920071	28.248552	107.622504
45854		20.017309	28.206919	107.655230
45855		20.079869	28.160656	107.681054
45856		20.136643	28.160885	107.717019
45857		20.179069	28.186465	107.755874
45858		20.194646	28.177493	107.780498
45859		20.204388	28.177436	107.794163
45860		20.225896	28.182044	107.818393
45861		20.244769	28.178189	107.835854
45862		20.250385	28.202928	107.825230
45863		20.260507	28.239021	107.804050
45864		20.311530	28.263132	107.769018
45865		20.421951	28.301488	107.723223
45866		20.526758	28.320277	107.683488
45867		20.601094	28.317115	107.641339
45868		20.677136	28.338536	107.569618
45869		20.774437	28.399569	107.489940
45870		20.873433	28.478415	107.414798
45871		21.005929	28.567120	107.325814
45872		21.176969	28.641662	107.216429
45873		21.360736	28.661471	107.110750
45874		21.581440	28.656608	107.017276
45875		21.814392	28.650179	106.919602
45876		22.054359	28.658534	106.838927
45877		22.300191	28.664334	106.782432
45878		22.532288	28.663130	106.711139
45879		22.701801	28.673633	106.607745
45880		22.761434	28.708187	106.468038
45881		22.710217	28.749348	106.266091
45882		22.633649	28.800607	106.010547
45883		22.616897	28.866137	105.712732
45884		22.686443	28.962907	105.367313
45885		22.881430	29.157396	104.973040
45886		23.184584	29.415898	104.541916
45887		23.476701	29.660284	104.013881
45888		23.745653	29.876407	103.351933
45889		24.106225	30.163657	102.577087
45890		24.512020	30.577206	101.714235
45891		24.791369	31.052339	100.932225
45892		24.826881	31.458739	100.291537
45893		24.726425	31.774157	99.678592
45894		24.759786	32.091141	99.000546
45895		25.004717	32.481549	98.254108
45896		25.386631	32.916888	97.503436
45897		25.842087	33.306966	96.737832
45898		26.332929	33.640605	95.916033
45899		26.760303	34.177100	95.065794
45900		27.034367	34.777232	94.178240
45901		27.351521	35.317141	93.363644
45902		27.733638	35.811011	92.712716
45903		27.974004	36.262163	92.127580
45904		28.125292	36.703028	91.566636
45905		28.286719	37.165151	91.035030
45906		28.411127	37.585737	90.535580
45907		28.540181	38.003217	90.096847
45908		28.842898	38.466226	89.724984
45909		29.200701	38.998934	89.488329
45910		29.221749	39.410422	89.369944
45911		29.315936	39.529187	89.321491
45912		29.699665	39.610406	89.349404
45913		30.203736	39.869638	89.351455
45914		30.731780	40.273811	89.321835
45915		31.261340	40.771719	89.237968
45916		31.774335	41.436498	89.065933
45917		31.967989	42.153088	88.838393
45918		32.185304	42.750513	88.829429
45919		32.659274	43.128688	88.961507
45920		33.238489	43.363076	89.054312
45921		33.736828	43.598382	89.064396
45922		33.990389	43.876989	89.134178
45923		34.067954	44.207167	89.306697
45924		33.955637	44.498088	89.336920
45925		33.723362	44.708731	89.260668
45926		33.551904	44.864730	89.217188
45927		33.502847	44.939616	89.181054
45928		33.576540	44.965142	89.122254
45929		33.722738	45.014120	89.022188
45930		33.883922	45.080602	88.920584
45931		34.003330	45.111336	88.813981
45932		34.030974	45.199905	88.641089
45933		33.972007	45.361257	88.386275
45934		33.807371	45.543887	88.081546
45935		33.522911	45.684140	87.699558
45936		33.123031	45.851334	87.225500
45937		32.692898	46.036738	86.794183
45938		32.300993	46.187768	86.401082
45939		31.955741	46.346680	85.955784
45940		31.665424	46.495185	85.556111
45941		31.547088	46.622150	85.268545
45942		31.654022	46.654357	85.045083
45943		32.015787	46.661103	84.941741
45944		32.242684	46.651668	84.823366
45945		32.348192	46.643610	84.701768
45946		32.355015	46.685751	84.634254
45947		32.322740	46.728944	84.590173
45948		32.300771	46.744471	84.534505
45949		32.456504	46.770191	84.470001
45950		32.571254	46.842241	84.304528
45951		32.544528	46.883609	84.036349
45952		32.539896	46.943087	83.816180
45953		32.432744	47.024009	83.566426
45954		32.293571	47.113019	83.309370
45955		32.154747	47.221829	83.072375
45956		32.047583	47.337977	82.870837
45957		31.981740	47.480925	82.774973
45958		31.993808	47.635558	82.812906
45959		32.068336	47.759107	82.931350
45960		32.171778	47.892855	83.056879
45961		32.283752	48.102921	83.208849
45962		32.466675	48.350685	83.376227
45963		32.820306	48.576086	83.593375
45964		33.269752	48.776327	83.874264
45965		33.770782	48.958611	84.177759
45966		34.320205	49.141814	84.465122
45967		34.890612	49.336857	84.739102
45968		35.424515	49.484460	85.012686
45969		35.879814	49.587327	85.278689
45970		36.203348	49.653169	85.500286
45971		36.447235	49.651167	85.617909
45972		36.608815	49.604471	85.669383
45973		36.651562	49.549871	85.693658
45974		36.567686	49.475707	85.657096
45975		36.441080	49.360310	85.599638
45976		36.316924	49.229879	85.555340
45977		36.190411	49.099023	85.510150
45978		36.053662	48.954912	85.468042
45979		35.953294	48.787246	85.451013
45980		35.916149	48.629718	85.461120
45981		35.868326	48.439803	85.420091
45982		35.793441	48.255422	85.393979
45983		35.698660	48.096432	85.361092
45984		35.585460	47.956292	85.320322
45985		35.546587	47.794140	85.289786
45986		35.502631	47.596630	85.270807
45987		35.414707	47.380433	85.300380
45988		35.301522	47.128205	85.334952
45989		35.234640	46.831244	85.421000
45990		35.160648	46.454834	85.521023
45991		35.027151	46.037382	85.692356
45992		34.837384	45.602695	85.928629
45993		34.581622	45.158491	86.168420
45994		34.216457	44.724620	86.406618
45995		33.803111	44.382424	86.716431
45996		33.308960	44.102467	86.964097
45997		32.624477	43.805451	87.151992
45998		31.887216	43.514870	87.320623
45999		31.225317	43.231526	87.443797
46000		30.524224	42.901074	87.470100
46001		29.825744	42.500115	87.476511
46002		29.263577	42.018983	87.491817
46003		28.722241	41.423311	87.542338
46004		28.293988	40.757391	87.697863
46005		28.026848	40.006471	87.926156
46006		27.730960	39.368642	88.258850
46007		27.366701	38.902908	88.614636
46008		26.885305	38.362787	88.987291
46009		26.446098	37.715615	89.498856
46010		25.996524	37.178773	90.168942
46011		25.330419	36.737795	90.802461
46012		24.665268	36.358591	91.519754
46013		24.128289	35.996248	92.323765
46014		23.586813	35.550896	93.008387
46015		23.096633	35.176735	93.661844
46016		22.713318	34.876485	94.335829
46017		22.442445	34.631530	95.039255
46018		22.229829	34.422108	95.730320
46019		22.033810	34.229199	96.338016
46020		21.857549	34.066885	96.917668
46021		21.685588	33.969751	97.469766
46022		21.580064	33.867867	97.979492
46023		21.502285	33.732173	98.475749
46024		21.369757	33.566775	98.944523
46025		21.254679	33.419680	99.384602
46026		21.187522	33.315596	99.839078
46027		21.153009	33.248892	100.300138
46028		21.121128	33.116707	100.759311
46029		21.108928	32.943302	101.211533
46030		21.078167	32.696410	101.674563
46031		21.160399	32.429143	102.137080
46032		21.312145	32.228955	102.538455
46033		21.442045	32.093870	102.982875
46034		21.455549	31.940298	103.451589
46035		21.260211	31.748585	103.843903
46036		21.121709	31.514816	104.178547
46037		21.190743	31.286784	104.536755
46038		21.368293	31.065792	104.882872
46039		21.590117	30.842370	105.204447
46040		21.707212	30.615319	105.492047
46041		21.790962	30.440899	105.754347
46042		21.799112	30.344114	106.004639
46043		21.614673	30.323049	106.168136
46044		21.335612	30.344169	106.192726
46045		21.195308	30.390225	106.192285
46046		21.203732	30.436139	106.181931
46047		21.368435	30.497991	106.163147
46048		21.671209	30.518491	106.154946
46049		21.988098	30.483660	106.209088
46050		22.174267	30.402649	106.291762
46051		22.124479	30.357206	106.319719
46052		21.884462	30.354510	106.273789
46053		21.590786	30.334388	106.215880
46054		21.336701	30.279477	106.186340
46055		21.168275	30.182181	106.168059
46056		21.078507	30.098562	106.170359
46057		20.968491	29.990307	106.183346
46058		20.885975	29.892736	106.252943
46059		20.787932	29.797463	106.330822
46060		20.693854	29.699681	106.409454
46061		20.579683	29.622915	106.498682
46062		20.442916	29.571605	106.582102
46063		20.248288	29.506340	106.632026
46064		20.070177	29.423888	106.681896
46065		19.956035	29.347903	106.709161
46066		19.896682	29.298695	106.740148
46067		19.829424	29.238082	106.779525
46068		19.779206	29.170423	106.843871
46069		19.761847	29.132624	106.918709
46070		19.775123	29.113687	106.948896
46071		19.863151	29.100742	106.977477
46072		19.922018	29.080695	107.012527
46073		19.897232	29.071037	107.034958
46074		19.833959	29.070875	107.063820
46075		19.746222	29.062205	107.081176
46076		19.615880	29.018200	107.110620
46077		19.527145	28.947261	107.178440
46078		19.485453	28.910171	107.248259
46079		19.457954	28.888509	107.302359
46080		19.443981	28.878023	107.345392
46081		19.411696	28.884100	107.366646
46082		19.381291	28.900558	107.357978
46083		19.382986	28.941149	107.348227
46084		19.357869	28.957709	107.329599
46085		19.364280	28.954652	107.317679
46086		19.402252	28.964589	107.325303
46087		19.400109	28.974140	107.330834
46088		19.396989	28.986001	107.351910
46089		19.436210	28.964567	107.391728
46090		19.545903	28.937855	107.441247
46091		19.673566	28.925074	107.490609
46092		19.777653	28.890080	107.530988
46093		19.874291	28.843524	107.577190
46094		19.992892	28.819676	107.628116
46095		20.122346	28.785994	107.671779
46096		20.248562	28.759262	107.732410
46097		20.345853	28.735289	107.795093
46098		20.404815	28.712143	107.825794
46099		20.436213	28.712952	107.834717
46100		20.426222	28.734429	107.849923
46101		20.400457	28.754279	107.835243
46102		20.430102	28.778795	107.794950
46103		20.501583	28.832018	107.751038
46104		20.544701	28.878692	107.696032
46105		20.566408	28.911741	107.633692
46106		20.556826	28.947896	107.566365
46107		20.546340	29.004307	107.486076
46108		20.556450	29.079420	107.393617
46109		20.604451	29.136069	107.295538
46110		20.686920	29.171080	107.197382
46111		20.810953	29.209162	107.092770
46112		20.958160	29.244150	106.986244
46113		21.114511	29.271597	106.882628
46114		21.327233	29.307513	106.810045
46115		21.641984	29.350098	106.769298
46116		21.958815	29.349883	106.730561
46117		22.158588	29.353815	106.687229
46118		22.163712	29.390267	106.624057
46119		22.038132	29.443420	106.550629
46120		21.899500	29.515594	106.449634
46121		21.819822	29.595173	106.342991
46122		21.806625	29.654268	106.238538
46123		21.870542	29.696715	106.104713
46124		22.012619	29.744602	105.931877
46125		22.223402	29.777295	105.725128
46126		22.441592	29.810407	105.473519
46127		22.588587	29.893420	105.161794
46128		22.687221	30.057187	104.796494
46129		22.779759	30.265206	104.405550
46130		22.887058	30.452961	104.046455
46131		22.969324	30.592897	103.680509
46132		23.073041	30.741525	103.255660
46133		23.168866	30.953840	102.754205
46134		23.229414	31.270268	102.245270
46135		23.262638	31.625096	101.754231
46136		23.261459	31.966083	101.152807
46137		23.263124	32.412714	100.385498
46138		23.379332	32.955485	99.600715
46139		23.492609	33.454005	99.061745
46140		23.428406	33.742705	98.686865
46141		23.286570	33.901392	98.267344
46142		23.269439	34.115115	97.728662
46143		23.579043	34.459128	97.107726
46144		24.129595	34.835641	96.483201
46145		24.714707	35.244957	95.904031
46146		25.102748	35.644108	95.400600
46147		25.415445	35.982153	94.958397
46148		25.691938	36.288829	94.479971
46149		26.004820	36.605625	93.896217
46150		26.311540	36.985248	93.183565
46151		26.537885	37.361224	92.503491
46152		26.686359	37.660508	91.957235
46153		26.872655	37.974106	91.475901
46154		26.980028	38.407098	90.930589
46155		26.911128	38.900159	90.249871
46156		26.923659	39.430338	89.530253
46157		27.196720	39.970651	88.933396
46158		27.578763	40.528896	88.419419
46159		27.868641	40.869659	87.934211
46160		28.306358	41.091609	87.688774
46161		28.831580	41.369409	87.600095
46162		29.393780	41.681494	87.581689
46163		29.846611	41.961485	87.747626
46164		30.097067	42.416658	88.271654
46165		30.291500	42.872163	88.731806
46166		30.242805	43.116990	88.863859
46167		30.097183	43.195371	88.829816
46168		30.120893	43.234593	88.819651
46169		30.326315	43.202758	88.820757
46170		30.606386	43.158547	88.790942
46171		30.913867	43.133066	88.738053
46172		31.233264	43.102707	88.668994
46173		31.549880	43.108091	88.646956
46174		31.811215	43.188171	88.589968
46175		32.037236	43.311597	88.408027
46176		32.301744	43.527184	88.178175
46177		32.563790	43.787323	87.938153
46178		32.787103	44.089000	87.682918
46179		32.999490	44.403140	87.377210
46180		33.276036	44.744287	87.054443
46181		33.459555	45.105948	86.709292
46182		33.542931	45.461310	86.342627
46183		33.640314	45.835920	86.010400
46184		33.699645	46.235864	85.714403
46185		33.727858	46.613937	85.420518
46186		33.853488	46.932251	85.193398
46187		34.046689	47.188687	84.952430
46188		34.245190	47.435529	84.668511
46189		34.394238	47.656241	84.378687
46190		34.492862	47.850043	84.153804
46191		34.501654	48.051219	83.944421
46192		34.427807	48.271194	83.724530
46193		34.356486	48.513795	83.505793
46194		34.280583	48.741466	83.292074
46195		34.256598	48.962886	83.115970
46196		34.328379	49.176669	82.973006
46197		34.442190	49.377140	82.849773
46198		34.572493	49.528708	82.839122
46199		34.781425	49.654644	82.999323
46200		35.056946	49.752107	83.301141
46201		35.388213	49.903327	83.666904
46202		35.639291	50.125774	83.962337
46203		35.880580	50.403543	84.233237
46204		36.207785	50.736619	84.485550
46205		36.545594	51.048642	84.748975
46206		37.007866	51.307503	85.136628
46207		37.493428	51.484169	85.487036
46208		37.826493	51.640271	85.679691
46209		37.976074	51.785914	85.800705
46210		38.033962	51.846063	85.887852
46211		38.060156	51.841065	85.923720
46212		38.046430	51.826301	85.920563
46213		37.966239	51.776366	85.855472
46214		37.830458	51.698960	85.742629
46215		37.705106	51.629190	85.621160
46216		37.611753	51.570750	85.534433
46217		37.496501	51.488685	85.449938
46218		37.368097	51.361035	85.320242
46219		37.290019	51.233299	85.193661
46220		37.241928	51.129511	85.110355
46221		37.195983	51.027223	85.022268
46222		37.132248	50.948586	84.927947
46223		37.042811	50.881458	84.840951
46224		36.984674	50.843843	84.792272
46225		36.912947	50.796803	84.720747
46226		36.849625	50.702671	84.619588
46227		36.793812	50.577126	84.544795
46228		36.736414	50.453802	84.477927
46229		36.683820	50.315016	84.395466
46230		36.610451	50.152859	84.309495
46231		36.415773	49.942552	84.183729
46232		36.155994	49.758442	84.039604
46233		35.900558	49.568791	83.909581
46234		35.593677	49.302138	83.797056
46235		35.281332	48.987487	83.682088
46236		34.998987	48.603575	83.560848
46237		34.768874	48.133634	83.539281
46238		34.572993	47.648652	83.690570
46239		34.307615	47.132580	83.893874
46240		33.993980	46.599207	84.092789
46241		33.687328	46.087684	84.332294
46242		33.395004	45.530003	84.600690
46243		33.094509	44.929072	84.917460
46244		32.716587	44.327415	85.262823
46245		32.273378	43.719025	85.560105
46246		31.759176	43.096853	85.832369
46247		31.242134	42.516721	86.130372
46248		30.697918	41.943226	86.449087
46249		30.160740	41.292495	86.812772
46250		29.682702	40.691498	87.334311
46251		29.087239	40.148286	87.809863
46252		28.475156	39.590454	88.261490
46253		27.879696	38.998004	88.845497
46254		27.318393	38.506108	89.666900
46255		26.669525	37.970669	90.431341
46256		26.021484	37.324880	91.122111
46257		25.534811	36.745627	91.904804
46258		25.138455	36.349445	92.787752
46259		24.644423	36.061988	93.702900
46260		24.090461	35.670578	94.507042
46261		23.573241	35.295987	95.293087
46262		23.008994	34.971287	96.082966
46263		22.500448	34.638984	96.860965
46264		22.118472	34.285743	97.611320
46265		21.907382	33.915648	98.254745
46266		21.822167	33.515316	98.857959
46267		21.756697	33.145052	99.456003
46268		21.711218	32.862184	100.060417
46269		21.666182	32.625972	100.671915
46270		21.555797	32.367763	101.224267
46271		21.402976	32.081732	101.801369
46272		21.183705	31.764457	102.374702
46273		21.008643	31.483253	102.894597
46274		20.985178	31.269418	103.430885
46275		20.988896	30.996435	103.972153
46276		20.989052	30.615749	104.465790
46277		21.028330	30.289920	104.900111
46278		21.118152	30.056286	105.314122
46279		21.226405	29.828105	105.740802
46280		21.302554	29.602732	106.136589
46281		21.313039	29.464972	106.449196
46282		21.218802	29.356980	106.736254
46283		21.093638	29.271816	106.988428
46284		20.896871	29.285496	107.103392
46285		20.661136	29.384383	107.135619
46286		20.427127	29.454857	107.126364
46287		20.340066	29.474948	107.089628
46288		20.398382	29.526224	107.044506
46289		20.402581	29.585706	106.960350
46290		20.407210	29.614486	106.902491
46291		20.441314	29.619213	106.910260
46292		20.431479	29.650918	106.927189
46293		20.393331	29.666837	106.907309
46294		20.368251	29.653668	106.864692
46295		20.402747	29.658596	106.840215
46296		20.419228	29.624183	106.823719
46297		20.400339	29.552604	106.783903
46298		20.367485	29.465006	106.758069
46299		20.368480	29.361273	106.823358
46300		20.257236	29.252919	106.864649
46301		20.111045	29.182142	106.913042
46302		19.939846	29.098911	106.984052
46303		19.819176	28.982532	107.084388
46304		19.757963	28.885652	107.196930
46305		19.674918	28.820774	107.294617
46306		19.585413	28.763671	107.372848
46307		19.502030	28.685794	107.453797
46308		19.484645	28.595551	107.531422
46309		19.514656	28.518691	107.594482
46310		19.510146	28.453777	107.674897
46311		19.450430	28.391703	107.744107
46312		19.392078	28.340499	107.809365
46313		19.386289	28.312202	107.875409
46314		19.368031	28.263584	107.932617
46315		19.349527	28.215674	107.987844
46316		19.305750	28.165087	108.022778
46317		19.234057	28.125235	108.055075
46318		19.174548	28.106458	108.101364
46319		19.023219	28.120762	108.148527
46320		18.820777	28.126587	108.180587
46321		18.737402	28.163928	108.210721
46322		18.763971	28.222225	108.240492
46323		18.805885	28.211641	108.248234
46324		18.892141	28.199287	108.258030
46325		18.970085	28.224203	108.268731
46326		18.954251	28.239506	108.262356
46327		18.907850	28.245002	108.261215
46328		18.908467	28.262454	108.279607
46329		18.935251	28.255431	108.303456
46330		18.987078	28.232513	108.327328
46331		19.075728	28.234404	108.358027
46332		19.156716	28.239310	108.399215
46333		19.228251	28.208285	108.454161
46334		19.352662	28.131426	108.522145
46335		19.529181	28.033428	108.612933
46336		19.686451	27.961582	108.716229
46337		19.716275	27.981692	108.788428
46338		19.570035	28.022777	108.821147
46339		19.367474	28.034499	108.817159
46340		19.242634	28.066395	108.789838
46341		19.252608	28.124270	108.766555
46342		19.355135	28.148458	108.745693
46343		19.522556	28.148991	108.711206
46344		19.732494	28.179751	108.664785
46345		19.909570	28.206773	108.618317
46346		20.025487	28.223202	108.564612
46347		20.097770	28.252662	108.493739
46348		20.202775	28.311958	108.416971
46349		20.324651	28.405918	108.361720
46350		20.329163	28.443675	108.279232
46351		20.351086	28.488427	108.164396
46352		20.449980	28.572391	108.041445
46353		20.582950	28.652836	107.956449
46354		20.700595	28.691495	107.877870
46355		20.847474	28.714395	107.779189
46356		21.020342	28.755440	107.684466
46357		21.177617	28.804977	107.616603
46358		21.272385	28.826049	107.547958
46359		21.349609	28.842542	107.478755
46360		21.425004	28.868789	107.436191
46361		21.473738	28.886078	107.377240
46362		21.512292	28.894670	107.288417
46363		21.546112	28.918466	107.186614
46364		21.570539	28.954296	107.095065
46365		21.642813	28.993162	106.995595
46366		21.785872	29.035800	106.880498
46367		21.934928	29.075112	106.761721
46368		22.076605	29.100403	106.626569
46369		22.223592	29.120109	106.475228
46370		22.356414	29.131328	106.309706
46371		22.485688	29.145892	106.137099
46372		22.630575	29.188801	105.922190
46373		22.779136	29.250025	105.645475
46374		22.954118	29.352122	105.358884
46375		23.144923	29.476751	105.101412
46376		23.275352	29.577929	104.845264
46377		23.378673	29.670674	104.524508
46378		23.463557	29.815180	104.086797
46379		23.547473	30.000912	103.608019
46380		23.617929	30.161667	103.183268
46381		23.665969	30.319112	102.774521
46382		23.760402	30.511800	102.326621
46383		23.955960	30.684200	101.871246
46384		24.253198	30.803217	101.464735
46385		24.485890	30.832420	101.077364
46386		24.673707	30.830445	100.659752
46387		24.874975	30.877491	100.205802
46388		25.102198	30.984089	99.722970
46389		25.352907	31.132687	99.226762
46390		25.596957	31.361709	98.722538
46391		25.856935	31.698787	98.170855
46392		26.157782	32.135475	97.507380
46393		26.498919	32.621613	96.778158
46394		26.897042	33.105731	96.082863
46395		27.267107	33.654581	95.382751
46396		27.565264	34.236957	94.602768
46397		27.862726	34.870917	93.840074
46398		28.089895	35.435073	93.143185
46399		28.260303	35.835275	92.546094
46400		28.471584	36.239566	92.016815
46401		28.844906	36.746925	91.566475
46402		29.394425	37.346066	91.107456
46403		29.863917	37.964457	90.577596
46404		30.218802	38.537771	90.045965
46405		30.666251	39.146923	89.611111
46406		31.211114	39.752196	89.225794
46407		31.886598	40.342422	88.841292
46408		32.711097	41.140137	88.457020
46409		32.915949	42.155753	88.134521
46410		33.018623	43.399095	88.357766
46411		33.011534	44.150259	88.538949
46412		32.849856	44.140522	88.599155
46413		32.844141	44.051432	88.669479
46414		32.725198	44.144234	88.711792
46415		32.433346	44.272567	88.606682
46416		32.177716	44.265371	88.495235
46417		32.041185	44.128309	88.428040
46418		31.954287	43.969953	88.346058
46419		31.974876	43.867911	88.225232
46420		32.129614	43.854957	88.117381
46421		32.345647	43.881528	88.043507
46422		32.571120	43.934361	88.042446
46423		32.811279	44.031129	88.072017
46424		33.062992	44.139207	88.104591
46425		33.390046	44.283993	88.136075
46426		33.768589	44.464959	88.157586
46427		34.146928	44.617301	88.107343
46428		34.494640	44.828309	87.982881
46429		34.627285	45.138976	87.777306
46430		34.606059	45.498816	87.463322
46431		34.593582	45.843030	87.175688
46432		34.572124	46.158985	86.891516
46433		34.557238	46.444649	86.584140
46434		34.598837	46.786888	86.271607
46435		34.643891	47.156978	85.933040
46436		34.823007	47.483666	85.670307
46437		35.015017	47.805429	85.398988
46438		35.162055	48.060400	85.073327
46439		35.354266	48.295047	84.819155
46440		35.463657	48.476715	84.552478
46441		35.489648	48.686117	84.297816
46442		35.382134	48.898065	84.042980
46443		35.158975	49.022509	83.767659
46444		34.885578	49.118341	83.532445
46445		34.640121	49.219420	83.350311
46446		34.534459	49.273861	83.207384
46447		34.505299	49.280968	83.083132
46448		34.518233	49.304585	82.999432
46449		34.624624	49.377943	83.038148
46450		34.836620	49.529091	83.247190
46451		35.177774	49.763400	83.538305
46452		35.502099	50.077167	83.748596
46453		35.810332	50.476430	83.898670
46454		36.214327	50.878975	84.117645
46455		36.810741	51.238310	84.514454
46456		37.468843	51.565993	84.945710
46457		38.077925	51.868439	85.314968
46458		38.518890	52.119754	85.586877
46459		38.814104	52.297225	85.766043
46460		39.002746	52.420830	85.916552
46461		39.089527	52.477719	85.975634
46462		39.061851	52.466510	85.933999
46463		38.937537	52.453168	85.831322
46464		38.800012	52.445801	85.741418
46465		38.692403	52.425541	85.673705
46466		38.570441	52.407732	85.612758
46467		38.483773	52.390942	85.578796
46468		38.457123	52.383356	85.567070
46469		38.432443	52.380209	85.545774
46470		38.448363	52.333635	85.535457
46471		38.535854	52.223651	85.523110
46472		38.549622	52.157715	85.523434
46473		38.475830	52.110313	85.475541
46474		38.425198	52.026540	85.399248
46475		38.397739	51.914313	85.343987
46476		38.300257	51.827833	85.301667
46477		38.176864	51.752453	85.234834
46478		38.075143	51.672820	85.153685
46479		37.972259	51.574876	85.078018
46480		37.868166	51.476466	85.021782
46481		37.802626	51.391123	84.980182
46482		37.758255	51.315855	84.927537
46483		37.677450	51.197516	84.865615
46484		37.627921	51.013354	84.797662
46485		37.537139	50.790292	84.723474
46486		37.347420	50.586450	84.631723
46487		37.107332	50.434462	84.508170
46488		36.833824	50.245396	84.346294
46489		36.585889	49.995653	84.190100
46490		36.301369	49.750431	84.005117
46491		36.012806	49.481924	83.796681
46492		35.833378	49.190115	83.652185
46493		35.637264	48.848212	83.548527
46494		35.418241	48.432779	83.528312
46495		35.093077	47.921716	83.560333
46496		34.702778	47.359640	83.633496
46497		34.297576	46.738228	83.735870
46498		33.959283	46.092693	83.938520
46499		33.628655	45.450008	84.173775
46500		33.256755	44.785271	84.393375
46501		32.788779	44.159954	84.673658
46502		32.203399	43.595651	84.940114
46503		31.615854	43.011520	85.207202
46504		31.075338	42.386425	85.520339
46505		30.577413	41.695025	85.866588
46506		30.069087	40.944705	86.329898
46507		29.516132	40.268915	86.855720
46508		28.855059	39.604999	87.247011
46509		28.205977	38.834279	87.660392
46510		27.691508	38.003754	88.282904
46511		27.137955	37.322797	89.121832
46512		26.370336	36.773627	89.838273
46513		25.657383	36.259069	90.499715
46514		25.127866	35.786031	91.252007
46515		24.700536	35.362051	92.013200
46516		24.281297	34.976124	92.739037
46517		23.836851	34.642371	93.459694
46518		23.482279	34.327363	94.193155
46519		23.268885	34.055390	94.924069
46520		23.143331	33.847011	95.664931
46521		22.997238	33.678330	96.392861
46522		22.795127	33.489654	97.127555
46523		22.518701	33.310613	97.870571
46524		22.274274	33.212579	98.678933
46525		22.142002	33.123868	99.475391
46526		21.893093	32.867497	100.180526
46527		21.677197	32.601251	100.817697
46528		21.507394	32.335940	101.417888
46529		21.355492	32.063700	102.051873
46530		21.228540	31.829091	102.644497
46531		21.070473	31.688135	103.227794
46532		20.766106	31.503368	103.791861
46533		20.462023	31.256663	104.313756
46534		20.134395	30.988663	104.776126
46535		19.948493	30.733486	105.250029
46536		19.970717	30.515204	105.723335
46537		19.997321	30.319136	106.119595
46538		19.843715	30.149100	106.393325
46539		19.699699	29.992626	106.666774
46540		19.657752	29.882737	106.940022
46541		19.592185	29.687739	107.134016
46542		19.657549	29.470906	107.256083
46543		19.781493	29.399602	107.359729
46544		19.808766	29.490139	107.452892
46545		19.660703	29.711541	107.425885
46546		19.256591	29.806158	107.340768
46547		19.113112	29.758502	107.319603
46548		19.407956	29.737792	107.367236
46549		19.772346	29.777529	107.419617
46550		19.909326	29.786775	107.446378
46551		19.847735	29.762670	107.444477
46552		19.760955	29.779257	107.447395
46553		19.714803	29.805285	107.451331
46554		19.749719	29.781787	107.437339
46555		19.857902	29.753781	107.432511
46556		19.925464	29.733178	107.447390
46557		19.907053	29.695359	107.467301
46558		19.867933	29.670702	107.485249
46559		19.789914	29.655820	107.490220
46560		19.753146	29.641828	107.542160
46561		19.731812	29.597299	107.586425
46562		19.763239	29.579212	107.595463
46563		19.791944	29.590388	107.597723
46564		19.742501	29.573783	107.600272
46565		19.679923	29.528003	107.606866
46566		19.673124	29.523619	107.625952
46567		19.654531	29.507808	107.634482
46568		19.611784	29.466849	107.636864
46569		19.582702	29.460915	107.646781
46570		19.562609	29.462080	107.654502
46571		19.541464	29.443782	107.660943
46572		19.489075	29.417714	107.660228
46573		19.437216	29.385433	107.656624
46574		19.403553	29.373730	107.696466
46575		19.293458	29.350506	107.762835
46576		19.136266	29.316359	107.800069
46577		19.026343	29.314798	107.819420
46578		18.965674	29.315220	107.831584
46579		18.996037	29.314049	107.834518
46580		19.045929	29.319148	107.830821
46581		19.095674	29.342668	107.828118
46582		19.114219	29.356186	107.838040
46583		19.089302	29.356382	107.842516
46584		19.077961	29.372153	107.852504
46585		19.082755	29.383879	107.859014
46586		19.110121	29.384384	107.872417
46587		19.155596	29.374924	107.901819
46588		19.233287	29.360507	107.941742
46589		19.316766	29.348577	107.982120
46590		19.404586	29.329575	108.023837
46591		19.481580	29.299274	108.082735
46592		19.571805	29.245668	108.149882
46593		19.672977	29.173315	108.203241
46594		19.803116	29.103185	108.254908
46595		19.964316	29.050117	108.306598
46596		20.139036	29.008902	108.342596
46597		20.245723	28.992833	108.358410
46598		20.325755	29.001208	108.384892
46599		20.434735	28.993736	108.415848
46600		20.549040	29.006328	108.443926
46601		20.613192	29.013724	108.467010
46602		20.663140	29.016482	108.464434
46603		20.710672	29.038349	108.440196
46604		20.775023	29.063378	108.402770
46605		20.902491	29.099728	108.358846
46606		21.061475	29.140951	108.320102
46607		21.177196	29.155274	108.268220
46608		21.285668	29.178228	108.184565
46609		21.380740	29.227776	108.076569
46610		21.456376	29.267919	107.937666
46611		21.581219	29.324364	107.802936
46612		21.778271	29.405335	107.690427
46613		21.984516	29.447907	107.603697
46614		22.188618	29.472473	107.522200
46615		22.377792	29.517469	107.424657
46616		22.501645	29.575963	107.293347
46617		22.542358	29.637057	107.164544
46618		22.516487	29.694356	107.037099
46619		22.515393	29.770780	106.871987
46620		22.586177	29.857937	106.660231
46621		22.761762	29.961442	106.436063
46622		23.004804	30.085823	106.174674
46623		23.303588	30.237943	105.852403
46624		23.657242	30.384417	105.454627
46625		24.062159	30.513085	104.959016
46626		24.385730	30.683281	104.418507
46627		24.517144	30.881226	103.869830
46628		24.400606	31.106048	103.284283
46629		24.164067	31.420780	102.647739
46630		23.921164	31.785929	102.014725
46631		23.778022	32.106301	101.396985
46632		23.778333	32.403653	100.751304
46633		23.930426	32.684372	100.004936
46634		24.238115	32.976815	99.144300
46635		24.660285	33.341096	98.233555
46636		25.089290	33.744676	97.317438
46637		25.515201	34.173792	96.413781
46638		25.868337	34.707643	95.499303
46639		26.121046	35.336234	94.542321
46640		26.361809	35.924276	93.613169
46641		26.723281	36.502245	92.775841
46642		27.157196	37.157889	91.993886
46643		27.603045	37.874781	91.229235
46644		28.078927	38.669661	90.511742
46645		28.848922	39.543697	90.007311
46646		29.752036	40.474295	89.589021
46647		30.491188	41.064819	89.116055
46648		31.310183	41.504597	88.920154
46649		32.125496	41.981653	88.895809
46650		33.158963	42.461490	88.885316
46651		34.017389	43.054658	88.845803
46652		34.414758	43.613067	88.723389
46653		34.649732	44.178438	88.622110
46654		34.796887	44.772128	88.633858
46655		34.989894	45.297657	88.621692
46656		35.157552	45.730641	88.531704
46657		35.228753	46.144121	88.616110
46658		35.384667	46.559382	88.887750
46659		35.419264	46.724877	89.036997
46660		35.174686	46.779637	89.019930
46661		34.871824	46.883935	88.983825
46662		34.624269	46.969020	88.949952
46663		34.504931	46.927058	88.851793
46664		34.446467	46.837099	88.716191
46665		34.391913	46.762174	88.578324
46666		34.402566	46.699302	88.445381
46667		34.475966	46.666590	88.323643
46668		34.547068	46.721218	88.201619
46669		34.550739	46.941508	87.977919
46670		34.494852	47.188669	87.655538
46671		34.548378	47.418986	87.376953
46672		34.649135	47.527274	87.110158
46673		34.859227	47.528645	86.936279
46674		35.093787	47.528942	86.749574
46675		35.208712	47.544589	86.539727
46676		35.209143	47.581493	86.360550
46677		35.102509	47.640968	86.230613
46678		34.910364	47.701846	86.084677
46679		34.688020	47.773034	85.869056
46680		34.498436	47.822560	85.600031
46681		34.381832	47.837128	85.298813
46682		34.308256	47.828168	85.036224
46683		34.206693	47.820999	84.834665
46684		34.063116	47.853840	84.666552
46685		33.931281	47.934824	84.539789
46686		33.826646	48.008733	84.459419
46687		33.755497	48.109698	84.421206
46688		33.745340	48.155792	84.398035
46689		33.879464	48.221265	84.459401
46690		34.010840	48.374724	84.617146
46691		34.137391	48.589069	84.834654
46692		34.272766	48.853465	85.021417
46693		34.357522	49.099259	85.173624
46694		34.527742	49.332499	85.392684
46695		34.801885	49.486141	85.599647
46696		35.143595	49.603493	85.784540
46697		35.441417	49.741458	85.948857
