// General information: 
//  MT Manager version: 2022.2.0 
//  XDA version: 2022.2.0 build 7381 rev 124627 built on 2023-07-19
// Device information: 
//  DeviceId: 00B44846
//  ProductCode: MTW2-3A7G6
//  Firmware Version: 4.3.5
//  Hardware Version: 2.0.0
// Device settings: 
//  Filter Profile: human(46.1)
//  Option Flags: Orientation Smoother Disabled, Position/Velocity Smoother Disabled, Continuous Zero Rotation Update Disabled, AHS Disabled, ICC Disabled
// Coordinate system: ENU
PacketCounter	SampleTimeFine	Roll	Pitch	Yaw
43510		-4.590398	-15.779598	-36.939860
43511		-4.577337	-15.765110	-36.963837
43512		-4.572956	-15.742269	-36.984843
43513		-4.552147	-15.728260	-36.998154
43514		-4.543399	-15.738738	-37.014922
43515		-4.514231	-15.746113	-37.027158
43516		-4.497029	-15.726711	-37.029189
43517		-4.551550	-15.679211	-37.027203
43518		-4.654700	-15.657426	-37.018230
43519		-4.689858	-15.693498	-36.964253
43520		-4.698509	-15.760312	-36.907423
43521		-4.705734	-15.819259	-36.881383
43522		-4.750175	-15.832885	-36.892076
43523		-4.822525	-15.816786	-36.931694
43524		-4.868959	-15.784882	-36.973188
43525		-4.881519	-15.763554	-36.992802
43526		-4.864501	-15.752052	-36.997248
43527		-4.853898	-15.737545	-36.998902
43528		-4.898557	-15.753734	-37.013699
43529		-4.851506	-15.721489	-37.027174
43530		-4.833727	-15.597231	-37.082939
43531		-4.821801	-15.442302	-37.165572
43532		-4.746277	-15.291745	-37.240481
43533		-4.686657	-15.106603	-37.372197
43534		-4.732746	-14.964383	-37.541369
43535		-4.789751	-14.935440	-37.649154
43536		-4.791524	-14.940094	-37.693521
43537		-4.745587	-14.954040	-37.710196
43538		-4.698126	-14.983103	-37.716250
43539		-4.671248	-15.022999	-37.702613
43540		-4.656244	-15.052394	-37.681267
43541		-4.638473	-15.066027	-37.665632
43542		-4.599204	-15.035925	-37.668290
43543		-4.610387	-14.940890	-37.708537
43544		-4.627546	-14.848738	-37.752806
43545		-4.527621	-14.714371	-37.769326
43546		-4.464872	-14.509569	-37.818517
43547		-4.450955	-14.310375	-37.876075
43548		-4.370965	-14.177396	-37.915485
43549		-4.138486	-14.077950	-37.940971
43550		-3.970744	-13.961380	-38.024050
43551		-3.957159	-13.759256	-38.164756
43552		-3.908352	-13.448853	-38.273504
43553		-3.790238	-13.153340	-38.321315
43554		-3.580458	-12.871957	-38.328365
43555		-3.419608	-12.483562	-38.383780
43556		-3.339675	-12.116443	-38.493126
43557		-3.071332	-11.744461	-38.598021
43558		-2.615184	-11.228817	-38.703414
43559		-2.278808	-10.652480	-38.882017
43560		-2.142999	-10.101784	-39.153565
43561		-2.027423	-9.553645	-39.433512
43562		-1.881256	-8.970078	-39.698551
43563		-1.735541	-8.393851	-39.930751
43564		-1.638659	-7.969515	-40.082808
43565		-1.433786	-7.503248	-40.072192
43566		-1.358046	-6.972522	-39.949319
43567		-1.352029	-6.536904	-39.686325
43568		-1.260127	-6.305565	-39.205451
43569		-1.156375	-6.259107	-38.547189
43570		-1.167594	-6.450706	-37.837586
43571		-1.181402	-6.710588	-37.084620
43572		-1.201431	-6.974148	-36.324642
43573		-1.280496	-7.188294	-35.529421
43574		-1.376447	-7.307717	-34.741517
43575		-1.617733	-7.500613	-33.945893
43576		-2.045912	-7.987786	-33.071524
43577		-2.159003	-8.367397	-32.153479
43578		-2.258393	-8.632898	-31.266038
43579		-2.139218	-8.785026	-30.475506
43580		-2.065668	-8.999186	-29.791435
43581		-2.781408	-9.589783	-29.017715
43582		-3.037037	-10.056868	-28.096225
43583		-2.994204	-10.486045	-27.216473
43584		-2.800170	-10.825005	-26.483128
43585		-2.652681	-11.058243	-25.830839
43586		-2.981522	-11.523557	-25.155994
43587		-3.365951	-11.954684	-24.390238
43588		-3.386059	-12.301886	-23.664284
43589		-3.386022	-12.539276	-23.069489
43590		-3.253381	-12.792423	-22.613348
43591		-3.349153	-13.229727	-22.168349
43592		-3.255092	-13.493024	-21.723274
43593		-3.106866	-13.626250	-21.432438
43594		-2.983988	-13.763058	-21.353508
43595		-2.923618	-13.930193	-21.377390
43596		-2.801079	-14.038211	-21.483397
43597		-2.712312	-14.135413	-21.685204
43598		-2.713398	-14.244345	-21.912113
43599		-2.752067	-14.304445	-22.118951
43600		-2.782586	-14.344933	-22.288087
43601		-2.753852	-14.436014	-22.394488
43602		-2.686240	-14.517899	-22.422063
43603		-2.602185	-14.557733	-22.428063
43604		-2.577260	-14.580094	-22.446901
43605		-2.597323	-14.596226	-22.485418
43606		-2.659180	-14.619859	-22.529559
43607		-2.687459	-14.631193	-22.547744
43608		-2.699457	-14.622296	-22.561830
43609		-2.723681	-14.617375	-22.556364
43610		-2.756124	-14.626583	-22.520671
43611		-2.762893	-14.629074	-22.478269
43612		-2.767883	-14.603821	-22.446649
43613		-2.778350	-14.569551	-22.428276
43614		-2.778515	-14.544823	-22.397773
43615		-2.768538	-14.539637	-22.364150
43616		-2.755668	-14.546055	-22.347481
43617		-2.750574	-14.549645	-22.339462
43618		-2.739572	-14.552185	-22.333261
43619		-2.723642	-14.530350	-22.313760
43620		-2.707391	-14.510714	-22.296964
43621		-2.704450	-14.533391	-22.278438
43622		-2.698426	-14.536777	-22.240298
43623		-2.715800	-14.514046	-22.204958
43624		-2.710881	-14.488127	-22.169776
43625		-2.676041	-14.488661	-22.142103
43626		-2.664087	-14.485719	-22.130251
43627		-2.680497	-14.467600	-22.127558
43628		-2.700002	-14.472848	-22.126942
43629		-2.678663	-14.504630	-22.107233
43630		-2.658210	-14.533192	-22.081776
43631		-2.646755	-14.541128	-22.073157
43632		-2.664219	-14.541609	-22.082084
43633		-2.678816	-14.568083	-22.100314
43634		-2.679718	-14.593320	-22.114853
43635		-2.698727	-14.596475	-22.124748
43636		-2.716859	-14.606674	-22.117595
43637		-2.720960	-14.621900	-22.091932
43638		-2.727632	-14.615415	-22.068837
43639		-2.731747	-14.591204	-22.042997
43640		-2.753872	-14.565285	-22.024979
43641		-2.794912	-14.566168	-22.019047
43642		-2.816919	-14.566468	-22.027979
43643		-2.816940	-14.563881	-22.048885
43644		-2.820907	-14.560592	-22.076544
43645		-2.792977	-14.528454	-22.123358
43646		-2.770453	-14.469085	-22.213850
43647		-2.699483	-14.384485	-22.360360
43648		-2.650584	-14.286442	-22.557506
43649		-2.588701	-14.151667	-22.806288
43650		-2.507345	-13.981471	-23.128862
43651		-2.430820	-13.761700	-23.517243
43652		-2.324593	-13.572934	-23.962271
43653		-2.279094	-13.401044	-24.444043
43654		-2.163426	-13.197263	-24.983666
43655		-2.134963	-13.002061	-25.587325
43656		-2.147529	-12.779782	-26.256376
43657		-1.991527	-12.442691	-26.956465
43658		-1.769470	-12.088980	-27.681287
43659		-1.574208	-11.807784	-28.393399
43660		-1.437047	-11.560941	-29.127451
43661		-1.283014	-11.261120	-29.880670
43662		-1.131019	-10.881772	-30.595316
43663		-0.967780	-10.371996	-31.280716
43664		-0.922993	-9.867516	-32.059164
43665		-0.917350	-9.461123	-32.857028
43666		-0.943567	-9.138093	-33.590537
43667		-0.924512	-8.813437	-34.258663
43668		-0.873088	-8.459892	-34.922221
43669		-0.880655	-8.181168	-35.589467
43670		-0.888873	-7.930157	-36.174695
43671		-0.893796	-7.692111	-36.670932
43672		-0.924834	-7.517911	-37.190179
43673		-1.055338	-7.484949	-37.718950
43674		-1.234127	-7.566693	-38.194354
43675		-1.429245	-7.617487	-38.559292
43676		-1.490557	-7.555438	-38.930146
43677		-1.486459	-7.521161	-39.278936
43678		-1.623218	-7.528957	-39.582773
43679		-1.855351	-7.614705	-39.827748
43680		-1.974622	-7.728016	-40.086457
43681		-2.112823	-7.852948	-40.324828
43682		-2.273558	-7.972949	-40.511871
43683		-2.470650	-8.102418	-40.639502
43684		-2.672570	-8.294043	-40.678990
43685		-2.921027	-8.463341	-40.635001
43686		-3.128263	-8.548901	-40.545503
43687		-3.212619	-8.604559	-40.402862
43688		-3.177150	-8.649969	-40.247149
43689		-3.099988	-8.674106	-40.146109
43690		-3.092916	-8.693047	-40.133513
43691		-3.179795	-8.691369	-40.193228
43692		-3.239262	-8.673667	-40.248941
43693		-3.256091	-8.674412	-40.268178
43694		-3.222053	-8.698976	-40.279574
43695		-3.172421	-8.728762	-40.292555
43696		-3.145062	-8.740520	-40.308125
43697		-3.139491	-8.751699	-40.334081
43698		-3.117749	-8.756237	-40.359062
43699		-3.112989	-8.753161	-40.391867
43700		-3.142670	-8.752766	-40.403416
43701		-3.087373	-8.753472	-40.372404
43702		-3.047850	-8.729382	-40.337860
43703		-3.023969	-8.703798	-40.319998
43704		-2.973168	-8.704903	-40.314069
43705		-2.940727	-8.745931	-40.334779
43706		-2.899501	-8.792161	-40.370866
43707		-2.857585	-8.813247	-40.412252
43708		-2.855348	-8.807418	-40.449523
43709		-2.877989	-8.800352	-40.472266
43710		-2.891429	-8.790613	-40.482776
43711		-2.890363	-8.781291	-40.479435
43712		-2.864118	-8.766420	-40.460200
43713		-2.833961	-8.765917	-40.423495
43714		-2.819409	-8.767833	-40.399370
43715		-2.826423	-8.761296	-40.387512
43716		-2.841664	-8.757272	-40.389343
43717		-2.850242	-8.778623	-40.391813
43718		-2.843496	-8.822134	-40.382912
43719		-2.825620	-8.855715	-40.367489
43720		-2.837888	-8.867080	-40.363611
43721		-2.867284	-8.877745	-40.373195
43722		-2.901072	-8.884136	-40.394887
43723		-2.935780	-8.887810	-40.410153
43724		-2.948550	-8.885145	-40.411831
43725		-2.942766	-8.878357	-40.409555
43726		-2.936743	-8.863823	-40.411715
43727		-2.958784	-8.847942	-40.412403
43728		-2.991400	-8.837568	-40.405457
43729		-2.987034	-8.835589	-40.393668
43730		-2.980627	-8.816841	-40.386575
43731		-2.978286	-8.800397	-40.379165
43732		-2.981716	-8.784386	-40.374290
43733		-2.957209	-8.770691	-40.365556
43734		-2.950180	-8.752002	-40.370932
43735		-2.897599	-8.726098	-40.389015
43736		-2.838892	-8.679594	-40.409163
43737		-2.803798	-8.617216	-40.424690
43738		-2.718512	-8.542771	-40.447029
43739		-2.655850	-8.470582	-40.472230
43740		-2.629763	-8.412100	-40.493393
43741		-2.603979	-8.399997	-40.510242
43742		-2.516235	-8.373252	-40.546695
43743		-2.439142	-8.296457	-40.594623
43744		-2.340805	-8.177170	-40.638892
43745		-2.146604	-7.915185	-40.690868
43746		-2.016385	-7.591585	-40.737223
43747		-1.952821	-7.291533	-40.772432
43748		-1.838661	-6.975912	-40.798983
43749		-1.723862	-6.622499	-40.832006
43750		-1.654611	-6.300754	-40.851434
43751		-1.539086	-6.050535	-40.813664
43752		-1.439009	-5.906426	-40.742543
43753		-1.317198	-5.768985	-40.675593
43754		-1.177497	-5.621565	-40.631667
43755		-1.066968	-5.450045	-40.636472
43756		-0.961617	-5.266403	-40.671313
43757		-0.832789	-5.017883	-40.730997
43758		-0.757205	-4.669585	-40.790240
43759		-0.711691	-4.336271	-40.806457
43760		-0.706020	-4.052134	-40.694053
43761		-0.755758	-3.776118	-40.488364
43762		-0.814918	-3.576702	-40.143197
43763		-0.786375	-3.553107	-39.620789
43764		-0.698967	-3.639548	-39.003592
43765		-0.718330	-3.802949	-38.345678
43766		-0.809088	-4.047593	-37.642814
43767		-0.848351	-4.300821	-36.879749
43768		-0.973592	-4.537835	-36.115714
43769		-1.173198	-4.885997	-35.343529
43770		-1.369563	-5.206616	-34.539395
43771		-1.531901	-5.484763	-33.717256
43772		-1.572947	-5.788324	-32.886189
43773		-1.804664	-6.275370	-32.050169
43774		-1.922642	-6.707887	-31.251839
43775		-1.991826	-7.046686	-30.504632
43776		-2.037237	-7.431449	-29.703770
43777		-1.936392	-7.779201	-28.909102
43778		-2.114825	-8.144204	-28.189991
43779		-2.497918	-8.541240	-27.462452
43780		-2.668725	-8.900136	-26.670436
43781		-2.569976	-9.243812	-25.891925
43782		-2.701490	-9.818693	-25.160211
43783		-2.630275	-10.313856	-24.384135
43784		-2.438200	-10.671131	-23.686614
43785		-2.341329	-10.841442	-23.152672
43786		-2.255608	-10.964822	-22.741724
43787		-2.321026	-11.225307	-22.326941
43788		-2.316341	-11.532434	-21.875405
43789		-2.359851	-11.970320	-21.471246
43790		-2.412638	-12.376122	-21.082654
43791		-2.255789	-12.621686	-20.746271
43792		-2.070977	-12.741779	-20.518323
43793		-1.883955	-12.785677	-20.408636
43794		-1.728908	-12.921387	-20.416971
43795		-1.564960	-13.047518	-20.528820
43796		-1.440096	-13.128446	-20.697876
43797		-1.405434	-13.196043	-20.879368
43798		-1.417507	-13.237653	-21.033354
43799		-1.430201	-13.255061	-21.140501
43800		-1.443113	-13.298188	-21.191962
43801		-1.415316	-13.374156	-21.188900
43802		-1.343914	-13.439153	-21.169141
43803		-1.379189	-13.523875	-21.149471
43804		-1.453257	-13.606149	-21.143617
43805		-1.463217	-13.655596	-21.135893
43806		-1.513862	-13.674077	-21.103619
43807		-1.592377	-13.671155	-21.047168
43808		-1.645546	-13.683065	-20.963785
43809		-1.680466	-13.685945	-20.865851
43810		-1.714059	-13.729849	-20.757998
43811		-1.726874	-13.741280	-20.638733
43812		-1.735661	-13.736610	-20.542019
43813		-1.800409	-13.755761	-20.456392
43814		-1.861086	-13.796850	-20.368897
43815		-1.865289	-13.834636	-20.276610
43816		-1.845959	-13.873260	-20.185250
43817		-1.850134	-13.918561	-20.097040
43818		-1.866066	-13.949667	-20.000710
43819		-1.860327	-13.949953	-19.899269
43820		-1.854268	-13.963279	-19.820353
43821		-1.839220	-13.978519	-19.759348
43822		-1.812332	-13.992791	-19.691356
43823		-1.808955	-14.021057	-19.630373
43824		-1.785454	-14.042685	-19.607045
43825		-1.781908	-14.041638	-19.611195
43826		-1.807945	-14.063387	-19.632586
43827		-1.836904	-14.134395	-19.644346
43828		-1.845620	-14.181416	-19.635602
43829		-1.836484	-14.203979	-19.625020
43830		-1.835527	-14.239496	-19.630246
43831		-1.815047	-14.265520	-19.632381
43832		-1.808366	-14.275751	-19.627356
43833		-1.831529	-14.287899	-19.628218
43834		-1.843826	-14.290820	-19.626667
43835		-1.845692	-14.274472	-19.617388
43836		-1.848689	-14.264850	-19.604518
43837		-1.858868	-14.259998	-19.596575
43838		-1.891697	-14.245553	-19.593971
43839		-1.917413	-14.242012	-19.584422
43840		-1.937489	-14.248241	-19.581736
43841		-1.943397	-14.251661	-19.569049
43842		-1.893970	-14.263982	-19.546604
43843		-1.902392	-14.266685	-19.531376
43844		-1.935140	-14.231754	-19.516579
43845		-1.973610	-14.159412	-19.488194
43846		-2.002399	-14.101410	-19.445048
43847		-2.048284	-14.059528	-19.397061
43848		-2.087727	-14.043073	-19.357229
43849		-2.097803	-14.042727	-19.320219
43850		-2.134339	-14.056571	-19.323188
43851		-2.138404	-14.088089	-19.349431
43852		-2.070296	-14.121139	-19.412393
43853		-1.990739	-14.115553	-19.535247
43854		-1.982017	-14.078539	-19.719258
43855		-1.937938	-14.013742	-19.944033
43856		-1.859118	-13.933635	-20.202980
43857		-1.776676	-13.811748	-20.481571
43858		-1.717022	-13.634543	-20.781471
43859		-1.643749	-13.438887	-21.112197
43860		-1.633461	-13.288033	-21.467865
43861		-1.603681	-13.188757	-21.834369
43862		-1.539552	-13.085636	-22.193632
43863		-1.490695	-12.974564	-22.573737
43864		-1.498260	-12.894157	-22.965732
43865		-1.536226	-12.767349	-23.374666
43866		-1.611406	-12.557667	-23.803459
43867		-1.686853	-12.341500	-24.218948
43868		-1.721597	-12.102682	-24.615292
43869		-1.805607	-11.830330	-24.993426
43870		-1.921204	-11.557069	-25.360757
43871		-1.983504	-11.276679	-25.708259
43872		-2.072723	-10.989109	-26.081423
43873		-2.183277	-10.785397	-26.476536
43874		-2.302678	-10.607069	-26.875263
43875		-2.465813	-10.408047	-27.277544
43876		-2.602709	-10.187046	-27.696714
43877		-2.748167	-9.930448	-28.108130
43878		-2.889189	-9.635303	-28.489132
43879		-3.023190	-9.355654	-28.896381
43880		-3.148832	-9.138913	-29.346995
43881		-3.229034	-8.921793	-29.802774
43882		-3.295361	-8.655491	-30.284062
43883		-3.443792	-8.363036	-30.834235
43884		-3.617555	-8.055322	-31.390410
43885		-3.751369	-7.750292	-31.927292
43886		-3.856536	-7.493079	-32.469722
43887		-3.890504	-7.243716	-33.017445
43888		-4.007232	-6.971974	-33.566426
43889		-4.170476	-6.701548	-34.119310
43890		-4.347712	-6.439514	-34.619757
43891		-4.487601	-6.237628	-35.087811
43892		-4.605921	-6.067624	-35.544796
43893		-4.750633	-5.894833	-35.999481
43894		-4.872600	-5.763075	-36.437028
43895		-4.952537	-5.701376	-36.803317
43896		-5.031426	-5.639971	-37.113051
43897		-5.156635	-5.559688	-37.407410
43898		-5.371680	-5.507773	-37.634851
43899		-5.577991	-5.461294	-37.749026
43900		-5.703549	-5.425276	-37.753548
43901		-5.814184	-5.359067	-37.716774
43902		-5.973460	-5.329703	-37.639836
43903		-6.078066	-5.329297	-37.539605
43904		-6.121774	-5.321890	-37.474903
43905		-6.204820	-5.329259	-37.457419
43906		-6.406562	-5.317485	-37.439581
43907		-6.720754	-5.262333	-37.309549
43908		-6.796670	-5.217237	-37.127342
43909		-6.649018	-5.255106	-37.001321
43910		-6.506947	-5.232475	-36.983475
43911		-6.446163	-5.239673	-37.071576
43912		-6.374664	-5.324417	-37.232442
43913		-6.237214	-5.461624	-37.421748
43914		-6.220610	-5.607520	-37.611156
43915		-6.302211	-5.730426	-37.834033
43916		-6.385817	-5.861244	-38.082466
43917		-6.430700	-6.004840	-38.264984
43918		-6.441381	-6.198959	-38.360446
43919		-6.410271	-6.431735	-38.443266
43920		-6.332295	-6.626727	-38.564180
43921		-6.300805	-6.778621	-38.685022
43922		-6.276652	-6.901989	-38.797349
43923		-6.265337	-7.014955	-38.898617
43924		-6.239040	-7.103147	-39.010721
43925		-6.211938	-7.199198	-39.108126
43926		-6.221982	-7.303669	-39.170501
43927		-6.230355	-7.417210	-39.205220
43928		-6.226391	-7.533307	-39.192427
43929		-6.201333	-7.657905	-39.140247
43930		-6.146125	-7.773975	-39.084481
43931		-6.034716	-7.886140	-39.055059
43932		-5.937622	-7.972521	-39.074852
43933		-5.932393	-8.024253	-39.135357
43934		-5.972182	-8.066085	-39.199086
43935		-5.980746	-8.105936	-39.238924
43936		-5.944874	-8.137501	-39.251176
43937		-5.871979	-8.174040	-39.252974
43938		-5.809690	-8.201150	-39.262844
43939		-5.791525	-8.218781	-39.281967
43940		-5.783037	-8.243333	-39.298729
43941		-5.738630	-8.269766	-39.302694
43942		-5.678115	-8.287754	-39.303424
43943		-5.624335	-8.296167	-39.305490
43944		-5.573373	-8.290938	-39.323712
43945		-5.521449	-8.284127	-39.358868
43946		-5.481491	-8.269482	-39.404704
43947		-5.411555	-8.254312	-39.457829
43948		-5.284733	-8.209505	-39.498503
43949		-5.154870	-8.139640	-39.531028
43950		-5.033636	-8.045712	-39.591234
43951		-4.910648	-7.929283	-39.670067
43952		-4.805169	-7.804131	-39.728409
43953		-4.741884	-7.701924	-39.758031
43954		-4.684280	-7.641740	-39.764983
43955		-4.597731	-7.592726	-39.747598
43956		-4.548117	-7.537880	-39.743547
43957		-4.457273	-7.426336	-39.766204
43958		-4.364893	-7.270228	-39.794979
43959		-4.313544	-7.113683	-39.824017
43960		-4.295954	-6.971286	-39.851013
43961		-4.228967	-6.836538	-39.849720
43962		-4.054353	-6.591157	-39.844249
43963		-3.843121	-6.288095	-39.872580
43964		-3.697301	-5.951350	-39.926580
43965		-3.709682	-5.626436	-39.956386
43966		-3.709081	-5.328118	-39.927811
43967		-3.642713	-5.065370	-39.843314
43968		-3.553133	-4.844395	-39.688861
43969		-3.387697	-4.630951	-39.463392
43970		-3.245160	-4.423831	-39.227501
43971		-3.087340	-4.184205	-38.970651
43972		-2.976289	-3.921490	-38.678757
43973		-2.907079	-3.738303	-38.344925
43974		-2.836837	-3.687568	-37.929539
43975		-2.692909	-3.642533	-37.427317
43976		-2.544969	-3.621577	-36.900914
43977		-2.472544	-3.674516	-36.297007
43978		-2.402016	-3.750352	-35.596321
43979		-2.497728	-3.855753	-34.888198
43980		-2.716889	-4.077410	-34.173415
43981		-2.793315	-4.338073	-33.453038
43982		-2.778206	-4.577498	-32.757557
43983		-2.773017	-4.862566	-32.109902
43984		-2.818922	-5.117546	-31.483452
43985		-2.861646	-5.383760	-30.918084
43986		-2.924330	-5.766887	-30.376556
43987		-3.032597	-6.143769	-29.795127
43988		-3.032664	-6.454957	-29.226459
43989		-2.966913	-6.797561	-28.653893
43990		-3.011925	-7.158277	-28.055642
43991		-3.121411	-7.449928	-27.431104
43992		-3.080527	-7.723379	-26.823586
43993		-3.010609	-8.034463	-26.228224
43994		-2.926750	-8.423179	-25.603004
43995		-2.767059	-8.788790	-24.976190
43996		-2.766876	-9.101637	-24.387996
43997		-2.822918	-9.383776	-23.821747
43998		-2.723399	-9.670741	-23.291748
43999		-2.635448	-9.935920	-22.780856
44000		-2.602086	-10.232557	-22.287702
44001		-2.538110	-10.520624	-21.804830
44002		-2.502444	-10.823714	-21.385692
44003		-2.614061	-11.158256	-20.981069
44004		-2.541842	-11.441837	-20.578167
44005		-2.406372	-11.673062	-20.255614
44006		-2.269505	-11.885625	-20.054013
44007		-2.152640	-12.067910	-19.947684
44008		-1.984143	-12.207453	-19.992563
44009		-1.894656	-12.278301	-20.148340
44010		-1.883250	-12.334285	-20.337648
44011		-1.917817	-12.406223	-20.524376
44012		-1.947693	-12.436647	-20.674946
44013		-2.007774	-12.466809	-20.748729
44014		-2.073285	-12.517425	-20.755162
44015		-2.019342	-12.557278	-20.726788
44016		-1.982000	-12.591686	-20.700303
44017		-2.035564	-12.686041	-20.664144
44018		-2.068992	-12.763970	-20.609854
44019		-2.087678	-12.821543	-20.534284
44020		-2.195428	-12.890370	-20.460588
44021		-2.308174	-12.936847	-20.379052
44022		-2.404021	-12.982520	-20.286406
44023		-2.525680	-13.041170	-20.173916
44024		-2.620368	-13.077280	-20.038034
44025		-2.726848	-13.096441	-19.898998
44026		-2.805791	-13.128738	-19.787180
44027		-2.829502	-13.195379	-19.727799
44028		-2.852518	-13.211420	-19.645578
44029		-2.853795	-13.234302	-19.519763
44030		-2.849471	-13.303265	-19.399015
44031		-2.797478	-13.371049	-19.300970
44032		-2.769069	-13.443302	-19.242707
44033		-2.796590	-13.543911	-19.201246
44034		-2.797742	-13.635034	-19.198820
44035		-2.785760	-13.690401	-19.210909
44036		-2.828351	-13.726549	-19.247875
44037		-2.878762	-13.752650	-19.311058
44038		-2.898789	-13.787181	-19.341255
44039		-2.894759	-13.870953	-19.316415
44040		-2.863770	-13.948481	-19.277301
44041		-2.853512	-14.025230	-19.275278
44042		-2.897707	-14.089588	-19.321004
44043		-2.987898	-14.146754	-19.355104
44044		-3.049378	-14.193524	-19.363093
44045		-3.075046	-14.225796	-19.349716
44046		-3.135326	-14.255190	-19.323093
44047		-3.201040	-14.314913	-19.296878
44048		-3.187654	-14.412898	-19.300080
44049		-3.135051	-14.478961	-19.307040
44050		-3.085133	-14.506865	-19.302561
44051		-3.121017	-14.543858	-19.286441
44052		-3.162197	-14.553220	-19.273164
44053		-3.177341	-14.559261	-19.282703
44054		-3.209215	-14.585110	-19.273151
44055		-3.287715	-14.661760	-19.255575
44056		-3.355240	-14.741384	-19.261413
44057		-3.347734	-14.757254	-19.263069
44058		-3.365592	-14.708703	-19.235565
44059		-3.420421	-14.649830	-19.199158
44060		-3.480331	-14.561636	-19.152618
44061		-3.585601	-14.459379	-19.081418
44062		-3.693944	-14.321638	-19.003441
44063		-3.851469	-14.157558	-18.923220
44064		-4.005189	-13.983875	-18.858220
44065		-4.145189	-13.842328	-18.787922
44066		-4.238642	-13.728679	-18.717821
44067		-4.305979	-13.608557	-18.646280
44068		-4.380383	-13.500836	-18.577475
44069		-4.399559	-13.416954	-18.514688
44070		-4.399374	-13.328584	-18.476393
44071		-4.430502	-13.215335	-18.476155
44072		-4.501682	-13.080964	-18.515342
44073		-4.609232	-12.951722	-18.604782
44074		-4.764910	-12.812893	-18.699490
44075		-4.894382	-12.658205	-18.777662
44076		-4.992037	-12.554045	-18.826440
44077		-5.011439	-12.455980	-18.903880
44078		-4.965721	-12.342388	-19.064978
44079		-4.965174	-12.191927	-19.309627
44080		-4.900490	-12.012905	-19.614354
44081		-4.836130	-11.854900	-19.959003
44082		-4.813932	-11.646414	-20.348528
44083		-4.727271	-11.472638	-20.792631
44084		-4.521083	-11.292442	-21.283859
44085		-4.371788	-11.138807	-21.800515
44086		-4.318184	-10.922562	-22.327824
44087		-4.180005	-10.674771	-22.855075
44088		-3.977757	-10.454733	-23.428114
44089		-3.835926	-10.186906	-24.018216
44090		-3.654050	-9.946067	-24.539728
44091		-3.373261	-9.760230	-25.082552
44092		-3.034009	-9.437732	-25.697544
44093		-2.843876	-9.010128	-26.406381
44094		-2.774813	-8.550687	-27.241899
44095		-2.604624	-8.065893	-28.126386
44096		-2.432754	-7.664745	-29.086893
44097		-2.292565	-7.367222	-30.034457
44098		-2.210753	-7.105717	-30.886124
44099		-2.176850	-6.856728	-31.657971
44100		-2.265872	-6.688706	-32.378662
44101		-2.385106	-6.622685	-33.027008
44102		-2.484190	-6.610334	-33.621718
44103		-2.528000	-6.623855	-34.126890
44104		-2.430244	-6.602880	-34.521998
44105		-2.139572	-6.556881	-34.921247
44106		-1.993606	-6.487835	-35.296761
44107		-1.965817	-6.450300	-35.639866
44108		-1.846204	-6.421106	-35.945177
44109		-1.745082	-6.380414	-36.264927
44110		-1.707832	-6.362665	-36.520244
44111		-1.708964	-6.366659	-36.700742
44112		-1.700004	-6.383416	-36.848569
44113		-1.838613	-6.450268	-36.942686
44114		-1.947345	-6.564644	-36.966485
44115		-1.924947	-6.658374	-36.941660
44116		-1.965220	-6.718428	-36.940339
44117		-2.013747	-6.782696	-36.978025
44118		-2.008234	-6.812110	-37.043617
44119		-1.984746	-6.846832	-37.141711
44120		-2.019694	-6.908592	-37.297960
44121		-2.005286	-6.977614	-37.455846
44122		-1.987266	-7.059213	-37.572663
44123		-1.992874	-7.140081	-37.669173
44124		-2.000634	-7.193029	-37.780444
44125		-2.043105	-7.251101	-37.886707
44126		-2.106359	-7.309055	-37.969210
44127		-2.140413	-7.384771	-38.034913
44128		-2.188508	-7.450786	-38.077977
44129		-2.280649	-7.506992	-38.116994
44130		-2.366135	-7.560919	-38.154739
44131		-2.422806	-7.621684	-38.195307
44132		-2.471423	-7.702435	-38.239188
44133		-2.497141	-7.780527	-38.300389
44134		-2.516502	-7.866076	-38.387710
44135		-2.487004	-7.946309	-38.468468
44136		-2.450089	-8.003311	-38.580275
44137		-2.469435	-8.047821	-38.748392
44138		-2.495687	-8.097426	-38.921319
44139		-2.486086	-8.132097	-39.083092
44140		-2.445530	-8.178243	-39.260339
44141		-2.446380	-8.239692	-39.417886
44142		-2.468534	-8.289481	-39.562048
44143		-2.489886	-8.310063	-39.709239
44144		-2.467749	-8.353964	-39.842732
44145		-2.438853	-8.411944	-39.954648
44146		-2.441180	-8.461869	-40.042230
44147		-2.461398	-8.501656	-40.113698
44148		-2.433971	-8.523052	-40.190849
44149		-2.390500	-8.540119	-40.245202
44150		-2.370335	-8.530589	-40.293232
44151		-2.431942	-8.519432	-40.315543
44152		-2.491750	-8.519436	-40.254947
44153		-2.477583	-8.536285	-40.150378
44154		-2.425507	-8.536466	-40.055115
44155		-2.370750	-8.552694	-40.007951
44156		-2.327264	-8.593750	-39.997024
44157		-2.298019	-8.640530	-40.019376
44158		-2.273039	-8.667999	-40.058052
44159		-2.275200	-8.691405	-40.093908
44160		-2.256336	-8.724167	-40.125202
44161		-2.232749	-8.748582	-40.168847
44162		-2.215930	-8.750242	-40.224047
44163		-2.168145	-8.749380	-40.272841
44164		-2.152286	-8.734586	-40.304807
44165		-2.112382	-8.692859	-40.319742
44166		-2.029178	-8.630324	-40.299871
44167		-1.965379	-8.581784	-40.267017
44168		-1.874943	-8.503992	-40.226106
44169		-1.834909	-8.419178	-40.188152
44170		-1.774282	-8.313927	-40.140253
44171		-1.729756	-8.187600	-40.062870
44172		-1.655274	-8.023310	-39.972977
44173		-1.592378	-7.826833	-39.878327
44174		-1.570865	-7.645873	-39.763863
44175		-1.533724	-7.439649	-39.594564
44176		-1.455600	-7.214182	-39.392443
44177		-1.362197	-6.996747	-39.195511
44178		-1.246585	-6.739393	-39.005498
44179		-1.136368	-6.479844	-38.830535
44180		-1.114173	-6.219603	-38.656556
44181		-1.097535	-5.992484	-38.422475
44182		-1.034913	-5.798178	-38.097122
44183		-0.910788	-5.617278	-37.771858
44184		-0.752935	-5.456834	-37.466719
44185		-0.673385	-5.344364	-37.148061
44186		-0.615335	-5.233400	-36.802286
44187		-0.550529	-5.149835	-36.471768
44188		-0.404160	-5.070818	-36.132233
44189		-0.243862	-4.923062	-35.784294
44190		-0.180685	-4.774998	-35.393501
44191		-0.106397	-4.630983	-34.937831
44192		-0.107228	-4.541248	-34.357535
44193		-0.221680	-4.506001	-33.665736
44194		-0.299583	-4.548453	-32.896425
44195		-0.498653	-4.754464	-32.112068
44196		-0.648609	-5.017772	-31.306834
44197		-0.752925	-5.263604	-30.515299
44198		-0.869862	-5.461602	-29.744094
44199		-1.043114	-5.715944	-29.004090
44200		-1.222068	-5.959904	-28.288845
44201		-1.433336	-6.190310	-27.644001
44202		-1.877385	-6.540612	-26.994288
44203		-2.032093	-6.935556	-26.249903
44204		-1.988172	-7.266013	-25.524155
44205		-2.150580	-7.607315	-24.871609
44206		-2.540432	-7.916869	-24.193334
44207		-2.943893	-8.275896	-23.487887
44208		-3.496895	-8.774493	-22.773399
44209		-3.641475	-9.501592	-21.977581
44210		-3.426261	-9.972547	-21.197074
44211		-3.355826	-10.219104	-20.570413
44212		-3.374922	-10.294016	-20.073103
44213		-3.408504	-10.296407	-19.653440
44214		-3.477770	-10.257457	-19.280219
44215		-3.323685	-10.234410	-18.963167
44216		-3.278692	-10.394519	-18.711721
44217		-3.463783	-10.744266	-18.466284
44218		-3.350669	-10.926179	-18.211340
44219		-3.327684	-11.116521	-18.083312
44220		-3.302776	-11.274388	-18.059328
44221		-3.317323	-11.431501	-18.073758
44222		-3.255127	-11.496873	-18.150953
44223		-3.247276	-11.595382	-18.280274
44224		-3.303681	-11.774636	-18.429193
44225		-3.304830	-11.956242	-18.536333
44226		-3.302916	-12.127644	-18.589086
44227		-3.290023	-12.278420	-18.600772
44228		-3.272144	-12.410661	-18.575154
44229		-3.268526	-12.490364	-18.531254
44230		-3.297535	-12.560833	-18.491531
44231		-3.297602	-12.617240	-18.446194
44232		-3.286957	-12.679659	-18.359702
44233		-3.259246	-12.762960	-18.246719
44234		-3.200742	-12.822603	-18.112924
44235		-3.159355	-12.838385	-17.992479
44236		-3.154819	-12.820444	-17.887704
44237		-3.182867	-12.831405	-17.784029
44238		-3.187303	-12.836753	-17.676068
44239		-3.157878	-12.844903	-17.549425
44240		-3.176321	-12.874179	-17.436515
44241		-3.170787	-12.908334	-17.357429
44242		-3.184708	-12.917506	-17.287729
44243		-3.221878	-12.950961	-17.208899
44244		-3.211962	-13.003554	-17.127409
44245		-3.164676	-13.024000	-17.046968
44246		-3.137489	-13.002889	-16.973408
44247		-3.069655	-13.021579	-16.905461
44248		-3.007178	-13.007364	-16.850363
44249		-2.960324	-12.953664	-16.812028
44250		-2.902777	-12.932689	-16.771183
44251		-2.835205	-12.927086	-16.741566
44252		-2.760746	-12.914756	-16.747709
44253		-2.709404	-12.889735	-16.777738
44254		-2.709039	-12.885334	-16.826684
44255		-2.720367	-12.905759	-16.861285
44256		-2.714189	-12.946867	-16.882690
44257		-2.705729	-12.983613	-16.902462
44258		-2.719520	-13.036610	-16.904142
44259		-2.752571	-13.112786	-16.893028
44260		-2.809900	-13.177038	-16.878587
44261		-2.837448	-13.192390	-16.867024
44262		-2.884119	-13.187493	-16.865861
44263		-2.938694	-13.172670	-16.870859
44264		-2.966108	-13.159199	-16.861337
44265		-2.931098	-13.134840	-16.865089
44266		-2.873224	-13.110986	-16.891506
44267		-2.847521	-13.091154	-16.913729
44268		-2.777353	-13.061022	-16.958293
44269		-2.760087	-13.043542	-17.021416
44270		-2.787243	-13.039611	-17.098975
44271		-2.720928	-12.984484	-17.203134
44272		-2.609520	-12.848060	-17.346025
44273		-2.523009	-12.634258	-17.528035
44274		-2.510675	-12.504066	-17.720008
44275		-2.518182	-12.401711	-17.895090
44276		-2.541587	-12.250552	-18.049070
44277		-2.516683	-12.107767	-18.176621
44278		-2.388137	-12.006290	-18.299305
44279		-2.231861	-11.906460	-18.446205
44280		-2.090121	-11.797294	-18.672706
44281		-1.969651	-11.666642	-18.961035
44282		-1.794786	-11.466854	-19.283085
44283		-1.641262	-11.212331	-19.649847
44284		-1.327939	-10.887008	-20.074158
44285		-1.073071	-10.429374	-20.577732
44286		-0.839676	-9.971929	-21.091314
44287		-0.581876	-9.604852	-21.604088
44288		-0.402538	-9.336891	-22.141440
44289		-0.223412	-9.121218	-22.734274
44290		-0.012409	-8.883927	-23.370729
44291		0.117627	-8.538736	-24.023283
44292		0.231805	-8.152369	-24.640201
44293		0.302915	-7.802019	-25.237122
44294		0.384940	-7.452088	-25.785969
44295		0.480928	-7.128777	-26.300986
44296		0.507892	-6.796607	-26.851570
44297		0.370156	-6.480126	-27.471986
44298		0.144247	-6.165075	-28.062286
44299		-0.098006	-5.879134	-28.597866
44300		-0.226385	-5.631064	-29.091078
44301		-0.327965	-5.445230	-29.550595
44302		-0.515722	-5.306977	-29.975294
44303		-1.056279	-5.098951	-30.193628
44304		-1.564486	-4.894429	-30.172267
44305		-1.557395	-4.818555	-30.279348
44306		-1.570841	-4.710536	-30.550244
44307		-1.782687	-4.608805	-30.974238
44308		-2.063596	-4.531866	-31.434273
44309		-2.290673	-4.426287	-31.796547
44310		-2.427039	-4.320675	-32.076153
44311		-2.532750	-4.258746	-32.331719
44312		-2.613823	-4.169804	-32.569100
44313		-2.692574	-4.047394	-32.795947
44314		-2.753557	-3.957314	-32.991369
44315		-2.762769	-3.857024	-33.140235
44316		-2.843359	-3.737174	-33.256856
44317		-2.958849	-3.654179	-33.298698
44318		-2.998934	-3.657756	-33.288567
44319		-2.957984	-3.673615	-33.303658
44320		-2.889497	-3.703460	-33.326020
44321		-2.855603	-3.747769	-33.353165
44322		-2.897148	-3.801388	-33.365952
44323		-2.996082	-3.816041	-33.345505
44324		-3.041626	-3.813571	-33.304054
44325		-3.018709	-3.816244	-33.279367
44326		-2.988778	-3.821135	-33.298838
44327		-3.000088	-3.814054	-33.382082
44328		-3.112458	-3.823916	-33.483195
44329		-3.216688	-3.891191	-33.579091
44330		-3.244712	-3.996106	-33.699167
44331		-3.226151	-4.154788	-33.829460
44332		-3.210948	-4.326447	-33.931021
44333		-3.261596	-4.433570	-34.068511
44334		-3.265649	-4.559371	-34.283104
44335		-3.155639	-4.765662	-34.496534
44336		-3.032529	-5.021552	-34.667460
44337		-3.050245	-5.245234	-34.854992
44338		-3.200292	-5.449626	-35.064696
44339		-3.376806	-5.613155	-35.249609
44340		-3.512554	-5.755230	-35.377350
44341		-3.541868	-5.893245	-35.450480
44342		-3.494513	-6.026735	-35.516078
44343		-3.448522	-6.144727	-35.585640
44344		-3.401681	-6.236650	-35.645451
44345		-3.357336	-6.310764	-35.713843
44346		-3.328344	-6.375417	-35.780152
44347		-3.352748	-6.414860	-35.836992
44348		-3.412950	-6.439713	-35.885036
44349		-3.424583	-6.464252	-35.921840
44350		-3.366643	-6.503164	-35.954699
44351		-3.324327	-6.561791	-35.978403
44352		-3.313965	-6.605380	-35.985986
44353		-3.289116	-6.648538	-35.973986
44354		-3.257210	-6.679908	-35.949870
44355		-3.240602	-6.706652	-35.942167
44356		-3.245769	-6.746323	-35.950411
44357		-3.231840	-6.784745	-35.968739
44358		-3.214171	-6.826718	-36.009440
44359		-3.215958	-6.853643	-36.071650
44360		-3.226558	-6.869844	-36.137069
44361		-3.226691	-6.869652	-36.205471
44362		-3.227132	-6.864615	-36.278924
44363		-3.250779	-6.854405	-36.349953
44364		-3.270349	-6.842452	-36.402619
44365		-3.220381	-6.818605	-36.435516
44366		-3.187125	-6.771878	-36.453465
44367		-3.174256	-6.718982	-36.468864
44368		-3.139472	-6.667805	-36.487277
44369		-3.099301	-6.623593	-36.500318
44370		-3.033366	-6.572907	-36.526448
44371		-2.975206	-6.500578	-36.562295
44372		-2.979958	-6.419829	-36.596381
44373		-3.008577	-6.335222	-36.620196
44374		-3.013010	-6.257952	-36.628767
44375		-2.948244	-6.184395	-36.636907
44376		-2.875486	-6.119318	-36.659386
44377		-2.864212	-6.065674	-36.697653
44378		-2.872697	-6.020699	-36.747655
44379		-2.858295	-5.970702	-36.802295
44380		-2.828535	-5.919595	-36.848374
44381		-2.767224	-5.873919	-36.886178
44382		-2.715688	-5.846249	-36.913125
44383		-2.690523	-5.815177	-36.935020
44384		-2.660778	-5.776662	-36.952570
44385		-2.649143	-5.716319	-36.953413
44386		-2.611644	-5.633345	-36.927743
44387		-2.519227	-5.511022	-36.866840
44388		-2.451051	-5.373474	-36.793942
44389		-2.417258	-5.247253	-36.724084
44390		-2.379189	-5.125053	-36.631497
44391		-2.368986	-5.021175	-36.495254
44392		-2.384759	-4.925481	-36.320551
44393		-2.411551	-4.862804	-36.086160
44394		-2.432833	-4.826566	-35.813055
44395		-2.402221	-4.818917	-35.533095
44396		-2.300569	-4.819388	-35.251057
44397		-2.222401	-4.840311	-34.950514
44398		-2.149652	-4.828098	-34.648905
44399		-2.096160	-4.792595	-34.373035
44400		-2.056756	-4.770035	-34.086705
44401		-2.019591	-4.771417	-33.751093
44402		-1.976706	-4.800826	-33.398116
44403		-1.963058	-4.847906	-32.994834
44404		-1.982348	-4.934687	-32.537591
44405		-2.030730	-5.040173	-32.053978
44406		-2.063654	-5.139705	-31.540042
44407		-2.165271	-5.282636	-30.950798
44408		-2.255952	-5.495146	-30.278935
44409		-2.320764	-5.696938	-29.612451
44410		-2.558335	-5.954497	-28.945445
44411		-2.722913	-6.266516	-28.220093
44412		-2.782083	-6.542408	-27.501211
44413		-2.931197	-6.840197	-26.801048
44414		-3.210794	-7.224257	-26.025784
44415		-3.267900	-7.526865	-25.240762
44416		-3.287175	-7.749047	-24.536342
44417		-3.661907	-8.110149	-23.899184
44418		-3.877743	-8.428848	-23.179557
44419		-3.861467	-8.707320	-22.470133
44420		-3.832326	-8.907346	-21.876452
44421		-3.999507	-9.139907	-21.334386
44422		-4.162440	-9.445579	-20.777783
44423		-4.165540	-9.678043	-20.230233
44424		-4.153758	-9.856145	-19.772139
44425		-4.215711	-10.036927	-19.405306
44426		-4.386306	-10.284738	-19.002105
44427		-4.352709	-10.493210	-18.584196
44428		-4.358355	-10.623974	-18.241230
44429		-4.377367	-10.700866	-17.945054
44430		-4.315062	-10.750441	-17.684757
44431		-4.400246	-10.886154	-17.445917
44432		-4.758197	-11.237081	-17.094734
44433		-4.718854	-11.510328	-16.700664
44434		-4.669431	-11.721281	-16.373627
44435		-4.633054	-11.863772	-16.124061
44436		-4.605981	-11.958026	-15.949864
44437		-4.609593	-11.950964	-15.859816
44438		-4.706551	-12.040408	-15.805165
44439		-4.824431	-12.199957	-15.755938
44440		-4.756468	-12.319796	-15.716850
44441		-4.675732	-12.380700	-15.683573
44442		-4.644217	-12.445616	-15.686531
44443		-4.585618	-12.476508	-15.749200
44444		-4.596801	-12.566723	-15.840739
44445		-4.647202	-12.659813	-15.913199
44446		-4.667093	-12.695230	-15.941536
44447		-4.660994	-12.723550	-15.960172
44448		-4.627240	-12.754885	-15.984950
44449		-4.615282	-12.820664	-15.985721
44450		-4.664036	-12.882791	-15.957368
44451		-4.705886	-12.930787	-15.915718
44452		-4.751915	-12.994538	-15.845576
44453		-4.765277	-13.041731	-15.754440
44454		-4.792303	-13.077447	-15.617632
44455		-4.816395	-13.105373	-15.454688
44456		-4.818444	-13.129938	-15.318734
44457		-4.789849	-13.167222	-15.183178
44458		-4.765321	-13.183343	-15.062341
44459		-4.735322	-13.200035	-14.943109
44460		-4.690260	-13.203618	-14.836448
44461		-4.644683	-13.195006	-14.749975
44462		-4.616386	-13.207511	-14.663510
44463		-4.577941	-13.239889	-14.568466
44464		-4.509628	-13.246726	-14.477809
44465		-4.470416	-13.242087	-14.397291
44466		-4.428540	-13.245425	-14.324416
44467		-4.402440	-13.238524	-14.254695
44468		-4.373483	-13.248165	-14.195863
44469		-4.316124	-13.236238	-14.159112
44470		-4.323990	-13.224398	-14.119052
44471		-4.352869	-13.219853	-14.050497
44472		-4.320489	-13.193635	-13.983002
44473		-4.261794	-13.166676	-13.909714
44474		-4.240516	-13.148084	-13.863554
44475		-4.245041	-13.120120	-13.843221
44476		-4.224899	-13.080921	-13.851347
44477		-4.217005	-13.056071	-13.862175
44478		-4.229013	-13.055214	-13.859982
44479		-4.224082	-13.039631	-13.834573
44480		-4.190897	-13.029192	-13.800000
44481		-4.167405	-13.009511	-13.775309
44482		-4.161713	-12.986776	-13.769585
44483		-4.165148	-12.959642	-13.769409
44484		-4.164062	-12.936660	-13.781400
44485		-4.135481	-12.920951	-13.805143
44486		-4.147262	-12.926288	-13.822246
44487		-4.151770	-12.936446	-13.832999
44488		-4.135105	-12.960949	-13.845699
44489		-4.152285	-12.980384	-13.861490
44490		-4.186332	-12.991722	-13.847192
44491		-4.185392	-12.984177	-13.838849
44492		-4.181001	-12.999914	-13.858228
44493		-4.176183	-12.999248	-13.909206
44494		-4.170684	-12.982171	-13.973809
44495		-4.164071	-12.976548	-14.010887
44496		-4.120305	-12.980844	-14.044577
44497		-4.064875	-12.987380	-14.112724
44498		-4.040222	-13.001366	-14.244576
44499		-4.017100	-12.997896	-14.446108
44500		-3.992817	-12.947958	-14.703242
44501		-3.910660	-12.822097	-15.017017
44502		-3.913085	-12.730753	-15.369676
44503		-3.938888	-12.658494	-15.735809
44504		-3.853895	-12.639385	-16.114209
44505		-3.720571	-12.607267	-16.487904
44506		-3.678829	-12.496368	-16.850124
44507		-3.666772	-12.321863	-17.233603
44508		-3.621981	-12.139078	-17.650383
44509		-3.594806	-11.953921	-18.099197
44510		-3.487648	-11.720614	-18.571847
44511		-3.380564	-11.498443	-19.048860
44512		-3.251629	-11.256264	-19.547478
44513		-3.100580	-10.990475	-20.077053
44514		-3.001343	-10.728391	-20.634924
44515		-2.899012	-10.492877	-21.226462
44516		-2.653659	-10.344991	-21.861276
44517		-2.587766	-10.306484	-22.636666
44518		-2.811388	-10.255138	-23.600671
44519		-3.060259	-10.128971	-24.569804
44520		-3.098489	-9.815698	-25.361388
44521		-2.985249	-9.391411	-25.995126
44522		-2.829722	-9.010531	-26.582674
44523		-2.729164	-8.727871	-27.173240
44524		-2.715806	-8.437807	-27.842868
44525		-2.850125	-8.084488	-28.558158
44526		-2.951131	-7.771775	-29.238598
44527		-2.927801	-7.520969	-29.915694
44528		-2.968073	-7.256192	-30.604668
44529		-3.011320	-6.965511	-31.264597
44530		-3.044067	-6.575878	-31.895945
44531		-3.134492	-6.177500	-32.499424
44532		-3.095980	-5.832254	-33.091088
44533		-3.019089	-5.463178	-33.697323
44534		-3.012411	-5.069146	-34.317513
44535		-3.037925	-4.762116	-34.861180
44536		-3.032859	-4.471479	-35.333219
44537		-3.091351	-4.164673	-35.788941
44538		-3.102315	-3.803487	-36.224771
44539		-3.277112	-3.520172	-36.571824
44540		-3.601076	-3.423465	-36.757003
44541		-3.736714	-3.371913	-36.816851
44542		-3.700484	-3.330647	-36.832882
44543		-3.760097	-3.360354	-36.822648
44544		-3.895899	-3.481785	-36.763747
44545		-4.013880	-3.579041	-36.671427
44546		-4.082625	-3.603455	-36.590115
44547		-4.139990	-3.609814	-36.537633
44548		-4.163248	-3.603492	-36.524785
44549		-4.220607	-3.619459	-36.554594
44550		-4.313646	-3.659449	-36.594626
44551		-4.451933	-3.738186	-36.595589
44552		-4.547993	-3.829348	-36.572080
44553		-4.590355	-3.932475	-36.557338
44554		-4.708718	-4.073613	-36.550618
44555		-4.856961	-4.227819	-36.536650
44556		-4.906966	-4.313792	-36.532826
44557		-4.929785	-4.379440	-36.548798
44558		-4.985377	-4.449372	-36.590502
44559		-5.038269	-4.546593	-36.638912
44560		-5.075905	-4.616528	-36.694229
44561		-5.143148	-4.645115	-36.812837
44562		-5.195100	-4.676063	-36.978241
44563		-5.176341	-4.691343	-37.154191
44564		-5.090286	-4.699647	-37.350008
44565		-5.012372	-4.735055	-37.531757
44566		-4.898428	-4.822887	-37.661916
44567		-4.814355	-4.913362	-37.799199
44568		-4.888038	-4.998992	-37.971033
44569		-5.044879	-5.088093	-38.140151
44570		-5.156628	-5.173720	-38.262926
44571		-5.223050	-5.270259	-38.307742
44572		-5.269164	-5.341693	-38.325985
44573		-5.216180	-5.414721	-38.392554
44574		-5.142676	-5.511396	-38.479663
44575		-5.155217	-5.603197	-38.570135
44576		-5.248344	-5.702806	-38.657590
44577		-5.296992	-5.782585	-38.730958
44578		-5.317552	-5.854551	-38.799265
44579		-5.286463	-5.928946	-38.859398
44580		-5.269600	-6.002572	-38.917901
44581		-5.254827	-6.074779	-38.944090
44582		-5.233066	-6.127726	-38.937729
44583		-5.253363	-6.151095	-38.932047
44584		-5.271497	-6.161268	-38.943981
44585		-5.241669	-6.181194	-38.950954
44586		-5.184267	-6.194239	-38.952250
44587		-5.124405	-6.198484	-38.952447
44588		-5.098435	-6.198799	-38.960866
44589		-5.088333	-6.190982	-38.979464
44590		-5.085966	-6.184787	-39.004304
44591		-5.040098	-6.178423	-39.026421
44592		-4.987431	-6.172557	-39.054193
44593		-4.877216	-6.143357	-39.088316
44594		-4.807764	-6.104429	-39.102827
44595		-4.780201	-6.068774	-39.079194
44596		-4.686970	-6.002295	-39.037695
44597		-4.595150	-5.918591	-39.001274
44598		-4.504218	-5.846062	-38.967179
44599		-4.361857	-5.777619	-38.939908
44600		-4.211957	-5.694699	-38.928363
44601		-4.144210	-5.592343	-38.939345
44602		-4.139014	-5.512414	-38.940139
44603		-4.053975	-5.438599	-38.924344
44604		-3.941588	-5.360186	-38.921969
44605		-3.926504	-5.308808	-38.888782
44606		-3.946567	-5.253277	-38.818835
44607		-3.956806	-5.210822	-38.697063
44608		-3.909035	-5.142445	-38.544826
44609		-3.830815	-5.068303	-38.371372
44610		-3.798223	-4.995043	-38.174596
44611		-3.820716	-4.942189	-37.955902
44612		-3.825504	-4.897394	-37.685611
44613		-3.808317	-4.861282	-37.380219
44614		-3.791397	-4.840564	-37.058180
44615		-3.771348	-4.852453	-36.723404
44616		-3.698530	-4.882216	-36.347487
44617		-3.636747	-4.921622	-35.943343
44618		-3.578856	-4.973724	-35.506817
44619		-3.555227	-5.021531	-35.040046
44620		-3.604846	-5.070928	-34.510684
44621		-3.654173	-5.124004	-33.961519
44622		-3.623757	-5.205120	-33.395900
44623		-3.705798	-5.323371	-32.807168
44624		-3.788621	-5.486008	-32.146238
44625		-3.730169	-5.622098	-31.458030
44626		-3.687363	-5.787137	-30.800693
44627		-3.705042	-5.928023	-30.196873
44628		-3.801269	-6.074658	-29.624129
44629		-4.058276	-6.334705	-29.038401
44630		-4.118835	-6.643075	-28.386674
44631		-4.014719	-6.945435	-27.743436
44632		-3.931290	-7.154986	-27.161040
44633		-3.943360	-7.316371	-26.641989
44634		-4.135218	-7.574363	-26.146333
44635		-4.218108	-7.796402	-25.618823
44636		-4.263333	-7.985034	-25.077694
44637		-4.272300	-8.130826	-24.554542
44638		-4.342488	-8.310790	-24.023826
44639		-4.477473	-8.563393	-23.452336
44640		-4.433626	-8.780087	-22.866694
44641		-4.386068	-9.004649	-22.322294
44642		-4.429277	-9.283475	-21.829158
44643		-4.426376	-9.519916	-21.362476
44644		-4.506577	-9.777015	-20.896049
44645		-4.540526	-9.961396	-20.434567
44646		-4.407274	-10.125143	-20.018080
44647		-4.270005	-10.219337	-19.662870
44648		-4.135799	-10.295030	-19.373464
44649		-4.198605	-10.484539	-19.092598
44650		-4.247421	-10.628956	-18.758399
44651		-4.130279	-10.765913	-18.414927
44652		-4.057681	-10.934397	-18.098327
44653		-3.922817	-11.081162	-17.823983
44654		-3.757234	-11.249688	-17.690655
44655		-3.675831	-11.369837	-17.678657
44656		-3.592001	-11.407517	-17.740992
44657		-3.542021	-11.399476	-17.880618
44658		-3.502574	-11.416609	-18.045456
44659		-3.479902	-11.491175	-18.183382
44660		-3.460680	-11.569600	-18.266099
44661		-3.463700	-11.667950	-18.283221
44662		-3.443796	-11.790271	-18.254347
44663		-3.401981	-11.868009	-18.203761
44664		-3.394205	-11.929526	-18.178456
44665		-3.476718	-11.950366	-18.169503
44666		-3.569693	-11.988128	-18.125160
44667		-3.647818	-12.043395	-18.022713
44668		-3.652219	-12.117903	-17.862702
44669		-3.636011	-12.243029	-17.688269
44670		-3.646796	-12.339997	-17.519708
44671		-3.690701	-12.440483	-17.347292
44672		-3.739054	-12.506508	-17.172819
44673		-3.778203	-12.570405	-16.979866
44674		-3.786102	-12.622268	-16.783293
44675		-3.796231	-12.646953	-16.610672
44676		-3.858173	-12.689055	-16.441789
44677		-3.878273	-12.775454	-16.262632
44678		-3.856709	-12.814847	-16.090703
44679		-3.845168	-12.864473	-15.936991
44680		-3.864490	-12.919481	-15.809995
44681		-3.901747	-12.961882	-15.669898
44682		-3.907196	-12.995537	-15.517322
44683		-3.864701	-13.044133	-15.389039
44684		-3.852861	-13.067137	-15.283757
44685		-3.833772	-13.081577	-15.170619
44686		-3.798887	-13.087238	-15.074118
44687		-3.754545	-13.085210	-15.011872
44688		-3.698973	-13.094824	-14.983653
44689		-3.651850	-13.100511	-14.996501
44690		-3.617710	-13.082409	-15.053115
44691		-3.606347	-13.058403	-15.113756
44692		-3.606733	-13.051723	-15.163199
44693		-3.626180	-13.062736	-15.176273
44694		-3.615266	-13.079391	-15.161241
44695		-3.573678	-13.101579	-15.147230
44696		-3.562191	-13.125260	-15.150067
44697		-3.581057	-13.140777	-15.165210
44698		-3.603850	-13.146395	-15.177948
44699		-3.653474	-13.143268	-15.175570
44700		-3.663305	-13.160384	-15.161835
44701		-3.659696	-13.152189	-15.162108
44702		-3.712706	-13.114660	-15.180500
44703		-3.764995	-13.070496	-15.228554
44704		-3.795870	-13.023505	-15.302651
44705		-3.776736	-12.976951	-15.395621
44706		-3.712774	-12.957742	-15.510287
44707		-3.659049	-12.915533	-15.659772
44708		-3.645150	-12.847812	-15.843216
44709		-3.584614	-12.778327	-16.063794
44710		-3.522713	-12.754655	-16.316853
44711		-3.538591	-12.675803	-16.610066
44712		-3.481211	-12.578308	-16.941307
44713		-3.385231	-12.481618	-17.315202
44714		-3.346286	-12.364839	-17.728342
44715		-3.321459	-12.241540	-18.167152
44716		-3.265531	-12.062993	-18.603984
44717		-3.234996	-11.843720	-19.046367
44718		-3.260262	-11.662282	-19.512199
44719		-3.270921	-11.538213	-20.000644
44720		-3.220468	-11.524396	-20.523187
44721		-3.206296	-11.650687	-21.110953
44722		-3.198444	-11.824007	-21.808836
44723		-3.143594	-11.916633	-22.619682
44724		-3.104812	-11.728762	-23.482447
44725		-3.123589	-11.309185	-24.312330
44726		-3.078899	-10.860786	-25.093418
44727		-2.989863	-10.433241	-25.808421
44728		-2.849192	-10.043389	-26.506089
44729		-2.795285	-9.652679	-27.214626
44730		-2.732419	-9.269224	-27.855996
44731		-2.628695	-8.946904	-28.440050
44732		-2.508777	-8.697228	-29.026314
44733		-2.375836	-8.484186	-29.645736
44734		-2.363858	-8.216855	-30.358598
44735		-2.419119	-7.958617	-31.149885
44736		-2.469989	-7.701834	-31.925055
44737		-2.487854	-7.383514	-32.655359
44738		-2.508076	-7.009122	-33.359345
44739		-2.560744	-6.672835	-34.003680
44740		-2.582320	-6.372382	-34.611522
44741		-2.632854	-6.130285	-35.213078
44742		-2.713224	-5.943099	-35.770291
44743		-2.787370	-5.714822	-36.302768
44744		-2.840214	-5.467571	-36.815166
44745		-2.947944	-5.295122	-37.274186
44746		-3.161206	-5.277414	-37.671089
44747		-3.242535	-5.234787	-38.015549
44748		-3.272610	-5.105133	-38.291367
44749		-3.437515	-5.041613	-38.440392
44750		-3.509566	-5.020360	-38.455623
44751		-3.528409	-4.960940	-38.356005
44752		-3.623621	-4.954886	-38.192936
44753		-3.749289	-5.010715	-38.012605
44754		-3.895776	-5.034900	-37.855209
44755		-3.985412	-4.916073	-37.756006
44756		-3.920164	-4.844941	-37.793290
44757		-3.873302	-4.947524	-37.899890
44758		-3.922032	-5.106458	-38.028090
44759		-4.022239	-5.156566	-38.139430
44760		-4.136772	-5.155905	-38.201332
44761		-4.209220	-5.211503	-38.180399
44762		-4.182243	-5.294628	-38.092613
44763		-4.057558	-5.428952	-38.084045
44764		-3.997289	-5.641386	-38.225363
44765		-4.034111	-5.902474	-38.409109
44766		-4.109843	-6.120555	-38.570114
44767		-4.240967	-6.284324	-38.679151
44768		-4.317614	-6.405630	-38.705365
44769		-4.269391	-6.504044	-38.641319
44770		-4.153824	-6.572506	-38.546804
44771		-4.035230	-6.623782	-38.477225
44772		-3.932017	-6.683348	-38.438358
44773		-3.889100	-6.735556	-38.427870
44774		-3.938573	-6.768709	-38.445387
44775		-3.985675	-6.832098	-38.454728
44776		-3.951298	-6.931534	-38.466134
44777		-3.930326	-7.076511	-38.491333
44778		-3.909513	-7.241242	-38.516491
44779		-3.865070	-7.390356	-38.588317
44780		-3.866496	-7.494325	-38.720219
44781		-3.873099	-7.578917	-38.893621
44782		-3.872150	-7.694289	-39.077996
44783		-3.913453	-7.840848	-39.267548
44784		-3.940869	-7.983344	-39.422548
44785		-3.987231	-8.097360	-39.530301
44786		-4.035915	-8.185649	-39.607759
44787		-4.056018	-8.261541	-39.686849
44788		-4.070712	-8.340401	-39.753957
44789		-4.106273	-8.422890	-39.786612
44790		-4.106131	-8.489850	-39.793804
44791		-3.995936	-8.533997	-39.826236
44792		-3.868435	-8.557151	-39.872759
44793		-3.797936	-8.563667	-39.932239
44794		-3.770160	-8.578980	-39.989901
44795		-3.742898	-8.622471	-40.018475
44796		-3.678457	-8.675805	-40.020510
44797		-3.627341	-8.728784	-40.022824
44798		-3.613793	-8.784701	-40.028274
44799		-3.591131	-8.842628	-40.025579
44800		-3.558617	-8.887600	-40.015330
44801		-3.507723	-8.928855	-40.013662
44802		-3.471046	-8.979011	-40.010580
44803		-3.436073	-9.038179	-40.015751
44804		-3.377664	-9.101964	-40.038237
44805		-3.333622	-9.160636	-40.082201
44806		-3.311976	-9.209978	-40.136687
44807		-3.332824	-9.265148	-40.188700
44808		-3.336437	-9.324990	-40.227518
44809		-3.334672	-9.376997	-40.269067
44810		-3.370647	-9.407556	-40.320200
44811		-3.445908	-9.426898	-40.362713
44812		-3.481923	-9.419818	-40.375947
44813		-3.437098	-9.399411	-40.388470
44814		-3.385107	-9.355933	-40.420549
44815		-3.374934	-9.305945	-40.475762
44816		-3.385606	-9.241291	-40.551654
44817		-3.380886	-9.168517	-40.620223
44818		-3.375300	-9.091171	-40.665245
44819		-3.376731	-8.986393	-40.718015
44820		-3.349018	-8.882547	-40.774540
44821		-3.318833	-8.802122	-40.814310
44822		-3.261206	-8.742765	-40.836204
44823		-3.213182	-8.655807	-40.850781
44824		-3.165486	-8.545296	-40.883970
44825		-3.093437	-8.463558	-40.898254
44826		-3.033010	-8.400124	-40.878194
44827		-3.027954	-8.325392	-40.855582
44828		-3.049086	-8.249737	-40.822636
44829		-3.060353	-8.125074	-40.750810
44830		-3.064452	-7.949297	-40.614449
44831		-3.046336	-7.767339	-40.428164
44832		-3.009618	-7.580964	-40.210947
44833		-2.948900	-7.413354	-39.938385
44834		-2.856868	-7.224946	-39.632008
44835		-2.800346	-7.047608	-39.340142
44836		-2.727893	-6.908848	-39.017004
44837		-2.660550	-6.763936	-38.670358
44838		-2.572379	-6.629622	-38.315435
44839		-2.463713	-6.527046	-37.956966
44840		-2.380818	-6.442494	-37.577705
44841		-2.339983	-6.368431	-37.155607
44842		-2.278113	-6.329216	-36.672517
44843		-2.248885	-6.314843	-36.153740
44844		-2.271854	-6.333550	-35.611953
44845		-2.304616	-6.369835	-34.995386
44846		-2.382358	-6.422119	-34.313340
44847		-2.525229	-6.529948	-33.570455
44848		-2.627921	-6.654857	-32.762260
44849		-2.730377	-6.850313	-31.962353
44850		-2.815694	-7.056485	-31.166431
44851		-2.900813	-7.243215	-30.393869
44852		-3.060925	-7.475613	-29.612702
44853		-3.126318	-7.668375	-28.837201
44854		-3.264193	-7.913731	-28.123134
44855		-3.499631	-8.177628	-27.416705
44856		-3.562013	-8.408104	-26.737489
44857		-3.562317	-8.600133	-26.082128
44858		-3.707763	-8.905666	-25.446553
44859		-3.773378	-9.157031	-24.803913
44860		-3.661809	-9.371643	-24.168719
44861		-3.608411	-9.501231	-23.606200
44862		-3.732737	-9.668358	-23.095084
44863		-3.752092	-9.859284	-22.539983
44864		-3.684746	-10.040429	-22.000589
44865		-3.817985	-10.313824	-21.485910
44866		-3.851995	-10.548275	-20.982775
44867		-3.709477	-10.727553	-20.506585
44868		-3.596097	-10.815880	-20.107900
44869		-3.501878	-10.888599	-19.753889
44870		-3.467294	-11.064485	-19.409995
44871		-3.428179	-11.154967	-19.081474
44872		-3.379769	-11.309255	-18.734936
44873		-3.237889	-11.482628	-18.403339
44874		-3.096393	-11.686738	-18.180902
44875		-2.987530	-11.849642	-18.070489
44876		-2.881853	-11.921828	-18.062283
44877		-2.830129	-12.015966	-18.196780
44878		-2.899380	-12.090775	-18.378655
44879		-2.935760	-12.137657	-18.529162
44880		-2.934624	-12.203951	-18.619548
44881		-2.963997	-12.275505	-18.628769
44882		-2.961562	-12.410599	-18.571672
44883		-2.885051	-12.516475	-18.524169
44884		-2.865593	-12.581615	-18.524243
44885		-2.956788	-12.630688	-18.553175
44886		-3.021899	-12.707976	-18.564380
44887		-3.078072	-12.744014	-18.518735
44888		-3.127773	-12.785154	-18.395639
44889		-3.128574	-12.844860	-18.229022
44890		-3.099917	-12.896522	-18.034811
44891		-3.081838	-12.917261	-17.836948
44892		-3.060469	-12.957947	-17.669041
44893		-3.060349	-12.966478	-17.545607
44894		-3.086404	-12.986756	-17.437849
44895		-3.095655	-13.006616	-17.320945
44896		-3.115386	-13.009172	-17.218264
44897		-3.129611	-13.014789	-17.133146
44898		-3.139800	-13.007671	-17.060230
44899		-3.211185	-13.013584	-16.948497
44900		-3.240920	-13.072486	-16.803696
44901		-3.178042	-13.103108	-16.683123
44902		-3.190699	-13.117243	-16.575228
44903		-3.217227	-13.158664	-16.495317
44904		-3.186972	-13.179029	-16.431547
44905		-3.164024	-13.150459	-16.392969
44906		-3.168996	-13.119200	-16.392845
44907		-3.163983	-13.128014	-16.415006
44908		-3.144170	-13.119323	-16.446186
44909		-3.107621	-13.126687	-16.484668
44910		-3.071214	-13.132743	-16.535817
44911		-3.091871	-13.123862	-16.576763
44912		-3.123975	-13.103013	-16.593580
44913		-3.127308	-13.085307	-16.582817
44914		-3.136060	-13.074327	-16.574873
44915		-3.169753	-13.068799	-16.570156
44916		-3.198459	-13.051481	-16.566566
44917		-3.208961	-13.045408	-16.569249
44918		-3.223104	-13.050485	-16.590135
44919		-3.226668	-13.078096	-16.602466
44920		-3.211677	-13.098161	-16.596434
44921		-3.213367	-13.081846	-16.578933
44922		-3.233475	-13.012527	-16.575623
44923		-3.216357	-12.934612	-16.598102
44924		-3.151454	-12.905271	-16.650887
44925		-3.071221	-12.867087	-16.718621
44926		-3.036287	-12.833944	-16.805509
44927		-3.041312	-12.780122	-16.915846
44928		-3.048590	-12.694448	-17.034710
44929		-3.066364	-12.602276	-17.160469
44930		-3.066870	-12.497195	-17.320771
44931		-3.088536	-12.385817	-17.507235
44932		-3.080275	-12.257880	-17.729491
44933		-3.059222	-12.157510	-17.979161
44934		-3.041049	-12.040774	-18.231368
44935		-3.019940	-11.872818	-18.489548
44936		-2.959274	-11.670269	-18.771192
44937		-2.931200	-11.452028	-19.058549
44938		-2.934272	-11.216751	-19.345493
44939		-2.964539	-11.004771	-19.623373
44940		-2.968781	-10.800197	-19.902430
44941		-2.978101	-10.603343	-20.167965
44942		-3.037387	-10.390938	-20.421389
44943		-3.114939	-10.151502	-20.663752
44944		-3.162341	-9.917074	-20.895618
44945		-3.181780	-9.690007	-21.144538
44946		-3.208882	-9.434957	-21.418492
44947		-3.267990	-9.239114	-21.708669
44948		-3.333796	-9.085885	-22.043326
44949		-3.443555	-8.927495	-22.413314
44950		-3.499440	-8.788922	-22.806733
44951		-3.506600	-8.719042	-23.219140
44952		-3.529585	-8.623188	-23.631259
44953		-3.578597	-8.503028	-24.141066
44954		-3.681209	-8.273252	-24.724603
44955		-3.812973	-7.984695	-25.273007
44956		-3.901766	-7.683211	-25.744466
44957		-3.859697	-7.395718	-26.225845
44958		-3.833934	-7.119588	-26.740197
44959		-3.840664	-6.854538	-27.268036
44960		-3.818505	-6.588858	-27.755693
44961		-3.787527	-6.346291	-28.188295
44962		-3.709735	-6.106397	-28.601054
44963		-3.631872	-5.847613	-29.010005
44964		-3.511959	-5.587531	-29.389390
44965		-3.491477	-5.347688	-29.761613
44966		-3.506472	-5.092006	-30.140297
44967		-3.570618	-4.826670	-30.522282
44968		-3.679259	-4.553956	-30.927693
44969		-3.646183	-4.334593	-31.378557
44970		-3.535329	-4.133709	-31.842495
44971		-3.521372	-3.996725	-32.264289
44972		-3.506418	-3.940162	-32.657871
44973		-3.435160	-3.922251	-33.080236
44974		-3.446193	-3.943711	-33.513372
44975		-3.668823	-3.945749	-33.898729
44976		-3.940298	-3.911741	-34.199518
44977		-4.256622	-3.776017	-34.394232
44978		-4.415067	-3.542880	-34.435194
44979		-4.328775	-3.398235	-34.350966
44980		-4.117898	-3.316738	-34.203131
44981		-4.040821	-3.278748	-34.081859
44982		-4.089427	-3.322080	-34.000949
44983		-4.228313	-3.367281	-33.931959
44984		-4.285284	-3.424071	-33.876466
44985		-4.281610	-3.492184	-33.866755
44986		-4.294672	-3.562131	-33.912400
44987		-4.338100	-3.681243	-33.986641
44988		-4.385223	-3.802049	-34.092483
44989		-4.464303	-3.897664	-34.218311
44990		-4.529196	-3.989937	-34.315768
44991		-4.572392	-4.088953	-34.400256
44992		-4.607947	-4.194377	-34.449005
44993		-4.610936	-4.303215	-34.468825
44994		-4.574095	-4.402704	-34.465887
44995		-4.533656	-4.487881	-34.465939
44996		-4.519545	-4.584669	-34.492132
44997		-4.515891	-4.693167	-34.571338
44998		-4.531486	-4.793961	-34.686286
44999		-4.550164	-4.898209	-34.813777
45000		-4.551100	-5.004668	-34.932290
45001		-4.518461	-5.098957	-35.055457
45002		-4.515679	-5.188596	-35.187311
45003		-4.541160	-5.282145	-35.341119
45004		-4.534110	-5.398991	-35.514007
45005		-4.501461	-5.516218	-35.665128
45006		-4.471479	-5.621507	-35.799401
45007		-4.461090	-5.733653	-35.920059
45008		-4.411784	-5.851683	-36.028213
45009		-4.374590	-5.950191	-36.112445
45010		-4.364156	-6.024309	-36.183116
45011		-4.306775	-6.061684	-36.266004
45012		-4.215441	-6.098450	-36.346280
45013		-4.121649	-6.127282	-36.429333
45014		-4.073154	-6.155234	-36.507921
45015		-4.079376	-6.183441	-36.567272
45016		-4.103455	-6.202234	-36.604758
45017		-4.135303	-6.221946	-36.613450
45018		-4.106098	-6.263063	-36.573270
45019		-4.063683	-6.306016	-36.508999
45020		-4.032462	-6.347901	-36.465203
45021		-4.013662	-6.387805	-36.457963
45022		-4.022449	-6.429206	-36.493784
45023		-4.069385	-6.476940	-36.576663
45024		-4.124717	-6.503730	-36.671105
45025		-4.141472	-6.510483	-36.739594
45026		-4.156963	-6.503747	-36.782050
45027		-4.159208	-6.489928	-36.816706
45028		-4.133775	-6.476162	-36.855480
45029		-4.066595	-6.448163	-36.909431
45030		-3.997264	-6.400538	-36.971107
45031		-3.964227	-6.345192	-37.045954
45032		-3.943172	-6.295294	-37.129069
45033		-3.924562	-6.255482	-37.201702
45034		-3.878254	-6.213919	-37.249401
45035		-3.867144	-6.173942	-37.263767
45036		-3.800561	-6.115975	-37.259656
45037		-3.710510	-6.031379	-37.257041
45038		-3.656929	-5.964466	-37.260863
45039		-3.593139	-5.924033	-37.275961
45040		-3.482592	-5.877422	-37.304564
45041		-3.398904	-5.824138	-37.360781
45042		-3.352935	-5.774724	-37.405798
45043		-3.313956	-5.668474	-37.436209
45044		-3.278469	-5.528956	-37.447122
45045		-3.203683	-5.384795	-37.413296
45046		-3.153997	-5.288691	-37.306251
45047		-3.067513	-5.219586	-37.130507
45048		-2.963064	-5.174311	-36.929933
45049		-2.869092	-5.122871	-36.713154
45050		-2.818080	-5.088891	-36.487700
45051		-2.737076	-5.056025	-36.237692
45052		-2.624223	-4.998333	-36.003202
45053		-2.521516	-4.942142	-35.802189
45054		-2.415910	-4.870799	-35.600103
45055		-2.358448	-4.810545	-35.331926
45056		-2.254402	-4.764348	-35.031273
45057		-2.042685	-4.706254	-34.767812
45058		-1.827523	-4.628555	-34.552367
45059		-1.660350	-4.565331	-34.344650
45060		-1.537394	-4.531749	-34.132007
45061		-1.488777	-4.552772	-33.879477
45062		-1.441469	-4.596816	-33.582529
45063		-1.433622	-4.668978	-33.232007
45064		-1.397337	-4.734510	-32.833277
45065		-1.354009	-4.801283	-32.385999
45066		-1.299361	-4.900801	-31.907838
45067		-1.331794	-5.024187	-31.394887
45068		-1.415151	-5.163312	-30.845166
45069		-1.520187	-5.342285	-30.260998
45070		-1.717837	-5.587921	-29.660984
45071		-1.779202	-5.856621	-29.030984
45072		-1.780165	-6.100154	-28.401798
45073		-1.833762	-6.327830	-27.803356
45074		-1.937584	-6.582736	-27.190566
45075		-2.016456	-6.840046	-26.579290
45076		-2.182122	-7.151944	-25.958592
45077		-2.270631	-7.449762	-25.335102
45078		-2.243758	-7.707736	-24.745183
45079		-2.284168	-8.003845	-24.199843
45080		-2.375552	-8.262357	-23.660578
45081		-2.432907	-8.466958	-23.129932
45082		-2.478431	-8.676368	-22.588224
45083		-2.595594	-8.910243	-22.028599
45084		-2.507261	-9.089235	-21.488902
45085		-2.418596	-9.226394	-20.991537
45086		-2.571635	-9.464849	-20.512368
45087		-2.521985	-9.694938	-20.008139
45088		-2.402448	-9.930682	-19.580674
45089		-2.306324	-10.101375	-19.246424
45090		-2.173777	-10.248082	-18.938966
45091		-2.160650	-10.435937	-18.644861
45092		-2.128919	-10.561085	-18.359269
45093		-2.101694	-10.670409	-18.069667
45094		-2.140391	-10.812621	-17.810842
45095		-2.155418	-10.967421	-17.566697
45096		-2.033161	-11.072845	-17.363591
45097		-1.982859	-11.123541	-17.264134
45098		-1.919712	-11.145667	-17.222569
45099		-1.833207	-11.136429	-17.204717
45100		-1.774134	-11.114631	-17.252176
45101		-1.752081	-11.120093	-17.346273
45102		-1.759814	-11.174868	-17.429542
45103		-1.791528	-11.228100	-17.484563
45104		-1.833412	-11.280557	-17.498076
45105		-1.859055	-11.355927	-17.462094
45106		-1.881820	-11.440274	-17.389574
45107		-1.911828	-11.491938	-17.311056
45108		-1.956879	-11.529830	-17.222769
45109		-1.993187	-11.562077	-17.130147
45110		-2.000977	-11.589866	-17.039468
45111		-1.977013	-11.604124	-16.951110
45112		-1.964011	-11.593987	-16.872186
45113		-1.949711	-11.578483	-16.807038
45114		-1.964435	-11.575046	-16.746987
45115		-1.960382	-11.586389	-16.709476
45116		-1.949788	-11.591501	-16.685931
45117		-1.947595	-11.589986	-16.683342
45118		-1.928785	-11.584021	-16.666482
45119		-1.912252	-11.567712	-16.653176
45120		-1.901006	-11.534560	-16.659635
45121		-1.923301	-11.510772	-16.677815
45122		-1.957242	-11.505999	-16.680889
45123		-1.954866	-11.500127	-16.661402
45124		-1.984473	-11.490339	-16.628634
45125		-2.028926	-11.487605	-16.592677
45126		-2.043638	-11.477913	-16.539911
45127		-2.037930	-11.485945	-16.479865
45128		-1.984903	-11.488337	-16.428268
45129		-1.966686	-11.469850	-16.401686
45130		-1.955302	-11.435754	-16.406702
45131		-1.917940	-11.411245	-16.432445
45132		-1.890372	-11.392616	-16.475060
45133		-1.876558	-11.370705	-16.524688
45134		-1.862659	-11.347802	-16.565152
45135		-1.824600	-11.354564	-16.589785
45136		-1.796735	-11.371294	-16.609966
45137		-1.763284	-11.375797	-16.643232
45138		-1.741742	-11.384128	-16.675294
45139		-1.749058	-11.397373	-16.701632
45140		-1.739668	-11.422938	-16.723873
45141		-1.711543	-11.453980	-16.741639
45142		-1.721862	-11.470677	-16.753772
45143		-1.770663	-11.491584	-16.768146
45144		-1.802098	-11.518471	-16.760757
45145		-1.873920	-11.530100	-16.704761
45146		-1.975634	-11.505464	-16.644850
45147		-2.053560	-11.472696	-16.600805
45148		-2.099209	-11.449186	-16.586524
45149		-2.177707	-11.442117	-16.575286
45150		-2.257859	-11.463422	-16.556215
45151		-2.283776	-11.486107	-16.559911
45152		-2.287167	-11.538646	-16.568977
45153		-2.264505	-11.572835	-16.578165
45154		-2.234792	-11.584357	-16.608953
45155		-2.245376	-11.551104	-16.671803
45156		-2.278321	-11.498993	-16.737922
45157		-2.264971	-11.425308	-16.816878
45158		-2.243036	-11.358071	-16.924599
45159		-2.229327	-11.316923	-17.064189
45160		-2.181776	-11.283733	-17.221642
45161		-2.078604	-11.229561	-17.405579
45162		-2.008378	-11.153286	-17.634108
45163		-1.983975	-11.067392	-17.890438
45164		-1.954037	-10.954148	-18.145833
45165		-1.935827	-10.837740	-18.382767
45166		-1.823130	-10.733091	-18.624583
45167		-1.688515	-10.645344	-18.890249
45168		-1.609258	-10.559558	-19.172290
45169		-1.559179	-10.459258	-19.479498
45170		-1.474305	-10.313700	-19.805971
45171		-1.453780	-10.111812	-20.130395
45172		-1.459946	-9.926371	-20.460313
45173		-1.436829	-9.763474	-20.790050
45174		-1.401987	-9.596609	-21.120995
45175		-1.379626	-9.417703	-21.455218
45176		-1.350564	-9.263499	-21.801323
45177		-1.323894	-9.143968	-22.164246
45178		-1.302889	-8.990860	-22.547242
45179		-1.315371	-8.807573	-22.917421
45180		-1.383094	-8.644747	-23.290520
45181		-1.440488	-8.481296	-23.660542
45182		-1.489776	-8.300553	-24.012061
45183		-1.518754	-8.095327	-24.370456
45184		-1.540914	-7.864250	-24.750836
45185		-1.582281	-7.629832	-25.159912
45186		-1.623812	-7.414686	-25.596836
45187		-1.685703	-7.213124	-26.072702
45188		-1.779765	-7.006194	-26.589018
45189		-1.878019	-6.770523	-27.093756
45190		-2.019461	-6.552330	-27.589981
45191		-2.157925	-6.364467	-28.077324
45192		-2.229750	-6.174268	-28.571936
45193		-2.278333	-5.915619	-29.109092
45194		-2.344599	-5.635286	-29.648569
45195		-2.406941	-5.411068	-30.182995
45196		-2.481467	-5.279354	-30.726905
45197		-2.511924	-5.160669	-31.252115
45198		-2.658529	-5.039844	-31.721592
45199		-2.838399	-4.941157	-32.128035
45200		-2.998307	-4.854948	-32.503046
45201		-3.125577	-4.711842	-32.866079
45202		-3.195580	-4.511868	-33.267466
45203		-3.368843	-4.368670	-33.639055
45204		-3.511555	-4.284570	-33.910578
45205		-3.509565	-4.275535	-34.148784
45206		-3.577834	-4.292831	-34.447759
45207		-3.675027	-4.287052	-34.758622
45208		-3.819863	-4.296274	-35.009388
45209		-3.985371	-4.338668	-35.219812
45210		-4.095471	-4.426418	-35.372679
45211		-4.185963	-4.549494	-35.505011
45212		-4.287955	-4.657710	-35.619071
45213		-4.410495	-4.763723	-35.715269
45214		-4.610646	-4.866110	-35.779967
45215		-4.795504	-4.964418	-35.813004
45216		-4.958573	-5.081574	-35.790866
45217		-4.961196	-5.250798	-35.780779
45218		-4.860601	-5.511406	-35.909495
45219		-4.803477	-5.792968	-36.133327
45220		-4.842172	-6.005043	-36.359099
45221		-4.955199	-6.116539	-36.484647
45222		-5.067161	-6.140434	-36.476149
45223		-5.065188	-6.136569	-36.386011
45224		-4.985725	-6.137332	-36.292867
45225		-4.900764	-6.165620	-36.221782
45226		-4.844788	-6.211071	-36.172893
45227		-4.847603	-6.284165	-36.164811
45228		-4.938166	-6.353588	-36.189771
45229		-4.974499	-6.460948	-36.179142
45230		-4.947431	-6.547171	-36.163996
45231		-4.936960	-6.598184	-36.213120
45232		-4.881020	-6.664859	-36.272483
45233		-4.774155	-6.746066	-36.351582
45234		-4.640074	-6.823233	-36.473817
45235		-4.541228	-6.881905	-36.649040
45236		-4.482459	-6.957609	-36.867382
45237		-4.400021	-7.050213	-37.117712
45238		-4.308095	-7.156914	-37.391930
45239		-4.259301	-7.267625	-37.659348
45240		-4.279951	-7.345747	-37.867765
45241		-4.263013	-7.436953	-37.981156
45242		-4.204435	-7.518513	-38.022165
45243		-4.221550	-7.556951	-37.927402
45244		-4.132449	-7.617107	-37.743719
45245		-3.957525	-7.698186	-37.630471
45246		-3.784237	-7.767690	-37.589329
45247		-3.723572	-7.842092	-37.632421
45248		-3.736257	-7.885840	-37.721151
45249		-3.726540	-7.889612	-37.821817
45250		-3.723726	-7.899350	-37.917559
45251		-3.706610	-7.936648	-38.021432
45252		-3.619580	-8.001487	-38.126661
45253		-3.502355	-8.084906	-38.213771
45254		-3.411471	-8.164453	-38.296092
45255		-3.319301	-8.226778	-38.355649
45256		-3.246990	-8.284562	-38.411024
45257		-3.175104	-8.342750	-38.462392
45258		-3.098097	-8.401006	-38.498966
45259		-3.031902	-8.464200	-38.528219
45260		-2.981893	-8.550258	-38.574075
45261		-2.960142	-8.650580	-38.638301
45262		-2.951981	-8.750904	-38.694806
45263		-2.959338	-8.828212	-38.741561
45264		-2.963283	-8.891097	-38.795471
45265		-2.906214	-8.928349	-38.854560
45266		-2.832278	-8.903799	-38.930223
45267		-2.818311	-8.856435	-39.051320
45268		-2.794351	-8.804790	-39.182878
45269		-2.746416	-8.771846	-39.284012
45270		-2.713562	-8.745453	-39.349799
45271		-2.704228	-8.717542	-39.382362
45272		-2.714229	-8.705018	-39.403643
45273		-2.683686	-8.699441	-39.420664
45274		-2.630523	-8.708334	-39.439651
45275		-2.598420	-8.730480	-39.498976
45276		-2.629277	-8.705929	-39.619842
45277		-2.618374	-8.646589	-39.772192
45278		-2.528838	-8.579605	-39.901595
45279		-2.472519	-8.504664	-39.981066
45280		-2.490917	-8.444019	-40.020240
45281		-2.457303	-8.409133	-39.972409
45282		-2.383810	-8.353262	-39.868404
45283		-2.335999	-8.300701	-39.733352
45284		-2.263024	-8.184312	-39.606312
45285		-2.255241	-7.998814	-39.506854
45286		-2.293604	-7.818706	-39.368150
45287		-2.270511	-7.688880	-39.151318
45288		-2.294641	-7.595024	-38.862402
45289		-2.318697	-7.559144	-38.491419
45290		-2.277660	-7.530304	-38.061234
45291		-2.187374	-7.496803	-37.596782
45292		-2.065666	-7.421471	-37.138351
45293		-1.990694	-7.334750	-36.694784
45294		-1.975572	-7.289050	-36.191762
45295		-1.984583	-7.258491	-35.621220
45296		-1.988832	-7.265214	-35.001656
45297		-1.898758	-7.279458	-34.334511
45298		-1.808190	-7.281258	-33.662129
45299		-1.802769	-7.294061	-32.984987
45300		-1.905213	-7.390924	-32.245244
45301		-2.057094	-7.560908	-31.435271
45302		-2.175072	-7.738411	-30.636759
45303		-2.207717	-7.884889	-29.878864
45304		-2.216451	-8.015129	-29.152435
45305		-2.475026	-8.203967	-28.416724
45306		-2.681630	-8.402687	-27.673744
45307		-2.585200	-8.592103	-26.932474
45308		-2.618593	-8.868805	-26.187329
45309		-2.786908	-9.082299	-25.449097
45310		-2.922566	-9.246887	-24.785048
45311		-3.137485	-9.444578	-24.186567
45312		-3.412099	-9.678332	-23.575502
45313		-3.436486	-9.884881	-22.940722
45314		-3.451891	-10.066750	-22.346953
45315		-3.643965	-10.311873	-21.822966
45316		-3.705879	-10.427892	-21.349257
45317		-3.718447	-10.528423	-20.890320
45318		-3.881671	-10.682812	-20.461432
45319		-4.087262	-10.856502	-19.997717
45320		-4.008768	-11.031843	-19.481166
45321		-3.903892	-11.177585	-18.993994
45322		-3.822949	-11.322120	-18.543160
45323		-3.734889	-11.426409	-18.113978
45324		-3.638494	-11.471387	-17.789114
45325		-3.660025	-11.482369	-17.539818
45326		-3.765985	-11.594159	-17.325743
45327		-3.778847	-11.640793	-17.134605
45328		-3.741355	-11.673113	-16.965658
45329		-3.730971	-11.727094	-16.798584
45330		-3.703608	-11.779048	-16.652983
45331		-3.571654	-11.776342	-16.593203
45332		-3.458995	-11.791588	-16.608199
45333		-3.393805	-11.845214	-16.708885
45334		-3.338363	-11.845771	-16.845557
45335		-3.335062	-11.830235	-16.962881
45336		-3.456359	-11.911933	-17.019241
45337		-3.477048	-12.030755	-17.021513
45338		-3.381703	-12.116181	-17.015393
45339		-3.312620	-12.191848	-17.009876
45340		-3.279549	-12.229151	-17.041575
45341		-3.304082	-12.213194	-17.074568
45342		-3.318579	-12.205072	-17.048450
45343		-3.289577	-12.213411	-16.991067
45344		-3.274301	-12.225026	-16.895914
45345		-3.291651	-12.299009	-16.782822
45346		-3.315688	-12.396725	-16.675234
45347		-3.323367	-12.468498	-16.535983
45348		-3.316860	-12.545421	-16.353722
45349		-3.288492	-12.587657	-16.169606
45350		-3.250248	-12.584450	-16.023602
45351		-3.245205	-12.579543	-15.899780
45352		-3.248108	-12.574013	-15.793560
45353		-3.234362	-12.541782	-15.704655
45354		-3.225640	-12.513673	-15.619926
45355		-3.203065	-12.481053	-15.563882
45356		-3.157751	-12.440865	-15.526408
45357		-3.120626	-12.399161	-15.493570
45358		-3.136070	-12.390403	-15.468881
45359		-3.154344	-12.371874	-15.454421
45360		-3.196252	-12.341334	-15.429195
45361		-3.232691	-12.326260	-15.401975
45362		-3.232822	-12.320393	-15.374455
45363		-3.207924	-12.300547	-15.354105
45364		-3.218579	-12.290243	-15.350287
45365		-3.209686	-12.276988	-15.347131
45366		-3.167506	-12.261255	-15.339534
45367		-3.140087	-12.248049	-15.353561
45368		-3.112150	-12.251320	-15.380857
45369		-3.074116	-12.241957	-15.394038
45370		-3.050048	-12.232683	-15.408490
45371		-3.033519	-12.251935	-15.426881
45372		-3.012765	-12.247009	-15.448196
45373		-3.015440	-12.229808	-15.451211
45374		-3.023068	-12.234439	-15.439227
45375		-3.008810	-12.259154	-15.424928
45376		-3.019653	-12.273049	-15.409652
45377		-3.066818	-12.292500	-15.395516
45378		-3.076618	-12.324113	-15.380540
45379		-3.085789	-12.353808	-15.364942
45380		-3.138556	-12.396404	-15.359175
45381		-3.119507	-12.462733	-15.360019
45382		-3.050596	-12.494440	-15.384401
45383		-3.046085	-12.498841	-15.423226
45384		-3.066772	-12.507538	-15.469336
45385		-3.087873	-12.544565	-15.517746
45386		-3.040973	-12.537489	-15.574399
45387		-3.004928	-12.527380	-15.659247
45388		-2.960476	-12.525489	-15.787457
45389		-2.866738	-12.425061	-15.960223
45390		-2.838025	-12.314742	-16.161020
45391		-2.842046	-12.241988	-16.356564
45392		-2.788943	-12.149698	-16.550654
45393		-2.715994	-12.036825	-16.767989
45394		-2.640868	-11.965313	-16.985938
45395		-2.563981	-11.898735	-17.197587
45396		-2.481004	-11.766635	-17.425279
45397		-2.433646	-11.608933	-17.666883
45398		-2.429838	-11.451004	-17.911779
45399		-2.468990	-11.319468	-18.162034
45400		-2.421718	-11.193220	-18.415650
45401		-2.404320	-11.063257	-18.686098
45402		-2.386607	-10.911570	-18.963517
45403		-2.342859	-10.712772	-19.285579
45404		-2.293406	-10.515859	-19.660648
45405		-2.178677	-10.256024	-20.099708
45406		-1.962268	-9.856826	-20.626764
45407		-1.848148	-9.376681	-21.269820
45408		-1.757870	-8.806500	-22.020112
45409		-1.711133	-8.289800	-22.869428
45410		-1.703113	-7.903259	-23.761959
45411		-1.570989	-7.513411	-24.712914
45412		-1.393920	-6.973246	-25.689005
45413		-1.263838	-6.379345	-26.600676
45414		-1.183329	-5.901436	-27.441481
45415		-1.089139	-5.419307	-28.296614
45416		-1.086726	-4.943644	-29.183760
45417		-1.050427	-4.628492	-30.022653
45418		-0.983319	-4.407676	-30.848871
45419		-0.982129	-4.084990	-31.671160
45420		-1.065026	-3.704332	-32.422299
45421		-1.124016	-3.271343	-33.087038
45422		-1.084161	-2.800801	-33.715671
45423		-1.144897	-2.488520	-34.311593
45424		-1.317114	-2.303809	-34.863389
45425		-1.599004	-2.066315	-35.160133
45426		-1.682734	-1.912939	-35.212125
45427		-1.769056	-1.775732	-35.237379
45428		-1.994420	-1.687633	-35.367552
45429		-2.193512	-1.639973	-35.554846
45430		-2.376081	-1.655372	-35.754074
45431		-2.510560	-1.732919	-35.879718
45432		-2.661689	-1.799512	-35.918922
45433		-2.882319	-1.899126	-35.931121
45434		-3.104356	-2.093474	-35.979997
45435		-3.273326	-2.277746	-36.047976
45436		-3.507363	-2.374084	-36.139912
45437		-3.742448	-2.475165	-36.231438
45438		-3.824177	-2.623256	-36.276844
45439		-3.692122	-2.845182	-36.344462
45440		-3.616361	-3.094878	-36.467252
45441		-3.610354	-3.276884	-36.620757
45442		-3.577132	-3.404717	-36.707477
45443		-3.597141	-3.502835	-36.727204
45444		-3.624522	-3.594470	-36.688191
45445		-3.600275	-3.656206	-36.606798
45446		-3.548606	-3.706087	-36.527317
45447		-3.480382	-3.794198	-36.478859
45448		-3.462613	-3.897875	-36.451977
45449		-3.533650	-4.029903	-36.457706
45450		-3.645060	-4.184719	-36.471783
45451		-3.752253	-4.365666	-36.475245
45452		-3.849313	-4.570132	-36.485052
45453		-3.920220	-4.762211	-36.522860
45454		-3.905237	-4.937587	-36.588335
45455		-3.863399	-5.095734	-36.706210
45456		-3.760593	-5.228875	-36.889968
45457		-3.659459	-5.351586	-37.120780
45458		-3.618750	-5.473050	-37.363005
45459		-3.650147	-5.595940	-37.584907
45460		-3.744854	-5.703076	-37.770824
45461		-3.868393	-5.795264	-37.921947
45462		-3.957766	-5.899810	-38.009700
45463		-3.989147	-6.001319	-38.050591
45464		-3.958855	-6.085820	-38.066119
45465		-3.822584	-6.160270	-38.074293
45466		-3.634628	-6.233976	-38.080052
45467		-3.540188	-6.295393	-38.120042
45468		-3.538161	-6.336898	-38.192001
45469		-3.569112	-6.387438	-38.266978
45470		-3.598504	-6.435669	-38.329358
45471		-3.575909	-6.479554	-38.391050
45472		-3.535151	-6.529311	-38.446369
45473		-3.484904	-6.587966	-38.478626
45474		-3.439543	-6.632242	-38.491220
45475		-3.409183	-6.669327	-38.498350
45476		-3.373469	-6.724917	-38.508126
45477		-3.328960	-6.791710	-38.533698
45478		-3.318789	-6.848835	-38.576726
45479		-3.362172	-6.914679	-38.621221
45480		-3.381732	-6.981320	-38.661229
45481		-3.420090	-7.025905	-38.695143
45482		-3.469251	-7.054102	-38.730946
45483		-3.494077	-7.079554	-38.762914
45484		-3.463304	-7.094677	-38.790239
45485		-3.429811	-7.062633	-38.818852
45486		-3.411582	-7.016467	-38.845217
45487		-3.396578	-6.952544	-38.875045
45488		-3.419756	-6.877462	-38.927881
45489		-3.403640	-6.824930	-38.955628
45490		-3.350154	-6.776935	-38.959628
45491		-3.257635	-6.727974	-38.967367
45492		-3.207237	-6.665805	-38.969174
45493		-3.180123	-6.590256	-38.956743
45494		-3.127003	-6.493229	-38.918338
45495		-3.060432	-6.393880	-38.880863
45496		-3.018400	-6.300936	-38.844186
45497		-2.986942	-6.215836	-38.797499
45498		-2.953848	-6.116289	-38.738725
45499		-2.934038	-6.014114	-38.659788
45500		-2.901477	-5.923361	-38.552551
45501		-2.872125	-5.823063	-38.435632
45502		-2.830933	-5.731297	-38.287847
45503		-2.799448	-5.650186	-38.087011
45504		-2.752953	-5.586643	-37.857178
45505		-2.706629	-5.539765	-37.601075
45506		-2.682399	-5.502854	-37.333643
45507		-2.681726	-5.484952	-37.062701
45508		-2.656914	-5.483022	-36.779747
45509		-2.612398	-5.483475	-36.505684
45510		-2.551703	-5.498876	-36.229019
45511		-2.451985	-5.524103	-35.949363
45512		-2.372988	-5.523272	-35.666210
45513		-2.277293	-5.484164	-35.391641
45514		-2.195008	-5.430241	-35.067541
45515		-2.166387	-5.428369	-34.643577
45516		-2.166551	-5.463023	-34.150765
45517		-2.176489	-5.527363	-33.604071
45518		-2.282860	-5.618754	-32.986626
45519		-2.388603	-5.770919	-32.300157
45520		-2.380071	-5.930924	-31.540385
45521		-2.333746	-6.093719	-30.757137
45522		-2.330198	-6.286744	-29.974828
45523		-2.373499	-6.458497	-29.220185
45524		-2.738758	-6.823540	-28.465207
45525		-2.810537	-7.147175	-27.688025
45526		-2.812836	-7.404752	-26.962783
45527		-2.830910	-7.568298	-26.276750
45528		-2.793730	-7.654436	-25.646509
45529		-2.993718	-7.919029	-25.044037
45530		-3.120046	-8.214910	-24.409642
45531		-3.100541	-8.451023	-23.812438
45532		-3.085511	-8.588738	-23.323007
45533		-3.130898	-8.714467	-22.886411
45534		-3.346238	-8.950387	-22.435341
45535		-3.475451	-9.220937	-21.948712
45536		-3.473168	-9.457009	-21.466595
45537		-3.460715	-9.624880	-21.077779
45538		-3.575700	-9.724866	-20.714765
45539		-3.619332	-9.822051	-20.317244
45540		-3.643359	-9.915803	-19.911144
45541		-3.782996	-10.106594	-19.526281
45542		-3.931620	-10.387989	-19.149342
45543		-3.956818	-10.595546	-18.749829
45544		-3.958937	-10.694977	-18.361501
45545		-4.051604	-10.869401	-18.026196
45546		-4.011739	-11.016672	-17.721550
45547		-3.808501	-11.016318	-17.482007
45548		-3.695012	-11.011549	-17.421228
45549		-3.643094	-11.078013	-17.489708
45550		-3.597632	-11.091862	-17.608944
45551		-3.628526	-11.105231	-17.743403
45552		-3.680730	-11.177224	-17.871914
45553		-3.710532	-11.282795	-17.929896
45554		-3.670941	-11.382880	-17.929600
45555		-3.625462	-11.471052	-17.916625
45556		-3.586195	-11.532207	-17.916449
45557		-3.599495	-11.587654	-17.937554
45558		-3.654324	-11.608696	-17.961270
45559		-3.707309	-11.616795	-17.961076
45560		-3.715704	-11.643843	-17.965565
45561		-3.688056	-11.644282	-17.964009
45562		-3.690901	-11.623332	-17.959274
45563		-3.722751	-11.647893	-17.948646
45564		-3.740296	-11.675661	-17.923669
45565		-3.759725	-11.690814	-17.876554
45566		-3.800396	-11.731239	-17.799394
45567		-3.819111	-11.760534	-17.705787
45568		-3.858814	-11.783350	-17.596414
45569		-3.873739	-11.794300	-17.479233
45570		-3.876377	-11.819154	-17.368758
45571		-3.877246	-11.830764	-17.270425
45572		-3.873749	-11.838316	-17.167742
45573		-3.875155	-11.861159	-17.072114
45574		-3.873111	-11.909968	-16.980832
45575		-3.872097	-11.954825	-16.888798
45576		-3.879783	-11.967720	-16.810053
45577		-3.879525	-11.981978	-16.734542
45578		-3.870911	-11.976466	-16.652290
45579		-3.847713	-11.968535	-16.586896
45580		-3.826001	-11.985872	-16.537115
45581		-3.808504	-12.023611	-16.503357
45582		-3.804422	-12.069027	-16.454947
45583		-3.751494	-12.104736	-16.398875
45584		-3.696399	-12.133174	-16.356283
45585		-3.649986	-12.145888	-16.293687
45586		-3.605127	-12.135035	-16.193552
45587		-3.541750	-12.141506	-16.073813
45588		-3.481498	-12.191426	-15.957533
45589		-3.387186	-12.208657	-15.857225
45590		-3.326255	-12.220428	-15.798340
45591		-3.264969	-12.230961	-15.776130
45592		-3.195328	-12.225120	-15.827066
45593		-3.149408	-12.197339	-15.905788
45594		-3.137109	-12.188243	-15.969394
45595		-3.107730	-12.202066	-16.010908
45596		-3.067061	-12.220028	-16.020556
45597		-3.024391	-12.223376	-16.011233
45598		-2.986814	-12.239027	-16.004283
45599		-2.964680	-12.266563	-16.003852
45600		-2.976953	-12.284279	-16.020011
45601		-2.992393	-12.287056	-16.036029
45602		-2.985156	-12.269144	-16.049415
45603		-2.996651	-12.264709	-16.047318
45604		-3.031973	-12.262979	-16.039350
45605		-3.051045	-12.287910	-16.035816
45606		-3.067527	-12.332144	-16.035709
45607		-3.106240	-12.367814	-16.028676
45608		-3.131713	-12.394512	-16.030345
45609		-3.123679	-12.403568	-16.038346
45610		-3.125839	-12.411131	-16.042286
45611		-3.142376	-12.468012	-16.031356
45612		-3.092882	-12.531633	-16.023364
45613		-3.052509	-12.589449	-16.040492
45614		-3.007168	-12.630906	-16.085783
45615		-2.942155	-12.650722	-16.154442
45616		-2.887700	-12.639511	-16.236828
45617		-2.846737	-12.630192	-16.330656
45618		-2.810765	-12.615272	-16.430047
45619		-2.765892	-12.567222	-16.553869
45620		-2.737105	-12.507029	-16.681510
45621		-2.707842	-12.443636	-16.819751
45622		-2.678987	-12.396840	-16.967046
45623		-2.698383	-12.338929	-17.126798
45624		-2.756503	-12.290661	-17.288270
45625		-2.744687	-12.199598	-17.442545
45626		-2.745259	-12.075204	-17.608498
45627		-2.790518	-11.941003	-17.788076
45628		-2.855161	-11.826206	-17.963922
45629		-2.885829	-11.677542	-18.160016
45630		-2.956616	-11.514925	-18.370547
45631		-3.019833	-11.409800	-18.576702
45632		-3.039444	-11.362761	-18.776275
45633		-3.014240	-11.293432	-19.001056
45634		-3.061693	-11.121499	-19.256306
45635		-3.140172	-10.912274	-19.544481
45636		-3.133342	-10.709196	-19.855492
45637		-3.112003	-10.548605	-20.212902
45638		-3.098922	-10.360345	-20.622628
45639		-3.079650	-10.149754	-21.097543
45640		-3.047404	-10.020997	-21.629116
45641		-2.998504	-9.873181	-22.205992
45642		-2.921162	-9.724581	-22.823272
45643		-2.866287	-9.507050	-23.462517
45644		-2.900373	-9.321949	-24.148613
45645		-2.869956	-9.141468	-24.851686
45646		-2.642279	-8.863829	-25.633267
45647		-2.524980	-8.510334	-26.493530
45648		-2.536857	-8.175778	-27.354541
45649		-2.539590	-7.841578	-28.164391
45650		-2.545207	-7.420635	-28.920133
45651		-2.552342	-6.995199	-29.634647
45652		-2.523104	-6.660177	-30.273273
45653		-2.404516	-6.373109	-30.862345
45654		-2.389765	-6.152485	-31.471337
45655		-2.473081	-6.010081	-32.088573
45656		-2.637339	-5.886580	-32.665054
45657		-2.892435	-5.779736	-33.164604
45658		-3.174899	-5.681367	-33.563159
45659		-3.531361	-5.583619	-33.847410
45660		-3.917815	-5.524143	-33.977232
45661		-4.344338	-5.606876	-33.903196
45662		-4.527567	-5.723828	-33.850123
45663		-4.439045	-5.822518	-33.927165
45664		-4.378154	-5.856170	-34.090078
45665		-4.528103	-5.861385	-34.263835
45666		-4.752119	-5.902063	-34.410252
45667		-4.991109	-5.955305	-34.549892
45668		-5.241997	-6.025582	-34.674269
45669		-5.416723	-6.074703	-34.746535
45670		-5.478282	-6.096720	-34.786489
45671		-5.484100	-6.120734	-34.789375
45672		-5.467804	-6.161842	-34.760079
45673		-5.457439	-6.223468	-34.730642
45674		-5.437116	-6.302734	-34.722464
45675		-5.393488	-6.410544	-34.739845
45676		-5.377431	-6.520787	-34.767638
45677		-5.405402	-6.624947	-34.797219
45678		-5.450151	-6.754584	-34.809499
45679		-5.437406	-6.906361	-34.797082
45680		-5.367513	-7.058646	-34.793944
45681		-5.375257	-7.198300	-34.828412
45682		-5.381656	-7.314650	-34.907299
45683		-5.331559	-7.428009	-35.009867
45684		-5.262089	-7.556803	-35.125593
45685		-5.217114	-7.686870	-35.264659
45686		-5.151355	-7.833830	-35.442311
45687		-5.070296	-7.990539	-35.643710
45688		-5.022433	-8.125192	-35.863898
45689		-5.008616	-8.249649	-36.080503
45690		-5.010559	-8.374585	-36.276771
45691		-5.005635	-8.506349	-36.455903
45692		-4.993028	-8.627594	-36.606259
45693		-4.968567	-8.721642	-36.730195
45694		-4.943299	-8.809981	-36.815402
45695		-4.924677	-8.866206	-36.865432
45696		-4.933970	-8.912391	-36.887805
45697		-4.929477	-8.950032	-36.914949
45698		-4.910642	-8.989883	-36.929578
45699		-4.882384	-9.023352	-36.919449
45700		-4.804568	-9.070347	-36.907505
45701		-4.716872	-9.112928	-36.944962
45702		-4.592544	-9.168242	-37.023676
45703		-4.486086	-9.221690	-37.118834
45704		-4.404897	-9.268304	-37.221758
45705		-4.351758	-9.320032	-37.315889
45706		-4.302974	-9.383898	-37.389110
45707		-4.234267	-9.467272	-37.450609
45708		-4.171596	-9.562976	-37.496998
45709		-4.117455	-9.645883	-37.535459
45710		-4.083841	-9.728382	-37.559338
45711		-4.055543	-9.821091	-37.574014
45712		-4.005087	-9.940857	-37.603620
45713		-3.943128	-10.072133	-37.662151
45714		-3.913278	-10.184142	-37.738057
45715		-3.922769	-10.288826	-37.809777
45716		-3.961954	-10.393787	-37.861425
45717		-3.988155	-10.491227	-37.892851
45718		-4.000355	-10.568172	-37.905971
45719		-4.016863	-10.624202	-37.926942
45720		-4.021416	-10.663105	-37.957583
45721		-4.005860	-10.675193	-37.977180
45722		-3.996444	-10.667395	-37.988093
45723		-3.977286	-10.648238	-37.994070
45724		-3.942237	-10.628321	-37.995856
45725		-3.911958	-10.607655	-38.007228
45726		-3.880597	-10.592082	-38.034428
45727		-3.856083	-10.577944	-38.078784
45728		-3.827533	-10.542319	-38.144959
45729		-3.801248	-10.487876	-38.250354
45730		-3.802017	-10.425212	-38.340239
45731		-3.839126	-10.371147	-38.399643
45732		-3.821892	-10.315753	-38.445714
45733		-3.717405	-10.227633	-38.480804
45734		-3.672949	-10.115629	-38.514262
45735		-3.706060	-10.031825	-38.548964
45736		-3.706434	-9.958968	-38.576485
45737		-3.672912	-9.880184	-38.590983
45738		-3.702745	-9.825592	-38.604955
45739		-3.698222	-9.780345	-38.612237
45740		-3.674830	-9.723239	-38.607060
45741		-3.685446	-9.659438	-38.605058
45742		-3.719602	-9.601515	-38.609829
45743		-3.767253	-9.582828	-38.627300
45744		-3.759350	-9.570546	-38.645697
45745		-3.766930	-9.555009	-38.669761
45746		-3.764129	-9.534005	-38.700068
45747		-3.778858	-9.490047	-38.738652
45748		-3.789519	-9.436195	-38.763124
45749		-3.785510	-9.397150	-38.768572
45750		-3.729232	-9.378381	-38.747170
45751		-3.608310	-9.306104	-38.728195
45752		-3.552825	-9.185925	-38.741860
45753		-3.519235	-9.075583	-38.737533
45754		-3.508366	-8.946734	-38.689413
45755		-3.544002	-8.831931	-38.594897
45756		-3.546953	-8.742824	-38.402103
45757		-3.518362	-8.640644	-38.124071
45758		-3.521500	-8.540866	-37.795354
45759		-3.485828	-8.409219	-37.432463
45760		-3.453985	-8.239850	-37.061313
45761		-3.386915	-8.063274	-36.695874
45762		-3.297023	-7.886099	-36.319741
45763		-3.163122	-7.737918	-35.912579
45764		-3.063953	-7.609749	-35.498651
45765		-2.917273	-7.500201	-35.085806
45766		-2.751097	-7.392152	-34.665516
45767		-2.608958	-7.302864	-34.268556
45768		-2.540164	-7.303510	-33.847709
45769		-2.476871	-7.269026	-33.419797
45770		-2.474537	-7.224892	-33.002933
45771		-2.494730	-7.210554	-32.533217
45772		-2.475863	-7.235868	-31.982974
45773		-2.357059	-7.297856	-31.390985
45774		-2.283907	-7.386179	-30.808426
45775		-2.232432	-7.472935	-30.268207
45776		-2.283158	-7.549569	-29.724863
45777		-2.471161	-7.731361	-29.145802
45778		-2.563385	-7.941377	-28.516607
45779		-2.599237	-8.132013	-27.890634
45780		-2.655522	-8.298352	-27.291512
45781		-2.784506	-8.498960	-26.705607
45782		-2.820779	-8.665410	-26.087539
45783		-2.872567	-8.812841	-25.461459
45784		-3.247477	-9.115775	-24.806901
45785		-3.391789	-9.403763	-24.095233
45786		-3.323527	-9.642110	-23.425002
45787		-3.295470	-9.759446	-22.824308
45788		-3.281395	-9.823246	-22.268316
45789		-3.260421	-9.843715	-21.752882
45790		-3.429516	-9.929324	-21.275613
45791		-3.474515	-10.086926	-20.827619
45792		-3.452281	-10.251525	-20.411191
45793		-3.627077	-10.529021	-20.000295
45794		-3.609244	-10.762449	-19.610719
45795		-3.551798	-10.932184	-19.254472
45796		-3.517088	-11.051609	-18.912616
45797		-3.443331	-11.179705	-18.545351
45798		-3.357826	-11.289703	-18.196668
45799		-3.232631	-11.355126	-17.953933
45800		-3.200611	-11.497096	-17.839539
45801		-3.267061	-11.603488	-17.798941
45802		-3.390873	-11.807955	-17.740662
45803		-3.307182	-11.883932	-17.631607
45804		-3.172988	-11.947692	-17.540655
45805		-3.076413	-12.087134	-17.530861
45806		-3.028344	-12.233280	-17.584100
45807		-3.052523	-12.375494	-17.668689
45808		-3.127318	-12.499264	-17.713702
45809		-3.187838	-12.568452	-17.734441
45810		-3.203722	-12.611510	-17.743368
45811		-3.236798	-12.660200	-17.732328
45812		-3.292958	-12.698997	-17.697611
45813		-3.334617	-12.736718	-17.626163
45814		-3.365062	-12.783785	-17.518585
45815		-3.379247	-12.840730	-17.391883
45816		-3.411939	-12.866157	-17.267205
45817		-3.439983	-12.908401	-17.136368
45818		-3.461755	-12.951068	-16.987798
45819		-3.433368	-12.973756	-16.827504
45820		-3.399443	-12.982729	-16.698698
45821		-3.412959	-12.961047	-16.591857
45822		-3.436061	-12.943315	-16.484760
45823		-3.417266	-12.931312	-16.391798
45824		-3.353665	-12.886879	-16.309452
45825		-3.288691	-12.842313	-16.232560
45826		-3.247029	-12.811044	-16.185328
45827		-3.210425	-12.788512	-16.149871
45828		-3.173581	-12.738246	-16.119838
45829		-3.138317	-12.687383	-16.096692
45830		-3.116069	-12.621820	-16.094253
45831		-3.096158	-12.562072	-16.109469
45832		-3.094235	-12.522322	-16.131063
45833		-3.077613	-12.507836	-16.153226
45834		-3.087498	-12.468478	-16.174252
45835		-3.094369	-12.469721	-16.173486
45836		-3.080193	-12.517623	-16.135952
45837		-3.049519	-12.512070	-16.066342
45838		-3.046184	-12.473905	-15.991087
45839		-3.049176	-12.437962	-15.914862
45840		-3.031916	-12.414902	-15.860008
45841		-2.994574	-12.354777	-15.825551
45842		-2.945845	-12.300021	-15.821940
45843		-2.932257	-12.270356	-15.857765
45844		-2.935484	-12.223969	-15.917940
45845		-2.923359	-12.188065	-15.964185
45846		-2.912691	-12.180119	-15.983158
45847		-2.889391	-12.194270	-15.980923
45848		-2.853705	-12.195055	-15.967997
45849		-2.828197	-12.196534	-15.969018
45850		-2.828418	-12.200056	-15.990301
45851		-2.836804	-12.208333	-16.010141
45852		-2.827143	-12.251394	-16.014624
45853		-2.852364	-12.313305	-16.001702
45854		-2.888105	-12.368777	-15.990868
45855		-2.897445	-12.391626	-15.993515
45856		-2.879827	-12.428088	-15.998622
45857		-2.857554	-12.473474	-16.014692
45858		-2.862610	-12.488651	-16.044243
45859		-2.834021	-12.494396	-16.080587
45860		-2.814116	-12.511183	-16.119420
45861		-2.788941	-12.508868	-16.162316
45862		-2.765420	-12.502824	-16.225130
45863		-2.727188	-12.505362	-16.324559
45864		-2.716864	-12.499777	-16.454152
45865		-2.681030	-12.501640	-16.603540
45866		-2.671257	-12.475900	-16.780208
45867		-2.715564	-12.391260	-16.981208
45868		-2.742143	-12.277212	-17.200250
45869		-2.708883	-12.144639	-17.433867
45870		-2.690927	-12.009962	-17.673788
45871		-2.662584	-11.904329	-17.939613
45872		-2.608502	-11.889103	-18.223867
45873		-2.542959	-11.925677	-18.521224
45874		-2.523605	-11.961258	-18.833806
45875		-2.510677	-11.990525	-19.168005
45876		-2.479158	-11.900456	-19.511137
45877		-2.508468	-11.746163	-19.852965
45878		-2.540502	-11.598951	-20.206175
45879		-2.544365	-11.466373	-20.560724
45880		-2.457121	-11.305768	-20.905874
45881		-2.350554	-11.113559	-21.286278
45882		-2.233691	-10.934401	-21.719796
45883		-2.085566	-10.747825	-22.207742
45884		-2.013807	-10.545962	-22.805663
45885		-1.912689	-10.312882	-23.479520
45886		-1.967958	-10.124630	-24.194279
45887		-1.986408	-9.970109	-24.939450
45888		-1.935407	-9.711086	-25.709915
45889		-1.903923	-9.403326	-26.481967
45890		-1.787286	-9.153098	-27.241432
45891		-1.610572	-8.914006	-28.052792
45892		-1.514701	-8.624082	-28.899674
45893		-1.479433	-8.319457	-29.683332
45894		-1.511259	-8.031279	-30.352181
45895		-1.611677	-7.799752	-30.930172
45896		-1.825497	-7.696674	-31.410065
45897		-1.990877	-7.744735	-31.688069
45898		-2.185555	-7.828359	-32.005289
45899		-2.401684	-7.827510	-32.353042
45900		-2.639806	-7.820579	-32.733174
45901		-2.820786	-7.854075	-33.165410
45902		-2.955945	-7.864148	-33.612242
45903		-3.054642	-7.837167	-34.077422
45904		-3.193760	-7.849570	-34.515616
45905		-3.290505	-7.835731	-34.900511
45906		-3.350457	-7.775678	-35.221198
45907		-3.494591	-7.706435	-35.438409
45908		-3.597587	-7.652782	-35.572219
45909		-3.651914	-7.706639	-35.713141
45910		-3.707071	-7.909545	-35.850755
45911		-3.773911	-8.057247	-35.945844
45912		-3.947393	-8.083902	-36.002516
45913		-4.153022	-8.064734	-35.998951
45914		-4.331292	-8.076576	-35.911144
45915		-4.422086	-8.111393	-35.760108
45916		-4.419904	-8.162600	-35.646836
45917		-4.319777	-8.289773	-35.734316
45918		-4.287074	-8.493539	-35.952590
45919		-4.315178	-8.671664	-36.189561
45920		-4.388199	-8.765347	-36.401613
45921		-4.513562	-8.792875	-36.570622
45922		-4.602813	-8.804365	-36.657055
45923		-4.597177	-8.851375	-36.642749
45924		-4.512692	-8.898070	-36.577970
45925		-4.397554	-8.929036	-36.523576
45926		-4.301634	-8.960408	-36.501286
45927		-4.247994	-8.992301	-36.520327
45928		-4.258172	-9.018068	-36.574035
45929		-4.324654	-9.049062	-36.623900
45930		-4.345671	-9.102907	-36.632306
45931		-4.279583	-9.162253	-36.626595
45932		-4.223636	-9.201824	-36.642733
45933		-4.167054	-9.231977	-36.698808
45934		-4.128404	-9.264983	-36.796161
45935		-4.080690	-9.293537	-36.920538
45936		-4.023675	-9.323602	-37.081528
45937		-3.944064	-9.338602	-37.266582
45938		-3.891043	-9.346802	-37.447667
45939		-3.852127	-9.350776	-37.607603
45940		-3.817351	-9.356797	-37.745343
45941		-3.810928	-9.352931	-37.867808
45942		-3.824733	-9.356028	-37.961980
45943		-3.899433	-9.374828	-38.024805
45944		-3.979483	-9.399376	-38.039768
45945		-4.024382	-9.424872	-38.014876
45946		-4.026789	-9.468748	-37.973444
45947		-3.984766	-9.499682	-37.941422
45948		-3.954113	-9.523910	-37.909356
45949		-3.968975	-9.546206	-37.879530
45950		-4.017753	-9.568298	-37.867195
45951		-4.037785	-9.585777	-37.870276
45952		-4.007361	-9.610833	-37.882258
45953		-3.968747	-9.651255	-37.913414
45954		-3.930990	-9.697160	-37.951872
45955		-3.876270	-9.742454	-37.979716
45956		-3.821828	-9.796093	-37.995516
45957		-3.769373	-9.861099	-38.003820
45958		-3.729294	-9.936434	-38.005418
45959		-3.687255	-10.002690	-37.986894
45960		-3.659012	-10.049590	-37.950471
45961		-3.617237	-10.073996	-37.908656
45962		-3.573920	-10.090943	-37.897642
45963		-3.554950	-10.114192	-37.923032
45964		-3.581942	-10.160827	-37.972939
45965		-3.631535	-10.218977	-38.023858
45966		-3.690607	-10.280047	-38.069615
45967		-3.738651	-10.339292	-38.109623
45968		-3.765911	-10.390467	-38.143610
45969		-3.824527	-10.437090	-38.188113
45970		-3.896213	-10.495144	-38.237546
45971		-3.923669	-10.553182	-38.280029
45972		-3.918632	-10.583392	-38.315584
45973		-3.924051	-10.596050	-38.343858
45974		-3.896301	-10.592386	-38.355317
45975		-3.832623	-10.552767	-38.367368
45976		-3.754824	-10.488710	-38.386223
45977		-3.725971	-10.402507	-38.432302
45978		-3.738114	-10.308821	-38.484479
45979		-3.737794	-10.224097	-38.522094
45980		-3.708808	-10.179139	-38.550998
45981		-3.656494	-10.152068	-38.569590
45982		-3.649199	-10.117260	-38.567748
45983		-3.645030	-10.079654	-38.574287
45984		-3.591153	-10.033475	-38.570720
45985		-3.527601	-9.998256	-38.566579
45986		-3.479787	-9.949537	-38.564126
45987		-3.471894	-9.902332	-38.569414
45988		-3.474176	-9.832753	-38.556911
45989		-3.448399	-9.756465	-38.509163
45990		-3.398122	-9.668548	-38.429974
45991		-3.384288	-9.542656	-38.336741
45992		-3.382957	-9.402586	-38.227315
45993		-3.363475	-9.247400	-38.092561
45994		-3.316659	-9.017366	-37.904574
45995		-3.235978	-8.720872	-37.657036
45996		-3.082944	-8.398767	-37.408074
45997		-2.888211	-8.110687	-37.172390
45998		-2.718225	-7.845365	-36.964967
45999		-2.544725	-7.618237	-36.771213
46000		-2.370380	-7.461971	-36.586935
46001		-2.211103	-7.349645	-36.443125
46002		-2.076663	-7.221524	-36.335088
46003		-1.977462	-7.067028	-36.243792
46004		-1.905534	-6.919391	-36.098950
46005		-1.849375	-6.774658	-35.854275
46006		-1.780906	-6.609031	-35.548618
46007		-1.764326	-6.488410	-35.225158
46008		-1.774365	-6.464432	-34.818067
46009		-1.684406	-6.443939	-34.313261
46010		-1.583980	-6.414801	-33.808480
46011		-1.525240	-6.414454	-33.304527
46012		-1.493252	-6.444102	-32.763874
46013		-1.501892	-6.485096	-32.144190
46014		-1.506954	-6.530192	-31.484275
46015		-1.485058	-6.596247	-30.811241
46016		-1.507191	-6.720732	-30.148041
46017		-1.583050	-6.894630	-29.487058
46018		-1.740668	-7.090532	-28.857828
46019		-1.873138	-7.312866	-28.217426
46020		-1.921809	-7.524334	-27.593835
46021		-1.993506	-7.704562	-27.015973
46022		-2.115715	-7.945709	-26.479926
46023		-2.107718	-8.170537	-25.932355
46024		-2.071105	-8.302914	-25.430676
46025		-2.080401	-8.397484	-25.010347
46026		-2.212403	-8.561606	-24.597861
46027		-2.288471	-8.757039	-24.136751
46028		-2.271234	-8.963051	-23.686118
46029		-2.477963	-9.375180	-23.250131
46030		-2.519981	-9.751201	-22.762934
46031		-2.419691	-10.063496	-22.258087
46032		-2.400601	-10.249720	-21.803554
46033		-2.368051	-10.352214	-21.356812
46034		-2.340206	-10.447259	-20.898949
46035		-2.362792	-10.605894	-20.475183
46036		-2.335245	-10.739707	-20.128026
46037		-2.261991	-10.873255	-19.831591
46038		-2.254701	-10.992795	-19.566500
46039		-2.292351	-11.039494	-19.303757
46040		-2.243415	-11.063459	-19.062964
46041		-2.277700	-11.185826	-18.849047
46042		-2.257868	-11.345100	-18.604315
46043		-2.142404	-11.436645	-18.350523
46044		-2.099751	-11.606967	-18.222138
46045		-2.061679	-11.858027	-18.184210
46046		-1.941678	-12.032437	-18.195978
46047		-1.817174	-12.086238	-18.289631
46048		-1.820320	-12.209377	-18.448205
46049		-1.850565	-12.360560	-18.576686
46050		-1.892607	-12.447845	-18.623358
46051		-1.876163	-12.553338	-18.590015
46052		-1.811418	-12.659046	-18.542327
46053		-1.762228	-12.794494	-18.507624
46054		-1.729510	-12.899893	-18.486449
46055		-1.755904	-12.976544	-18.485653
46056		-1.783489	-13.006164	-18.454970
46057		-1.839877	-13.045779	-18.378024
46058		-1.875744	-13.113729	-18.278950
46059		-1.889490	-13.197930	-18.165528
46060		-1.919290	-13.254398	-18.043204
46061		-1.961091	-13.292519	-17.904242
46062		-1.974227	-13.342192	-17.767559
46063		-1.990732	-13.362126	-17.648368
46064		-2.024497	-13.371602	-17.528420
46065		-2.040690	-13.389003	-17.394831
46066		-2.050333	-13.396625	-17.272720
46067		-2.045720	-13.392742	-17.187340
46068		-2.047284	-13.379585	-17.114594
46069		-2.078911	-13.348898	-17.018864
46070		-2.110604	-13.352812	-16.947726
46071		-2.098819	-13.371269	-16.898582
46072		-2.094469	-13.364682	-16.868168
46073		-2.098292	-13.290895	-16.834574
46074		-2.047875	-13.216286	-16.799372
46075		-1.990197	-13.171170	-16.751056
46076		-1.925860	-13.141912	-16.695343
46077		-1.845779	-13.082553	-16.619282
46078		-1.753917	-13.026304	-16.539774
46079		-1.677329	-12.992374	-16.482993
46080		-1.604336	-12.996646	-16.461696
46081		-1.520109	-12.954996	-16.456861
46082		-1.457146	-12.884825	-16.488945
46083		-1.427668	-12.850495	-16.541689
46084		-1.395486	-12.842849	-16.597347
46085		-1.345387	-12.833158	-16.634080
46086		-1.288219	-12.814581	-16.643500
46087		-1.254542	-12.795802	-16.629672
46088		-1.230821	-12.796945	-16.628636
46089		-1.236760	-12.791671	-16.629693
46090		-1.255585	-12.800425	-16.623585
46091		-1.262735	-12.833119	-16.606494
46092		-1.291937	-12.866274	-16.592406
46093		-1.357008	-12.903524	-16.579115
46094		-1.389659	-12.919060	-16.563294
46095		-1.421847	-12.941541	-16.567895
46096		-1.451686	-12.991619	-16.593463
46097		-1.481319	-13.022039	-16.616060
46098		-1.452162	-13.000649	-16.640835
46099		-1.443306	-12.956830	-16.677432
46100		-1.462805	-12.904822	-16.741044
46101		-1.475499	-12.868912	-16.817465
46102		-1.463195	-12.839813	-16.912041
46103		-1.456487	-12.822988	-17.025760
46104		-1.452678	-12.819524	-17.143173
46105		-1.426618	-12.769950	-17.257078
46106		-1.426652	-12.691670	-17.380020
46107		-1.463006	-12.614351	-17.518830
46108		-1.480829	-12.544418	-17.677324
46109		-1.496688	-12.467569	-17.837026
46110		-1.537259	-12.388572	-18.014534
46111		-1.602661	-12.320402	-18.190217
46112		-1.640793	-12.265622	-18.392325
46113		-1.713829	-12.209547	-18.636514
46114		-1.795044	-12.073071	-18.904043
46115		-1.898159	-11.898885	-19.136716
46116		-1.994228	-11.712742	-19.343121
46117		-2.054816	-11.544716	-19.543779
46118		-2.025251	-11.373880	-19.730112
46119		-1.962513	-11.172138	-19.915493
46120		-1.867453	-10.991898	-20.117256
46121		-1.761983	-10.854832	-20.349236
46122		-1.772420	-10.788923	-20.612171
46123		-1.764501	-10.664789	-20.907652
46124		-1.761109	-10.447793	-21.217098
46125		-1.776616	-10.217102	-21.534780
46126		-1.729241	-9.991170	-21.877836
46127		-1.726468	-9.818801	-22.275702
46128		-1.706266	-9.683856	-22.732972
46129		-1.586788	-9.547535	-23.212852
46130		-1.503709	-9.377029	-23.710657
46131		-1.507183	-9.175041	-24.234614
46132		-1.443919	-8.958022	-24.759282
46133		-1.397480	-8.723163	-25.279068
46134		-1.442698	-8.535715	-25.824569
46135		-1.651263	-8.522518	-26.422916
46136		-1.399985	-8.463737	-27.054960
46137		-1.037023	-8.208724	-27.721052
46138		-0.877509	-7.822877	-28.435544
46139		-0.890524	-7.476351	-29.150717
46140		-0.960464	-7.170700	-29.803747
46141		-0.979387	-6.911285	-30.390856
46142		-1.014540	-6.751141	-30.908577
46143		-1.010726	-6.669810	-31.340580
46144		-0.995642	-6.616889	-31.710220
46145		-1.076457	-6.547173	-32.084584
46146		-1.222773	-6.512823	-32.495486
46147		-1.435530	-6.541883	-32.889776
46148		-1.630749	-6.590471	-33.260124
46149		-1.771013	-6.626852	-33.601759
46150		-1.796886	-6.564868	-33.940068
46151		-1.772331	-6.436837	-34.310455
46152		-1.794631	-6.296121	-34.708408
46153		-1.865887	-6.150137	-35.105220
46154		-1.928639	-6.020355	-35.422980
46155		-2.010251	-5.954841	-35.676504
46156		-2.122403	-5.890797	-35.902634
46157		-2.239076	-5.857445	-36.107759
46158		-2.292209	-5.926032	-36.355307
46159		-2.400853	-6.065639	-36.631117
46160		-2.508629	-6.185613	-36.890208
46161		-2.679809	-6.284187	-37.098556
46162		-2.846817	-6.364818	-37.245283
46163		-2.946039	-6.446604	-37.312494
46164		-2.986402	-6.543680	-37.315675
46165		-3.052928	-6.593781	-37.293472
46166		-3.103457	-6.598062	-37.262475
46167		-3.113596	-6.588690	-37.223963
46168		-3.096933	-6.616265	-37.199199
46169		-3.091785	-6.670332	-37.214488
46170		-3.127456	-6.723649	-37.271430
46171		-3.237065	-6.763865	-37.342482
46172		-3.313718	-6.833415	-37.380729
46173		-3.360535	-6.926890	-37.396077
46174		-3.365421	-7.040133	-37.420501
46175		-3.374234	-7.162054	-37.480585
46176		-3.368351	-7.308173	-37.571292
46177		-3.356333	-7.456440	-37.693851
46178		-3.313760	-7.600203	-37.868888
46179		-3.266005	-7.748034	-38.073657
46180		-3.263496	-7.891408	-38.283987
46181		-3.290274	-8.024770	-38.496492
46182		-3.288104	-8.162345	-38.697339
46183		-3.266255	-8.302839	-38.873858
46184		-3.215735	-8.442619	-39.035811
46185		-3.166354	-8.594145	-39.197150
46186		-3.141230	-8.756904	-39.333321
46187		-3.177920	-8.903621	-39.450552
46188		-3.211833	-9.031176	-39.562187
46189		-3.222566	-9.153525	-39.653407
46190		-3.237298	-9.261412	-39.732504
46191		-3.272602	-9.358025	-39.797446
46192		-3.272994	-9.450959	-39.856284
46193		-3.236598	-9.542740	-39.898895
46194		-3.201789	-9.616368	-39.940413
46195		-3.199211	-9.689598	-39.986395
46196		-3.208880	-9.758203	-40.036883
46197		-3.211440	-9.828927	-40.089489
46198		-3.215344	-9.901424	-40.121540
46199		-3.233878	-9.973276	-40.127131
46200		-3.268058	-10.046691	-40.097075
46201		-3.313341	-10.112522	-40.026172
46202		-3.329287	-10.176707	-39.931282
46203		-3.285232	-10.242215	-39.842007
46204		-3.214470	-10.312076	-39.790493
46205		-3.159518	-10.365695	-39.795344
46206		-3.148494	-10.414552	-39.832275
46207		-3.191042	-10.482674	-39.881765
46208		-3.230089	-10.543481	-39.933170
46209		-3.277202	-10.602842	-39.967004
46210		-3.274222	-10.647121	-39.988364
46211		-3.249861	-10.654457	-40.011454
46212		-3.231274	-10.634385	-40.038061
46213		-3.208301	-10.600348	-40.053978
46214		-3.168008	-10.565621	-40.057835
46215		-3.134657	-10.520449	-40.049847
46216		-3.092485	-10.475447	-40.045238
46217		-3.041202	-10.448226	-40.045363
46218		-3.009821	-10.434300	-40.071322
46219		-3.001281	-10.412198	-40.119810
46220		-3.006355	-10.387020	-40.162925
46221		-2.992853	-10.374042	-40.192661
46222		-2.968640	-10.362817	-40.208807
46223		-2.930900	-10.348092	-40.216078
46224		-2.890237	-10.341900	-40.228388
46225		-2.875183	-10.340724	-40.248761
46226		-2.834461	-10.301466	-40.278458
46227		-2.783132	-10.255331	-40.320342
46228		-2.766910	-10.216386	-40.369905
46229		-2.727189	-10.176326	-40.409291
46230		-2.654141	-10.136087	-40.433350
46231		-2.526258	-10.098876	-40.447960
46232		-2.438574	-10.076559	-40.475254
46233		-2.386640	-10.063213	-40.493698
46234		-2.313641	-10.004384	-40.480594
46235		-2.238203	-9.913168	-40.459761
46236		-2.194077	-9.810836	-40.440111
46237		-2.182484	-9.703109	-40.399978
46238		-2.203241	-9.595374	-40.316743
46239		-2.233213	-9.500826	-40.162694
46240		-2.219810	-9.409603	-39.933447
46241		-2.189100	-9.329635	-39.684090
46242		-2.139986	-9.236236	-39.430032
46243		-2.077774	-9.107419	-39.158907
46244		-2.042074	-8.961085	-38.897131
46245		-2.000591	-8.802762	-38.640343
46246		-1.920460	-8.625329	-38.383531
46247		-1.822446	-8.448778	-38.122944
46248		-1.690601	-8.280448	-37.843622
46249		-1.547020	-8.101022	-37.526116
46250		-1.390366	-7.917049	-37.202164
46251		-1.300801	-7.786649	-36.844497
46252		-1.179104	-7.687482	-36.424491
46253		-1.064893	-7.603492	-35.944768
46254		-0.935205	-7.546081	-35.409463
46255		-0.843853	-7.478858	-34.847452
46256		-0.801543	-7.418791	-34.216691
46257		-0.817794	-7.374007	-33.522502
46258		-0.850938	-7.340589	-32.777566
46259		-0.860283	-7.347670	-31.985048
46260		-0.875407	-7.376802	-31.189342
46261		-0.939369	-7.501359	-30.415434
46262		-0.920342	-7.687638	-29.627974
46263		-0.871605	-7.800428	-28.895832
46264		-1.050264	-7.946990	-28.224350
46265		-1.157064	-8.076636	-27.532392
46266		-1.122101	-8.157606	-26.860388
46267		-1.163349	-8.245546	-26.242939
46268		-1.263889	-8.338771	-25.638544
46269		-1.285630	-8.519741	-25.032050
46270		-1.419687	-8.788639	-24.427002
46271		-1.477265	-9.020892	-23.785911
46272		-1.380511	-9.210607	-23.173451
46273		-1.322335	-9.344085	-22.621409
46274		-1.399464	-9.500720	-22.130955
46275		-1.581461	-9.756393	-21.652549
46276		-1.609934	-9.958443	-21.178549
46277		-1.647413	-10.113629	-20.726517
46278		-1.731408	-10.265830	-20.291920
46279		-1.736048	-10.434532	-19.862188
46280		-1.568346	-10.579738	-19.430637
46281		-1.511216	-10.709851	-19.042631
46282		-1.575358	-10.931235	-18.748992
46283		-1.327585	-11.001963	-18.501388
46284		-1.058701	-10.986856	-18.299787
46285		-0.877504	-10.983844	-18.188467
46286		-0.772030	-11.055701	-18.227264
46287		-0.720258	-11.176510	-18.349065
46288		-0.716097	-11.323176	-18.465223
46289		-0.663498	-11.431757	-18.579178
46290		-0.604908	-11.540712	-18.707636
46291		-0.609419	-11.699941	-18.776423
46292		-0.654587	-11.916670	-18.778679
46293		-0.635434	-12.095479	-18.750133
46294		-0.642129	-12.220714	-18.730944
46295		-0.676765	-12.317239	-18.738503
46296		-0.726795	-12.371540	-18.748048
46297		-0.785048	-12.380232	-18.748801
46298		-0.901059	-12.410377	-18.741981
46299		-0.954979	-12.460946	-18.663595
46300		-0.972681	-12.491843	-18.533724
46301		-1.001412	-12.520290	-18.388970
46302		-1.040624	-12.561900	-18.239431
46303		-1.083915	-12.613270	-18.098483
46304		-1.129206	-12.644188	-17.945068
46305		-1.160158	-12.658920	-17.780093
46306		-1.123191	-12.674107	-17.646645
46307		-1.128458	-12.697628	-17.521937
46308		-1.136381	-12.683238	-17.396010
46309		-1.151464	-12.676362	-17.299060
46310		-1.170183	-12.658647	-17.219211
46311		-1.169105	-12.643482	-17.155821
46312		-1.139966	-12.652505	-17.112031
46313		-1.084639	-12.646903	-17.073092
46314		-1.024886	-12.641165	-17.042488
46315		-1.033508	-12.676468	-17.017005
46316		-1.007135	-12.687655	-16.981082
46317		-0.970065	-12.659667	-16.942631
46318		-0.927803	-12.639754	-16.905149
46319		-0.862573	-12.652465	-16.867333
46320		-0.788095	-12.664844	-16.824348
46321		-0.701552	-12.676434	-16.785267
46322		-0.646007	-12.704220	-16.775664
46323		-0.630621	-12.759114	-16.822681
46324		-0.626766	-12.775154	-16.872452
46325		-0.621844	-12.786434	-16.910014
46326		-0.592827	-12.800554	-16.932766
46327		-0.561865	-12.801585	-16.939236
46328		-0.549400	-12.808919	-16.925254
46329		-0.575624	-12.827700	-16.901192
46330		-0.612599	-12.856455	-16.884871
46331		-0.633013	-12.915738	-16.861158
46332		-0.650931	-13.000984	-16.820444
46333		-0.732584	-13.133218	-16.773682
46334		-0.905642	-13.348041	-16.735619
46335		-1.016883	-13.502847	-16.737970
46336		-1.087077	-13.571336	-16.776552
46337		-1.081103	-13.566879	-16.825971
46338		-1.032493	-13.553027	-16.882014
46339		-0.983501	-13.508672	-16.915219
46340		-0.916268	-13.419330	-16.932914
46341		-0.887628	-13.354832	-16.985326
46342		-0.879938	-13.352558	-17.060383
46343		-0.867886	-13.346597	-17.126231
46344		-0.885475	-13.368358	-17.193969
46345		-0.898530	-13.395312	-17.294503
46346		-0.881238	-13.340868	-17.435429
46347		-0.905798	-13.209349	-17.613737
46348		-0.924029	-13.096730	-17.832851
46349		-0.910472	-13.002437	-18.075187
46350		-0.908918	-12.845669	-18.335652
46351		-0.916851	-12.675454	-18.592576
46352		-0.898656	-12.505172	-18.823344
46353		-0.867802	-12.359330	-19.047672
46354		-0.883525	-12.205071	-19.252360
46355		-0.902344	-12.037218	-19.438060
46356		-0.920894	-11.873221	-19.604325
46357		-0.953328	-11.712278	-19.765563
46358		-0.969368	-11.561565	-19.936906
46359		-1.004544	-11.360154	-20.110648
46360		-1.082370	-11.128318	-20.276229
46361		-1.193592	-10.936050	-20.427649
46362		-1.265062	-10.764412	-20.560421
46363		-1.299458	-10.595008	-20.708196
46364		-1.337224	-10.425352	-20.885218
46365		-1.376244	-10.259133	-21.069946
46366		-1.410217	-10.097779	-21.263965
46367		-1.467694	-9.917749	-21.482112
46368		-1.574718	-9.694299	-21.707446
46369		-1.722869	-9.482693	-21.930967
46370		-1.875473	-9.301335	-22.137954
46371		-1.966613	-9.129368	-22.348580
46372		-1.987209	-8.927449	-22.591110
46373		-2.037495	-8.682867	-22.903487
46374		-2.074489	-8.432003	-23.267670
46375		-2.107266	-8.206454	-23.686488
46376		-2.163955	-7.969262	-24.138675
46377		-2.261286	-7.739972	-24.580959
46378		-2.326960	-7.530975	-24.992899
46379		-2.292777	-7.320067	-25.436179
46380		-2.299534	-7.166981	-25.906023
46381		-2.343157	-7.051435	-26.409903
46382		-2.367897	-6.858018	-26.944091
46383		-2.387110	-6.647053	-27.441676
46384		-2.431301	-6.458263	-27.901392
46385		-2.569831	-6.297353	-28.354408
46386		-2.758841	-6.146194	-28.776831
46387		-2.900068	-5.993263	-29.161570
46388		-2.979745	-5.849859	-29.524665
46389		-3.023159	-5.728664	-29.889515
46390		-3.075909	-5.612635	-30.263839
46391		-3.197168	-5.483970	-30.646585
46392		-3.328980	-5.342443	-31.077212
46393		-3.415293	-5.218934	-31.562766
46394		-3.535066	-5.084740	-32.064041
46395		-3.707856	-4.894527	-32.539936
46396		-3.922817	-4.730415	-32.940190
46397		-4.093695	-4.582429	-33.282739
46398		-4.159734	-4.461471	-33.630393
46399		-4.273064	-4.388053	-33.932532
46400		-4.425875	-4.339896	-34.167855
46401		-4.555357	-4.306794	-34.330167
46402		-4.697138	-4.286688	-34.432227
46403		-4.829736	-4.316775	-34.546374
46404		-4.927467	-4.462615	-34.689804
46405		-4.994077	-4.631612	-34.860901
46406		-5.089260	-4.724200	-35.070969
46407		-5.306297	-4.780766	-35.303882
46408		-5.496145	-4.816013	-35.491535
46409		-5.374209	-4.920917	-35.673629
46410		-5.224407	-5.094527	-35.861354
46411		-5.190486	-5.262512	-36.028016
46412		-5.200646	-5.384250	-36.098083
46413		-5.254652	-5.448924	-36.056694
46414		-5.272309	-5.462615	-35.984890
46415		-5.209585	-5.474075	-35.918198
46416		-5.104125	-5.495706	-35.883369
46417		-5.031082	-5.545433	-35.889925
46418		-5.033465	-5.607934	-35.923709
46419		-5.125427	-5.645071	-35.990909
46420		-5.229259	-5.693979	-36.040422
46421		-5.263580	-5.783917	-36.056497
46422		-5.215965	-5.897874	-36.070012
46423		-5.145494	-6.016462	-36.099079
46424		-5.087196	-6.141951	-36.138991
46425		-5.050425	-6.262912	-36.181495
46426		-5.062563	-6.360496	-36.234007
46427		-5.093173	-6.445191	-36.296501
46428		-5.111171	-6.540860	-36.353775
46429		-5.067092	-6.643934	-36.415701
46430		-4.972037	-6.739328	-36.506577
46431		-4.845181	-6.833680	-36.633979
46432		-4.708753	-6.940274	-36.783835
46433		-4.628299	-7.051589	-36.948959
46434		-4.593839	-7.171292	-37.118500
46435		-4.525300	-7.290326	-37.266346
46436		-4.467068	-7.417140	-37.387901
46437		-4.415062	-7.548570	-37.493173
46438		-4.370696	-7.669310	-37.599159
46439		-4.370754	-7.790069	-37.705943
46440		-4.398117	-7.913471	-37.794608
46441		-4.380689	-8.010901	-37.847071
46442		-4.328203	-8.095822	-37.868542
46443		-4.240343	-8.163828	-37.868298
46444		-4.144859	-8.210167	-37.864876
46445		-4.075598	-8.257540	-37.872575
46446		-4.018862	-8.301137	-37.885312
46447		-3.981171	-8.353671	-37.898023
46448		-3.958556	-8.403663	-37.913751
46449		-3.950769	-8.482620	-37.915923
46450		-3.945713	-8.563404	-37.915400
46451		-3.924140	-8.634573	-37.896293
46452		-3.881544	-8.710486	-37.862588
46453		-3.820689	-8.802762	-37.830235
46454		-3.757911	-8.898812	-37.813276
46455		-3.716782	-8.998398	-37.817691
46456		-3.744487	-9.092963	-37.841779
46457		-3.800144	-9.186624	-37.876929
46458		-3.842652	-9.289858	-37.898086
46459		-3.855247	-9.387454	-37.906585
46460		-3.856289	-9.472382	-37.921679
46461		-3.823950	-9.531595	-37.940990
46462		-3.754082	-9.559936	-37.941753
46463		-3.688026	-9.568589	-37.944720
46464		-3.620524	-9.569249	-37.953075
46465		-3.555258	-9.566908	-37.954773
46466		-3.476098	-9.553551	-37.960466
46467		-3.413681	-9.541343	-37.975161
46468		-3.372620	-9.545379	-37.992786
46469		-3.363178	-9.543988	-38.021404
46470		-3.353257	-9.539661	-38.062835
46471		-3.346787	-9.554330	-38.090117
46472		-3.351248	-9.572894	-38.104799
46473		-3.353852	-9.578036	-38.113382
46474		-3.343297	-9.555024	-38.128846
46475		-3.302681	-9.551992	-38.112508
46476		-3.283351	-9.542563	-38.097629
46477		-3.264082	-9.535692	-38.098776
46478		-3.236294	-9.526578	-38.107430
46479		-3.196178	-9.504950	-38.125364
46480		-3.145901	-9.479202	-38.151929
46481		-3.148749	-9.446877	-38.193042
46482		-3.149663	-9.412499	-38.232933
46483		-3.104796	-9.380054	-38.254669
46484		-3.007609	-9.356317	-38.272627
46485		-2.901806	-9.340389	-38.294799
46486		-2.862233	-9.314475	-38.333326
46487		-2.857520	-9.279010	-38.378601
46488		-2.801843	-9.233895	-38.407688
46489		-2.688323	-9.191139	-38.399919
46490		-2.611727	-9.161409	-38.407992
46491		-2.570645	-9.120165	-38.422260
46492		-2.520902	-9.064496	-38.426633
46493		-2.445358	-8.981696	-38.419756
46494		-2.369115	-8.920521	-38.381000
46495		-2.290794	-8.853599	-38.295666
46496		-2.258820	-8.751930	-38.201990
46497		-2.221612	-8.596685	-38.075684
46498		-2.205449	-8.435323	-37.898554
46499		-2.182276	-8.302879	-37.663311
46500		-2.121824	-8.167820	-37.381211
46501		-2.080762	-8.026192	-37.096008
46502		-2.000679	-7.886090	-36.801362
46503		-1.804361	-7.718778	-36.495697
46504		-1.606134	-7.575329	-36.210527
46505		-1.409779	-7.481681	-35.920182
46506		-1.232752	-7.357027	-35.626284
46507		-1.148010	-7.217747	-35.337997
46508		-1.042299	-7.094990	-35.018055
46509		-0.929882	-7.032919	-34.627090
46510		-0.767724	-6.989899	-34.134023
46511		-0.595070	-6.933921	-33.627250
46512		-0.490930	-6.901602	-33.118754
46513		-0.459391	-6.889993	-32.550874
46514		-0.447853	-6.901657	-31.889365
46515		-0.403958	-6.969851	-31.163402
46516		-0.346961	-7.127066	-30.437504
46517		-0.337726	-7.306473	-29.766723
46518		-0.443813	-7.508599	-29.126506
46519		-0.560336	-7.732041	-28.474137
46520		-0.641522	-7.981805	-27.813768
46521		-0.673763	-8.278324	-27.140199
46522		-0.643133	-8.543310	-26.470900
46523		-0.696150	-8.779828	-25.836682
46524		-0.858839	-9.117742	-25.186602
46525		-0.926766	-9.443275	-24.488916
46526		-0.937794	-9.697627	-23.821665
46527		-0.995423	-9.934702	-23.173847
46528		-1.088088	-10.222398	-22.537827
46529		-1.008539	-10.491700	-21.943606
46530		-0.994747	-10.676240	-21.390267
46531		-1.131802	-10.996176	-20.863614
46532		-1.156810	-11.283527	-20.315672
46533		-1.040226	-11.511099	-19.787326
46534		-1.005952	-11.649807	-19.336221
46535		-1.114222	-11.782263	-18.939210
46536		-1.158497	-11.929504	-18.520523
46537		-1.057297	-12.068924	-18.091301
46538		-0.984218	-12.242039	-17.758594
46539		-0.992689	-12.493480	-17.540191
46540		-1.046528	-12.730466	-17.288349
46541		-1.119472	-13.013234	-17.052146
46542		-1.220959	-13.212082	-16.843453
46543		-1.039289	-13.164565	-16.620214
46544		-0.613663	-12.892778	-16.490639
46545		-0.327162	-12.728219	-16.487685
46546		-0.132237	-12.817353	-16.633744
46547		0.022735	-12.967685	-16.832972
46548		0.124443	-13.059131	-16.976778
46549		0.130557	-13.127615	-17.079756
46550		0.123922	-13.251905	-17.147715
46551		0.193326	-13.379170	-17.168912
46552		0.252040	-13.490714	-17.173037
46553		0.280317	-13.582200	-17.168626
46554		0.289622	-13.647054	-17.173885
46555		0.252897	-13.672998	-17.186585
46556		0.161978	-13.683054	-17.187576
46557		0.067082	-13.716238	-17.162447
46558		0.039463	-13.749438	-17.093169
46559		0.040026	-13.775939	-17.044197
46560		0.011230	-13.773809	-17.015669
46561		-0.055862	-13.757893	-16.992263
46562		-0.110898	-13.746845	-16.973640
46563		-0.105276	-13.735897	-16.965551
46564		-0.108504	-13.718000	-16.972677
46565		-0.143623	-13.684223	-16.987671
46566		-0.172628	-13.662824	-16.998353
46567		-0.176805	-13.669864	-16.992740
46568		-0.171264	-13.654282	-16.975353
46569		-0.182559	-13.626287	-16.979805
46570		-0.208174	-13.636565	-17.000890
46571		-0.208722	-13.671356	-17.013445
46572		-0.163712	-13.692902	-17.013486
46573		-0.144372	-13.695100	-17.005230
46574		-0.149686	-13.703220	-16.972759
46575		-0.121782	-13.707054	-16.914111
46576		-0.069032	-13.687270	-16.839512
46577		-0.016186	-13.678157	-16.789672
46578		0.000833	-13.688602	-16.785987
46579		0.018871	-13.693938	-16.813131
46580		0.029419	-13.680652	-16.838779
46581		0.038717	-13.673048	-16.866937
46582		0.042938	-13.690249	-16.890587
46583		0.056384	-13.707225	-16.894976
46584		0.096400	-13.715486	-16.874466
46585		0.137820	-13.726696	-16.856760
46586		0.145023	-13.741203	-16.851820
46587		0.135543	-13.763729	-16.855918
46588		0.119455	-13.794882	-16.850684
46589		0.100854	-13.817651	-16.832449
46590		0.067642	-13.851475	-16.811116
46591		0.029430	-13.907472	-16.796687
46592		-0.009242	-13.960078	-16.775263
46593		-0.073994	-14.002393	-16.757688
46594		-0.177746	-14.037169	-16.752403
46595		-0.234753	-14.057192	-16.759510
46596		-0.258441	-14.054560	-16.773019
46597		-0.290525	-14.065648	-16.812854
46598		-0.318593	-14.088801	-16.861529
46599		-0.319550	-14.095426	-16.909881
46600		-0.326988	-14.073705	-16.977204
46601		-0.366524	-14.032787	-17.055840
46602		-0.370096	-13.966450	-17.152467
46603		-0.344935	-13.900505	-17.280442
46604		-0.352006	-13.815536	-17.432206
46605		-0.341923	-13.708374	-17.611212
46606		-0.389265	-13.609161	-17.799903
46607		-0.476096	-13.507757	-17.981495
46608		-0.528762	-13.376738	-18.156736
46609		-0.543092	-13.254373	-18.334147
46610		-0.509326	-13.137784	-18.535048
46611		-0.443357	-13.014061	-18.755688
46612		-0.424644	-12.870144	-19.010494
46613		-0.459625	-12.687644	-19.305500
46614		-0.559221	-12.466748	-19.600722
46615		-0.637119	-12.239770	-19.878877
46616		-0.633533	-12.034022	-20.144862
46617		-0.599926	-11.867608	-20.415959
