// General information: 
//  MT Manager version: 2022.2.0 
//  XDA version: 2022.2.0 build 7381 rev 124627 built on 2023-07-19
// Device information: 
//  DeviceId: 00B447F7
//  ProductCode: MTW2-3A7G6
//  Firmware Version: 4.3.5
//  Hardware Version: 2.0.0
// Device settings: 
//  Filter Profile: human(46.1)
//  Option Flags: Orientation Smoother Disabled, Position/Velocity Smoother Disabled, Continuous Zero Rotation Update Disabled, AHS Disabled, ICC Disabled
// Coordinate system: ENU
PacketCounter	SampleTimeFine	Roll	Pitch	Yaw
43510		14.297689	0.359932	-157.766665
43511		14.307594	0.363543	-157.774407
43512		14.297512	0.358481	-157.780148
43513		14.284708	0.352669	-157.781326
43514		14.291664	0.347404	-157.778613
43515		14.299145	0.347731	-157.778630
43516		14.294654	0.350192	-157.785582
43517		14.276965	0.353165	-157.787943
43518		14.270875	0.355348	-157.786718
43519		14.264885	0.354299	-157.778886
43520		14.256802	0.348313	-157.774144
43521		14.259467	0.348441	-157.777802
43522		14.278400	0.348270	-157.784805
43523		14.309504	0.355904	-157.786999
43524		14.332155	0.363052	-157.781144
43525		14.337979	0.366687	-157.765430
43526		14.335212	0.367316	-157.757339
43527		14.323560	0.371267	-157.753623
43528		14.289517	0.381590	-157.752878
43529		14.222089	0.390184	-157.758799
43530		14.151618	0.408821	-157.763412
43531		14.182265	0.430294	-157.774253
43532		14.252093	0.455489	-157.780423
43533		14.297357	0.500363	-157.788981
43534		14.301720	0.580661	-157.798012
43535		14.410131	0.696941	-157.795613
43536		14.589841	0.771247	-157.771924
43537		14.676497	0.800020	-157.740843
43538		14.657917	0.806069	-157.729982
43539		14.592701	0.778360	-157.732848
43540		14.579815	0.763617	-157.761354
43541		14.607095	0.771802	-157.804908
43542		14.587224	0.782298	-157.846581
43543		14.532366	0.814950	-157.859828
43544		14.610600	0.889885	-157.877968
43545		14.695635	0.977088	-157.889593
43546		14.691435	1.081790	-157.875620
43547		14.764990	1.187172	-157.827097
43548		14.927071	1.361793	-157.781626
43549		15.144746	2.158515	-157.782568
43550		15.400773	2.936889	-157.836859
43551		15.292782	3.778337	-157.950581
43552		15.027418	4.604515	-158.247973
43553		15.078735	5.326579	-158.555808
43554		15.155081	5.879125	-158.973771
43555		15.012028	6.368944	-159.178773
43556		14.491936	6.957626	-159.237834
43557		14.047208	7.362029	-159.127097
43558		13.801792	7.652656	-159.053926
43559		13.700137	7.889023	-158.999917
43560		13.873685	8.458135	-158.853974
43561		14.198165	9.458014	-158.541656
43562		14.444623	10.742863	-158.101817
43563		14.819990	12.134924	-157.614928
43564		14.946883	13.107223	-157.387789
43565		14.604216	13.406121	-157.227855
43566		13.949128	13.354758	-157.220125
43567		13.149928	13.169417	-157.236102
43568		12.818599	12.761221	-157.254615
43569		12.669149	12.411479	-157.280828
43570		12.499720	11.881883	-157.535576
43571		12.140971	11.379765	-157.979182
43572		11.988608	11.257406	-158.397295
43573		12.007877	11.156049	-158.621304
43574		12.081708	10.662255	-158.673336
43575		12.322936	9.777045	-158.626028
43576		12.652686	9.239315	-158.606935
43577		12.675300	9.186149	-158.641888
43578		12.691186	9.207717	-158.530992
43579		12.765580	9.034921	-158.280463
43580		12.965515	8.663438	-158.188223
43581		13.196490	8.460639	-158.489091
43582		13.028642	8.580659	-159.018080
43583		12.629668	8.588899	-159.285740
43584		12.575265	8.372803	-159.235173
43585		12.678435	8.186573	-159.116336
43586		12.774594	7.987865	-159.047432
43587		12.946117	7.594645	-158.844043
43588		12.937577	7.514802	-158.422805
43589		12.863711	7.416329	-157.994666
43590		12.853520	7.252872	-157.717784
43591		12.890017	7.184426	-157.708602
43592		12.765320	7.032353	-157.844632
43593		12.567699	6.936872	-157.960863
43594		12.326382	6.861543	-158.041886
43595		12.063931	6.846870	-158.070311
43596		11.835101	6.873138	-158.032060
43597		11.819552	6.870831	-157.999474
43598		11.989528	6.779635	-157.970434
43599		12.154293	6.723200	-157.936664
43600		12.315514	6.604884	-157.900553
43601		12.428822	6.295340	-157.883410
43602		12.422342	5.956981	-157.892498
43603		12.391370	5.707397	-157.906097
43604		12.588307	4.967290	-157.804975
43605		12.924236	3.513621	-157.428746
43606		13.074849	2.137923	-157.190480
43607		12.986304	1.168820	-157.184976
43608		12.985413	0.268223	-157.389104
43609		12.769662	-1.167435	-157.572172
43610		12.246434	-2.894372	-157.689353
43611		11.602017	-4.275438	-157.812777
43612		11.069527	-5.040311	-157.898442
43613		10.891326	-5.630260	-158.014859
43614		10.635609	-6.961568	-158.067614
43615		10.290554	-8.114897	-158.038940
43616		10.217163	-8.321640	-157.821869
43617		10.253191	-8.129124	-157.551205
43618		10.194314	-8.179166	-157.532551
43619		10.224851	-8.110930	-157.582375
43620		10.286977	-7.323750	-157.422235
43621		10.019066	-6.977467	-157.486069
43622		9.816454	-6.765954	-157.586189
43623		9.331674	-6.434496	-157.647373
43624		9.112842	-6.334850	-157.742096
43625		9.027792	-6.514782	-157.717625
43626		9.032477	-6.577153	-157.646215
43627		8.766924	-6.532926	-157.617334
43628		8.439371	-6.501837	-157.658781
43629		8.267415	-6.377197	-157.769865
43630		8.146615	-6.154367	-157.861701
43631		7.975543	-5.992188	-157.860608
43632		7.812879	-5.877741	-157.866073
43633		7.738303	-5.816159	-157.879342
43634		7.711989	-5.765215	-157.903876
43635		7.661881	-5.748757	-157.922286
43636		7.596320	-5.749184	-158.005962
43637		7.525704	-5.756234	-158.058500
43638		7.476824	-5.760899	-158.087799
43639		7.480595	-5.759980	-158.097611
43640		7.529108	-5.753451	-158.089274
43641		7.592005	-5.764513	-158.041137
43642		7.571579	-5.790850	-158.020133
43643		7.535276	-5.837684	-158.177902
43644		7.528333	-5.865276	-158.333107
43645		7.535043	-5.862808	-158.484752
43646		7.506541	-5.863473	-158.550401
43647		7.473028	-5.841589	-158.759437
43648		7.457329	-5.812669	-158.976111
43649		7.412417	-5.814303	-159.078550
43650		7.392736	-5.796300	-159.077499
43651		7.409251	-5.783888	-159.042820
43652		7.383305	-5.774410	-159.122136
43653		7.339191	-5.752527	-159.222089
43654		7.377618	-5.717512	-159.280465
43655		7.401106	-5.632152	-159.368254
43656		7.341962	-5.480848	-159.551592
43657		7.198695	-5.325633	-159.749308
43658		7.177724	-5.213350	-159.804555
43659		7.276353	-5.101046	-159.676956
43660		7.346194	-4.978698	-159.551606
43661		7.320791	-4.814008	-159.489533
43662		7.296196	-4.615787	-159.449502
43663		7.277717	-4.450067	-159.415509
43664		7.404447	-4.314869	-159.416187
43665		7.476262	-4.203204	-159.447594
43666		7.366340	-4.069517	-159.528749
43667		7.257880	-3.886263	-159.586191
43668		7.198609	-3.701064	-159.589224
43669		7.196523	-3.538661	-159.545610
43670		7.237165	-3.332991	-159.595032
43671		7.214410	-3.090091	-159.709148
43672		6.945843	-2.824568	-159.888155
43673		6.472725	-2.619452	-159.999007
43674		6.069550	-2.480167	-159.946754
43675		5.956231	-2.339641	-159.813472
43676		6.089947	-2.233456	-159.707572
43677		6.234397	-2.081578	-159.722881
43678		6.360563	-2.057496	-159.788626
43679		6.327327	-2.225710	-159.865513
43680		6.016937	-2.687446	-160.003350
43681		5.772857	-3.559102	-160.339153
43682		6.443388	-4.748303	-160.650902
43683		7.516622	-5.229394	-160.754819
43684		8.178838	-4.978169	-160.781304
43685		8.236403	-4.680629	-160.897703
43686		7.900270	-4.586051	-160.975544
43687		7.674219	-4.602794	-161.006373
43688		7.667958	-4.659885	-161.014756
43689		7.652790	-4.734615	-161.002129
43690		7.496556	-4.786230	-161.000674
43691		7.329389	-4.886189	-160.990140
43692		7.262838	-4.969211	-161.007827
43693		7.186988	-5.092759	-161.024037
43694		7.044383	-5.294042	-161.019972
43695		6.870189	-5.598281	-161.018175
43696		6.674935	-5.979856	-160.986348
43697		6.557483	-6.333521	-160.815179
43698		6.524179	-6.555212	-160.580087
43699		6.509388	-6.752129	-160.489869
43700		6.582659	-6.787860	-160.551667
43701		6.744598	-6.879446	-160.737173
43702		7.005543	-6.831604	-160.856399
43703		6.888805	-6.705966	-160.736308
43704		6.519585	-6.298371	-160.435557
43705		6.653056	-5.471020	-160.137299
43706		7.133205	-4.179863	-160.058194
43707		7.856983	-2.647010	-160.025743
43708		8.830668	-1.126985	-159.987680
43709		9.648276	0.502125	-159.994758
43710		9.992428	1.959766	-160.045123
43711		10.128741	3.147005	-160.037604
43712		10.197776	4.451470	-159.863786
43713		10.430949	5.711199	-159.733580
43714		10.584261	6.240019	-159.769895
43715		10.595262	6.380224	-159.770907
43716		10.387198	6.386488	-159.708680
43717		10.085727	6.213163	-159.675938
43718		9.902907	6.227313	-159.668113
43719		9.842811	6.188483	-159.674562
43720		9.791374	6.134894	-159.672111
43721		9.714899	6.082478	-159.657769
43722		9.684053	6.051298	-159.639124
43723		9.717922	5.984402	-159.625647
43724		9.753616	5.896505	-159.623612
43725		9.715772	5.857955	-159.618000
43726		9.665781	5.843017	-159.612866
43727		9.637067	5.844309	-159.613435
43728		9.652401	5.811564	-159.606876
43729		9.696392	5.747739	-159.598390
43730		9.714004	5.674429	-159.599057
43731		9.687055	5.642907	-159.595673
43732		9.670649	5.591691	-159.596691
43733		9.696663	5.556181	-159.602510
43734		9.701612	5.515504	-159.592565
43735		9.735854	5.476980	-159.579594
43736		9.768438	5.499900	-159.585199
43737		9.757381	5.521202	-159.591655
43738		9.758067	5.533463	-159.610528
43739		9.840617	5.530772	-159.639778
43740		9.928144	5.560066	-159.672325
43741		9.997656	5.581315	-159.691295
43742		10.200043	5.592185	-159.770148
43743		10.430376	5.724847	-159.845678
43744		10.571214	6.016927	-159.941147
43745		10.751731	6.457191	-160.140796
43746		10.724698	7.156223	-160.263103
43747		11.032332	7.816521	-160.527865
43748		11.420000	8.682921	-160.656311
43749		11.405543	9.629552	-160.609980
43750		11.237785	10.109110	-160.659477
43751		11.081702	10.046216	-160.773557
43752		10.923233	10.175433	-160.810063
43753		10.754609	10.598648	-160.820190
43754		10.636177	10.864849	-160.895315
43755		10.531345	11.053882	-160.933100
43756		10.478070	11.450589	-160.893136
43757		10.312834	12.137170	-160.838516
43758		10.253340	13.039260	-160.741392
43759		10.312581	13.724175	-160.743140
43760		9.964914	13.980755	-161.005698
43761		9.427320	13.704598	-161.275238
43762		9.094037	13.308332	-161.311260
43763		9.050017	13.225010	-161.170508
43764		8.929408	13.218571	-161.241909
43765		8.726113	12.947657	-161.478044
43766		8.558296	12.744088	-161.581161
43767		8.392997	12.639622	-161.577756
43768		8.353163	12.539556	-161.600554
43769		8.385821	12.335777	-161.692680
43770		8.483513	12.052376	-161.785440
43771		8.512341	12.032630	-161.823397
43772		8.549734	11.955477	-161.863078
43773		8.773371	11.459001	-161.819660
43774		8.939816	11.061823	-161.762029
43775		8.984731	10.797769	-161.796389
43776		9.070960	10.555596	-161.824913
43777		9.187835	10.359324	-161.792863
43778		9.304333	10.100656	-161.793067
43779		9.487675	9.797958	-161.844410
43780		9.479269	9.743832	-161.950542
43781		9.341797	9.760970	-162.045619
43782		9.309670	9.638740	-162.097124
43783		9.415004	9.234767	-162.024639
43784		9.514976	8.989232	-161.707939
43785		9.584067	8.874574	-161.232127
43786		9.655204	8.791472	-160.824635
43787		9.759300	8.621527	-160.605634
43788		9.818783	8.450497	-160.572159
43789		9.896472	8.311123	-160.571810
43790		10.019295	8.254739	-160.547173
43791		10.081004	8.301667	-160.576801
43792		10.063520	8.355755	-160.672924
43793		10.007121	8.352243	-160.773048
43794		9.754726	8.559329	-160.802769
43795		9.375093	8.696736	-160.745553
43796		9.172364	8.604479	-160.663787
43797		9.325725	8.531628	-160.610058
43798		9.560429	8.441318	-160.554038
43799		9.672175	8.388965	-160.508622
43800		9.688109	8.432411	-160.474635
43801		9.717303	8.454305	-160.448743
43802		9.728960	8.425506	-160.405637
43803		9.775280	8.335782	-160.344489
43804		10.026571	7.838168	-160.206116
43805		10.647896	6.630108	-160.046383
43806		11.440508	5.261004	-160.021296
43807		11.923050	3.685240	-160.073036
43808		12.161603	1.587476	-160.250511
43809		12.080289	-0.589097	-160.565404
43810		11.892964	-2.482631	-160.865823
43811		11.721064	-3.933553	-161.097768
43812		11.482196	-5.068047	-161.229660
43813		11.185472	-6.433528	-161.221785
43814		10.563179	-8.278189	-161.187238
43815		10.003678	-9.630802	-161.158396
43816		9.909120	-10.168177	-161.245671
43817		10.038622	-10.517031	-161.418913
43818		10.134012	-11.006935	-161.528651
43819		10.314218	-11.011900	-161.354637
43820		10.149366	-10.646339	-161.184965
43821		9.892815	-10.115646	-161.218655
43822		9.429834	-9.944111	-161.194802
43823		9.362127	-9.785333	-161.264152
43824		9.328488	-9.429125	-161.367219
43825		9.168278	-8.975524	-161.512669
43826		8.923525	-8.420643	-161.631551
43827		8.571136	-7.777756	-161.696962
43828		8.288480	-7.231504	-161.749845
43829		8.062931	-6.819204	-161.847325
43830		7.856591	-6.430865	-161.914515
43831		7.694974	-6.155170	-161.944659
43832		7.570502	-5.998531	-161.929281
43833		7.522979	-5.950925	-161.911396
43834		7.506275	-5.934494	-161.908528
43835		7.519883	-5.906363	-161.909934
43836		7.548703	-5.896471	-161.881605
43837		7.601936	-5.896897	-161.851247
43838		7.611162	-5.894215	-161.810451
43839		7.599671	-5.910982	-161.763451
43840		7.604987	-5.927075	-161.745935
43841		7.554826	-5.927913	-161.719489
43842		7.483495	-5.938658	-161.673396
43843		7.466443	-5.989213	-161.605034
43844		7.519041	-6.012434	-161.538398
43845		7.530737	-5.993663	-161.510914
43846		7.477001	-5.989446	-161.527704
43847		7.432234	-5.978897	-161.574837
43848		7.418136	-5.977378	-161.615885
43849		7.332354	-5.971838	-161.657216
43850		7.258172	-5.975660	-161.674263
43851		7.291385	-5.978875	-161.713305
43852		7.342661	-5.987506	-161.753703
43853		7.314027	-5.982902	-161.773723
43854		7.285113	-5.981905	-161.735363
43855		7.286251	-5.990312	-161.672134
43856		7.292886	-5.993049	-161.589497
43857		7.241663	-5.991354	-161.480617
43858		7.171959	-5.983056	-161.353031
43859		7.119811	-5.971044	-161.259619
43860		7.103958	-5.970070	-161.193688
43861		7.059689	-5.969985	-161.118756
43862		7.062794	-5.962701	-161.074120
43863		7.112106	-5.965492	-161.066412
43864		7.128569	-5.952842	-161.075632
43865		7.124939	-5.920910	-161.118459
43866		7.133727	-5.898771	-161.153167
43867		7.116488	-5.902042	-161.142501
43868		7.122925	-5.899252	-161.146743
43869		7.155064	-5.897024	-161.167718
43870		7.160088	-5.871472	-161.234662
43871		7.167239	-5.831765	-161.345168
43872		7.184304	-5.784183	-161.413569
43873		7.159074	-5.789036	-161.379600
43874		7.111495	-5.782068	-161.269141
43875		7.132966	-5.759422	-161.146478
43876		7.221083	-5.722672	-161.035536
43877		7.307964	-5.671269	-160.913481
43878		7.357476	-5.572143	-160.803241
43879		7.345962	-5.492977	-160.709276
43880		7.300512	-5.441023	-160.579315
43881		7.278885	-5.393695	-160.403392
43882		7.333610	-5.362439	-160.235311
43883		7.457077	-5.307373	-160.145908
43884		7.552955	-5.125242	-160.137738
43885		7.447059	-4.954386	-160.184501
43886		7.187941	-4.839344	-160.231223
43887		6.998083	-4.775324	-160.219739
43888		6.984829	-4.724307	-160.131967
43889		7.103975	-4.662648	-160.021968
43890		7.187010	-4.571701	-159.914996
43891		7.236868	-4.435079	-159.867565
43892		7.260530	-4.288691	-159.810774
43893		7.206760	-4.140928	-159.741488
43894		7.132285	-4.037968	-159.649739
43895		7.076805	-3.958280	-159.522221
43896		7.075644	-3.919943	-159.405077
43897		7.030674	-3.939953	-159.305207
43898		7.015257	-3.977608	-159.244398
43899		7.012333	-3.980019	-159.240600
43900		6.976582	-3.964307	-159.259170
43901		6.889296	-3.965672	-159.269152
43902		6.738653	-3.973612	-159.288900
43903		6.596083	-3.967737	-159.327127
43904		6.464013	-3.976118	-159.357310
43905		6.373570	-3.963593	-159.369357
43906		6.280345	-3.967260	-159.397382
43907		6.025012	-4.064436	-159.379921
43908		5.620563	-4.282312	-159.413809
43909		5.444122	-4.668278	-159.444722
43910		5.698230	-5.197991	-159.318064
43911		6.541897	-5.660261	-159.249435
43912		7.296250	-5.652705	-159.194350
43913		7.759731	-5.429182	-159.044466
43914		8.126929	-5.245167	-158.813214
43915		8.407670	-5.027056	-158.632182
43916		8.578842	-4.806126	-158.454236
43917		8.644327	-4.564629	-158.162199
43918		8.543689	-4.134629	-157.856496
43919		8.516630	-3.502893	-157.561937
43920		8.659982	-2.219411	-157.309760
43921		9.104396	-0.294007	-157.183661
43922		9.947445	1.494645	-157.267266
43923		10.615773	3.359149	-157.351922
43924		10.958523	4.982472	-157.351068
43925		11.127187	6.539557	-157.163392
43926		11.031797	7.757264	-157.026429
43927		10.857194	8.124881	-156.941350
43928		10.602507	8.249146	-156.900508
43929		10.386324	8.256864	-156.863203
43930		10.321571	8.114501	-156.817521
43931		10.361576	7.931934	-156.747715
43932		10.403697	7.828690	-156.666555
43933		10.294131	7.972115	-156.584417
43934		10.168379	8.077014	-156.539245
43935		10.129826	8.055197	-156.532181
43936		10.189293	7.946730	-156.530979
43937		10.266055	7.832160	-156.533798
43938		10.298976	7.729731	-156.539988
43939		10.296333	7.635580	-156.532741
43940		10.306294	7.575627	-156.509842
43941		10.326963	7.565433	-156.495555
43942		10.312708	7.555639	-156.487916
43943		10.329015	7.499879	-156.490665
43944		10.379096	7.423466	-156.508463
43945		10.383374	7.386493	-156.521246
43946		10.381364	7.338113	-156.528743
43947		10.394237	7.295186	-156.545294
43948		10.401264	7.307410	-156.574783
43949		10.368614	7.290092	-156.600487
43950		10.401070	7.261767	-156.645994
43951		10.542880	7.285218	-156.712461
43952		10.554952	7.596308	-156.751236
43953		10.484623	7.794864	-156.755545
43954		10.461811	7.826280	-156.726519
43955		10.594683	7.586431	-156.705298
43956		10.784847	7.263841	-156.679565
43957		11.043710	7.179577	-156.713956
43958		11.212361	7.079717	-156.726957
43959		11.169107	7.035567	-156.775670
43960		11.178364	7.071299	-156.801447
43961		11.157834	7.345702	-156.811017
43962		10.997951	8.035249	-156.751978
43963		10.830450	8.679545	-156.754820
43964		10.555592	9.126626	-156.799030
43965		10.332832	9.578656	-156.786311
43966		10.269298	10.052549	-156.699633
43967		10.249369	10.325375	-156.644263
43968		10.267891	10.130606	-156.642916
43969		10.251760	10.085901	-156.674373
43970		9.980536	10.580274	-156.684162
43971		9.524308	10.873210	-156.812002
43972		9.144839	11.077950	-156.834847
43973		9.005476	11.306376	-156.712141
43974		8.886867	11.265719	-156.588198
43975		8.744508	11.096969	-156.510747
43976		8.725345	10.893032	-156.513015
43977		8.668103	10.859069	-156.558141
43978		8.521683	10.811804	-156.574140
43979		8.493534	10.548735	-156.434337
43980		8.647307	10.068360	-156.236282
43981		8.850640	9.631261	-156.088556
43982		8.900410	9.505701	-156.081982
43983		8.868865	9.450570	-156.175717
43984		8.933060	9.213898	-156.285280
43985		9.098842	8.901340	-156.416645
43986		9.361930	8.499623	-156.593945
43987		9.596242	8.192201	-156.783807
43988		9.702897	7.970612	-156.963757
43989		9.795070	7.771133	-157.130288
43990		9.838783	7.655392	-157.320009
43991		9.841997	7.513719	-157.443496
43992		9.823965	7.360261	-157.504274
43993		9.821225	7.273175	-157.533932
43994		9.947606	7.059387	-157.540989
43995		10.064849	6.791850	-157.573896
43996		10.111529	6.637164	-157.645098
43997		10.154181	6.483168	-157.737844
43998		10.237814	6.287107	-157.784714
43999		10.374678	6.135915	-157.763056
44000		10.538499	5.950529	-157.772041
44001		10.643924	5.737326	-157.898059
44002		10.709953	5.647134	-158.045626
44003		10.804878	5.590576	-158.184296
44004		10.869070	5.556584	-158.332259
44005		10.949358	5.523944	-158.432880
44006		11.056369	5.585008	-158.491201
44007		11.191108	5.548824	-158.662801
44008		11.138431	5.231718	-158.872520
44009		11.055050	5.115927	-158.937745
44010		11.009829	5.062508	-158.863763
44011		11.208428	5.037081	-158.794768
44012		11.344344	5.102844	-158.706114
44013		11.318728	5.211310	-158.613225
44014		11.247687	5.292309	-158.560167
44015		11.362312	5.041566	-158.567557
44016		11.744017	4.526592	-158.650645
44017		12.037640	4.117966	-158.695532
44018		12.237554	3.651122	-158.757132
44019		12.456543	3.097002	-158.754490
44020		12.689666	2.583753	-158.746690
44021		12.948011	1.909742	-159.012054
44022		13.019923	1.017905	-159.484189
44023		13.044926	0.071528	-159.898172
44024		13.112072	-1.483487	-160.127331
44025		13.132549	-3.972000	-160.131512
44026		12.994026	-5.955663	-159.827522
44027		12.550417	-6.993428	-159.569053
44028		12.096391	-7.877757	-159.666806
44029		11.996244	-8.421164	-159.835661
44030		11.987774	-8.364905	-159.834402
44031		12.029343	-7.996190	-159.872586
44032		11.777112	-7.743174	-160.179162
44033		11.693737	-7.132899	-160.642659
44034		11.628043	-6.558161	-160.824143
44035		11.441764	-6.694825	-160.898181
44036		11.101937	-6.738096	-160.976811
44037		10.779291	-6.676221	-161.052689
44038		10.502053	-6.731764	-161.042996
44039		10.150123	-6.631978	-161.066883
44040		9.995900	-6.421160	-161.104410
44041		10.064586	-6.296570	-161.140208
44042		10.096151	-6.227124	-161.129735
44043		10.084936	-6.181442	-161.105546
44044		10.065013	-6.132382	-161.101546
44045		10.045768	-6.086631	-161.118279
44046		10.047416	-6.067181	-161.137135
44047		10.079863	-6.070075	-161.154071
44048		10.126900	-6.052819	-161.165977
44049		10.163085	-6.019072	-161.180555
44050		10.111111	-5.966591	-161.182122
44051		10.128296	-5.912052	-161.186555
44052		10.180831	-5.898945	-161.177231
44053		10.190036	-5.900257	-161.159083
44054		10.211732	-5.879966	-161.150820
44055		10.262542	-5.862441	-161.150748
44056		10.287411	-5.865274	-161.137879
44057		10.292980	-5.877759	-161.103299
44058		10.275648	-5.900048	-161.072530
44059		10.236189	-5.943782	-161.033893
44060		10.259043	-5.933505	-161.012333
44061		10.198998	-5.939621	-161.007146
44062		10.256509	-6.103630	-160.978728
44063		10.349849	-6.187196	-160.993566
44064		10.469309	-6.159317	-160.993408
44065		10.522935	-6.075015	-161.026661
44066		10.566723	-5.960341	-161.045726
44067		10.492924	-5.819856	-161.087309
44068		10.362906	-5.758627	-161.097754
44069		10.287877	-5.766302	-161.079240
44070		10.244492	-5.802752	-161.043502
44071		10.133769	-5.814184	-161.006012
44072		10.011229	-5.788840	-160.986191
44073		9.990806	-5.804113	-160.968183
44074		10.002395	-5.817893	-160.957280
44075		10.014767	-5.816865	-160.935885
44076		9.996407	-5.824781	-160.907476
44077		9.954696	-5.850155	-160.859212
44078		9.874665	-5.879632	-160.807339
44079		9.768415	-5.923418	-160.757754
44080		9.694020	-5.976066	-160.726005
44081		9.646283	-6.011186	-160.691202
44082		9.659673	-6.026255	-160.599720
44083		9.758700	-6.050450	-160.461212
44084		9.816745	-6.072643	-160.378589
44085		9.782205	-6.059562	-160.314609
44086		9.723193	-6.025463	-160.204360
44087		9.620685	-5.988477	-160.173103
44088		9.516206	-5.924486	-160.133101
44089		9.490688	-5.865571	-160.058377
44090		9.480052	-5.835904	-160.015784
44091		9.333265	-5.810627	-159.673588
44092		8.983018	-5.748425	-158.935706
44093		8.577520	-5.692072	-158.220199
44094		8.428624	-5.655543	-157.815031
44095		8.462667	-5.622248	-157.668661
44096		8.403908	-5.582204	-157.665345
44097		8.342865	-5.487231	-157.631445
44098		8.350822	-5.398832	-157.657573
44099		8.405432	-5.326142	-158.094780
44100		8.472461	-5.233531	-158.421395
44101		8.512662	-5.147563	-158.523886
44102		8.556203	-5.018082	-158.448358
44103		8.645346	-4.806222	-158.525131
44104		8.804652	-4.623311	-158.693390
44105		8.889291	-4.506924	-158.658413
44106		8.879571	-4.339792	-158.600286
44107		8.782946	-4.177107	-158.655488
44108		8.694907	-4.047230	-158.749106
44109		8.643993	-3.866722	-158.944356
44110		8.555259	-3.732641	-159.050525
44111		8.503789	-3.656682	-159.156734
44112		8.522002	-3.589663	-159.334733
44113		8.434698	-3.534786	-159.522730
44114		8.218686	-3.440795	-159.686099
44115		8.117209	-3.276425	-159.841405
44116		8.181200	-3.025564	-160.034055
44117		8.184223	-2.820679	-160.182120
44118		8.006687	-2.631083	-160.284775
44119		7.751770	-2.484550	-160.370008
44120		7.588885	-2.473035	-160.426886
44121		7.542629	-2.601318	-160.456452
44122		7.516317	-2.755429	-160.470274
44123		7.590221	-2.915331	-160.547788
44124		7.674932	-3.151688	-160.657945
44125		7.794721	-3.378531	-160.772792
44126		7.956817	-3.539019	-160.895633
44127		8.067958	-3.616593	-161.045475
44128		7.982504	-3.628863	-161.137082
44129		7.869740	-3.641439	-161.201235
44130		7.824485	-3.723343	-161.230413
44131		7.938908	-3.913572	-161.281102
44132		8.211267	-4.149322	-161.303098
44133		8.430488	-4.413532	-161.245946
44134		8.500418	-4.549548	-161.063987
44135		8.593702	-4.576770	-160.849852
44136		8.837408	-4.476543	-160.668924
44137		9.095834	-4.065752	-160.397662
44138		9.484668	-3.878306	-160.152973
44139		9.858840	-3.976959	-159.941457
44140		9.818708	-3.871217	-159.650922
44141		9.710616	-3.365270	-159.316548
44142		9.879482	-2.596355	-158.973363
44143		10.327941	-1.390562	-158.648585
44144		11.079117	0.152686	-158.481454
44145		11.815444	1.404989	-158.275595
44146		12.152294	2.372309	-157.950271
44147		12.338121	3.774458	-157.575405
44148		12.543175	5.228944	-157.522835
44149		12.635761	6.246581	-157.437801
44150		12.488126	7.220132	-157.139818
44151		12.150322	8.487580	-156.822500
44152		11.849529	8.960362	-156.804607
44153		11.596111	9.230120	-156.631847
44154		11.298974	9.408476	-156.346241
44155		11.139425	9.661575	-156.102661
44156		11.123263	9.819394	-156.015731
44157		11.057884	9.983877	-155.997917
44158		10.924272	10.164153	-156.011195
44159		10.779569	10.248122	-156.028435
44160		10.615418	10.305044	-156.039347
44161		10.565425	10.308983	-156.043324
44162		10.615235	10.242005	-156.048967
44163		10.641986	10.205819	-156.047312
44164		10.614049	10.319002	-156.011970
44165		10.644747	10.524532	-155.993695
44166		10.655306	10.806031	-156.003575
44167		10.660717	11.094738	-155.930700
44168		10.720588	11.329498	-155.701275
44169		10.825768	11.624529	-155.289257
44170		10.887052	11.870332	-154.811937
44171		10.890526	12.191458	-154.361151
44172		10.846816	12.673484	-154.067123
44173		10.720994	12.929633	-154.065495
44174		10.590392	13.084769	-154.050369
44175		10.561937	13.455026	-153.992990
44176		10.623727	13.925668	-153.957036
44177		10.519002	14.022069	-154.007621
44178		10.333966	14.172039	-154.035437
44179		10.208434	14.476751	-154.033193
44180		10.197007	14.666091	-154.070744
44181		10.148324	14.616551	-154.231112
44182		10.124327	14.555910	-154.485698
44183		10.061967	14.559476	-154.753536
44184		9.836627	14.411563	-155.046605
44185		9.506239	14.336577	-155.304207
44186		9.308693	14.382943	-155.486933
44187		9.190727	14.426674	-155.655530
44188		9.009671	14.251805	-155.839685
44189		8.724783	13.930000	-156.039840
44190		8.551103	13.776330	-156.176528
44191		8.535649	13.842795	-156.273380
44192		8.467176	13.826412	-156.414970
44193		8.354775	13.621722	-156.538118
44194		8.370602	13.294114	-156.568704
44195		8.519359	12.893225	-156.583421
44196		8.495705	12.588509	-156.751478
44197		8.391275	12.459151	-157.122394
44198		8.305919	12.331471	-157.560405
44199		8.382084	11.951108	-157.970218
44200		8.477498	11.485870	-158.386555
44201		8.589613	11.126364	-158.819142
44202		8.784854	10.652806	-159.258896
44203		9.038970	10.062314	-159.627085
44204		9.142374	9.845954	-159.802332
44205		9.197389	9.735632	-159.813764
44206		9.410997	9.373208	-159.853705
44207		9.580738	8.976462	-159.946426
44208		9.721491	8.813233	-159.917116
44209		9.783026	8.680489	-159.835391
44210		9.792620	8.616843	-159.790309
44211		9.837220	8.495541	-159.703695
44212		9.892769	8.386422	-159.568606
44213		9.941199	8.371738	-159.379013
44214		9.931671	8.417518	-159.219011
44215		9.971855	8.282468	-159.149772
44216		10.049256	8.202958	-159.055705
44217		10.201295	8.152149	-158.914352
44218		10.364844	7.978402	-158.833029
44219		10.479870	7.886981	-158.788813
44220		10.458999	7.887052	-158.765100
44221		10.357540	7.945035	-158.667710
44222		10.262003	7.969657	-158.537108
44223		10.398666	7.924982	-158.414143
44224		10.615765	7.885721	-158.303162
44225		10.882162	7.854170	-158.275439
44226		11.147265	7.836051	-158.297007
44227		11.543329	7.340476	-158.260059
44228		12.015993	6.283653	-158.267260
44229		12.607465	5.110276	-158.528442
44230		13.171224	3.825438	-158.809782
44231		13.597388	1.922360	-158.980498
44232		13.787670	-0.523644	-159.188515
44233		13.708494	-2.352904	-159.332087
44234		13.500524	-3.432621	-159.412763
44235		13.168068	-4.671299	-159.426022
44236		12.703500	-6.173313	-159.440316
44237		12.077271	-7.243621	-159.409832
44238		11.689631	-7.671028	-159.281559
44239		11.396707	-7.975472	-159.280317
44240		11.071259	-8.282902	-159.470207
44241		10.921732	-8.194870	-159.815740
44242		10.857517	-7.913168	-160.255489
44243		10.976474	-7.636167	-160.700874
44244		10.966035	-7.669444	-160.845976
44245		10.788189	-7.937448	-161.010932
44246		10.613850	-7.768126	-161.248422
44247		10.428035	-8.069006	-161.485045
44248		9.950327	-8.362221	-161.644225
44249		9.569333	-8.584470	-161.720192
44250		9.430425	-8.487567	-161.755091
44251		9.447029	-8.094471	-161.724461
44252		9.378638	-7.664722	-161.758009
44253		9.197331	-7.345185	-161.790305
44254		9.074218	-7.086921	-161.809161
44255		9.104771	-6.944652	-161.804462
44256		9.180307	-6.869405	-161.793400
44257		9.245094	-6.835118	-161.798159
44258		9.239701	-6.867078	-161.790573
44259		9.257861	-6.997454	-161.762399
44260		9.331257	-7.225489	-161.694549
44261		9.421817	-7.462626	-161.639047
44262		9.541480	-7.651787	-161.628991
44263		9.627971	-7.767898	-161.629252
44264		9.653058	-7.845906	-161.628819
44265		9.656340	-7.905294	-161.614371
44266		9.709936	-7.952593	-161.596025
44267		9.795877	-8.021282	-161.591321
44268		9.734396	-8.065563	-161.558386
44269		9.678264	-8.087964	-161.592773
44270		9.663319	-8.113345	-161.679984
44271		9.668510	-8.150959	-161.792447
44272		9.549463	-8.227289	-161.841389
44273		9.411191	-8.315024	-161.794704
44274		9.333707	-8.443092	-161.789689
44275		9.235540	-8.523277	-161.794783
44276		9.181336	-8.525587	-161.793972
44277		9.183544	-8.514042	-161.754472
44278		9.203950	-8.508410	-161.696113
44279		9.185454	-8.512311	-161.633649
44280		9.125557	-8.519168	-161.564873
44281		9.064357	-8.527558	-161.482809
44282		9.065487	-8.518871	-161.433950
44283		9.082543	-8.482684	-161.385299
44284		9.114125	-8.471960	-161.400612
44285		9.156936	-8.461790	-161.495573
44286		9.155262	-8.483827	-161.585858
44287		9.065257	-8.527914	-161.625991
44288		9.025390	-8.551300	-161.524008
44289		9.061942	-8.558596	-161.321849
44290		9.103778	-8.525211	-161.083329
44291		9.114379	-8.495315	-160.883393
44292		9.113294	-8.447424	-160.733203
44293		9.084745	-8.345600	-160.645346
44294		9.028688	-8.236965	-160.616971
44295		8.952827	-8.281223	-160.572142
44296		8.963431	-8.294622	-160.494997
44297		8.987947	-8.243135	-160.446469
44298		9.004134	-8.120807	-160.488243
44299		8.854672	-7.925125	-160.574181
44300		8.577949	-7.702983	-160.614893
44301		8.409961	-7.472002	-160.586679
44302		8.378136	-7.233919	-160.524599
44303		8.427745	-6.939544	-160.422532
44304		8.512900	-6.527415	-160.264651
44305		8.610496	-6.256244	-160.006779
44306		8.742373	-5.959448	-159.727649
44307		8.934211	-5.650374	-159.608503
44308		9.029247	-5.396364	-159.476381
44309		8.847596	-5.110327	-159.373188
44310		8.437073	-4.857174	-159.306146
44311		8.033551	-4.673527	-159.145947
44312		7.848516	-4.521374	-158.953914
44313		7.902783	-4.388592	-158.771254
44314		7.980302	-4.292210	-158.555001
44315		7.960627	-4.180022	-158.388997
44316		7.839346	-4.008687	-158.255623
44317		7.581792	-3.714844	-158.161692
44318		7.252423	-3.305503	-158.094787
44319		6.930168	-2.893820	-158.002864
44320		6.662934	-2.681883	-157.916779
44321		6.603481	-2.593516	-157.911618
44322		6.735753	-2.553978	-157.970397
44323		6.853068	-2.514405	-158.075728
44324		6.724221	-2.543144	-158.127584
44325		6.513599	-2.576925	-158.130127
44326		6.396502	-2.587911	-158.144035
44327		6.298572	-2.594689	-158.165945
44328		6.180483	-2.613092	-158.181175
44329		6.102820	-2.563588	-158.069832
44330		6.041622	-2.542080	-157.933245
44331		6.122136	-2.252762	-157.873136
44332		7.000284	-1.964823	-157.977411
44333		8.406813	-1.803080	-157.804207
44334		9.085699	-1.929687	-157.550973
44335		9.259351	-1.927997	-157.226519
44336		9.874397	-1.892791	-156.795613
44337		9.973383	-1.889274	-156.430436
44338		9.966969	-1.550536	-156.155712
44339		10.127912	-1.363256	-155.910664
44340		10.194851	-1.211986	-155.513757
44341		10.131037	-0.713834	-154.923797
44342		10.231959	0.171805	-154.435102
44343		10.406064	1.462190	-154.145783
44344		10.816867	3.211598	-154.123607
44345		11.620526	4.537682	-154.029333
44346		12.151930	5.714600	-153.763734
44347		12.232051	6.956774	-153.593161
44348		12.007551	7.614302	-153.498441
44349		11.702989	8.190511	-153.363939
44350		11.457561	8.639461	-153.166515
44351		11.310032	9.015002	-152.968979
44352		11.138896	9.583938	-152.902984
44353		10.910531	10.070506	-152.924294
44354		10.673773	10.314283	-152.988940
44355		10.407252	10.570802	-153.032601
44356		10.197961	10.985379	-153.107314
44357		10.023621	11.285145	-153.185819
44358		9.849339	11.442696	-153.230826
44359		9.757100	11.517864	-153.295849
44360		9.771634	11.501365	-153.339844
44361		9.794913	11.467700	-153.357553
44362		9.833353	11.456740	-153.383515
44363		9.868734	11.394656	-153.420412
44364		9.868314	11.403799	-153.458949
44365		9.835290	11.436476	-153.480240
44366		9.801324	11.455476	-153.510373
44367		9.787349	11.460073	-153.548583
44368		9.798306	11.449088	-153.568458
44369		9.822302	11.429223	-153.567219
44370		9.812151	11.501821	-153.580196
44371		9.743418	11.595244	-153.607768
44372		9.831457	11.782017	-153.707496
44373		9.772077	11.932997	-153.778038
44374		9.676659	11.991065	-153.795111
44375		9.666470	12.024392	-153.794903
44376		9.684644	12.053972	-153.789031
44377		9.686498	12.102896	-153.763099
44378		9.679864	12.148083	-153.760108
44379		9.685191	12.209480	-153.752862
44380		9.690766	12.294619	-153.745872
44381		9.677792	12.410197	-153.742207
44382		9.734749	12.524427	-153.669661
44383		9.874721	12.671428	-153.562525
44384		10.021942	12.795488	-153.355874
44385		10.108075	13.031437	-153.143295
44386		10.135380	13.306780	-152.905852
44387		10.169501	13.652661	-152.632739
44388		10.303019	14.019723	-152.338315
44389		10.470611	14.411725	-152.139931
44390		10.566891	14.791555	-152.076065
44391		10.621737	15.146407	-152.115339
44392		10.700243	15.347031	-152.301031
44393		10.624088	15.330574	-152.599522
44394		10.355360	15.214079	-152.916176
44395		10.064535	15.066449	-153.187171
44396		9.835303	14.894494	-153.376571
44397		9.689299	14.686837	-153.485296
44398		9.641647	14.373519	-153.571493
44399		9.483298	14.110771	-153.671912
44400		9.242241	13.962702	-153.796746
44401		9.112069	13.836474	-153.892530
44402		9.087777	13.667371	-153.953755
44403		9.053962	13.462493	-154.080014
44404		8.953244	13.243395	-154.245853
44405		8.959560	13.021572	-154.365027
44406		9.015416	12.750868	-154.481698
44407		9.086394	12.486231	-154.641879
44408		9.210131	12.116280	-154.861473
44409		9.289293	11.782019	-155.178584
44410		9.358961	11.536466	-155.510188
44411		9.490652	11.197827	-155.776882
44412		9.631315	10.817905	-156.035843
44413		9.797693	10.466531	-156.330861
44414		9.939032	10.178985	-156.627702
44415		10.090840	9.834421	-156.906879
44416		10.255514	9.517266	-157.193831
44417		10.356282	9.329068	-157.444025
44418		10.529273	8.933209	-157.682465
44419		10.670937	8.572889	-157.831647
44420		10.749654	8.393666	-157.846825
44421		10.859291	8.239382	-157.861722
44422		10.952341	8.012380	-158.002476
44423		10.909528	7.932077	-158.160513
44424		10.843283	7.915564	-158.247923
44425		10.883801	7.783607	-158.273169
44426		10.977268	7.642460	-158.356810
44427		11.012438	7.535759	-158.423104
44428		11.013501	7.507610	-158.437965
44429		11.019562	7.454218	-158.517533
44430		10.992428	7.434375	-158.691446
44431		10.956582	7.433340	-158.904009
44432		11.014952	7.363478	-159.101432
44433		11.010107	7.263682	-159.271559
44434		11.023508	7.146259	-159.407194
44435		11.088036	7.060709	-159.497831
44436		11.166151	6.965918	-159.556388
44437		11.197915	6.889272	-159.568165
44438		11.233624	6.842953	-159.494853
44439		11.302105	6.744814	-159.455701
44440		11.416296	6.669654	-159.402717
44441		11.533521	6.576357	-159.337699
44442		11.492248	6.575965	-159.279568
44443		11.322674	6.620128	-159.214418
44444		11.281845	6.623728	-159.169495
44445		11.295850	6.629683	-159.123675
44446		11.375212	6.604352	-159.082678
44447		11.459621	6.515628	-159.059610
44448		11.616148	6.139320	-159.020589
44449		11.992302	5.188996	-158.890744
44450		12.681292	4.104714	-158.858305
44451		13.221404	3.422114	-158.980211
44452		13.546057	2.891798	-159.025813
44453		13.790701	1.932800	-159.243366
44454		14.132475	0.674498	-159.544260
44455		14.074770	-0.634572	-159.702248
44456		13.852694	-1.512406	-159.828393
44457		13.635888	-2.068619	-159.923015
44458		13.513090	-2.891860	-160.118203
44459		13.326951	-4.106616	-160.252452
44460		13.143941	-4.781206	-160.334535
44461		13.047896	-5.136911	-160.352754
44462		12.996077	-5.518311	-160.430604
44463		12.977687	-6.037899	-160.504290
44464		13.071424	-6.226482	-160.499819
44465		12.878758	-6.219647	-160.531434
44466		12.723240	-6.311645	-160.612793
44467		12.487125	-6.635713	-160.693787
44468		12.220580	-6.821189	-160.687949
44469		11.934823	-6.726274	-160.587847
44470		11.608774	-6.952378	-160.547225
44471		11.541063	-7.302735	-160.533367
44472		11.363057	-7.646485	-160.513319
44473		11.100898	-7.751837	-160.509475
44474		10.727272	-7.796396	-160.432448
44475		10.231915	-7.830480	-160.374789
44476		9.765972	-7.698354	-160.324561
44477		9.313002	-7.531112	-160.315885
44478		8.967669	-7.219692	-160.323585
44479		8.670768	-6.880575	-160.340270
44480		8.390753	-6.509589	-160.421167
44481		8.164866	-6.288633	-160.477216
44482		8.049068	-6.155584	-160.503687
44483		7.972842	-6.049232	-160.517432
44484		7.901906	-5.984831	-160.539916
44485		7.889069	-5.950139	-160.589635
44486		7.791962	-5.912778	-160.619037
44487		7.698015	-5.897612	-160.643782
44488		7.653693	-5.905528	-160.691729
44489		7.518963	-5.913367	-160.805506
44490		7.343444	-5.917687	-160.937240
44491		7.228556	-5.933550	-161.058111
44492		7.260065	-5.965095	-161.173399
44493		7.320250	-5.979676	-161.283564
44494		7.359338	-5.980715	-161.390895
44495		7.367056	-5.961707	-161.498870
44496		7.339997	-5.920134	-161.559067
44497		7.336586	-5.873730	-161.614561
44498		7.317578	-5.856873	-161.645935
44499		7.317750	-5.868876	-161.643350
44500		7.319248	-5.856013	-161.657601
44501		7.319622	-5.858859	-161.671336
44502		7.350304	-5.881834	-161.662747
44503		7.368655	-5.886277	-161.647136
44504		7.394991	-5.898669	-161.692449
44505		7.464495	-5.919225	-161.778021
44506		7.496197	-5.921649	-161.862944
44507		7.485898	-5.897828	-161.912411
44508		7.479345	-5.873049	-161.943204
44509		7.530774	-5.847242	-161.924176
44510		7.543527	-5.825511	-161.916136
44511		7.478175	-5.796588	-161.902028
44512		7.412892	-5.719059	-161.918235
44513		7.374815	-5.662783	-161.901882
44514		7.363934	-5.609763	-161.857912
44515		7.391643	-5.518569	-161.754127
44516		7.234243	-5.387861	-161.717531
44517		6.638122	-5.283220	-161.760747
44518		6.281166	-5.172581	-161.702619
44519		6.317805	-5.091547	-161.715746
44520		6.346372	-5.024601	-161.738283
44521		6.200708	-4.913915	-161.767862
44522		6.211428	-4.798615	-161.842945
44523		6.423102	-4.691112	-161.938832
44524		6.551385	-4.555382	-162.041443
44525		6.505679	-4.405002	-162.152157
44526		6.452855	-4.348699	-162.309087
44527		6.558727	-4.280236	-162.398755
44528		6.791324	-4.160658	-162.398796
44529		6.911791	-4.030442	-162.361558
44530		6.816451	-3.889054	-162.371677
44531		6.687074	-3.755049	-162.356448
44532		6.632874	-3.634393	-162.240722
44533		6.640778	-3.541131	-162.095380
44534		6.630308	-3.441505	-161.924610
44535		6.603755	-3.347980	-161.747353
44536		6.438011	-3.251738	-161.632515
44537		6.105780	-3.129041	-161.621753
44538		5.905139	-3.059531	-161.431838
44539		5.920588	-2.989928	-161.159569
44540		6.059608	-2.963134	-160.880635
44541		6.184564	-2.904646	-160.705592
44542		6.184832	-2.842244	-160.664790
44543		6.101165	-2.797980	-160.739635
44544		6.041190	-2.779268	-160.919570
44545		5.926498	-2.781176	-161.123580
44546		5.762857	-2.764332	-161.226798
44547		5.729330	-2.743084	-161.246583
44548		5.856330	-2.709993	-161.231396
44549		6.014674	-2.677182	-161.202368
44550		6.133542	-2.644384	-161.175853
44551		6.254583	-2.609076	-161.162664
44552		6.344631	-2.575525	-161.160987
44553		6.341690	-2.546930	-161.132161
44554		6.393289	-2.500536	-161.106545
44555		6.613370	-2.422351	-161.083160
44556		6.898398	-2.271505	-161.023436
44557		6.957026	-2.166054	-160.953368
44558		7.103238	-2.076403	-160.844799
44559		7.493663	-1.981586	-160.829771
44560		7.820024	-1.889595	-160.657481
44561		8.033537	-1.961734	-160.269770
44562		8.022501	-2.021690	-159.655347
44563		8.492723	-2.116590	-158.924348
44564		8.866844	-2.185250	-158.135011
44565		9.151742	-1.714648	-157.611851
44566		9.339979	-1.134361	-157.267507
44567		9.426605	-0.481730	-156.797511
44568		9.494216	-0.090701	-156.258608
44569		9.586849	0.521304	-155.629240
44570		9.595001	1.669605	-155.196006
44571		9.877476	3.020337	-154.860309
44572		10.209220	4.732337	-154.654211
44573		10.305972	6.553833	-154.597362
44574		10.212110	7.902841	-154.658888
44575		10.052908	9.178909	-154.457279
44576		9.825607	10.556758	-154.194523
44577		9.573026	11.283776	-154.056195
44578		9.340570	11.647869	-153.942966
44579		9.267716	11.793039	-153.731203
44580		9.380778	11.751655	-153.636388
44581		9.440043	11.738809	-153.623230
44582		9.319687	11.777370	-153.643839
44583		9.193810	11.807048	-153.672958
44584		9.119197	11.849756	-153.686606
44585		9.075253	11.881774	-153.677031
44586		9.092045	11.857429	-153.661034
44587		9.106107	11.810437	-153.650092
44588		9.098632	11.794486	-153.658641
44589		9.059933	11.786077	-153.666655
44590		9.041580	11.777875	-153.672063
44591		9.055176	11.754802	-153.669097
44592		9.042874	11.757190	-153.663928
44593		9.002538	11.824955	-153.664452
44594		8.942105	11.944046	-153.681862
44595		8.949459	12.074682	-153.695394
44596		8.982158	12.215826	-153.685895
44597		8.956156	12.281765	-153.664954
44598		8.941287	12.358554	-153.659132
44599		9.013294	12.480993	-153.644720
44600		9.006344	12.647506	-153.546715
44601		8.941142	12.860497	-153.437719
44602		8.815107	13.011344	-153.336512
44603		8.788173	13.154935	-153.138641
44604		8.811763	13.440972	-152.845957
44605		8.820352	13.723941	-152.697416
44606		8.819074	13.908819	-152.723144
44607		8.795242	14.049914	-152.785945
44608		8.826050	14.247204	-152.851027
44609		8.862234	14.598728	-152.892493
44610		8.924388	14.909359	-152.961803
44611		8.881694	15.004286	-153.100652
44612		8.754108	14.926738	-153.327587
44613		8.625365	14.873833	-153.552361
44614		8.564820	14.857894	-153.710314
44615		8.552337	14.726508	-153.889980
44616		8.529357	14.400410	-154.146789
44617		8.412211	14.272651	-154.376353
44618		8.311531	14.308595	-154.457558
44619		8.265925	14.259088	-154.505085
44620		8.230589	14.119560	-154.565765
44621		8.168269	14.038482	-154.653178
44622		8.163265	13.963723	-154.698999
44623		8.201372	13.808109	-154.733025
44624		8.207639	13.603667	-154.864608
44625		8.177626	13.416616	-155.041510
44626		8.135891	13.299843	-155.184368
44627		8.089274	13.227274	-155.249034
44628		8.107315	13.039335	-155.298571
44629		8.170212	12.727880	-155.418978
44630		8.236148	12.430515	-155.604114
44631		8.300844	12.240681	-155.799659
44632		8.363192	12.103345	-155.909118
44633		8.507633	11.887775	-155.930466
44634		8.663932	11.647369	-155.977600
44635		8.768426	11.448611	-156.063756
44636		8.850165	11.280369	-156.209626
44637		8.872721	11.166937	-156.354136
44638		8.928687	11.076879	-156.459941
44639		9.053789	10.941298	-156.594901
44640		9.138097	10.827297	-156.762400
44641		9.229210	10.710493	-156.852215
44642		9.342131	10.510965	-156.900629
44643		9.466618	10.289191	-157.016337
44644		9.524888	10.210878	-157.212983
44645		9.562494	10.092712	-157.461497
44646		9.583859	10.010332	-157.649033
44647		9.628856	9.928988	-157.720560
44648		9.668904	9.854373	-157.769498
44649		9.723966	9.778477	-157.864012
44650		9.723386	9.747797	-158.047159
44651		9.662159	9.696005	-158.195446
44652		9.650073	9.613279	-158.329031
44653		9.631392	9.485707	-158.487621
44654		9.525745	9.437027	-158.575763
44655		9.453690	9.401795	-158.593503
44656		9.433475	9.350906	-158.558725
44657		9.475102	9.318847	-158.492056
44658		9.614300	9.306116	-158.409613
44659		9.791680	9.261309	-158.353296
44660		9.858387	9.115581	-158.356914
44661		9.876617	8.854940	-158.430198
44662		9.969179	8.520615	-158.498293
44663		10.276427	7.878222	-158.475656
44664		10.729377	7.046722	-158.377992
44665		11.376139	6.076431	-158.261298
44666		11.991224	4.931468	-158.217553
44667		12.557593	3.924819	-158.231308
44668		13.150375	2.705992	-158.332008
44669		13.529847	1.213696	-158.172115
44670		13.401580	0.184291	-157.939365
44671		13.364698	-1.105727	-157.713611
44672		13.103468	-2.799677	-157.500894
44673		12.876824	-3.777044	-157.403157
44674		12.977957	-4.055470	-157.392621
44675		13.214745	-4.477755	-157.412237
44676		13.292549	-4.980891	-157.456322
44677		13.197805	-5.228885	-157.452168
44678		12.880174	-5.298843	-157.506085
44679		12.590996	-5.282126	-157.606174
44680		12.171707	-5.242913	-157.711827
44681		11.542973	-5.642938	-157.725891
44682		10.858370	-6.348725	-157.949487
44683		10.257579	-6.633524	-158.173687
44684		9.721588	-6.617121	-158.396289
44685		9.174539	-6.498615	-158.631325
44686		8.632497	-6.290105	-158.882194
44687		8.217348	-5.980634	-159.110422
44688		7.945533	-5.755375	-159.239865
44689		7.869769	-5.637722	-159.300198
44690		7.851193	-5.524986	-159.305981
44691		7.844928	-5.395007	-159.306319
44692		7.908494	-5.309056	-159.328577
44693		7.860994	-5.255435	-159.345768
44694		7.767423	-5.208996	-159.373569
44695		7.757381	-5.191391	-159.393990
44696		7.763122	-5.194280	-159.404275
44697		7.684425	-5.206538	-159.402149
44698		7.553180	-5.210401	-159.386443
44699		7.421766	-5.200588	-159.376294
44700		7.338607	-5.171295	-159.372109
44701		7.390238	-5.141992	-159.442910
44702		7.384397	-5.135303	-159.492702
44703		7.350889	-5.120118	-159.561574
44704		7.372158	-5.080904	-159.639306
44705		7.384606	-5.025739	-159.763111
44706		7.371155	-4.997473	-159.857483
44707		7.336520	-4.987593	-159.938146
44708		7.234363	-4.983116	-159.977782
44709		7.152433	-4.987314	-159.986182
44710		7.119885	-4.981317	-159.922959
44711		7.163549	-4.952461	-159.863415
44712		7.213342	-4.950575	-159.768756
44713		7.280930	-4.952421	-159.674593
44714		7.336006	-4.934632	-159.645555
44715		7.333597	-4.914777	-159.637682
44716		7.266316	-4.894121	-159.657164
44717		7.178008	-4.859032	-159.687521
44718		7.211140	-4.824315	-159.653318
44719		7.295466	-4.789100	-159.574098
44720		7.351796	-4.743577	-159.485848
44721		7.258347	-4.709672	-159.430662
44722		7.140658	-4.651584	-159.466837
44723		7.108144	-4.588833	-159.478551
44724		7.065810	-4.525817	-159.463965
44725		6.920005	-4.461765	-159.413993
44726		6.804487	-4.379198	-159.324407
44727		6.858870	-4.314720	-159.226462
44728		6.905639	-4.236267	-159.177199
44729		6.818442	-4.095389	-159.272439
44730		6.645208	-3.944179	-159.434833
44731		6.411872	-3.802765	-159.646211
44732		6.214815	-3.668441	-159.770428
44733		6.161954	-3.544826	-159.803403
44734		6.217557	-3.429692	-159.740444
44735		6.309858	-3.288546	-159.613481
44736		6.424807	-3.164097	-159.535046
44737		6.476505	-3.043073	-159.521898
44738		6.492457	-2.924930	-159.481271
44739		6.559551	-2.813224	-159.414479
44740		6.557758	-2.703241	-159.326611
44741		6.471833	-2.562163	-159.232439
44742		6.456660	-2.453937	-159.084618
44743		6.502431	-2.332808	-158.893643
44744		6.514948	-2.173822	-158.743981
44745		6.478135	-2.065677	-158.548680
44746		6.491364	-1.968057	-158.368585
44747		6.521979	-1.931495	-158.197564
44748		6.488541	-1.938685	-158.091863
44749		6.440568	-1.939115	-158.037852
44750		6.410306	-1.908107	-158.053496
44751		6.267053	-1.866655	-158.138262
44752		5.987204	-1.769528	-158.241238
44753		5.712041	-1.579769	-158.430960
44754		5.441752	-1.400963	-158.603640
44755		5.376486	-1.282740	-158.803462
44756		5.406890	-1.350310	-158.952964
44757		5.576843	-1.487653	-159.009311
44758		5.939100	-1.590885	-158.986344
44759		6.361856	-1.592543	-158.969274
44760		6.650578	-1.696281	-159.047791
44761		6.834415	-1.858202	-159.150570
44762		7.003903	-1.934479	-159.248506
44763		7.105604	-2.028429	-159.419719
44764		7.026169	-2.165377	-159.559164
44765		7.043044	-2.212984	-159.638842
44766		7.158308	-2.199359	-159.672159
44767		7.239383	-2.187217	-159.690155
44768		7.207402	-2.156314	-159.703233
44769		7.205691	-2.122037	-159.757957
44770		7.150502	-2.125311	-159.799514
44771		7.114423	-2.161079	-159.802191
44772		7.098755	-2.208089	-159.793127
44773		7.117472	-2.300347	-159.788333
44774		7.178624	-2.370456	-159.773587
44775		7.169520	-2.365414	-159.718213
44776		7.131655	-2.392575	-159.642836
44777		7.264644	-2.262963	-159.547570
44778		7.690896	-1.974841	-159.400388
44779		8.141775	-1.641389	-159.161224
44780		8.461048	-1.333534	-158.837907
44781		9.008500	-0.939824	-158.361440
44782		9.247161	-0.579234	-157.952388
44783		9.585948	-0.060389	-157.567503
44784		10.160386	0.152688	-157.361729
44785		10.899845	0.411213	-157.201892
44786		11.347013	0.470351	-156.921418
44787		11.329769	0.676562	-156.309011
44788		11.276026	1.187775	-155.384979
44789		11.355478	2.024478	-154.532726
44790		11.472487	2.974914	-153.955459
44791		11.477981	4.225890	-153.471128
44792		11.386067	5.441899	-152.961104
44793		11.035510	6.261993	-152.471153
44794		10.471257	7.529366	-152.166664
44795		10.071254	8.717804	-152.123402
44796		9.901370	9.626253	-152.002106
44797		9.734868	10.414692	-151.749053
44798		9.426777	11.334903	-151.639952
44799		9.091938	12.014043	-151.688508
44800		8.742378	12.463164	-151.694258
44801		8.504917	12.632003	-151.672638
44802		8.480510	12.601664	-151.674639
44803		8.399810	12.621720	-151.702615
44804		8.207232	12.881529	-151.754985
44805		7.989666	13.128699	-151.842533
44806		7.883430	13.147294	-151.934045
44807		7.867426	12.988523	-151.989856
44808		7.930267	12.751227	-152.026923
44809		7.960263	12.780201	-152.031559
44810		7.934919	12.966154	-152.033757
44811		7.852654	13.039568	-152.062812
44812		7.837822	12.965505	-152.088035
44813		7.893907	12.842054	-152.098194
44814		7.942549	12.782640	-152.104268
44815		7.951089	12.764159	-152.113048
44816		7.940225	12.806493	-152.122894
44817		7.922905	12.863955	-152.130768
44818		7.910869	12.918142	-152.151586
44819		7.930551	12.981832	-152.173109
44820		8.003767	12.995463	-152.200430
44821		8.120301	13.027920	-152.279080
44822		8.226449	13.261582	-152.345506
44823		8.213231	13.489809	-152.418169
44824		8.192993	13.654401	-152.572420
44825		8.106943	13.823010	-152.832123
44826		7.989025	13.928667	-152.912828
44827		8.171842	14.216497	-152.901798
44828		8.279831	14.484115	-152.812265
44829		8.361076	14.729909	-152.817592
44830		8.393155	15.004932	-152.822450
44831		8.334771	15.204159	-152.857921
44832		8.229350	15.397428	-153.032151
44833		8.113974	15.567801	-153.233961
44834		8.022442	15.800209	-153.301084
44835		7.991993	16.077426	-153.287655
44836		7.923233	16.219734	-153.211874
44837		7.814262	16.021511	-153.177836
44838		7.745704	15.766515	-153.225552
44839		7.705692	15.589706	-153.333298
44840		7.703942	15.406513	-153.489167
44841		7.755728	15.208114	-153.722651
44842		7.718244	14.919480	-154.022104
44843		7.700075	14.698435	-154.172801
44844		7.843565	14.366913	-154.248353
44845		8.027705	13.871771	-154.457196
44846		8.095602	13.590205	-154.766958
44847		8.034446	13.536842	-155.081057
44848		8.014958	13.392405	-155.327418
44849		8.222225	12.967384	-155.442558
44850		8.458174	12.613020	-155.523261
44851		8.490425	12.555060	-155.684134
44852		8.420661	12.509877	-156.010172
44853		8.356880	12.403677	-156.377276
44854		8.227754	12.427947	-156.655720
44855		8.116829	12.358079	-156.939911
44856		8.013378	12.324876	-157.191604
44857		7.940896	12.298008	-157.322955
44858		7.990401	12.147729	-157.363212
44859		8.208157	11.709231	-157.363811
44860		8.472050	11.368258	-157.269225
44861		8.523171	11.279737	-157.146732
44862		8.455460	11.121595	-157.208489
44863		8.571829	10.898012	-157.242060
44864		8.663243	10.808784	-157.123823
44865		8.762384	10.794200	-156.896734
44866		8.901898	10.665607	-156.800315
44867		8.891695	10.565144	-156.890045
44868		8.880685	10.512848	-156.933783
44869		8.955530	10.417209	-156.913108
44870		8.991767	10.372392	-156.934827
44871		8.946733	10.412679	-157.065949
44872		8.938723	10.401032	-157.219644
44873		8.899874	10.366882	-157.417585
44874		8.713879	10.402302	-157.602637
44875		8.476029	10.476498	-157.722629
44876		8.326472	10.490029	-157.751761
44877		8.320578	10.434858	-157.725711
44878		8.410686	10.363524	-157.652166
44879		8.556411	10.289531	-157.581397
44880		8.714726	10.126109	-157.566290
44881		8.802582	9.910808	-157.596046
44882		9.123655	9.165546	-157.596606
44883		9.807293	7.859619	-157.573728
44884		10.633910	6.108471	-157.530486
44885		11.429978	4.479907	-157.680982
44886		12.105569	3.041358	-157.663899
44887		12.549558	1.750170	-157.589635
44888		12.665257	0.648832	-157.547220
44889		12.492600	-0.195385	-157.593554
44890		12.352651	-1.187345	-157.601265
44891		12.122869	-2.637683	-157.244548
44892		11.470889	-3.665537	-156.914593
44893		10.952689	-4.292711	-156.938054
44894		10.824769	-5.029968	-157.205619
44895		10.862270	-5.306546	-157.529194
44896		10.990048	-5.232954	-157.839212
44897		10.978196	-5.325340	-158.355922
44898		10.850851	-5.563709	-158.985736
44899		10.627291	-5.842210	-159.695728
44900		10.380533	-6.148166	-160.313577
44901		9.817482	-6.307844	-160.652165
44902		9.305256	-6.618491	-160.810913
44903		8.717361	-6.743834	-161.057394
44904		8.011892	-6.438277	-161.374569
44905		7.396708	-6.009974	-161.586043
44906		6.908595	-5.645421	-161.716169
44907		6.590576	-5.190759	-161.807785
44908		6.375032	-4.834597	-161.827477
44909		6.269187	-4.618010	-161.819033
44910		6.192685	-4.438976	-161.802327
44911		6.135061	-4.306295	-161.785490
44912		6.116730	-4.237098	-161.779496
44913		6.091944	-4.189955	-161.774504
44914		6.069036	-4.155013	-161.781128
44915		6.027681	-4.114632	-161.777817
44916		6.025823	-4.093302	-161.763062
44917		6.080443	-4.068001	-161.732773
44918		6.079804	-4.049871	-161.688185
44919		6.102188	-4.049389	-161.651870
44920		6.174266	-4.069902	-161.623817
44921		6.225615	-4.080767	-161.568955
44922		6.117984	-4.102567	-161.582500
44923		5.989346	-4.145247	-161.656096
44924		5.930019	-4.151000	-161.743427
44925		5.915985	-4.120180	-161.821691
44926		5.869976	-4.098653	-161.862635
44927		5.837392	-4.095486	-161.879751
44928		5.838082	-4.117886	-161.919151
44929		5.827650	-4.108385	-161.945405
44930		5.760210	-4.085578	-161.947493
44931		5.701667	-4.057699	-161.896008
44932		5.660425	-4.047576	-161.821154
44933		5.665219	-4.058186	-161.743452
44934		5.684319	-4.054758	-161.662860
44935		5.689265	-4.054271	-161.571084
44936		5.709004	-4.033724	-161.500670
44937		5.714828	-4.003466	-161.467648
44938		5.691042	-3.977499	-161.457673
44939		5.667766	-3.961515	-161.428751
44940		5.706043	-3.955447	-161.403788
44941		5.717076	-3.955407	-161.380919
44942		5.667537	-3.940683	-161.357610
44943		5.644319	-3.911972	-161.320177
44944		5.676737	-3.892851	-161.282856
44945		5.697383	-3.876104	-161.287523
44946		5.651485	-3.847611	-161.353963
44947		5.573660	-3.809615	-161.428096
44948		5.520667	-3.756620	-161.417092
44949		5.569388	-3.706676	-161.327551
44950		5.677857	-3.665861	-161.199792
44951		5.835147	-3.664360	-161.056892
44952		6.032023	-3.652421	-160.907047
44953		6.206559	-3.619670	-160.789776
44954		6.280732	-3.616616	-160.703831
44955		6.227771	-3.582100	-160.530703
44956		6.150003	-3.522515	-160.325748
44957		6.099859	-3.471118	-160.130581
44958		6.089697	-3.406182	-160.010017
44959		6.049653	-3.302813	-159.944991
44960		5.914746	-3.173759	-159.947352
44961		5.743102	-3.035821	-159.969488
44962		5.677542	-2.905358	-159.961818
44963		5.642748	-2.780358	-159.937002
44964		5.658521	-2.721000	-159.787281
44965		5.842573	-2.708406	-159.511638
44966		6.204800	-2.701009	-159.146758
44967		6.487949	-2.654506	-158.602807
44968		6.712427	-2.621376	-157.887240
44969		6.954670	-2.592118	-157.251616
44970		7.082226	-2.497247	-156.816074
44971		6.953059	-2.307722	-156.596060
44972		6.697426	-2.175486	-156.393462
44973		6.454348	-2.019700	-156.263682
44974		6.305793	-1.829579	-156.193643
44975		6.237991	-1.690286	-156.193509
44976		6.133056	-1.648219	-156.346047
44977		6.104243	-1.790322	-156.488936
44978		6.528485	-2.267153	-156.672130
44979		6.856341	-2.325164	-156.824704
44980		6.945642	-2.118447	-157.032003
44981		6.804872	-2.011425	-157.277605
44982		6.458442	-1.924220	-157.493391
44983		6.153078	-1.835949	-157.657925
44984		5.991536	-1.817403	-157.739100
44985		6.085116	-1.816309	-157.776109
44986		6.218699	-1.837811	-157.798391
44987		6.278866	-1.889222	-157.836167
44988		6.340813	-1.947605	-157.879957
44989		6.343989	-2.004222	-157.923142
44990		6.250877	-2.109857	-157.973954
44991		6.184216	-2.334631	-158.037971
44992		6.242053	-2.572363	-158.069658
44993		6.449312	-2.744562	-158.126707
44994		6.930774	-2.838354	-158.260199
44995		7.233595	-2.851607	-158.235775
44996		7.259610	-2.840953	-158.118578
44997		7.531138	-2.834600	-158.017410
44998		7.940954	-2.651235	-157.878083
44999		8.365252	-2.430434	-157.708897
45000		8.684504	-2.088529	-157.365407
45001		8.785359	-1.620613	-157.032158
45002		9.098430	-1.101252	-156.572745
45003		9.772996	-0.727877	-156.039019
45004		10.609695	-0.429852	-155.376244
45005		11.445848	-0.277851	-154.836999
45006		12.141064	-0.209075	-154.370705
45007		12.454845	-0.200256	-153.941622
45008		12.478720	-0.203683	-153.533108
45009		12.262220	0.103826	-153.050565
45010		11.804293	1.018867	-152.584527
45011		11.579382	2.149862	-152.214794
45012		11.448402	3.057250	-151.857334
45013		11.089409	4.306290	-151.485052
45014		10.765227	5.855081	-151.358477
45015		10.539004	7.266266	-151.287328
45016		10.512126	8.114934	-151.055904
45017		10.298025	8.590319	-151.089215
45018		9.999418	8.997007	-151.192508
45019		9.784089	9.561361	-151.307483
45020		9.647101	9.844063	-151.428140
45021		9.608914	9.826589	-151.489599
45022		9.597075	9.696359	-151.529452
45023		9.667153	9.642695	-151.542223
45024		9.742926	9.579570	-151.553845
45025		9.772222	9.498255	-151.575787
45026		9.754888	9.501251	-151.587177
45027		9.752410	9.574481	-151.589795
45028		9.741039	9.652542	-151.593794
45029		9.743115	9.722567	-151.608081
45030		9.763369	9.819681	-151.618686
45031		9.837768	9.926435	-151.675236
45032		9.913609	10.092453	-151.777338
45033		9.896270	10.338500	-151.932498
45034		9.901351	10.532234	-152.099926
45035		9.906759	10.613260	-152.186197
45036		10.145779	10.681101	-152.351474
45037		10.388434	10.608266	-152.567736
45038		10.176446	10.761574	-152.758762
45039		10.131958	11.183731	-152.872154
45040		10.195882	11.556251	-152.895032
45041		10.322528	11.794342	-152.954849
45042		10.350338	12.144132	-152.962756
45043		10.317379	12.633561	-152.923115
45044		10.252757	13.369323	-152.919109
45045		10.116439	14.167266	-153.019021
45046		9.801726	14.850484	-153.187872
45047		9.511032	15.123167	-153.363841
45048		9.256857	15.083163	-153.527568
45049		9.063153	14.968900	-153.779141
45050		8.857841	14.950626	-154.022804
45051		8.673179	15.022477	-154.157458
45052		8.543163	15.127574	-154.266076
45053		8.490844	15.254894	-154.326463
45054		8.404110	15.271760	-154.362620
45055		8.303389	15.188752	-154.454214
45056		8.191132	15.092287	-154.531048
45057		8.149460	14.996960	-154.584588
45058		8.166352	14.935210	-154.675090
45059		8.198509	14.898795	-154.770684
45060		8.189159	14.917502	-154.945113
45061		8.137909	14.810004	-155.140942
45062		8.093554	14.622263	-155.333666
45063		8.108880	14.455245	-155.640231
45064		8.088418	14.311587	-156.000910
45065		8.018111	14.204452	-156.354587
45066		7.963187	14.091691	-156.658168
45067		8.030306	13.881656	-156.881632
45068		8.002966	13.809074	-157.103984
45069		7.978478	13.667990	-157.252752
45070		8.044022	13.539277	-157.358585
45071		7.997440	13.384524	-157.710848
45072		7.985821	13.187459	-157.950311
45073		7.995315	13.041592	-158.192973
45074		8.009274	12.925940	-158.478517
45075		7.951016	12.798588	-158.771139
45076		7.834591	12.651769	-159.072972
45077		7.963257	12.455699	-159.359950
45078		7.962077	12.135640	-159.553203
45079		7.833410	11.806977	-159.730458
45080		8.021055	11.612396	-159.850492
45081		8.067279	11.283607	-159.901519
45082		8.141027	10.750917	-159.862918
45083		8.275255	10.468880	-159.727249
45084		8.347682	10.354428	-159.531902
45085		8.406971	10.192606	-159.355132
45086		8.417021	10.173632	-159.269139
45087		8.323976	10.248934	-159.188981
45088		8.266460	10.229095	-159.063647
45089		8.275461	10.064009	-158.920481
45090		8.313834	10.070270	-158.689814
45091		8.343690	10.174228	-158.460049
45092		8.355572	10.166908	-158.354036
45093		8.410748	10.110087	-158.323579
45094		8.262936	9.967894	-158.342738
45095		8.370917	9.859281	-158.294137
45096		8.200252	9.841408	-158.380653
45097		8.205236	9.821138	-158.428108
45098		8.150843	9.715734	-158.414981
45099		8.165106	9.509477	-158.335684
45100		8.168929	9.308693	-158.170650
45101		8.237883	9.145194	-158.068784
45102		8.670035	8.425430	-158.000319
45103		9.251367	7.483943	-157.923194
45104		9.690147	6.662386	-157.810189
45105		10.023103	5.954220	-157.784821
45106		10.258642	4.858863	-157.791409
45107		10.453297	3.190690	-157.961755
45108		10.554231	1.525432	-158.097437
45109		10.540244	0.511089	-157.995773
45110		10.466349	-0.351540	-157.931558
45111		10.362171	-1.478858	-158.037297
45112		10.131853	-2.601083	-158.074832
45113		10.013376	-3.419567	-157.971369
45114		9.782367	-4.176944	-157.896402
45115		9.623246	-4.844611	-157.871824
45116		9.601841	-5.339559	-157.949695
45117		9.586089	-5.369812	-158.111440
45118		9.713344	-5.354580	-158.358748
45119		9.888754	-5.421829	-158.626750
45120		10.026689	-5.483249	-158.835279
45121		9.957020	-5.470509	-158.932456
45122		9.714612	-5.535492	-159.061597
45123		9.445636	-5.632863	-159.214864
45124		9.005569	-5.970695	-159.372287
45125		8.643993	-6.260765	-159.628989
45126		8.344576	-6.514154	-159.838452
45127		8.089690	-6.740738	-159.963987
45128		7.651524	-6.646929	-160.023164
45129		7.117342	-6.234252	-159.988943
45130		6.797757	-5.957562	-159.955534
45131		6.776869	-5.732343	-160.000473
45132		6.831360	-5.517211	-160.080566
45133		6.686940	-5.294754	-160.135779
45134		6.470285	-5.095629	-160.181044
45135		6.434121	-4.974996	-160.215693
45136		6.435614	-4.892940	-160.256598
45137		6.354736	-4.807006	-160.277721
45138		6.332801	-4.741313	-160.304237
45139		6.330801	-4.693697	-160.314778
45140		6.340504	-4.664934	-160.323833
45141		6.358037	-4.644859	-160.340343
45142		6.352610	-4.644795	-160.355004
45143		6.349356	-4.640460	-160.362495
45144		6.379783	-4.635060	-160.391489
45145		6.360801	-4.599019	-160.422725
45146		6.303194	-4.528651	-160.442943
45147		6.235322	-4.465701	-160.477137
45148		6.282657	-4.462499	-160.517316
45149		6.311349	-4.471366	-160.563589
45150		6.280885	-4.467174	-160.636388
45151		6.300168	-4.501358	-160.712008
45152		6.375640	-4.525234	-160.827151
45153		6.372848	-4.500585	-160.968884
45154		6.343995	-4.454018	-161.099887
45155		6.377894	-4.409274	-161.188417
45156		6.397921	-4.367385	-161.228038
45157		6.367012	-4.323222	-161.239524
45158		6.357711	-4.279056	-161.213524
45159		6.406658	-4.250061	-161.132770
45160		6.426061	-4.235476	-161.015596
45161		6.411821	-4.215858	-160.887284
45162		6.449124	-4.234393	-160.738129
45163		6.533257	-4.250670	-160.610747
45164		6.512626	-4.233105	-160.513960
45165		6.451472	-4.201212	-160.435520
45166		6.404172	-4.186295	-160.359439
45167		6.409148	-4.178802	-160.269256
45168		6.418755	-4.160232	-160.174478
45169		6.385483	-4.146915	-160.103002
45170		6.377624	-4.153412	-160.015980
45171		6.366717	-4.142427	-159.941856
45172		6.332854	-4.111632	-159.897930
45173		6.266206	-4.078453	-159.855133
45174		6.258297	-4.059575	-159.755330
45175		6.288039	-4.039020	-159.637313
45176		6.272424	-4.017760	-159.573337
45177		6.209917	-3.986217	-159.635052
45178		6.180996	-3.990766	-159.679663
45179		6.206389	-3.978509	-159.713428
45180		6.210864	-3.946001	-159.747834
45181		6.200534	-3.923342	-159.774510
45182		6.213905	-3.883694	-159.814815
45183		6.208986	-3.836138	-159.889395
45184		6.168272	-3.786667	-159.976243
45185		6.089728	-3.719762	-160.030454
45186		6.022816	-3.643733	-160.097671
45187		5.959028	-3.568753	-160.115784
45188		5.907276	-3.490807	-160.125076
45189		5.929266	-3.449510	-160.091142
45190		5.991220	-3.401980	-159.951682
45191		6.058944	-3.319923	-159.796001
45192		6.074505	-3.224743	-159.688120
45193		5.982762	-3.113244	-159.681624
45194		5.855748	-2.977464	-159.712668
45195		5.806819	-2.862126	-159.688573
45196		5.801509	-2.732999	-159.630413
45197		5.809673	-2.600773	-159.515329
45198		5.782611	-2.468006	-159.408394
45199		5.744869	-2.326743	-159.317888
45200		5.748538	-2.184074	-159.217160
45201		5.849183	-2.028999	-159.128798
45202		5.880968	-1.908939	-159.052436
45203		5.791901	-1.786869	-158.952603
45204		5.751214	-1.686494	-158.931156
45205		5.814720	-1.762868	-158.798723
45206		5.973039	-1.888860	-158.623533
45207		6.064437	-2.026141	-158.520065
45208		6.187322	-2.321403	-158.629036
45209		6.487017	-2.737947	-158.726530
45210		6.882006	-2.941998	-158.784307
45211		6.993488	-2.763837	-158.845574
45212		6.948041	-2.623935	-158.995107
45213		6.890483	-2.545305	-159.236203
45214		6.928241	-2.472038	-159.524744
45215		6.998785	-2.417941	-159.807756
45216		7.130883	-2.360426	-160.077031
45217		7.254405	-2.359065	-160.385538
45218		7.234583	-2.468883	-160.646897
45219		7.402077	-2.572852	-160.804067
45220		7.725847	-2.612552	-160.813636
45221		7.927798	-2.576422	-160.815254
45222		7.804907	-2.553986	-160.866927
45223		7.641421	-2.589649	-160.880732
45224		7.586396	-2.622524	-160.869025
45225		7.550202	-2.629346	-160.827155
45226		7.493913	-2.632202	-160.772495
45227		7.407949	-2.645982	-160.710772
45228		7.357860	-2.713114	-160.659002
45229		7.207335	-2.770819	-160.652818
45230		7.015433	-2.650706	-160.613130
45231		6.912087	-2.539311	-160.457633
45232		6.944792	-2.488985	-160.212670
45233		7.129348	-2.414542	-159.928222
45234		7.542362	-2.308255	-159.566177
45235		8.182379	-2.179627	-159.037468
45236		8.994338	-1.942262	-158.178133
45237		9.510653	-1.460251	-157.408425
45238		10.066590	-1.050524	-156.863972
45239		10.455430	-0.640535	-156.548272
45240		10.704136	-0.500238	-156.514807
45241		10.653531	-0.374564	-156.352593
45242		10.605946	-0.605484	-156.242560
45243		10.806985	-1.046793	-156.156967
45244		10.995245	-1.204804	-155.858968
45245		11.066643	-1.274999	-155.241207
45246		11.100434	-1.289900	-154.622269
45247		10.232933	0.130415	-154.000149
45248		9.921505	2.825026	-153.635870
45249		9.498543	4.420985	-153.386386
45250		9.033320	5.471263	-152.903814
45251		8.446396	6.719795	-152.413228
45252		7.992020	7.844199	-152.283733
45253		7.374712	9.315181	-152.220505
45254		7.083473	10.319725	-152.125440
45255		6.849795	10.977838	-152.123530
45256		6.726184	11.100998	-152.175186
45257		6.659980	11.004380	-152.244771
45258		6.652915	10.636883	-152.365796
45259		6.697176	10.106909	-152.522035
45260		6.716690	9.751574	-152.645569
45261		6.686338	9.751615	-152.722197
45262		6.654543	9.891269	-152.781438
45263		6.644084	9.920941	-152.837929
45264		6.680941	9.830963	-152.901316
45265		6.711968	9.848864	-152.929453
45266		6.767212	9.974566	-152.923647
45267		6.850396	10.048632	-152.904538
45268		6.895492	10.180599	-152.863000
45269		6.932489	10.327824	-152.837980
45270		6.963526	10.448943	-152.851827
45271		7.007417	10.532759	-152.886287
45272		7.077782	10.576271	-152.915102
45273		7.158422	10.623232	-152.963829
45274		7.272888	10.683946	-152.996905
45275		7.428658	10.853150	-152.989019
45276		7.652196	11.199234	-152.973464
45277		7.888994	11.555907	-153.079124
45278		8.105979	11.846075	-153.342222
45279		8.274729	12.421422	-153.484644
45280		8.294306	13.135268	-153.466340
45281		8.239955	13.899902	-153.410862
45282		8.305832	14.545229	-153.465932
45283		8.465681	15.175562	-153.428973
45284		8.633977	16.046258	-153.385004
45285		8.830219	16.932366	-153.327213
45286		8.996975	17.751230	-153.171163
45287		9.106874	18.145251	-153.027223
45288		8.982383	17.985548	-153.091359
45289		8.577398	17.813338	-153.277275
45290		8.295213	17.688414	-153.485453
45291		8.157154	17.692990	-153.664924
45292		7.977197	17.520332	-153.892428
45293		7.689805	17.066932	-154.129837
45294		7.372765	16.593675	-154.368272
45295		7.207306	16.157538	-154.542421
45296		7.058888	15.951785	-154.603354
45297		7.022665	15.620707	-154.554052
45298		7.189751	14.968254	-154.499700
45299		7.307141	14.337924	-154.621177
45300		7.251572	14.112992	-154.743694
45301		7.325638	13.869898	-154.736209
45302		7.764151	13.154724	-154.619455
45303		8.286494	12.324490	-154.513179
45304		8.443325	12.035221	-154.450025
45305		8.444543	11.928821	-154.509791
45306		8.484630	11.735422	-154.658030
45307		8.515074	11.479999	-154.834883
45308		8.479405	11.239417	-154.933682
45309		8.519058	10.998983	-154.950947
45310		8.508815	10.878478	-154.984176
45311		8.420066	10.814720	-155.120388
45312		8.437244	10.639390	-155.205407
45313		8.513298	10.477723	-155.210951
45314		8.528314	10.476865	-155.282006
45315		8.420572	10.627186	-155.602807
45316		8.317970	10.637272	-156.019791
45317		8.282323	10.569262	-156.314914
45318		8.289949	10.511789	-156.469532
45319		8.294036	10.485763	-156.597235
45320		8.192725	10.522950	-156.742645
45321		8.127097	10.543515	-156.853369
45322		8.132241	10.497466	-156.957196
45323		8.142698	10.426361	-157.105459
45324		8.045680	10.501135	-157.300036
45325		8.009034	10.543525	-157.407548
45326		8.094449	10.496748	-157.446610
45327		8.132909	10.396995	-157.554292
45328		8.052820	10.475957	-157.683698
45329		7.942488	10.583185	-157.777332
45330		7.689153	10.737393	-157.862353
45331		7.510282	10.780699	-157.872218
45332		7.460014	10.784451	-157.860024
45333		7.514493	10.754228	-157.813953
45334		7.565047	10.797342	-157.766244
45335		7.590793	10.806757	-157.733838
45336		7.589404	10.740244	-157.742068
45337		7.548020	10.640296	-157.778721
45338		7.698445	10.310682	-157.779329
45339		8.223706	9.354486	-157.741143
45340		8.849088	8.137294	-157.560231
45341		9.499568	6.790031	-157.399188
45342		10.268608	5.156705	-157.400762
45343		10.923133	3.527719	-157.497344
45344		11.218125	1.923899	-157.701466
45345		11.164821	-0.010169	-157.962761
45346		10.978722	-2.124926	-158.153132
45347		10.785976	-3.674964	-158.146988
45348		10.367517	-4.729158	-158.414035
45349		10.027556	-5.709453	-158.852922
45350		9.922195	-6.555537	-159.335110
45351		9.970080	-6.848904	-159.570171
45352		9.913743	-6.683775	-159.700181
45353		9.765072	-6.692674	-159.956890
45354		9.869525	-6.846228	-160.249112
45355		9.926623	-6.972960	-160.449822
45356		9.926078	-7.301315	-160.554252
45357		9.838696	-8.295007	-160.678883
45358		9.431812	-9.269629	-160.674349
45359		9.025672	-9.642990	-160.602893
45360		8.821762	-9.337566	-160.615200
45361		8.927953	-8.559614	-160.742683
45362		9.142324	-7.827111	-160.949955
45363		9.055760	-7.267774	-161.089995
45364		8.774802	-6.739869	-161.187198
45365		8.537550	-6.270627	-161.311393
45366		8.355142	-5.897347	-161.402359
45367		8.112338	-5.596865	-161.463546
45368		7.855214	-5.227946	-161.506512
45369		7.713140	-4.908960	-161.533199
45370		7.603009	-4.729836	-161.542666
45371		7.534755	-4.613467	-161.550673
45372		7.505438	-4.511949	-161.556374
45373		7.462051	-4.444640	-161.540254
45374		7.461968	-4.446962	-161.521726
45375		7.509957	-4.466388	-161.523483
45376		7.504075	-4.476273	-161.521757
45377		7.454521	-4.507433	-161.517346
45378		7.397938	-4.604532	-161.484709
45379		7.388386	-4.674598	-161.456049
45380		7.385686	-4.708771	-161.433216
45381		7.463055	-4.805765	-161.390468
45382		7.497435	-4.933287	-161.443157
45383		7.498566	-5.037801	-161.490329
45384		7.513988	-5.072378	-161.570224
45385		7.584871	-5.067269	-161.649523
45386		7.606712	-5.067123	-161.715026
45387		7.581955	-5.071892	-161.773099
45388		7.554341	-5.059077	-161.834303
45389		7.568078	-5.027212	-161.895932
45390		7.595365	-5.000144	-161.955842
45391		7.579562	-4.979499	-161.986315
45392		7.557439	-4.957625	-162.001821
45393		7.583496	-4.945493	-161.975427
45394		7.609200	-4.931659	-161.946387
45395		7.609936	-4.907309	-161.917708
45396		7.610101	-4.865902	-161.929455
45397		7.625494	-4.837255	-161.961617
45398		7.634250	-4.818841	-162.021585
45399		7.625701	-4.793838	-162.080116
45400		7.637194	-4.775966	-162.122462
45401		7.612124	-4.766584	-162.148392
45402		7.581630	-4.739196	-162.191509
45403		7.570322	-4.686240	-162.243599
45404		7.520780	-4.643983	-162.290414
45405		7.390692	-4.580713	-162.354676
45406		7.290320	-4.527818	-162.449165
45407		7.158195	-4.500309	-162.588045
45408		6.781805	-4.415759	-162.722701
45409		6.436707	-4.314021	-162.773845
45410		6.458347	-4.274260	-162.646996
45411		6.651662	-4.218424	-162.503159
45412		6.745040	-4.143268	-162.428177
45413		6.794216	-4.096843	-162.378281
45414		6.828550	-3.993190	-162.393359
45415		6.760010	-3.859798	-162.401465
45416		6.687264	-3.700550	-162.415467
45417		6.706810	-3.620678	-162.367994
45418		6.842341	-3.534447	-162.280221
45419		6.973682	-3.403139	-162.168180
45420		6.988067	-3.226237	-162.056514
45421		6.929600	-3.037132	-161.871805
45422		6.952096	-2.961208	-161.634703
45423		7.073562	-2.886837	-161.361481
45424		7.163606	-2.730342	-161.091029
45425		7.162832	-2.544972	-160.851882
45426		6.885584	-2.324457	-160.475984
45427		6.574702	-2.168099	-160.047874
45428		6.446285	-2.164858	-159.648680
45429		6.430690	-2.248585	-159.368363
45430		6.560849	-2.474767	-159.232736
45431		6.755187	-2.631011	-159.085051
45432		6.871229	-2.619881	-159.036303
45433		6.721219	-2.565606	-159.102472
45434		6.531106	-2.493927	-159.192121
45435		6.538849	-2.398407	-159.249446
45436		6.625733	-2.320818	-159.388547
45437		6.565961	-2.317186	-159.495937
45438		6.532431	-2.309012	-159.576360
45439		6.654059	-2.335795	-159.595315
45440		6.939329	-2.370405	-159.583870
45441		7.107776	-2.376033	-159.565405
45442		7.086303	-2.350920	-159.568908
45443		6.968788	-2.247900	-159.658409
45444		6.731112	-2.151454	-159.736074
45445		6.609655	-2.091725	-159.770888
45446		6.628216	-2.066232	-159.773784
45447		6.694058	-2.030822	-159.776477
45448		6.736505	-2.023175	-159.820307
45449		6.752612	-2.110317	-159.892094
45450		6.722381	-2.202636	-159.967133
45451		6.637477	-2.310472	-160.071498
45452		6.876883	-2.244220	-160.119736
45453		7.241293	-2.152130	-159.940706
45454		7.370397	-2.134927	-159.671229
45455		7.547181	-2.169335	-159.191149
45456		7.479937	-2.167457	-158.639945
45457		7.335373	-2.077280	-158.085034
45458		7.495764	-1.702451	-157.721405
45459		8.037695	-1.600656	-157.640881
45460		8.908327	-1.145741	-157.184129
45461		9.312706	-0.671057	-156.642183
45462		9.223658	-0.213421	-156.188222
45463		9.026222	0.514237	-155.856948
45464		9.065437	2.023876	-155.516855
45465		9.371637	3.524228	-155.296960
45466		9.515825	4.277838	-155.027002
45467		9.318783	5.109947	-154.530838
45468		9.049337	6.377817	-154.109746
45469		8.672785	7.567679	-153.735587
45470		8.322651	8.449633	-153.361697
45471		8.036558	9.105974	-153.030507
45472		7.820994	9.864660	-152.833894
45473		7.846313	10.201235	-152.848426
45474		7.794475	10.381450	-152.933713
45475		7.600772	10.585313	-153.014395
45476		7.517827	10.590061	-153.079485
45477		7.532018	10.350889	-153.171200
45478		7.592480	10.141195	-153.262233
45479		7.627298	10.019777	-153.330949
45480		7.590429	9.920616	-153.390983
45481		7.589035	9.791126	-153.445470
45482		7.620292	9.679201	-153.501711
45483		7.640509	9.691531	-153.523103
45484		7.648156	9.745375	-153.529521
45485		7.655765	9.769313	-153.538898
45486		7.654686	9.822755	-153.543982
45487		7.687928	9.925295	-153.526827
45488		7.737872	10.022167	-153.524919
45489		7.833312	10.163079	-153.514138
45490		7.962200	10.358969	-153.534318
45491		8.112985	10.786067	-153.577470
45492		8.126490	11.283224	-153.642169
45493		8.114745	11.788943	-153.730229
45494		7.899659	12.081433	-154.069991
45495		7.800429	12.197795	-154.426148
45496		7.923700	12.480504	-154.520585
45497		7.965676	12.843441	-154.361121
45498		8.010960	13.182059	-154.084755
45499		8.064065	13.659997	-153.775648
45500		8.120308	14.094371	-153.516983
45501		8.178281	14.298968	-153.346956
45502		8.107170	14.488727	-153.333273
45503		8.051032	14.755667	-153.353024
45504		8.032671	14.983202	-153.439305
45505		7.951040	15.042969	-153.676683
45506		7.838115	15.097842	-153.970765
45507		7.799841	15.161052	-154.191366
45508		7.786225	15.189151	-154.474913
45509		7.751579	15.344642	-154.718565
45510		7.643449	15.507871	-154.767851
45511		7.523336	15.391584	-154.641763
45512		7.460003	15.116085	-154.723509
45513		7.439568	15.151346	-155.004878
45514		7.376104	15.496095	-155.230236
45515		7.375604	15.409414	-155.301548
45516		7.484471	15.060406	-155.177176
45517		7.556317	14.739947	-155.072947
45518		7.573602	14.475471	-155.145477
45519		7.543459	14.181477	-155.406495
45520		7.495516	13.990274	-155.698263
45521		7.484117	13.774100	-155.897555
45522		7.467897	13.583954	-156.029014
45523		7.396361	13.457740	-156.172756
45524		7.403043	13.243450	-156.348384
45525		7.450042	13.026438	-156.490991
45526		7.460385	12.963763	-156.590175
45527		7.457681	12.903885	-156.613155
45528		7.497228	12.693633	-156.623818
45529		7.647097	12.410913	-156.610660
45530		7.744490	12.258757	-156.603770
45531		7.743615	12.245997	-156.537211
45532		7.797794	12.158486	-156.411098
45533		7.939846	11.884239	-156.258513
45534		8.102800	11.708893	-156.189265
45535		8.136327	11.694139	-156.338194
45536		8.064188	11.731770	-156.614295
45537		8.089514	11.639385	-156.790674
45538		8.166530	11.563717	-156.895173
45539		8.188583	11.475064	-157.079189
45540		8.139063	11.462643	-157.263495
45541		8.071095	11.504409	-157.389476
45542		8.086847	11.455356	-157.344142
45543		8.192353	11.311745	-157.144398
45544		8.194346	11.306706	-157.043721
45545		8.051908	11.431100	-157.047454
45546		7.828133	11.616125	-157.120701
45547		7.451544	11.844047	-157.249018
45548		7.376042	11.735195	-157.187316
45549		7.354140	11.751674	-157.149177
45550		7.415972	11.749906	-157.098259
45551		7.472207	11.785184	-157.050185
45552		7.478811	11.828860	-157.034755
45553		7.465861	11.856208	-157.018783
45554		7.437459	11.868414	-157.029617
45555		7.345980	11.875245	-157.067183
45556		7.271511	11.844954	-157.085122
45557		7.300175	11.740287	-157.097608
45558		7.374452	11.622873	-157.099605
45559		7.473983	11.469003	-157.051711
45560		7.770168	10.981115	-156.998356
45561		8.244449	10.200036	-156.948831
45562		8.646030	9.382734	-156.887004
45563		9.228752	7.956666	-156.760936
45564		10.126512	5.845341	-156.578652
45565		10.707245	4.130980	-156.513313
45566		10.872879	3.020123	-156.569409
45567		10.776259	2.282466	-156.738420
45568		10.572096	1.356480	-156.957282
45569		10.698112	0.040555	-156.765096
45570		10.670394	-0.839273	-156.590631
45571		10.352473	-1.566816	-156.742540
45572		10.210453	-2.151974	-157.065647
45573		10.369088	-2.715024	-157.382189
45574		10.568003	-2.964231	-157.483983
45575		10.672909	-3.117547	-157.544214
45576		10.633067	-3.264871	-157.654140
45577		10.686100	-3.355851	-157.840659
45578		10.760604	-3.257887	-158.001544
45579		10.766021	-3.211843	-158.104502
45580		10.684659	-3.260635	-158.149732
45581		10.515445	-3.302706	-158.116164
45582		10.312748	-3.446161	-158.154113
45583		10.141231	-3.653263	-158.299314
45584		9.767124	-4.240888	-158.493367
45585		9.344977	-4.798089	-158.815544
45586		9.241584	-5.312636	-158.978545
45587		8.884654	-5.622344	-159.149979
45588		8.445023	-5.576527	-159.311811
45589		8.039226	-5.464720	-159.518895
45590		7.628089	-5.210312	-159.752406
45591		7.304618	-4.957325	-159.873315
45592		7.289851	-4.780616	-159.927861
45593		7.319979	-4.628718	-159.941120
45594		7.236330	-4.526275	-159.918255
45595		7.208507	-4.451477	-159.933588
45596		7.181250	-4.398655	-159.970248
45597		7.094140	-4.358607	-160.010665
45598		7.041839	-4.334301	-160.037563
45599		7.048419	-4.303309	-160.056723
45600		7.078596	-4.266943	-160.060894
45601		7.118260	-4.230501	-160.058167
45602		7.159505	-4.204569	-160.057650
45603		7.143005	-4.175993	-160.069190
45604		7.083838	-4.146832	-160.088562
45605		7.061737	-4.128468	-160.108556
45606		7.062767	-4.107451	-160.125722
45607		7.022809	-4.085193	-160.130804
45608		6.976966	-4.053372	-160.157655
45609		6.976622	-4.025793	-160.197349
45610		6.958697	-3.985564	-160.244886
45611		6.911372	-3.938601	-160.315946
45612		6.870958	-3.938473	-160.403847
45613		6.844858	-3.943208	-160.498519
45614		6.821954	-3.955668	-160.623743
45615		6.809397	-3.966514	-160.786719
45616		6.821918	-3.966401	-160.903460
45617		6.852089	-3.959976	-161.000751
45618		6.864208	-3.966546	-161.067114
45619		6.876746	-3.955126	-161.116385
45620		6.881583	-3.933953	-161.127729
45621		6.889183	-3.926734	-161.117071
45622		6.924994	-3.923161	-161.108497
45623		6.948733	-3.898840	-161.096414
45624		6.956090	-3.880375	-161.093104
45625		6.944710	-3.878355	-161.087144
45626		6.941964	-3.878281	-161.087506
45627		6.948623	-3.866594	-161.078151
45628		6.950285	-3.857425	-161.033348
45629		6.959209	-3.844693	-160.980237
45630		6.949527	-3.830549	-160.906373
45631		6.929663	-3.823902	-160.850420
45632		6.909299	-3.823363	-160.817607
45633		6.921649	-3.814670	-160.773674
45634		6.905561	-3.795144	-160.758763
45635		6.815546	-3.778505	-160.798672
45636		6.721998	-3.765883	-160.850543
45637		6.648629	-3.751385	-160.889092
45638		6.540373	-3.717235	-160.937825
45639		6.387612	-3.691628	-160.964323
45640		6.280497	-3.710576	-160.831882
45641		6.259103	-3.704891	-160.654637
45642		6.210234	-3.656524	-160.476698
45643		6.097387	-3.571903	-160.370762
45644		5.995746	-3.500252	-160.214513
45645		6.007275	-3.461463	-159.946034
45646		6.035696	-3.435833	-159.578646
45647		6.051659	-3.396915	-159.229571
45648		6.091941	-3.353086	-158.883905
45649		6.128799	-3.303813	-158.567830
45650		6.138140	-3.227270	-158.422909
45651		6.086807	-3.143214	-158.341733
45652		5.953770	-3.031324	-158.261953
45653		5.854888	-2.881011	-158.287544
45654		5.782650	-2.729056	-158.393761
45655		5.735007	-2.566850	-158.493232
45656		5.758738	-2.394601	-158.553437
45657		5.795802	-2.189579	-158.641443
45658		5.728974	-1.975569	-158.745694
45659		5.668156	-1.750278	-158.763585
45660		5.693052	-1.527586	-158.706142
45661		5.692240	-1.418073	-158.647547
45662		5.600105	-1.474750	-158.582530
45663		5.672709	-1.773824	-158.592765
45664		6.252259	-2.361995	-158.616075
45665		6.820501	-2.583169	-158.641400
45666		6.942478	-2.487450	-158.767646
45667		6.802933	-2.400028	-158.923932
45668		6.721908	-2.339581	-159.076013
45669		6.759736	-2.270535	-159.231778
45670		6.653598	-2.197044	-159.392311
45671		6.440627	-2.123779	-159.545535
45672		6.313124	-2.074478	-159.640421
45673		6.319219	-2.068194	-159.669594
45674		6.403531	-2.089670	-159.666254
45675		6.483635	-2.081279	-159.670973
45676		6.512615	-2.073950	-159.685944
45677		6.476092	-2.082048	-159.707392
45678		6.372350	-2.127378	-159.713067
45679		6.298319	-2.209545	-159.710122
45680		6.311034	-2.251974	-159.677741
45681		6.453447	-2.135132	-159.624834
45682		6.557263	-1.970415	-159.421033
45683		6.662435	-1.765522	-159.238453
45684		6.743030	-1.622281	-158.899941
45685		6.798949	-1.542527	-158.454363
45686		7.117707	-1.493531	-157.975460
45687		7.671987	-1.312722	-157.403129
45688		8.289216	-0.978536	-156.754224
45689		8.565100	-0.666665	-156.135205
45690		8.629371	-0.403058	-155.568844
45691		8.511397	0.412399	-155.228314
45692		8.616150	0.826921	-155.119639
45693		8.931894	1.089693	-154.773439
45694		9.324984	1.351591	-154.318901
45695		9.485364	1.420652	-153.985659
45696		9.218337	2.104347	-153.347858
45697		9.274891	3.092098	-152.647477
45698		9.267289	3.858830	-152.293456
45699		9.217477	5.058735	-152.108938
45700		9.289746	6.338953	-151.879341
45701		9.193177	7.091431	-151.698818
45702		9.091219	7.578680	-151.580264
45703		8.847461	8.156302	-151.551206
45704		8.561810	8.746726	-151.607632
45705		8.318651	9.458388	-151.676345
45706		7.954923	10.079641	-151.749247
45707		7.571670	10.657710	-151.830773
45708		7.569919	10.722527	-151.904223
45709		7.581441	10.796246	-152.049887
45710		7.456960	10.994486	-152.156213
45711		7.354765	11.106186	-152.245982
45712		7.368295	10.996479	-152.305444
45713		7.504936	10.743974	-152.392392
45714		7.656038	10.474891	-152.498810
45715		7.715122	10.367331	-152.580605
45716		7.742778	10.374699	-152.637165
45717		7.715933	10.309761	-152.699900
45718		7.714596	10.154765	-152.782830
45719		7.735355	10.060141	-152.836435
45720		7.756252	10.065856	-152.848040
45721		7.753201	10.084756	-152.844071
45722		7.756785	10.095256	-152.825364
45723		7.773747	10.085507	-152.801270
45724		7.785092	10.075607	-152.789804
45725		7.780293	10.124513	-152.783253
45726		7.770133	10.168968	-152.781490
45727		7.755496	10.182155	-152.787519
45728		7.754464	10.223496	-152.804938
45729		7.754262	10.314525	-152.836096
45730		7.735146	10.442058	-152.854324
45731		7.719867	10.552180	-152.856213
45732		7.741271	10.676182	-152.876272
45733		7.788837	10.963424	-152.895888
45734		7.770562	11.243951	-152.890139
45735		7.716768	11.425065	-152.939807
45736		7.726474	11.468996	-153.027949
45737		7.651190	11.452478	-153.126032
45738		7.555586	11.498013	-153.182334
45739		7.636438	11.695659	-153.247227
45740		7.684678	11.935628	-153.262293
45741		7.625232	12.123342	-153.253027
45742		7.628965	12.172252	-153.241028
45743		7.672302	12.129421	-153.211680
45744		7.728059	12.083939	-153.187227
45745		7.745798	12.116869	-153.162453
45746		7.750792	12.188292	-153.157924
45747		7.758228	12.267806	-153.148347
45748		7.783283	12.357721	-153.149340
45749		7.807678	12.446542	-153.117861
45750		7.840090	12.667674	-153.032624
45751		7.891064	13.053706	-152.872255
45752		8.102801	13.481282	-152.699579
45753		8.220042	14.062961	-152.620341
45754		8.330593	14.678489	-152.684205
45755		8.273222	15.351300	-152.799822
45756		8.208654	15.904799	-152.950738
45757		8.082924	16.294053	-153.072846
45758		7.909644	16.450544	-153.212109
45759		7.724489	16.661332	-153.329309
45760		7.613005	16.927576	-153.360887
45761		7.467185	17.165589	-153.362114
45762		7.282160	17.412287	-153.374414
45763		7.048522	17.475661	-153.349338
45764		6.917032	17.189205	-153.336939
45765		6.844710	16.669133	-153.442070
45766		6.711223	16.623637	-153.628626
45767		6.640439	16.784483	-153.640582
45768		6.612224	16.575003	-153.579825
45769		6.524898	16.153143	-153.610677
45770		6.445693	15.878549	-153.708103
45771		6.378855	15.663476	-153.825215
45772		6.357744	15.357378	-153.940132
45773		6.320533	15.084324	-154.014686
45774		6.332946	14.865218	-154.026070
45775		6.337113	14.701541	-154.052592
45776		6.459522	14.365404	-154.047299
45777		6.683479	14.007452	-154.013708
45778		6.925388	13.674198	-154.036134
45779		7.151405	13.322658	-154.156502
45780		7.324152	13.044174	-154.391877
45781		7.335895	12.954729	-154.690409
45782		7.413738	12.814058	-154.952261
45783		7.518721	12.654340	-155.213915
45784		7.619639	12.476269	-155.516016
45785		7.641147	12.337149	-155.876770
45786		7.554062	12.305602	-156.150580
45787		7.521055	12.189146	-156.270087
45788		7.502376	12.055500	-156.339485
45789		7.367880	12.063507	-156.432719
45790		7.276520	12.064947	-156.514098
45791		7.172128	11.991564	-156.651984
45792		7.171663	11.868567	-156.617484
45793		7.221909	11.727309	-156.502248
45794		7.354826	11.537768	-156.420729
45795		7.357510	11.465338	-156.462058
45796		7.424440	11.410835	-156.499521
45797		7.512033	11.396064	-156.477194
45798		7.517321	11.393438	-156.569153
45799		7.393194	11.398099	-156.793278
45800		7.203428	11.406487	-156.910511
45801		7.140948	11.396875	-156.919101
45802		7.221983	11.363820	-156.962401
45803		7.252771	11.347705	-157.015247
45804		7.188751	11.355097	-157.020804
45805		7.163850	11.345881	-157.007743
45806		7.237135	11.280848	-156.979549
45807		7.324388	11.138792	-156.963375
45808		7.497801	10.844041	-156.956804
45809		7.856227	10.296693	-156.928958
45810		8.385028	9.526785	-156.775663
45811		8.960798	8.507992	-156.652368
45812		9.556567	7.389548	-156.694839
45813		10.172929	5.852953	-156.759128
45814		10.655324	4.519431	-156.933434
45815		10.780035	3.570120	-157.065796
45816		10.664446	2.847956	-157.182427
45817		10.498001	1.681250	-157.396955
45818		10.477620	-0.047328	-157.447883
45819		10.220701	-1.090673	-157.397226
45820		10.131100	-1.674905	-157.354305
45821		10.083708	-2.569010	-157.251147
45822		10.009892	-3.762778	-157.109013
45823		9.958838	-4.494164	-156.879689
45824		9.958486	-4.716953	-156.741631
45825		9.908290	-4.960066	-156.771055
45826		9.885848	-5.362673	-156.838670
45827		9.810450	-5.562281	-156.833955
45828		9.751238	-5.448631	-156.818308
45829		9.749477	-5.265533	-156.907862
45830		9.852738	-5.019459	-156.979416
45831		9.749557	-4.945581	-157.017530
45832		9.582627	-4.844793	-157.166182
45833		9.448504	-4.474628	-157.360691
45834		9.184845	-4.808633	-157.525122
45835		8.882502	-5.136975	-157.682161
45836		8.591672	-5.334537	-157.927125
45837		8.221257	-5.504153	-158.105614
45838		7.715122	-5.626223	-158.217801
45839		7.302398	-5.593079	-158.413420
45840		6.998833	-5.444493	-158.565189
45841		6.767563	-5.201467	-158.675302
45842		6.600233	-4.970943	-158.761673
45843		6.488786	-4.794161	-158.803788
45844		6.403525	-4.645134	-158.825609
45845		6.382972	-4.548434	-158.841454
45846		6.379127	-4.487296	-158.855039
45847		6.365191	-4.439526	-158.874602
45848		6.330637	-4.379435	-158.898698
45849		6.300097	-4.323675	-158.925082
45850		6.289957	-4.277859	-158.939540
45851		6.275102	-4.251424	-158.937461
45852		6.262152	-4.230599	-158.928367
45853		6.277076	-4.205809	-158.915463
45854		6.309137	-4.182496	-158.892728
45855		6.249245	-4.115537	-158.944338
45856		6.189299	-4.127154	-159.085912
45857		6.155784	-4.149708	-159.207294
45858		6.138607	-4.167384	-159.345616
45859		6.105486	-4.177481	-159.472504
45860		6.100429	-4.182208	-159.592852
45861		6.066243	-4.188076	-159.690537
45862		6.029676	-4.214104	-159.803945
45863		5.975125	-4.242087	-159.906613
45864		5.881764	-4.274722	-159.952849
45865		5.831972	-4.300569	-159.969237
45866		5.886329	-4.302942	-159.979989
45867		5.900589	-4.273313	-159.988502
45868		5.867258	-4.255386	-159.989701
45869		5.830629	-4.256914	-160.017949
45870		5.809402	-4.250492	-160.030123
45871		5.811429	-4.255639	-160.007768
45872		5.812545	-4.264340	-159.978668
45873		5.853865	-4.262181	-159.955589
45874		5.914959	-4.251740	-159.950017
45875		5.927111	-4.254587	-159.966010
45876		5.923006	-4.256292	-160.034194
45877		5.874263	-4.252375	-160.123651
45878		5.781196	-4.238488	-160.257769
45879		5.731823	-4.230231	-160.379651
45880		5.666443	-4.209746	-160.473327
45881		5.548422	-4.175685	-160.564616
45882		5.420512	-4.136530	-160.662575
45883		5.295911	-4.075829	-160.737463
45884		5.195714	-3.991953	-160.809268
45885		5.110930	-3.927899	-160.825199
45886		5.071414	-3.854781	-160.737239
45887		5.199951	-3.789994	-160.647479
45888		5.498504	-3.718285	-160.465968
45889		5.752494	-3.564851	-160.203628
45890		5.912680	-3.451046	-159.826818
45891		6.099718	-3.346023	-159.486227
45892		6.265259	-3.180813	-159.218892
45893		6.336344	-2.966454	-158.993009
45894		6.327178	-2.747605	-158.782124
45895		6.250699	-2.518752	-158.612177
45896		6.149318	-2.247376	-158.539603
45897		6.020659	-1.937801	-158.427734
45898		5.846122	-1.562463	-158.323252
45899		5.569547	-1.209516	-158.274832
45900		5.247933	-0.872548	-158.215146
45901		5.039056	-0.596597	-158.083151
45902		4.983884	-0.367602	-157.928778
45903		4.984541	-0.232760	-157.779089
45904		4.828210	-0.212383	-157.628351
45905		4.628695	-0.272745	-157.561638
45906		4.375149	-0.460068	-157.540420
45907		4.470421	-0.831514	-157.598255
45908		5.003143	-1.338653	-157.538690
45909		5.455812	-1.477031	-157.443208
45910		5.515573	-1.293992	-157.406729
45911		5.459046	-1.212059	-157.431658
45912		5.482783	-1.124162	-157.508056
45913		5.550884	-1.059065	-157.659370
45914		5.557384	-1.076663	-157.858156
45915		5.560120	-1.109101	-158.094258
45916		5.539046	-1.104265	-158.401138
45917		5.439976	-1.178411	-158.711546
45918		5.463916	-1.271256	-158.954944
45919		5.694690	-1.306518	-159.105688
45920		5.954382	-1.324737	-159.229992
45921		5.994739	-1.310662	-159.394468
45922		5.852307	-1.319608	-159.544099
45923		5.780216	-1.355891	-159.670452
45924		5.792045	-1.414716	-159.735212
45925		5.884976	-1.496233	-159.750534
45926		5.985748	-1.563036	-159.738584
45927		6.019900	-1.604573	-159.728967
45928		6.038457	-1.659748	-159.747511
45929		6.012731	-1.744952	-159.769982
45930		5.924007	-1.828712	-159.777591
45931		5.761104	-1.966741	-159.800160
45932		5.608022	-1.914965	-159.728619
45933		4.999781	-1.466447	-159.351133
45934		4.492314	-0.797411	-158.893561
45935		4.263466	-0.258194	-158.453500
45936		4.117857	0.072165	-157.944826
45937		4.081103	0.243402	-157.506666
45938		4.294519	0.435957	-157.128980
45939		4.519523	0.587196	-156.593578
45940		4.705543	0.632851	-156.284563
45941		5.135074	0.783778	-156.031149
45942		6.122008	0.865454	-156.011958
45943		7.239764	1.120527	-156.014139
45944		7.952567	1.231618	-155.872228
45945		7.831013	1.123124	-155.571871
45946		7.390003	1.287935	-155.140086
45947		7.081179	1.840481	-154.669849
45948		7.158466	2.717479	-154.435380
45949		7.566887	3.732868	-154.280395
45950		7.865286	4.906611	-153.950395
45951		8.246796	5.975911	-153.667681
45952		8.307550	6.899808	-153.286151
45953		8.164075	7.733897	-152.804688
45954		7.991046	8.455421	-152.335926
45955		7.905740	9.128638	-151.916548
45956		7.830908	9.689264	-151.600008
45957		7.722568	10.421301	-151.372780
45958		7.568716	11.355706	-151.278222
45959		7.628310	11.697563	-151.300499
45960		7.527227	11.879134	-151.413004
45961		7.392174	11.919976	-151.517670
45962		7.394663	11.822109	-151.609176
45963		7.463756	11.573395	-151.693308
45964		7.563507	11.379580	-151.788223
45965		7.653913	11.270601	-151.891908
45966		7.720341	11.185710	-151.981783
45967		7.820279	11.172658	-152.093446
45968		7.882272	11.157255	-152.239221
45969		7.904898	11.133970	-152.405741
45970		7.924156	11.103517	-152.521813
45971		8.017407	11.104194	-152.580400
45972		8.117438	11.148521	-152.612810
45973		8.177142	11.204237	-152.625775
45974		8.217474	11.265705	-152.642755
45975		8.294937	11.343120	-152.697705
45976		8.344283	11.459891	-152.758666
45977		8.358606	11.600850	-152.827208
45978		8.343868	11.647613	-153.005843
45979		8.385360	11.623012	-153.298597
45980		8.273098	11.695266	-153.636650
45981		8.351265	11.986423	-153.908545
45982		8.347151	12.440697	-154.028891
45983		8.243242	12.753261	-154.156790
45984		8.078533	13.019497	-154.315389
45985		8.152203	13.343088	-154.471387
45986		8.176458	13.648207	-154.628002
45987		8.126959	13.912886	-154.783485
45988		8.082886	14.177085	-154.894108
45989		8.133326	14.463977	-154.962549
45990		8.224833	14.720599	-155.081426
45991		8.224907	14.979270	-155.246419
45992		8.154366	15.297933	-155.392759
45993		8.113868	15.586947	-155.487530
45994		8.086776	15.750100	-155.679888
45995		8.097952	15.629951	-156.023850
45996		8.052923	15.309543	-156.536835
45997		7.869826	15.079441	-157.102010
45998		7.651727	14.930392	-157.544590
45999		7.494920	14.808395	-157.719509
46000		7.416961	14.757824	-157.635961
46001		7.456421	14.626162	-157.468580
46002		7.622005	14.376709	-157.249516
46003		7.683071	14.375869	-156.818321
46004		7.710884	14.368102	-156.183966
46005		7.795836	14.110454	-155.638283
46006		7.971001	14.010948	-155.512615
46007		7.912745	14.322734	-155.725560
46008		7.689479	14.449773	-155.940980
46009		7.575838	14.279547	-156.043255
46010		7.601289	13.860291	-156.079540
46011		7.623130	13.528739	-156.203821
46012		7.659250	13.218020	-156.387629
46013		7.748381	12.933455	-156.569794
46014		7.766681	12.638016	-156.750955
46015		7.764656	12.439272	-156.840337
46016		7.748917	12.279597	-156.913833
46017		7.771193	12.132407	-156.994120
46018		7.734502	11.954162	-157.091470
46019		7.749065	11.751307	-157.088109
46020		7.837172	11.570121	-157.023229
46021		7.945943	11.407009	-156.996007
46022		8.029373	11.256410	-157.018934
46023		7.996130	11.175595	-157.047359
46024		8.122062	10.921091	-156.867174
46025		8.333312	10.591288	-156.497906
46026		8.565570	10.280175	-156.158526
46027		8.745940	10.018585	-155.931071
46028		8.988162	9.633015	-155.807616
46029		9.256892	9.342573	-155.721860
46030		9.389928	9.214138	-155.769198
46031		9.414295	9.118666	-155.965953
46032		9.399906	9.107751	-156.212037
46033		9.365618	9.091607	-156.438993
46034		9.348653	9.089476	-156.584837
46035		9.381924	9.023039	-156.650606
46036		9.515710	8.780687	-156.666254
46037		9.553954	8.721633	-156.692001
46038		9.491947	8.834346	-156.681668
46039		9.411176	8.838756	-156.677447
46040		9.393528	8.654895	-156.679190
46041		9.389805	8.685910	-156.548522
46042		9.397346	8.702512	-156.427083
46043		9.311598	8.660087	-156.403561
46044		9.380566	8.634589	-156.333701
46045		9.455679	8.657576	-156.246390
46046		9.571796	8.628583	-156.156989
46047		9.650334	8.623566	-156.083449
46048		9.790705	8.503664	-156.037121
46049		9.855658	8.536737	-156.027934
46050		9.846502	8.474164	-156.054582
46051		9.865011	8.292692	-156.123031
46052		10.050316	7.798073	-156.201189
46053		10.406985	7.098257	-156.263108
46054		10.804951	6.142475	-156.296767
46055		11.322504	4.893732	-156.417947
46056		11.942224	3.072331	-156.547677
46057		12.257710	1.117207	-156.968440
46058		12.303512	-0.408992	-157.392469
46059		12.314665	-1.468369	-157.541467
46060		12.107223	-2.454050	-157.417654
46061		11.678200	-3.712342	-157.419515
46062		11.343714	-4.616689	-157.498927
46063		11.381290	-4.826290	-157.436776
46064		11.523839	-4.954686	-157.320542
46065		11.537684	-5.127671	-157.223281
46066		11.633409	-5.167088	-157.275997
46067		11.553972	-5.290150	-157.465786
46068		11.510926	-5.442297	-157.732104
46069		11.518462	-5.383229	-157.975101
46070		11.533419	-5.267446	-158.128860
46071		11.446611	-5.448145	-158.375357
46072		11.347434	-5.686200	-158.688311
46073		11.259856	-5.855144	-158.963129
46074		11.143523	-6.223074	-159.287544
46075		11.036661	-7.031802	-159.702235
46076		10.857600	-7.822334	-160.046339
46077		10.560896	-8.162879	-160.323215
46078		10.241209	-8.125343	-160.448675
46079		9.910175	-7.967557	-160.539045
46080		9.502793	-7.636133	-160.597790
46081		9.055606	-7.119247	-160.716907
46082		8.631434	-6.726667	-160.772383
46083		8.367897	-6.417625	-160.805552
46084		8.209415	-6.083994	-160.819267
46085		8.068508	-5.818033	-160.845753
46086		7.907374	-5.626798	-160.867098
46087		7.753314	-5.484471	-160.875418
46088		7.678824	-5.377135	-160.890406
46089		7.613902	-5.302033	-160.884764
46090		7.579186	-5.246539	-160.877246
46091		7.584196	-5.220274	-160.863340
46092		7.595964	-5.208066	-160.825696
46093		7.623396	-5.235777	-160.768900
46094		7.669418	-5.282153	-160.704174
46095		7.614286	-5.332695	-160.674354
46096		7.576822	-5.411209	-160.635973
46097		7.553036	-5.479519	-160.612188
46098		7.465609	-5.540515	-160.593893
46099		7.401887	-5.570344	-160.604148
46100		7.355289	-5.587934	-160.628701
46101		7.309639	-5.608129	-160.643586
46102		7.286450	-5.638808	-160.622642
46103		7.279505	-5.647226	-160.547597
46104		7.281412	-5.661142	-160.452523
46105		7.272681	-5.676704	-160.395494
46106		7.249141	-5.688090	-160.359335
46107		7.212863	-5.690637	-160.325433
46108		7.222157	-5.703144	-160.269277
46109		7.221794	-5.711170	-160.191026
46110		7.222637	-5.723037	-160.133621
46111		7.219063	-5.725660	-160.099630
46112		7.236147	-5.729098	-160.076950
46113		7.293327	-5.723316	-160.047390
46114		7.304087	-5.755886	-160.043207
46115		7.261157	-5.786296	-160.088134
46116		7.220822	-5.795439	-160.123257
46117		7.215085	-5.797695	-160.163766
46118		7.203392	-5.808681	-160.229528
46119		7.128326	-5.817851	-160.317843
46120		7.032687	-5.837179	-160.442346
46121		6.984712	-5.874199	-160.558270
46122		7.005079	-5.873741	-160.584019
46123		7.035723	-5.867956	-160.551866
46124		6.994685	-5.866253	-160.514693
46125		6.971494	-5.848699	-160.467315
46126		7.007022	-5.810026	-160.381430
46127		7.044250	-5.763992	-160.247134
46128		7.071743	-5.712126	-160.019712
46129		7.110634	-5.695016	-159.743031
46130		7.188318	-5.660768	-159.492003
46131		7.234985	-5.572518	-159.317081
46132		7.201030	-5.450751	-159.244911
46133		7.061787	-5.330510	-159.184126
46134		6.961577	-5.241971	-159.101641
46135		6.923680	-5.139616	-158.988738
46136		6.872261	-5.025466	-158.947471
46137		6.744830	-4.892395	-158.861351
46138		6.706653	-4.819330	-158.622598
46139		6.880510	-4.778317	-158.322307
46140		7.021167	-4.720698	-158.102063
46141		6.996658	-4.605941	-157.999799
46142		6.859951	-4.436597	-158.005573
46143		6.668642	-4.264742	-158.067609
46144		6.507947	-4.092187	-158.119257
46145		6.438806	-3.927886	-158.207642
46146		6.416677	-3.760203	-158.249474
46147		6.414339	-3.512574	-158.260471
46148		6.437263	-3.184055	-158.206926
46149		6.481445	-2.903908	-158.084176
46150		6.498260	-2.674350	-157.903497
46151		6.543238	-2.492570	-157.707633
46152		6.565642	-2.351128	-157.462177
46153		6.608174	-2.235408	-157.229409
46154		6.589571	-2.263123	-157.041578
46155		6.508875	-2.389186	-156.940613
46156		6.718472	-2.724575	-156.905675
46157		7.084579	-2.965462	-156.853262
46158		7.186026	-2.826178	-156.861829
46159		7.088167	-2.670100	-156.972011
46160		6.995923	-2.549340	-157.140674
46161		6.977367	-2.427788	-157.357279
46162		6.953461	-2.357223	-157.607173
46163		6.887624	-2.352063	-157.868947
46164		6.926837	-2.366447	-158.117014
46165		6.922606	-2.325442	-158.322815
46166		6.823662	-2.309332	-158.436637
46167		6.782721	-2.319528	-158.470189
46168		6.902999	-2.333844	-158.462004
46169		7.099436	-2.348176	-158.437512
46170		7.258132	-2.405622	-158.426867
46171		7.346414	-2.534062	-158.425015
46172		7.336307	-2.738696	-158.424238
46173		7.225766	-2.892501	-158.395697
46174		7.138515	-2.978727	-158.395522
46175		7.052763	-3.062284	-158.331210
46176		6.943305	-2.998177	-158.184105
46177		6.963758	-2.931892	-158.055226
46178		7.303577	-2.940978	-157.889056
46179		7.622012	-2.895230	-157.617509
46180		7.871294	-2.583685	-157.365444
46181		8.104281	-2.218787	-157.057952
46182		8.283021	-1.929202	-156.603656
46183		8.265016	-1.726059	-156.274551
46184		8.265689	-1.765585	-156.013970
46185		8.342143	-2.069518	-155.803801
46186		8.727073	-2.379544	-155.631889
46187		9.317621	-2.500926	-155.525399
46188		9.663427	-2.696036	-155.371261
46189		9.804005	-2.807494	-155.071355
46190		9.831601	-2.733264	-154.524232
46191		9.872387	-2.365585	-153.967179
46192		10.005042	-1.844516	-153.641917
46193		10.106697	-1.304256	-153.496317
46194		10.035766	-0.602615	-153.371086
46195		10.046727	0.152416	-153.141988
46196		10.116900	0.892498	-152.828325
46197		10.006153	1.846986	-152.490198
46198		9.829821	3.235028	-152.302527
46199		9.529966	4.909158	-152.322985
46200		9.500615	6.136568	-152.551769
46201		9.458133	7.286758	-152.877949
46202		9.217663	8.383255	-153.234894
46203		8.987606	9.192066	-153.427385
46204		8.989989	9.003320	-153.494902
46205		8.965436	8.850559	-153.633004
46206		8.970059	8.889431	-153.766316
46207		9.014804	8.879708	-153.877680
46208		9.021309	8.780257	-153.977904
46209		8.976006	8.742139	-154.026976
46210		8.974211	8.691054	-154.068243
46211		8.988676	8.623836	-154.094666
46212		9.001329	8.670557	-154.083425
46213		9.020511	8.768912	-154.065814
46214		9.014043	8.860173	-154.052889
46215		8.990903	8.935093	-154.037338
46216		8.983014	9.027711	-154.030059
46217		8.999516	9.113514	-154.028869
46218		9.016229	9.209693	-154.031656
46219		9.031337	9.312787	-154.029292
46220		9.048825	9.387975	-154.025586
46221		9.113754	9.419217	-154.027423
46222		9.159766	9.438155	-154.023012
46223		9.175332	9.505358	-154.015013
46224		9.174555	9.579624	-154.013945
46225		9.188308	9.624599	-154.015637
46226		9.223567	9.709504	-154.022440
46227		9.240555	9.864001	-154.034744
46228		9.259438	10.054571	-154.039778
46229		9.291403	10.223393	-154.054183
46230		9.315741	10.393037	-154.088073
46231		9.321411	10.547145	-154.117981
46232		9.289995	10.679295	-154.149154
46233		9.096650	11.026432	-154.329836
46234		8.873969	11.526118	-154.519109
46235		8.824280	11.882081	-154.419960
46236		9.185189	12.078231	-154.236896
46237		9.344842	12.462193	-154.217033
46238		9.296881	12.812706	-154.296107
46239		9.148638	13.108833	-154.371426
46240		9.018001	13.286943	-154.409661
46241		8.939001	13.465048	-154.362242
46242		8.840976	13.636176	-154.403211
46243		8.690645	13.757970	-154.493595
46244		8.506447	13.933223	-154.505666
46245		8.381711	14.023815	-154.447781
46246		8.237291	14.108732	-154.442907
46247		8.099778	14.192369	-154.404678
46248		7.959660	14.067255	-154.313848
46249		7.767083	13.736905	-154.279794
46250		7.738686	13.300836	-154.222473
46251		8.034741	12.821733	-154.101250
46252		8.633730	12.081552	-153.693231
46253		9.538104	10.857898	-153.125487
46254		10.433167	9.567882	-152.645847
46255		10.997078	8.824420	-152.528487
46256		11.045962	8.532840	-152.795919
46257		10.912961	8.313567	-153.148588
46258		10.830611	7.969727	-153.388798
46259		10.704328	7.664249	-153.603384
46260		10.401878	7.585745	-153.864992
46261		10.034980	7.582493	-154.081969
46262		9.728420	7.522632	-154.209755
46263		9.580145	7.393133	-154.284426
46264		9.544051	7.216167	-154.277588
46265		9.485421	7.125985	-154.271293
46266		9.426561	7.053878	-154.278782
46267		9.594183	6.704426	-154.098234
46268		9.895814	6.283131	-153.888980
46269		10.066308	6.070849	-153.818256
46270		10.093518	6.014653	-153.944732
46271		10.101932	5.924681	-154.224349
46272		10.052095	5.858877	-154.498747
46273		9.966525	5.845631	-154.658954
46274		9.886987	5.815807	-154.812015
46275		9.842540	5.761640	-155.101195
46276		9.761778	5.800003	-155.418797
46277		9.693622	5.832357	-155.589145
46278		9.723652	5.728750	-155.662899
46279		9.677285	5.730650	-155.808795
46280		9.553249	5.835291	-156.020194
46281		9.477719	5.842526	-156.211263
46282		9.430202	5.802395	-156.372397
46283		9.259249	6.002331	-156.514201
46284		9.137358	6.240731	-156.621285
46285		9.026274	6.519314	-156.689034
46286		8.907902	6.561153	-156.677900
46287		9.070353	6.360764	-156.594726
46288		9.131820	6.332627	-156.507641
46289		9.195249	6.326289	-156.445274
46290		9.302258	6.340963	-156.425883
46291		9.321896	6.364709	-156.423143
46292		9.325791	6.332191	-156.437502
46293		9.339915	6.245525	-156.454103
46294		9.410865	6.136265	-156.462581
46295		9.610802	5.890278	-156.450317
46296		9.997295	5.295214	-156.464090
46297		10.434650	4.652303	-156.508137
46298		10.959689	3.776796	-156.717306
46299		11.690039	2.313120	-156.891179
46300		12.281754	0.015951	-157.106459
46301		12.366203	-1.924599	-157.387151
46302		12.300613	-3.047816	-157.369863
46303		12.052768	-3.920373	-157.229720
46304		11.748790	-5.103899	-157.132381
46305		11.474787	-6.044795	-157.247192
46306		11.409625	-6.476933	-157.398605
46307		11.501778	-6.574709	-157.478199
46308		11.466223	-6.846407	-157.529324
46309		11.187128	-7.195266	-157.653576
46310		11.000943	-7.188911	-157.897095
46311		10.961752	-6.975505	-158.118508
46312		10.794420	-6.966866	-158.391847
46313		10.487484	-7.136235	-158.677240
46314		10.088649	-7.698075	-158.989106
46315		9.765349	-8.144578	-159.223750
46316		9.600190	-8.192425	-159.399682
46317		9.168398	-7.969521	-159.466135
46318		8.583012	-7.480037	-159.581024
46319		7.823606	-6.575822	-159.791630
46320		7.168774	-5.977145	-159.916563
46321		6.672204	-5.479719	-160.043733
46322		6.433407	-5.080809	-160.145073
46323		6.244219	-4.820268	-160.180541
46324		6.141636	-4.646967	-160.197293
46325		6.126659	-4.554151	-160.190807
46326		6.133002	-4.497446	-160.182144
46327		6.122631	-4.436412	-160.186157
46328		6.111715	-4.382751	-160.200056
46329		6.075937	-4.340793	-160.211354
46330		6.058869	-4.309204	-160.222028
46331		6.076460	-4.287849	-160.221690
46332		6.100950	-4.275320	-160.206181
46333		6.139746	-4.265760	-160.170554
46334		6.185776	-4.257087	-160.100881
46335		6.217359	-4.304419	-160.024288
46336		6.134579	-4.345596	-160.176456
46337		6.069277	-4.347958	-160.327992
46338		6.130635	-4.347831	-160.440475
46339		6.161583	-4.347726	-160.511331
46340		6.058500	-4.355117	-160.542995
46341		5.983240	-4.372431	-160.578824
46342		5.924434	-4.380811	-160.612737
46343		5.875296	-4.381353	-160.655909
46344		5.857872	-4.378164	-160.706158
46345		5.865736	-4.388154	-160.741366
46346		5.845086	-4.393738	-160.770686
46347		5.748702	-4.410751	-160.819065
46348		5.661263	-4.441937	-160.824483
46349		5.628933	-4.461753	-160.794998
46350		5.623098	-4.446701	-160.762575
46351		5.601273	-4.428019	-160.784534
46352		5.605500	-4.417664	-160.808652
46353		5.644030	-4.406090	-160.798022
46354		5.656353	-4.384889	-160.771715
46355		5.657133	-4.359449	-160.733415
46356		5.669457	-4.346219	-160.712532
46357		5.667898	-4.329464	-160.749836
46358		5.622248	-4.309217	-160.811469
46359		5.581845	-4.287613	-160.884300
46360		5.560704	-4.276080	-160.929874
46361		5.538437	-4.258180	-160.952104
46362		5.528424	-4.231661	-160.959571
46363		5.543427	-4.211695	-160.965692
46364		5.546507	-4.194939	-160.983911
46365		5.525522	-4.162780	-161.023827
46366		5.506039	-4.137509	-161.065117
46367		5.507486	-4.108524	-161.081577
46368		5.501631	-4.074139	-161.073555
46369		5.476050	-4.037087	-161.060876
46370		5.471298	-3.999683	-161.033080
46371		5.477366	-3.967261	-160.981444
46372		5.458719	-3.917595	-160.945757
46373		5.374167	-3.846476	-160.930800
46374		5.297188	-3.795120	-160.900291
46375		5.286135	-3.762309	-160.815405
46376		5.292849	-3.725263	-160.704251
46377		5.280555	-3.654818	-160.609610
46378		5.225408	-3.559713	-160.490768
46379		5.216619	-3.509080	-160.324705
46380		5.261432	-3.448172	-160.137080
46381		5.343827	-3.356646	-160.015006
46382		5.349977	-3.260794	-159.931766
46383		5.285472	-3.175439	-159.855837
46384		5.292984	-3.091742	-159.758953
46385		5.363484	-2.987758	-159.660868
46386		5.447843	-2.887514	-159.541574
46387		5.484077	-2.780943	-159.502703
46388		5.428248	-2.660379	-159.484925
46389		5.309386	-2.495182	-159.526819
46390		5.230679	-2.326599	-159.529720
46391		5.198523	-2.125135	-159.521849
46392		5.106351	-1.910462	-159.520917
46393		4.995252	-1.733302	-159.440096
46394		4.977817	-1.529434	-159.310695
46395		4.974472	-1.343778	-159.168419
46396		4.994047	-1.219199	-158.969464
46397		5.072074	-1.200981	-158.738368
46398		5.129290	-1.286400	-158.543385
46399		5.165559	-1.418590	-158.461375
46400		5.446432	-1.753016	-158.494317
46401		5.822563	-2.067961	-158.493250
46402		5.971153	-2.005375	-158.533957
46403		5.889722	-1.859628	-158.707244
46404		5.768115	-1.771363	-158.848002
46405		5.849440	-1.752773	-158.928388
46406		6.037287	-1.741119	-159.021247
46407		6.159326	-1.668805	-159.125329
46408		6.221695	-1.517550	-159.274932
46409		6.290434	-1.577691	-159.449397
46410		6.573728	-1.952120	-159.524811
46411		7.031170	-2.219943	-159.539868
46412		7.227641	-2.198475	-159.613663
46413		6.857569	-2.132813	-159.768522
46414		6.420104	-2.132739	-159.874797
46415		6.261679	-2.165621	-159.897504
46416		6.321685	-2.211418	-159.859513
46417		6.412200	-2.229058	-159.813309
46418		6.441229	-2.203857	-159.767485
46419		6.444641	-2.186131	-159.739930
46420		6.458260	-2.180944	-159.730124
46421		6.490711	-2.204665	-159.736589
46422		6.532862	-2.257051	-159.760111
46423		6.508185	-2.320573	-159.816631
46424		6.433076	-2.437014	-159.889409
46425		6.384677	-2.603703	-159.947682
46426		6.438285	-2.774757	-160.020905
46427		6.474311	-2.969829	-160.086942
46428		6.316354	-3.152339	-160.054956
46429		6.178874	-3.469346	-159.906775
46430		6.232872	-3.915434	-159.666631
46431		6.400665	-4.289263	-159.389991
46432		6.514475	-4.436266	-159.053735
46433		6.830730	-4.531131	-158.863067
46434		7.308039	-4.587210	-158.736905
46435		7.691265	-4.514752	-158.586824
46436		8.358407	-4.321622	-158.335630
46437		9.047264	-4.148804	-158.056935
46438		9.802163	-4.459718	-157.786515
46439		10.531603	-4.685744	-157.278151
46440		10.990327	-4.991948	-156.701633
46441		10.895566	-5.183840	-155.985389
46442		10.753816	-4.978293	-155.158104
46443		10.652225	-4.851954	-154.494373
46444		10.405381	-4.467717	-154.152439
46445		10.358245	-3.571926	-153.824539
46446		10.438553	-2.217406	-153.383830
46447		10.445260	-0.748506	-153.033208
46448		10.237495	0.807422	-152.822465
46449		10.020119	2.593451	-152.730772
46450		10.036966	4.246914	-152.840579
46451		10.150881	5.360921	-152.998545
46452		10.159347	5.857261	-153.108293
46453		10.138599	5.706248	-153.173656
46454		10.140154	5.400719	-153.264299
46455		10.213372	5.294162	-153.386429
46456		10.289959	5.341081	-153.531246
46457		10.296101	5.398994	-153.679841
46458		10.234886	5.350424	-153.819089
46459		10.172122	5.209513	-153.936057
46460		10.116406	5.231084	-153.980359
46461		10.171431	5.402754	-153.975289
46462		10.239014	5.492652	-153.959248
46463		10.233138	5.523580	-153.932613
46464		10.232131	5.563112	-153.906400
46465		10.258660	5.569211	-153.897378
46466		10.266459	5.611869	-153.900673
46467		10.279534	5.701103	-153.904317
46468		10.305939	5.734612	-153.924705
46469		10.312453	5.714857	-153.949129
46470		10.345074	5.758736	-153.970873
46471		10.386215	5.883829	-153.991487
46472		10.411044	5.956894	-154.008541
46473		10.414803	5.982598	-154.016008
46474		10.443193	6.029645	-154.019368
46475		10.470057	6.120081	-154.032550
46476		10.471051	6.245870	-154.050362
46477		10.468485	6.376125	-154.063643
46478		10.493620	6.437665	-154.073053
46479		10.534773	6.447495	-154.083481
46480		10.561100	6.484490	-154.098734
46481		10.589039	6.570099	-154.097056
46482		10.653088	6.653812	-154.099507
46483		10.722004	6.792566	-154.120942
46484		10.794918	7.031180	-154.160892
46485		10.834382	7.286726	-154.161802
46486		10.852163	7.402762	-154.097560
46487		10.815041	7.490510	-153.989111
46488		10.843184	7.705972	-153.926003
46489		10.948330	7.946657	-153.822948
46490		11.007418	8.117612	-153.664388
46491		11.039277	8.426246	-153.496641
46492		11.130489	8.826379	-153.311688
46493		11.254352	9.069120	-153.132683
46494		11.262100	9.383069	-152.950269
46495		11.227530	9.763884	-152.709843
46496		11.214518	10.197581	-152.440876
46497		11.217236	10.735945	-152.290273
46498		11.207383	10.983197	-152.196349
46499		11.275385	11.081419	-152.171864
46500		11.185951	10.931454	-152.297842
46501		10.678053	11.106631	-152.452179
46502		10.408756	11.384403	-152.496105
46503		10.226330	11.563516	-152.508704
46504		10.099392	11.714740	-152.411832
46505		9.886306	11.333499	-152.398405
46506		9.666860	10.764744	-152.377006
46507		9.758723	10.274116	-152.458004
46508		9.718285	10.370201	-152.516841
46509		9.706755	10.167293	-152.599521
46510		9.614015	9.745488	-152.710505
46511		9.495050	9.397327	-152.798470
46512		9.451606	9.073777	-152.910367
46513		9.404946	8.640935	-153.092735
46514		9.344691	8.264151	-153.282725
46515		9.236497	8.011667	-153.412838
46516		9.184170	7.864771	-153.402413
46517		9.165380	7.629429	-153.381687
46518		9.120212	7.322576	-153.464859
46519		9.127183	7.162387	-153.573792
46520		9.191317	6.978768	-153.694697
46521		9.365587	6.774463	-153.775262
46522		9.441126	6.682330	-153.860764
46523		9.515424	6.424868	-153.927893
46524		9.747304	6.086251	-153.922502
46525		9.891175	5.981433	-153.963380
46526		9.969243	5.799769	-153.900947
46527		10.417225	5.056839	-153.463399
46528		10.763758	4.639207	-153.056474
46529		10.590133	4.933974	-152.974248
46530		10.339040	5.246764	-153.111366
46531		10.174830	5.262047	-153.338128
46532		10.105445	5.375769	-153.590056
46533		9.904931	5.600477	-153.851666
46534		9.615710	5.780352	-154.045824
46535		9.468148	5.898009	-154.185592
46536		9.404444	5.944663	-154.283444
46537		9.359014	5.965372	-154.410686
46538		9.298670	5.980937	-154.559418
46539		9.237171	6.084460	-154.648473
46540		9.256215	6.092737	-154.574547
46541		9.307111	6.118419	-154.498042
46542		9.353128	6.194001	-154.424077
46543		9.330417	6.125669	-154.392910
46544		9.284098	6.032105	-154.421726
46545		9.124281	6.028844	-154.393798
46546		9.133296	5.903923	-154.385269
46547		9.316204	5.670179	-154.391995
46548		9.535034	5.413470	-154.388751
46549		9.717993	5.121523	-154.403919
46550		9.901807	4.646070	-154.454513
46551		10.061184	4.227516	-154.499912
46552		10.179454	3.964122	-154.514616
46553		10.370778	3.500937	-154.459356
46554		10.690173	2.859192	-154.416665
46555		11.025576	2.234874	-154.412126
46556		11.074413	1.611757	-154.473386
46557		11.289199	0.393707	-154.566800
46558		11.375002	-1.017544	-154.527967
46559		11.261817	-2.249741	-154.508773
46560		11.087732	-3.258445	-154.632965
46561		11.027853	-4.012596	-154.642685
46562		11.089457	-4.418725	-154.605928
46563		11.123928	-4.638291	-154.636010
46564		11.107903	-4.710463	-154.769616
46565		11.054110	-4.603038	-154.970688
46566		11.107179	-4.371198	-155.133407
46567		11.076792	-4.249154	-155.220384
46568		10.938355	-4.213794	-155.298324
46569		10.758646	-4.164100	-155.364382
46570		10.527839	-4.207224	-155.383066
46571		10.281572	-4.323084	-155.505015
46572		10.055281	-4.787152	-155.767181
46573		9.762276	-5.845068	-155.888180
46574		9.316079	-6.335256	-155.955909
46575		8.764539	-6.029735	-155.941940
46576		8.124390	-5.761009	-155.945288
46577		7.655971	-5.494438	-155.974094
46578		7.413455	-5.200850	-156.006916
46579		7.339033	-4.943470	-156.052691
46580		7.237406	-4.728871	-156.066868
46581		7.206657	-4.579848	-156.089382
46582		7.193956	-4.454148	-156.121061
46583		7.156520	-4.380517	-156.154696
46584		7.144586	-4.348751	-156.181061
46585		7.146412	-4.313379	-156.200422
46586		7.150437	-4.273460	-156.221067
46587		7.143825	-4.246193	-156.240033
46588		7.141521	-4.221749	-156.254898
46589		7.112738	-4.171520	-156.269524
46590		7.077684	-4.136818	-156.281778
46591		7.087577	-4.133016	-156.285809
46592		7.113829	-4.132322	-156.290550
46593		7.071103	-4.113587	-156.306671
46594		6.967243	-4.071144	-156.408276
46595		6.854614	-4.040568	-156.621405
46596		6.756400	-4.029870	-156.892747
46597		6.677988	-4.037184	-157.144929
46598		6.719323	-4.055957	-157.338299
46599		6.718530	-4.049032	-157.526573
46600		6.709274	-4.048775	-157.701643
46601		6.715526	-4.029073	-157.836757
46602		6.714655	-4.009596	-157.947603
46603		6.726219	-3.993498	-158.073888
46604		6.711980	-3.979241	-158.218331
46605		6.700523	-3.969839	-158.332026
46606		6.724760	-3.950843	-158.415121
46607		6.750048	-3.922317	-158.451884
46608		6.785959	-3.905873	-158.456311
46609		6.794663	-3.915683	-158.457690
46610		6.756989	-3.929347	-158.491629
46611		6.721381	-3.945556	-158.568714
46612		6.699657	-3.958159	-158.672007
46613		6.685509	-3.965380	-158.785456
46614		6.684354	-3.955963	-158.876357
46615		6.663992	-3.936510	-158.964256
46616		6.642687	-3.928492	-159.031412
46617		6.660391	-3.910570	-159.084577
46618		6.691808	-3.889333	-159.135374
46619		6.678170	-3.880694	-159.234897
46620		6.646639	-3.888902	-159.300122
46621		6.687190	-3.905285	-159.299037
46622		6.810181	-3.976708	-159.251511
46623		6.859749	-4.044266	-159.190429
46624		6.747118	-4.065581	-159.184590
46625		6.581568	-4.033935	-159.210151
46626		6.500591	-3.973527	-159.193179
46627		6.379114	-3.852402	-159.193657
46628		6.102806	-3.686366	-159.256194
46629		5.741455	-3.513715	-159.400631
46630		5.388190	-3.363930	-159.477302
46631		5.158830	-3.203876	-159.476567
46632		5.054840	-3.087817	-159.350816
46633		4.988942	-3.110665	-159.075519
46634		4.964903	-3.180578	-158.753573
46635		4.973690	-3.153485	-158.401031
46636		4.960452	-3.059147	-158.027293
46637		4.930630	-2.934202	-157.706701
46638		4.889819	-2.738425	-157.517021
46639		4.847716	-2.529906	-157.369520
46640		4.867352	-2.342288	-157.194967
46641		4.931442	-2.242199	-157.017336
46642		4.881038	-2.342791	-156.906322
46643		4.808086	-2.706080	-156.890678
46644		5.498543	-3.620100	-156.951582
46645		6.417256	-4.118801	-156.928579
46646		6.857219	-3.966050	-157.011664
46647		6.986273	-3.727832	-157.229993
46648		6.921161	-3.591081	-157.570978
46649		6.845286	-3.427086	-157.976584
46650		6.926704	-3.181102	-158.367398
46651		7.069217	-3.025954	-158.719346
46652		7.093329	-3.033151	-158.992857
