// General information: 
//  MT Manager version: 2022.2.0 
//  XDA version: 2022.2.0 build 7381 rev 124627 built on 2023-07-19
// Device information: 
//  DeviceId: 00B447F7
//  ProductCode: MTW2-3A7G6
//  Firmware Version: 4.3.5
//  Hardware Version: 2.0.0
// Device settings: 
//  Filter Profile: human(46.1)
//  Option Flags: Orientation Smoother Disabled, Position/Velocity Smoother Disabled, Continuous Zero Rotation Update Disabled, AHS Disabled, ICC Disabled
// Coordinate system: ENU
PacketCounter	SampleTimeFine	Roll	Pitch	Yaw
04173		18.280916	12.349312	-161.409706
04174		18.240848	12.367649	-161.427864
04175		18.234187	12.377509	-161.449176
04176		18.213053	12.399589	-161.475042
04177		18.209259	12.422586	-161.505684
04178		18.392119	12.475518	-161.498789
04179		18.769433	12.580280	-161.471409
04180		19.071089	12.686834	-161.494128
04181		19.241884	12.821637	-161.561621
04182		19.328016	12.952674	-161.627500
04183		19.465357	13.034720	-161.646719
04184		19.632119	13.054675	-161.657673
04185		19.667375	13.068025	-161.687367
04186		19.663211	13.152600	-161.725421
04187		19.678590	13.268566	-161.776926
04188		19.707259	13.379492	-161.852500
04189		19.675056	13.522021	-161.925562
04190		19.684366	13.714270	-161.963213
04191		19.713786	13.950832	-162.007882
04192		19.618698	14.233106	-162.087348
04193		19.426883	14.611912	-162.183984
04194		19.244292	14.998626	-162.292417
04195		18.990306	15.232320	-162.383726
04196		18.879934	15.396451	-162.510094
04197		18.746109	15.576064	-162.576272
04198		18.591517	15.794632	-162.673268
04199		18.412531	16.026561	-162.796506
04200		18.265141	16.266497	-162.904569
04201		18.082383	16.546843	-163.030371
04202		17.904094	16.845203	-163.232904
04203		17.708648	17.146160	-163.452106
04204		17.484482	17.460702	-163.663592
04205		17.266279	17.767393	-163.860642
04206		17.066082	17.957337	-164.002828
04207		17.013246	17.902747	-164.112051
04208		17.196902	17.735130	-164.226650
04209		17.192171	17.671501	-164.366627
04210		17.149206	17.638242	-164.484843
04211		17.158336	17.488523	-164.578216
04212		17.189952	17.330668	-164.621555
04213		17.146615	17.299345	-164.710790
04214		17.115589	17.278229	-164.803613
04215		17.112725	17.252932	-164.875839
04216		17.037288	17.332815	-164.922061
04217		16.909226	17.458267	-164.983217
04218		16.834994	17.516408	-165.073301
04219		16.810992	17.521333	-165.151790
04220		16.843691	17.502326	-165.231285
04221		16.923579	17.450478	-165.331424
04222		16.982141	17.402203	-165.435399
04223		17.027323	17.359480	-165.526740
04224		17.061616	17.328994	-165.579526
04225		17.095637	17.299944	-165.633220
04226		17.104669	17.262563	-165.720354
04227		17.104423	17.242655	-165.831208
04228		17.078369	17.235932	-165.967414
04229		17.052170	17.221090	-166.134718
04230		17.017751	17.232714	-166.311280
04231		16.863407	17.282124	-166.454182
04232		16.682645	17.331808	-166.532754
04233		16.539756	17.354921	-166.586097
04234		16.440528	17.355652	-166.663021
04235		16.386415	17.348251	-166.748622
04236		16.375284	17.317739	-166.815466
04237		16.372910	17.285878	-166.890195
04238		16.345899	17.266642	-166.985584
04239		16.309676	17.226727	-167.123176
04240		16.277621	17.158263	-167.189562
04241		16.358465	17.006639	-167.125127
04242		16.568580	16.798572	-167.018597
04243		16.697762	16.591936	-166.982453
04244		16.803379	16.360541	-167.032247
04245		17.021747	16.003426	-167.057077
04246		17.327919	15.545207	-167.041166
04247		17.525186	15.077011	-166.963313
04248		17.615047	14.571265	-166.767895
04249		17.666166	14.311541	-166.586379
04250		17.691896	14.246855	-166.508977
04251		17.776878	14.228674	-166.420059
04252		17.844081	14.248068	-166.345111
04253		17.860207	14.285402	-166.292480
04254		17.875562	14.290852	-166.234087
04255		17.978231	14.309481	-166.155454
04256		18.078833	14.350742	-166.079544
04257		18.032509	14.390744	-166.022989
04258		18.088336	14.345924	-165.927450
04259		18.483264	14.197620	-165.746133
04260		19.049685	13.920297	-165.512201
04261		19.458408	13.616806	-165.331431
04262		19.894260	13.135678	-165.129260
04263		20.294450	12.008761	-164.817652
04264		20.281500	10.207940	-164.504490
04265		20.043547	8.194593	-164.160358
04266		20.013097	6.373426	-163.788411
04267		20.046020	4.251803	-163.495894
04268		19.972188	1.817832	-163.261267
04269		20.044536	-0.782934	-163.162327
04270		20.220214	-3.545391	-163.067006
04271		20.924105	-5.832427	-162.956573
04272		21.653115	-7.508252	-162.909967
04273		21.867554	-8.735842	-162.921583
04274		22.012323	-9.026456	-162.999871
04275		22.405169	-8.252045	-163.012422
04276		22.815281	-7.315385	-162.906133
04277		23.203050	-6.908174	-162.942900
04278		23.789152	-7.391136	-163.008358
04279		24.012032	-8.334813	-162.945738
04280		23.967339	-8.462936	-162.927672
04281		23.769052	-7.403532	-162.833003
04282		23.926001	-5.885459	-162.777751
04283		24.339232	-5.096135	-163.067213
04284		24.513547	-4.789375	-163.380229
04285		24.430246	-4.442291	-163.302247
04286		24.177412	-4.432465	-163.134520
04287		23.927357	-4.522810	-163.086513
04288		23.910768	-4.466378	-163.088390
04289		24.016785	-4.336417	-163.090704
04290		23.947136	-4.263333	-163.102196
04291		23.733445	-4.254948	-163.093411
04292		23.533792	-4.212626	-163.127908
04293		23.391073	-4.138566	-163.184215
04294		23.320988	-4.081345	-163.208163
04295		23.282215	-4.025877	-163.224149
04296		23.147662	-3.910402	-163.255439
04297		22.961509	-3.853437	-163.271436
04298		22.937328	-3.820599	-163.270274
04299		22.953366	-3.740391	-163.293131
04300		22.881019	-3.659075	-163.310264
04301		22.818747	-3.587027	-163.345238
04302		22.841762	-3.608266	-163.340912
04303		22.980673	-3.595308	-163.343118
04304		23.075660	-3.566017	-163.381339
04305		23.100323	-3.562271	-163.432202
04306		23.134794	-3.610381	-163.443878
04307		23.203750	-3.661071	-163.459259
04308		23.300874	-3.675861	-163.506934
04309		23.396842	-3.728289	-163.559149
04310		23.520608	-3.760424	-163.632536
04311		23.673573	-3.760379	-163.721903
04312		23.735037	-3.787934	-163.828114
04313		23.655325	-3.881121	-163.898846
04314		23.631107	-3.940891	-163.933156
04315		23.663767	-3.991104	-164.024366
04316		23.721134	-4.024060	-164.135688
04317		23.841130	-4.051816	-164.214314
04318		23.933381	-4.099404	-164.304736
04319		23.982543	-4.136457	-164.465793
04320		23.932072	-4.178225	-164.570800
04321		23.866346	-4.246198	-164.578241
04322		23.915162	-4.292311	-164.579288
04323		24.031460	-4.283491	-164.607245
04324		24.086027	-4.294097	-164.664190
04325		24.086247	-4.343891	-164.701215
04326		24.008164	-4.389411	-164.727334
04327		23.915560	-4.480577	-164.776166
04328		23.878168	-4.531719	-164.871630
04329		23.760347	-4.583172	-164.944795
04330		23.577598	-4.624766	-165.000141
04331		23.507044	-4.630507	-164.969181
04332		23.430699	-4.628104	-164.953159
04333		23.237991	-4.655690	-164.888556
04334		23.061473	-4.601711	-164.831639
04335		22.967241	-4.607221	-164.728660
04336		23.069208	-4.693856	-164.566268
04337		23.253939	-4.942207	-164.369028
04338		23.439692	-5.646999	-164.253159
04339		23.828844	-6.099160	-164.243785
04340		24.061380	-6.490913	-164.359447
04341		24.251487	-6.631007	-164.507875
04342		24.348388	-6.650741	-164.578937
04343		24.369823	-6.705388	-164.583639
04344		24.292808	-6.736187	-164.502159
04345		24.132086	-6.760226	-164.322986
04346		23.999365	-6.788187	-164.175555
04347		23.933660	-6.798380	-164.023995
04348		23.909888	-6.808822	-163.870790
04349		23.912411	-6.844676	-163.746506
04350		23.900053	-6.785481	-163.650367
04351		23.833755	-6.660179	-163.601786
04352		23.707680	-6.477432	-163.623005
04353		23.588774	-6.335628	-163.638946
04354		23.511537	-6.188456	-163.612934
04355		23.459922	-6.060623	-163.573612
04356		23.311605	-5.837525	-163.584690
04357		23.215289	-5.285051	-163.722897
04358		23.219878	-4.573534	-163.881345
04359		23.317863	-3.987333	-164.020299
04360		23.364922	-3.928542	-164.094692
04361		22.902794	-3.912958	-163.975353
04362		22.399567	-3.515760	-163.779323
04363		22.146434	-2.849749	-163.675975
04364		22.388946	-1.865690	-163.529999
04365		22.737963	-0.681589	-163.170708
04366		22.671219	0.412530	-162.912023
04367		22.404287	1.336834	-162.763187
04368		22.077585	2.467013	-162.667920
04369		21.877900	3.931088	-162.689834
04370		21.720927	5.389474	-162.964916
04371		21.305671	7.014419	-163.372918
04372		20.064882	9.199356	-164.039458
04373		18.594036	11.223633	-164.771168
04374		17.889011	12.231743	-165.078008
04375		17.404816	12.907935	-165.240841
04376		17.223784	13.287857	-165.235337
04377		17.196673	13.444703	-165.160801
04378		17.228877	13.484164	-165.088419
04379		17.289769	13.424615	-165.024587
04380		17.350270	13.330496	-164.975437
04381		17.414331	13.245939	-164.954789
04382		17.431907	13.146929	-164.957303
04383		17.434896	13.090831	-164.959971
04384		17.463494	13.033408	-164.963032
04385		17.457364	12.990297	-164.984414
04386		17.431297	13.014573	-165.006071
04387		17.423864	13.022203	-165.019227
04388		17.431007	13.020655	-165.016555
04389		17.423011	13.021782	-165.019725
04390		17.409827	13.014178	-165.029545
04391		17.384101	13.020587	-165.046321
04392		17.381434	13.013790	-165.058572
04393		17.390958	12.979923	-165.065170
04394		17.405037	12.969094	-165.063180
04395		17.433165	12.957265	-165.053236
04396		17.490406	12.883851	-165.035613
04397		17.571780	12.785393	-165.007150
04398		17.675319	12.717686	-164.976424
04399		17.712872	12.675499	-164.972077
04400		17.736430	12.629527	-164.973212
04401		17.770401	12.579995	-164.972967
04402		17.806244	12.544415	-164.978091
04403		17.831900	12.535472	-164.986663
04404		17.846380	12.567043	-165.026990
04405		17.848591	12.610042	-165.098798
04406		17.857067	12.641161	-165.174771
04407		17.932954	12.562169	-165.271604
04408		18.012702	12.481382	-165.370347
04409		18.200751	12.606068	-165.498352
04410		18.291090	12.861626	-165.410208
04411		18.452294	12.863885	-164.806158
04412		18.546232	12.911403	-164.332833
04413		18.676123	13.017446	-163.965515
04414		18.764711	13.259571	-163.709459
04415		18.827234	13.578503	-163.595534
04416		18.854740	13.887246	-163.696182
04417		18.771707	14.104349	-163.927135
04418		18.674810	14.146147	-164.163139
04419		18.477228	14.177876	-164.233158
04420		18.192813	14.320494	-164.203194
04421		18.068667	14.447498	-164.284643
04422		18.043782	14.508523	-164.380264
04423		18.092040	14.542238	-164.450457
04424		18.010243	14.666494	-164.538771
04425		17.901559	14.799527	-164.639729
04426		17.869241	14.878392	-164.701248
04427		17.919486	14.898891	-164.688349
04428		17.955725	14.894370	-164.644912
04429		17.911054	14.919873	-164.622277
04430		17.799344	14.994070	-164.638429
04431		17.721883	15.067468	-164.632691
04432		17.710356	15.110262	-164.619755
04433		17.695896	15.166181	-164.668801
04434		17.707894	15.193368	-164.741839
04435		17.741993	15.186064	-164.792927
04436		17.767686	15.161120	-164.788601
04437		17.781948	15.141676	-164.734721
04438		17.842193	15.092583	-164.669846
04439		17.981064	14.980487	-164.637091
04440		18.078029	14.891286	-164.606602
04441		18.037469	14.891193	-164.588513
04442		17.949758	14.966952	-164.665785
04443		17.897556	14.958630	-164.756426
04444		17.886794	14.890735	-164.827867
04445		17.890784	14.881166	-164.912495
04446		17.894970	14.917596	-165.026507
04447		17.914448	14.812425	-165.048253
04448		18.006221	14.721023	-165.039785
04449		18.148038	14.638050	-165.018832
04450		18.169368	14.611781	-165.062313
04451		18.159294	14.612514	-165.119432
04452		18.199030	14.591042	-165.186187
04453		18.259803	14.580396	-165.271153
04454		18.297274	14.592995	-165.356940
04455		18.439732	14.532019	-165.374680
04456		18.708730	14.408588	-165.318008
04457		19.034679	14.266549	-165.323368
04458		19.293842	14.118760	-165.462464
04459		19.544054	13.946255	-165.583188
04460		19.754937	13.772721	-165.633405
04461		19.989994	13.562053	-165.614789
04462		20.093423	13.394883	-165.618265
04463		20.096997	13.248192	-165.642777
04464		20.078030	13.147264	-165.624823
04465		20.028883	13.147665	-165.556289
04466		20.005491	13.200180	-165.468867
04467		19.880826	13.310486	-165.473013
04468		19.810714	13.356029	-165.564369
04469		19.757805	13.348532	-165.691035
04470		19.457432	13.426717	-165.785733
04471		19.377486	13.461159	-165.783370
04472		19.598220	13.518135	-165.687035
04473		19.770954	13.568470	-165.594441
04474		19.776607	13.571577	-165.547451
04475		19.613061	13.575365	-165.554661
04476		19.560990	13.570204	-165.537468
04477		19.632838	13.545090	-165.487833
04478		19.768795	13.499840	-165.431313
04479		19.860559	13.440385	-165.390210
04480		19.962952	13.315892	-165.324680
04481		20.224298	13.098689	-165.242785
04482		20.689859	12.764360	-165.133933
04483		21.071845	12.359574	-165.060869
04484		21.323033	11.956698	-165.028458
04485		21.555057	11.520338	-165.035105
04486		21.777650	11.017164	-165.023677
04487		21.949669	10.271028	-164.993834
04488		21.947803	9.037188	-164.883698
04489		21.910614	7.557375	-164.785505
04490		21.926539	6.056249	-164.665494
04491		21.896818	4.493694	-164.552666
04492		21.880687	2.671580	-164.425635
04493		21.943100	0.499024	-164.276018
04494		22.156935	-1.725784	-164.161435
04495		22.623426	-3.903067	-164.069987
04496		23.042723	-5.761620	-164.132318
04497		23.117843	-7.052178	-164.301441
04498		22.697552	-7.106790	-164.495598
04499		22.050202	-6.284336	-164.718120
04500		22.221438	-5.189663	-164.848018
04501		22.890021	-4.537010	-164.798135
04502		22.993506	-4.008749	-164.834682
04503		23.079123	-3.047185	-164.835480
04504		23.572908	-2.412777	-164.817568
04505		23.858139	-2.473164	-165.065832
04506		24.004773	-2.259392	-165.231515
04507		23.940911	-2.179873	-165.341392
04508		23.782078	-2.159944	-165.448054
04509		23.669583	-2.193899	-165.572560
04510		23.653276	-2.233776	-165.627227
04511		23.660746	-2.237458	-165.661571
04512		23.535823	-2.243819	-165.734835
04513		23.392371	-2.232613	-165.828164
04514		23.226537	-2.168773	-165.965326
04515		22.974827	-2.114176	-166.112695
04516		22.777594	-2.104892	-166.184703
04517		22.594007	-2.080159	-166.315028
04518		22.426805	-2.069458	-166.411286
04519		22.333946	-2.062811	-166.447244
04520		22.296934	-2.062406	-166.473691
04521		22.269593	-2.063168	-166.472638
04522		22.255069	-2.086823	-166.472920
04523		22.270971	-2.121350	-166.461323
04524		22.286738	-2.151967	-166.459539
04525		22.295494	-2.187932	-166.463576
04526		22.315633	-2.220846	-166.481407
04527		22.350810	-2.254789	-166.533106
04528		22.353895	-2.245553	-166.653798
04529		22.240743	-2.195757	-166.733056
04530		22.174582	-2.185679	-166.740516
04531		22.136212	-2.161010	-166.794636
04532		22.100855	-2.164376	-166.885515
04533		22.128480	-2.168346	-166.957187
04534		22.141075	-2.136724	-167.005774
04535		22.163075	-2.113642	-167.031209
04536		22.183538	-2.116705	-167.018407
04537		22.188527	-2.141783	-167.018915
04538		22.182938	-2.143124	-167.060041
04539		22.229507	-2.159498	-167.135186
04540		22.259381	-2.156724	-167.211747
04541		22.282014	-2.180347	-167.246404
04542		22.304701	-2.184737	-167.270189
04543		22.316416	-2.180215	-167.321591
04544		22.336571	-2.192494	-167.399517
04545		22.304082	-2.216179	-167.437829
04546		22.294903	-2.235099	-167.456948
04547		22.343151	-2.257487	-167.471296
04548		22.360719	-2.274186	-167.495843
04549		22.347783	-2.303136	-167.515152
04550		22.365692	-2.354641	-167.553753
04551		22.384392	-2.386657	-167.612734
04552		22.399555	-2.417222	-167.628168
04553		22.427352	-2.444542	-167.638640
04554		22.456395	-2.461747	-167.658218
04555		22.453166	-2.477930	-167.673703
04556		22.460296	-2.511334	-167.671442
04557		22.480091	-2.531420	-167.679259
04558		22.498397	-2.560127	-167.701884
04559		22.495595	-2.612248	-167.682842
04560		22.414187	-2.651364	-167.643295
04561		22.181255	-2.604271	-167.614352
04562		21.911302	-2.617569	-167.643977
04563		21.616126	-2.681179	-167.727406
04564		21.245727	-2.746875	-167.769549
04565		21.020242	-2.803699	-167.792580
04566		20.989327	-2.802668	-167.845406
04567		21.034745	-2.793461	-167.937548
04568		21.085799	-2.751337	-168.073862
04569		21.086617	-2.714355	-168.162716
04570		21.100700	-2.660232	-168.198348
04571		21.099453	-2.609244	-168.243038
04572		21.101242	-2.557951	-168.308381
04573		21.126323	-2.526258	-168.306471
04574		21.237516	-2.501319	-168.239214
04575		21.291826	-2.429612	-168.160365
04576		21.168340	-2.283528	-168.093868
04577		21.011974	-2.163951	-168.053676
04578		20.938231	-2.039712	-168.092128
04579		20.794475	-1.870282	-168.131009
04580		20.540143	-1.722406	-168.128599
04581		20.418707	-1.665798	-168.100142
04582		20.337289	-1.523775	-168.052537
04583		20.171825	-1.343773	-168.029590
04584		19.925229	-1.269380	-168.062229
04585		19.898862	-1.217340	-168.084586
04586		19.849150	-1.076408	-168.039130
04587		19.736905	-0.915012	-167.950611
04588		19.630262	-0.836072	-167.792668
04589		19.692240	-0.796847	-167.539374
04590		19.965634	-0.739288	-167.214598
04591		20.303085	-0.839357	-166.881908
04592		20.849122	-1.149168	-166.685865
04593		21.564081	-1.746778	-166.613890
04594		22.098037	-1.790794	-166.481250
04595		22.204121	-2.051265	-166.476012
04596		22.524437	-2.380141	-166.567675
04597		22.833469	-2.585969	-166.587866
04598		22.990496	-2.754502	-166.602447
04599		23.076887	-2.944744	-166.612041
04600		23.207440	-3.094313	-166.576165
04601		23.329719	-3.138910	-166.455006
04602		23.334039	-3.106218	-166.307276
04603		23.256307	-3.076024	-166.181380
04604		23.225726	-3.072077	-166.051913
04605		23.264582	-3.099371	-165.924237
04606		23.346669	-3.115796	-165.787642
04607		23.405475	-3.099040	-165.679976
04608		23.416571	-3.119056	-165.615021
04609		23.541622	-3.183561	-165.519662
04610		23.682103	-3.171645	-165.450814
04611		23.643794	-3.135696	-165.455447
04612		23.588628	-3.147550	-165.447206
04613		23.658284	-3.183875	-165.385491
04614		23.746817	-3.242883	-165.289986
04615		23.838721	-3.383654	-165.194421
04616		23.875115	-3.575759	-165.147595
04617		23.816145	-3.717084	-165.031763
04618		23.647309	-3.592923	-164.817332
04619		23.834982	-3.311329	-164.614103
04620		24.382845	-2.811410	-164.401038
04621		25.283106	-2.114892	-164.023619
04622		26.277301	-1.737131	-163.531826
04623		26.767460	-1.558505	-163.056005
04624		26.494429	-1.271262	-162.743311
04625		25.847466	-0.883198	-162.754490
04626		25.357091	-0.185257	-162.849224
04627		24.983384	0.641864	-162.912562
04628		24.787875	1.548506	-162.830577
04629		24.569311	2.537752	-162.801839
04630		24.133953	3.477793	-162.905946
04631		23.632520	4.305437	-163.003010
04632		23.111793	5.157649	-163.049082
04633		22.659236	5.998692	-163.115402
04634		22.391020	6.792865	-163.186407
04635		22.180554	7.598417	-163.244542
04636		21.827484	8.296141	-163.349626
04637		21.517069	8.938794	-163.396384
04638		21.143716	9.447344	-163.533881
04639		20.777541	9.878001	-163.713646
04640		20.447536	10.285751	-163.880575
04641		20.077613	10.702390	-164.016398
04642		19.734724	11.050805	-164.148130
04643		19.409121	11.382120	-164.256106
04644		19.092441	11.680636	-164.376042
04645		18.808599	11.916615	-164.480057
04646		18.621879	12.070213	-164.545808
04647		18.505072	12.167695	-164.576852
04648		18.447180	12.192682	-164.566276
04649		18.428683	12.193804	-164.539779
04650		18.402601	12.204757	-164.542700
04651		18.355436	12.240556	-164.559548
04652		18.330761	12.269023	-164.558016
04653		18.321472	12.291535	-164.552915
04654		18.310749	12.314814	-164.552492
04655		18.297527	12.328347	-164.548871
04656		18.292046	12.336386	-164.550055
04657		18.278551	12.345072	-164.560823
04658		18.265622	12.341925	-164.568419
04659		18.254907	12.354827	-164.574812
04660		18.253700	12.349530	-164.572860
04661		18.260431	12.325594	-164.567534
04662		18.272778	12.308341	-164.563129
04663		18.262071	12.306207	-164.565753
04664		18.247774	12.314705	-164.575049
04665		18.227665	12.326505	-164.587212
04666		18.220825	12.319286	-164.586945
04667		18.207951	12.320719	-164.582785
04668		18.177463	12.334137	-164.584004
04669		18.147847	12.342789	-164.591993
04670		18.109348	12.349728	-164.606075
04671		18.040794	12.380528	-164.628443
04672		17.952403	12.453451	-164.668747
04673		17.887655	12.523727	-164.701484
04674		17.843758	12.595044	-164.738019
04675		17.832736	12.669254	-164.774250
04676		17.828325	12.744142	-164.809424
04677		17.823186	12.775760	-164.836123
04678		17.803881	12.765974	-164.875441
04679		17.824575	12.769082	-164.902913
04680		17.884625	12.825547	-164.928859
04681		18.039785	12.904643	-164.914645
04682		18.260783	12.964871	-164.791336
04683		18.566880	13.103079	-164.625107
04684		18.913830	13.187360	-164.462391
04685		19.080654	13.293838	-164.418374
04686		19.142467	13.424041	-164.408585
04687		19.180692	13.564814	-164.464040
04688		19.166589	13.696153	-164.624365
04689		19.049872	13.820254	-164.847818
04690		18.852164	13.950803	-165.074355
04691		18.750010	14.112312	-165.244661
04692		18.784919	14.288207	-165.390153
04693		18.855971	14.515092	-165.501453
04694		18.905031	14.802671	-165.593922
04695		18.861105	15.009569	-165.678104
04696		18.840951	15.025460	-165.766725
04697		18.775953	15.244431	-165.829002
04698		18.512768	15.676364	-165.884879
04699		18.231073	16.146195	-165.868798
04700		18.036155	15.894261	-165.856606
04701		18.054266	15.651909	-165.946462
04702		18.006718	15.666136	-166.176559
04703		17.948479	15.663150	-166.439749
04704		17.831117	15.589656	-166.689636
04705		17.710844	15.563322	-166.929509
04706		17.686206	15.518414	-167.172154
04707		17.973051	15.257934	-167.376876
04708		18.507033	14.761409	-167.543025
04709		18.819471	14.312439	-167.700841
04710		18.926873	14.101343	-167.748737
04711		19.050760	13.957077	-167.707164
04712		19.372938	13.677922	-167.645846
04713		19.464454	13.570715	-167.718815
04714		19.218109	13.641680	-167.811121
04715		19.045262	13.654417	-167.854450
04716		18.950651	13.642614	-167.854523
04717		18.871101	13.642403	-167.798566
04718		18.846698	13.635485	-167.721104
04719		18.745409	13.676086	-167.707803
04720		18.629005	13.735417	-167.721397
04721		18.567645	13.754402	-167.710856
04722		18.542196	13.767605	-167.671851
04723		18.469445	13.817790	-167.630337
04724		18.441305	13.860750	-167.596969
04725		18.411905	13.898106	-167.617712
04726		18.385930	13.921154	-167.612997
04727		18.357930	13.928792	-167.614257
04728		18.332976	13.930122	-167.647765
04729		18.265002	13.944770	-167.722658
04730		18.181365	13.973745	-167.807825
04731		18.148554	13.979259	-167.884690
04732		18.131136	13.974695	-167.992550
04733		18.132740	13.939585	-168.119591
04734		18.137885	13.885900	-168.253515
04735		18.153481	13.827747	-168.388694
04736		18.212998	13.754416	-168.498294
04737		18.286580	13.675392	-168.595500
04738		18.394219	13.557171	-168.654158
04739		18.397511	13.488152	-168.733319
04740		18.385076	13.425833	-168.749063
04741		18.425432	13.376269	-168.756907
04742		18.481015	13.334285	-168.776751
04743		18.519040	13.313299	-168.800453
04744		18.523157	13.297719	-168.825921
04745		18.524524	13.275161	-168.872943
04746		18.499502	13.234597	-168.903411
04747		18.514244	13.195251	-168.917084
04748		18.519389	13.147955	-168.939700
04749		18.488540	13.104145	-168.950177
04750		18.498595	13.071358	-168.937716
04751		18.500350	13.048623	-168.915042
04752		18.477004	13.041747	-168.889798
04753		18.444108	13.013587	-168.863037
04754		18.409679	12.994712	-168.834986
04755		18.405208	12.962435	-168.786976
04756		18.413460	12.904527	-168.732354
04757		18.421369	12.831818	-168.670404
04758		18.460130	12.746617	-168.591476
04759		18.557130	12.647442	-168.485968
04760		18.765739	12.480707	-168.345891
04761		19.141210	12.210583	-168.143670
04762		19.439596	11.981133	-167.949194
04763		19.596314	11.849789	-167.813519
04764		19.723337	11.758774	-167.729730
04765		19.855958	11.662379	-167.658984
04766		19.996271	11.575554	-167.596518
04767		20.193389	11.442339	-167.524869
04768		20.444795	11.263990	-167.433037
04769		20.755602	11.051353	-167.309852
04770		21.029165	10.878972	-167.206637
04771		21.239970	10.750572	-167.137704
04772		21.504305	10.583004	-167.053598
04773		21.799982	10.410938	-166.973035
04774		22.079427	10.250026	-166.916876
04775		22.387697	10.053318	-166.850482
04776		22.749649	9.798681	-166.771032
04777		23.119946	9.451733	-166.678880
04778		23.380631	9.185815	-166.612390
04779		23.722131	8.902623	-166.522786
04780		24.228045	8.312649	-166.406407
04781		24.664514	7.484157	-166.284358
04782		25.072535	6.590597	-166.179188
04783		25.519955	5.728138	-166.054200
04784		25.852685	4.529155	-165.962252
04785		26.126109	3.172397	-165.959722
04786		26.159970	2.483610	-165.802346
04787		26.124411	2.302283	-165.698183
04788		26.400807	1.674302	-165.575352
04789		26.480848	0.597899	-165.470188
04790		26.339400	-0.311689	-165.278951
04791		26.295777	-0.994944	-165.091625
04792		26.415687	-1.769670	-164.999002
04793		26.294181	-3.110944	-164.792019
04794		26.099418	-4.209423	-164.536265
04795		25.815792	-4.759147	-164.367033
04796		25.800110	-4.900475	-164.228227
04797		26.231317	-4.325531	-164.009109
04798		26.758246	-3.445646	-163.824130
04799		27.160197	-2.966864	-163.747842
04800		27.287797	-2.929866	-163.683163
04801		27.157497	-2.844285	-163.703378
04802		26.998776	-2.793042	-163.759660
04803		26.909516	-2.823033	-163.815283
04804		26.869392	-2.905123	-163.851980
04805		26.856740	-2.964965	-163.873228
04806		26.830271	-2.998930	-163.902386
04807		26.813613	-3.007605	-163.927305
04808		26.789501	-2.997757	-163.953500
04809		26.774036	-2.970476	-163.974623
04810		26.741378	-2.967700	-163.986174
04811		26.736419	-2.980471	-163.981188
04812		26.766940	-3.046501	-163.968214
04813		26.811782	-3.149250	-163.925682
04814		26.870028	-3.270800	-163.858218
04815		26.896886	-3.386206	-163.821330
04816		26.962365	-3.506024	-163.768307
04817		26.974590	-3.663048	-163.745023
04818		26.972040	-3.855580	-163.724792
04819		26.957709	-4.043086	-163.760630
04820		26.762849	-4.143257	-164.029734
04821		26.723636	-4.172786	-164.274576
04822		26.733033	-4.181145	-164.391348
04823		26.720716	-4.197940	-164.399182
04824		26.698277	-4.202267	-164.391852
04825		26.665082	-4.182652	-164.376712
04826		26.642302	-4.160439	-164.337258
04827		26.625994	-4.157078	-164.311680
04828		26.611673	-4.158126	-164.290278
04829		26.582257	-4.147106	-164.244062
04830		26.581904	-4.129421	-164.208042
04831		26.609969	-4.114878	-164.198909
04832		26.612353	-4.108154	-164.215932
04833		26.597235	-4.095743	-164.227682
04834		26.560319	-4.078259	-164.232507
04835		26.547419	-4.076518	-164.177689
04836		26.587273	-4.063123	-164.090759
04837		26.588419	-4.040795	-164.070017
04838		26.528476	-4.021283	-164.116947
04839		26.519590	-4.014016	-164.151597
04840		26.535062	-3.958183	-164.248279
04841		26.488090	-3.854593	-164.422084
04842		26.360448	-3.795477	-164.620301
04843		26.371401	-3.759356	-164.679630
04844		26.429902	-3.661715	-164.734951
04845		26.373536	-3.539326	-164.905552
04846		26.203540	-3.419223	-165.140703
04847		26.051581	-3.328067	-165.310317
04848		25.975600	-3.190876	-165.428279
04849		25.845778	-2.986440	-165.509910
04850		25.650470	-2.859726	-165.561684
04851		25.612444	-2.712483	-165.581130
04852		25.586807	-2.504421	-165.606685
04853		25.480590	-2.312662	-165.645477
04854		25.324110	-2.203341	-165.670148
04855		25.330767	-2.167583	-165.577581
04856		25.362108	-2.154151	-165.483032
04857		25.374633	-2.315030	-165.466116
04858		25.471491	-2.555650	-165.374246
04859		25.576591	-2.621403	-165.242415
04860		25.682915	-2.697090	-165.072080
04861		25.786268	-2.781459	-164.880240
04862		25.905359	-2.879501	-164.687505
04863		26.028883	-2.947856	-164.505167
04864		26.152665	-2.969546	-164.346895
04865		26.219041	-2.967458	-164.204492
04866		26.236517	-2.954045	-164.105876
04867		26.280702	-2.932580	-164.023126
04868		26.331889	-2.920375	-163.957475
04869		26.359455	-2.902772	-163.900791
04870		26.351039	-2.891014	-163.872752
04871		26.366997	-2.877387	-163.843105
04872		26.403402	-2.855951	-163.796211
04873		26.410867	-2.855553	-163.735485
04874		26.397664	-2.877538	-163.681593
04875		26.342499	-2.916702	-163.637034
04876		26.314893	-2.978458	-163.563375
04877		26.378476	-3.005877	-163.454103
04878		26.419996	-3.009946	-163.312878
04879		26.419786	-2.999578	-163.215715
04880		26.341806	-3.019425	-163.119267
04881		26.156040	-3.086859	-163.026917
04882		25.902424	-3.089642	-162.866357
04883		25.542159	-2.925900	-162.516632
04884		25.310565	-2.961716	-162.428831
04885		24.809788	-2.684735	-162.400695
04886		24.203234	-2.055400	-162.411595
04887		23.470916	-1.681036	-162.557200
04888		22.676302	-1.022449	-162.681553
04889		21.998230	-0.039068	-162.802199
04890		21.817885	1.361232	-162.807870
04891		21.867981	3.099115	-162.835000
04892		21.856730	4.858554	-162.868326
04893		21.521225	6.462116	-162.947067
04894		20.968360	8.068326	-163.025428
04895		20.213606	9.410015	-163.271969
04896		19.667341	10.389052	-163.521068
04897		19.150946	11.114570	-163.722355
04898		18.711621	11.595279	-163.875278
04899		18.458836	11.907302	-163.897031
04900		18.278308	12.129553	-163.871274
04901		18.171258	12.211758	-163.847096
04902		18.118495	12.251682	-163.839359
04903		18.096790	12.264511	-163.829663
04904		18.103071	12.226807	-163.814748
04905		18.086673	12.237393	-163.823748
04906		18.075650	12.218191	-163.827796
04907		18.082359	12.211005	-163.830746
04908		18.119376	12.160488	-163.807879
04909		18.179126	12.059111	-163.751486
04910		18.243053	12.002948	-163.717126
04911		18.232825	11.963903	-163.709068
04912		18.228293	11.949835	-163.726511
04913		18.207426	11.928977	-163.751960
04914		18.213832	11.897425	-163.746173
04915		18.241909	11.874080	-163.735967
04916		18.237921	11.869716	-163.737008
04917		18.242359	11.863711	-163.748263
04918		18.255038	11.855622	-163.756800
04919		18.273742	11.825037	-163.758988
04920		18.281270	11.809376	-163.760229
04921		18.323417	11.764809	-163.728498
04922		18.381171	11.702752	-163.699516
04923		18.420371	11.664480	-163.681347
04924		18.412411	11.658146	-163.689666
04925		18.375805	11.685387	-163.726040
04926		18.362855	11.686960	-163.735196
04927		18.374788	11.676103	-163.741626
04928		18.388076	11.655296	-163.735100
04929		18.402921	11.649552	-163.729378
04930		18.397211	11.669360	-163.737396
04931		18.386298	11.671082	-163.739221
04932		18.383214	11.677276	-163.749732
04933		18.377524	11.673504	-163.750202
04934		18.377959	11.676830	-163.745340
04935		18.388611	11.664865	-163.733498
04936		18.384883	11.669512	-163.741607
04937		18.379210	11.669546	-163.742499
04938		18.381030	11.666594	-163.752407
04939		18.377539	11.676486	-163.767171
04940		18.367100	11.687697	-163.789041
04941		18.329303	11.718653	-163.825750
04942		18.273533	11.771985	-163.877787
04943		18.232265	11.834529	-163.944430
04944		18.198072	11.908550	-164.020803
04945		18.167562	12.001248	-164.117590
04946		18.137301	12.117998	-164.231616
04947		18.148572	12.269999	-164.310382
04948		18.196069	12.403928	-164.403456
04949		18.233427	12.531083	-164.493261
04950		18.315899	12.698887	-164.598516
04951		18.367525	12.967972	-164.710554
04952		18.331754	13.198560	-164.742285
04953		18.478117	13.294939	-164.546450
04954		18.636664	13.377976	-164.409003
04955		18.700328	13.446910	-164.327245
04956		18.716965	13.531798	-164.292881
04957		18.737630	13.582701	-164.282506
04958		18.727891	13.680531	-164.336769
04959		18.654079	13.806965	-164.415145
04960		18.547042	13.949796	-164.498761
04961		18.448556	14.077856	-164.598611
04962		18.348388	14.217194	-164.724214
04963		18.276021	14.337564	-164.844722
04964		18.217168	14.449977	-164.947830
04965		18.200913	14.521928	-165.051641
04966		18.161940	14.580276	-165.179876
04967		18.127297	14.610644	-165.301477
04968		18.122569	14.594321	-165.413714
04969		18.078690	14.673358	-165.568232
04970		18.063712	14.697022	-165.673412
04971		18.119675	14.642798	-165.724071
04972		18.144563	14.615964	-165.790598
04973		18.132452	14.602497	-165.894398
04974		18.146919	14.571707	-166.050639
04975		18.165692	14.540655	-166.205479
04976		18.174898	14.507584	-166.287437
04977		18.228769	14.447275	-166.331290
04978		18.262323	14.400553	-166.413666
04979		18.273230	14.373213	-166.505965
04980		18.305625	14.325389	-166.588518
04981		18.370653	14.259714	-166.644650
04982		18.432245	14.195064	-166.717496
04983		18.452705	14.146093	-166.855922
04984		18.451922	14.117911	-167.001590
04985		18.485703	14.058629	-167.105021
04986		18.522337	14.000759	-167.238859
04987		18.515955	13.957481	-167.392058
04988		18.549808	13.895530	-167.541383
04989		18.585660	13.826183	-167.720141
04990		18.615908	13.760062	-167.917671
04991		18.627757	13.695744	-168.146090
04992		18.622645	13.643774	-168.357283
04993		18.595671	13.601247	-168.543570
04994		18.616735	13.544534	-168.671201
04995		18.629918	13.507230	-168.745160
04996		18.642814	13.470532	-168.765460
04997		18.674991	13.431008	-168.750191
04998		18.703585	13.395994	-168.745513
04999		18.730563	13.366936	-168.762624
05000		18.740235	13.344807	-168.808209
05001		18.746529	13.322423	-168.870855
05002		18.761817	13.295967	-168.979354
05003		18.763188	13.284444	-169.106168
05004		18.733771	13.285016	-169.239162
05005		18.718384	13.282534	-169.339394
05006		18.733484	13.271571	-169.437057
05007		18.731545	13.264113	-169.523070
05008		18.707749	13.264314	-169.600934
05009		18.690091	13.270234	-169.665146
05010		18.705630	13.256920	-169.715136
05011		18.703642	13.250986	-169.754860
05012		18.719651	13.247838	-169.772168
05013		18.737111	13.242348	-169.805266
05014		18.742184	13.233504	-169.861151
05015		18.739413	13.213814	-169.944630
05016		18.725786	13.207666	-170.041813
05017		18.700312	13.203023	-170.112608
05018		18.688083	13.190968	-170.134718
05019		18.685364	13.186847	-170.120759
05020		18.682929	13.168699	-170.109204
05021		18.651947	13.163109	-170.099593
05022		18.655724	13.148972	-170.050393
05023		18.667802	13.138297	-169.988744
05024		18.678742	13.127955	-169.905357
05025		18.693808	13.121240	-169.801543
05026		18.706240	13.121165	-169.667040
05027		18.713968	13.120651	-169.514861
05028		18.721043	13.128261	-169.343578
05029		18.708151	13.126369	-169.195739
05030		18.679355	13.104415	-169.056524
05031		18.635866	13.098655	-168.940784
05032		18.589384	13.089560	-168.871726
05033		18.551813	13.051153	-168.827123
05034		18.544709	13.001085	-168.784534
05035		18.550675	12.970308	-168.741747
05036		18.571848	12.929818	-168.696628
05037		18.607237	12.833255	-168.633229
05038		18.672959	12.737966	-168.566851
05039		18.698791	12.675131	-168.513946
05040		18.742856	12.591685	-168.442677
05041		18.878997	12.474533	-168.338643
05042		19.104013	12.347549	-168.210705
05043		19.358175	12.211686	-168.065132
05044		19.789409	11.966500	-167.850134
05045		20.437227	11.600897	-167.578188
05046		20.853460	11.349748	-167.379350
05047		21.169227	11.132815	-167.240572
05048		21.531888	10.843223	-167.119674
05049		22.093578	10.440166	-166.944426
05050		22.579032	10.082605	-166.786695
05051		22.902833	9.812521	-166.683531
05052		23.345970	9.455051	-166.587907
05053		23.787896	8.993946	-166.502331
05054		24.229311	8.351766	-166.429020
05055		24.687332	7.366271	-166.384989
05056		24.931005	6.209694	-166.472268
05057		25.320114	4.880259	-166.473964
05058		25.566981	3.286403	-166.485815
05059		25.675184	1.124289	-166.445973
05060		25.729137	-0.583324	-166.342264
05061		25.638016	-1.803914	-166.185906
05062		25.626896	-2.828340	-166.087470
05063		25.647489	-3.425502	-166.120331
05064		26.125764	-3.243436	-166.049164
05065		26.762542	-2.431856	-165.876362
05066		27.533799	-1.670065	-165.603270
05067		27.633528	-1.911392	-165.600816
05068		27.517031	-2.002314	-165.628744
05069		27.366198	-2.040223	-165.715122
05070		27.197987	-2.070191	-165.932033
05071		27.075912	-2.092355	-166.167953
05072		26.917273	-2.098377	-166.324501
05073		26.809435	-2.063844	-166.407506
05074		26.732927	-2.037310	-166.454304
05075		26.695130	-2.021162	-166.463746
05076		26.709561	-1.999006	-166.456251
05077		26.705400	-1.961599	-166.452928
05078		26.687880	-1.943868	-166.456473
05079		26.657155	-1.938050	-166.454872
05080		26.675805	-1.930015	-166.448166
05081		26.672866	-1.933268	-166.431071
05082		26.688481	-1.945584	-166.408707
05083		26.688977	-1.961522	-166.383685
05084		26.731922	-1.968505	-166.350551
05085		26.715831	-1.987469	-166.328508
05086		26.675427	-2.008827	-166.313574
05087		26.698825	-2.015420	-166.289907
05088		26.693861	-2.020017	-166.259510
05089		26.652958	-2.029590	-166.226916
05090		26.619056	-2.052491	-166.193406
05091		26.605634	-2.077212	-166.143657
05092		26.555565	-2.110772	-166.078668
05093		26.541148	-2.158991	-165.979243
05094		26.563600	-2.208465	-165.824154
05095		26.587283	-2.331881	-165.705770
05096		26.639678	-2.463070	-165.505382
05097		26.714172	-2.604699	-165.256394
05098		26.795308	-2.762609	-165.044497
05099		26.812436	-2.832204	-164.989022
05100		26.786739	-2.874248	-164.947857
05101		26.784772	-2.880430	-164.889175
05102		26.760058	-2.893500	-164.811767
05103		26.788438	-2.895699	-164.720144
05104		26.793544	-2.893557	-164.651288
05105		26.789955	-2.908950	-164.581625
05106		26.802810	-2.917352	-164.529274
05107		26.787444	-2.923054	-164.492926
05108		26.798405	-2.931680	-164.444967
05109		26.826199	-2.925685	-164.420392
05110		26.821144	-2.916774	-164.417413
05111		26.811206	-2.904404	-164.426303
05112		26.786909	-2.899905	-164.451137
05113		26.767874	-2.899593	-164.476060
05114		26.754759	-2.885525	-164.513601
05115		26.709988	-2.869776	-164.573812
05116		26.661300	-2.861657	-164.630203
05117		26.635031	-2.857087	-164.679838
05118		26.594279	-2.845639	-164.739776
05119		26.567684	-2.830665	-164.756018
05120		26.572954	-2.815513	-164.742576
05121		26.560015	-2.811669	-164.730684
05122		26.591262	-2.809626	-164.748808
05123		26.591343	-2.804762	-164.795844
05124		26.582255	-2.800617	-164.858394
05125		26.563696	-2.810986	-164.915993
05126		26.570341	-2.821359	-164.950012
05127		26.573156	-2.821146	-164.971991
05128		26.547467	-2.811776	-164.976886
05129		26.507846	-2.799642	-164.978562
05130		26.472457	-2.786866	-164.962667
05131		26.404192	-2.758879	-165.002334
05132		26.307059	-2.745841	-165.086421
05133		26.249063	-2.737546	-165.175184
05134		26.200233	-2.716708	-165.291493
05135		26.129103	-2.695132	-165.399352
05136		26.120460	-2.677724	-165.411388
05137		26.142393	-2.646630	-165.385341
05138		26.059137	-2.605031	-165.462800
05139		25.944477	-2.537322	-165.622657
05140		25.841181	-2.475327	-165.725693
05141		25.781589	-2.415187	-165.717271
05142		25.750243	-2.312305	-165.654061
05143		25.691601	-2.263878	-165.513167
05144		25.796373	-2.273817	-165.298739
05145		25.916069	-2.337381	-165.175809
05146		25.936094	-2.379689	-165.220664
05147		25.798632	-2.386298	-165.363639
05148		25.674708	-2.446249	-165.497274
05149		25.638335	-2.481700	-165.532255
05150		25.556351	-2.485883	-165.508333
05151		25.438463	-2.516535	-165.455800
05152		25.425421	-2.529964	-165.305803
05153		25.423841	-2.502822	-165.091282
05154		25.349776	-2.503161	-164.831180
05155		25.381635	-2.533624	-164.503345
05156		25.514606	-2.532516	-164.203103
05157		25.533406	-2.547831	-164.010051
05158		25.492327	-2.590675	-163.914890
05159		25.515826	-2.640026	-163.861446
05160		25.577494	-2.692588	-163.808570
05161		25.601343	-2.729615	-163.796326
05162		25.614904	-2.791107	-163.769746
05163		25.723802	-2.863348	-163.728713
05164		25.855208	-2.904951	-163.667183
05165		25.928403	-2.890779	-163.677160
05166		25.914473	-2.876124	-163.713665
05167		25.904039	-2.866154	-163.718012
05168		25.938065	-2.860463	-163.674338
05169		26.002981	-2.848401	-163.622336
05170		26.034068	-2.839492	-163.581344
05171		26.006731	-2.844375	-163.556320
05172		25.969119	-2.803854	-163.518044
05173		25.913353	-2.743920	-163.484136
05174		25.859310	-2.700193	-163.443071
05175		25.714371	-2.647456	-163.362598
05176		25.622656	-2.453548	-163.334328
05177		25.531403	-2.179255	-163.293476
05178		25.452976	-1.853196	-163.252004
05179		25.362815	-1.641487	-163.262219
05180		25.303082	-1.303097	-163.213688
05181		25.163908	-1.282885	-163.201616
05182		24.816179	-1.310687	-163.257656
05183		24.169979	-1.434298	-163.396502
05184		23.549933	-1.286913	-163.452615
05185		22.957750	-1.098191	-163.547037
05186		22.420218	-0.857201	-163.647664
05187		22.066297	-0.508579	-163.775788
05188		21.882220	-0.026467	-163.858449
05189		21.804673	0.652461	-163.881478
05190		21.810297	1.408071	-163.919935
05191		21.744710	2.218646	-164.008444
05192		21.648608	3.288002	-164.192035
05193		21.382800	4.703403	-164.448040
05194		20.886868	6.510392	-164.596959
05195		20.348030	8.414108	-164.673375
05196		19.697017	9.746565	-164.869506
05197		18.975586	10.957427	-164.933292
05198		18.272505	11.842013	-164.993278
05199		17.839785	12.390841	-165.095943
05200		17.534200	12.782356	-165.130117
05201		17.309791	13.027282	-165.087599
05202		17.231719	13.099834	-165.051947
05203		17.227173	13.110912	-165.046971
05204		17.255859	13.082169	-165.061840
05205		17.263540	13.034624	-165.076339
05206		17.286207	12.949615	-165.076149
05207		17.308379	12.906966	-165.076021
05208		17.320587	12.862913	-165.077893
05209		17.335636	12.834256	-165.084625
05210		17.362711	12.780388	-165.074212
05211		17.404061	12.732432	-165.070050
05212		17.415343	12.692706	-165.065890
05213		17.411874	12.681024	-165.069904
05214		17.393354	12.667186	-165.073535
05215		17.380246	12.666152	-165.081647
05216		17.365778	12.669159	-165.098046
05217		17.363933	12.648137	-165.102519
05218		17.366971	12.652502	-165.106797
05219		17.351459	12.657386	-165.117415
05220		17.337793	12.663768	-165.130849
05221		17.334438	12.654184	-165.137162
05222		17.346035	12.650022	-165.139376
05223		17.325172	12.662883	-165.159455
05224		17.305228	12.669945	-165.177997
05225		17.312596	12.671102	-165.182408
05226		17.333906	12.667719	-165.170835
05227		17.341580	12.679813	-165.167071
05228		17.341810	12.693491	-165.170644
05229		17.350435	12.700681	-165.167836
05230		17.349453	12.719729	-165.169022
05231		17.339863	12.740692	-165.174617
05232		17.333465	12.759679	-165.179907
05233		17.338104	12.766000	-165.185578
05234		17.338089	12.776774	-165.202747
05235		17.324940	12.808334	-165.231083
05236		17.296713	12.873920	-165.289388
05237		17.278620	12.981284	-165.362438
05238		17.281504	13.159361	-165.443345
05239		17.364933	13.452826	-165.535040
05240		17.414185	13.850350	-165.644256
05241		17.477863	14.340887	-165.705600
05242		17.569920	14.604723	-165.464427
05243		17.771408	14.800564	-165.063306
05244		17.865967	14.982538	-164.795110
05245		17.881131	15.180015	-164.624352
05246		17.923008	15.337610	-164.493649
05247		17.949246	15.481212	-164.458603
05248		17.927974	15.623147	-164.527407
05249		17.845459	15.782580	-164.595638
05250		17.774184	15.860902	-164.626327
05251		17.772994	15.836876	-164.533304
05252		17.745929	15.864717	-164.350418
05253		17.658904	15.948313	-164.218327
05254		17.609961	15.996484	-164.169789
05255		17.626392	15.996869	-164.167440
05256		17.667465	15.978545	-164.153536
05257		17.668809	15.977168	-164.148571
05258		17.741160	15.883964	-164.118234
05259		17.807091	15.792500	-164.062853
05260		17.842341	15.744944	-163.957790
05261		17.864355	15.700232	-163.864508
05262		17.898708	15.647267	-163.852738
05263		17.965096	15.567944	-163.875799
05264		18.008485	15.520913	-163.863868
05265		18.054679	15.470143	-163.808115
05266		18.098533	15.432565	-163.797793
05267		18.095196	15.443221	-163.844514
05268		18.085193	15.453505	-163.880748
05269		18.115709	15.422696	-163.933016
05270		18.120975	15.416382	-164.014174
05271		18.095742	15.419809	-164.097360
05272		18.077161	15.410680	-164.142471
05273		18.106440	15.341840	-164.177047
05274		18.129972	15.262690	-164.168190
05275		18.172911	15.173627	-164.142106
05276		18.232748	15.062655	-164.135773
05277		18.295591	14.959569	-164.227237
05278		18.324612	14.864680	-164.338784
05279		18.323531	14.766513	-164.321475
05280		18.361478	14.606077	-164.110562
05281		18.446867	14.422391	-163.818782
05282		18.495302	14.309984	-163.642116
05283		18.510331	14.250886	-163.660314
05284		18.550845	14.195562	-163.717566
05285		18.586431	14.143121	-163.819559
05286		18.595478	14.130149	-163.948600
05287		18.558063	14.149091	-164.095031
05288		18.530941	14.159688	-164.242418
05289		18.505972	14.186408	-164.422626
05290		18.469312	14.205427	-164.588523
05291		18.435073	14.224313	-164.727367
05292		18.377273	14.246241	-164.862317
05293		18.347028	14.256215	-164.979721
05294		18.353784	14.259951	-165.070083
05295		18.370422	14.265683	-165.146409
05296		18.373666	14.270566	-165.273431
05297		18.357597	14.286417	-165.417726
05298		18.343242	14.291427	-165.554718
05299		18.308560	14.303314	-165.662507
05300		18.289069	14.311310	-165.704554
05301		18.279574	14.312866	-165.701421
05302		18.272355	14.326573	-165.657016
05303		18.272694	14.339190	-165.647877
05304		18.257738	14.342956	-165.696894
05305		18.245449	14.341279	-165.775385
05306		18.225961	14.344040	-165.865230
05307		18.187760	14.362640	-165.939686
05308		18.158251	14.376653	-166.001913
05309		18.143005	14.378781	-166.064762
05310		18.126917	14.389799	-166.123663
05311		18.091404	14.405801	-166.187234
05312		18.074194	14.402021	-166.224989
05313		18.061431	14.409277	-166.250228
05314		18.030451	14.420626	-166.277809
05315		18.028181	14.411034	-166.285912
05316		18.039469	14.405193	-166.277635
05317		18.046153	14.400557	-166.257455
05318		18.083441	14.377153	-166.215232
05319		18.143486	14.340290	-166.187724
05320		18.178946	14.309018	-166.170419
05321		18.169364	14.297099	-166.157097
05322		18.182646	14.278964	-166.122598
05323		18.284911	14.233865	-166.074539
05324		18.409691	14.157895	-166.003332
05325		18.553675	14.055955	-165.914651
05326		18.834365	13.881354	-165.770323
05327		19.348962	13.586185	-165.542054
05328		20.102870	13.140344	-165.227923
05329		21.145995	12.481536	-164.855227
05330		22.507443	11.389416	-164.441517
05331		23.852428	9.799540	-164.219561
05332		24.832371	7.618308	-164.051531
05333		25.162246	5.473028	-164.063906
05334		25.209741	3.592810	-164.102011
05335		25.133918	1.770172	-164.170421
05336		24.902885	-0.156406	-164.210580
05337		24.699461	-1.718257	-164.184613
05338		24.506906	-2.512021	-164.040969
05339		24.352162	-3.155795	-163.920489
05340		24.343328	-3.620071	-163.860561
05341		24.706849	-3.575119	-163.774673
05342		25.224167	-3.054838	-163.766342
05343		25.870572	-2.285004	-163.765866
05344		26.541063	-1.498009	-163.717161
05345		26.862532	-1.197920	-163.666939
05346		26.899594	-1.340561	-163.611023
05347		26.768605	-1.379005	-163.594612
05348		26.722095	-1.464752	-163.609236
05349		26.793917	-1.636369	-163.619368
05350		26.993931	-1.910114	-163.668861
05351		27.091773	-2.233013	-163.810064
05352		27.162053	-2.414293	-163.923070
05353		27.183553	-2.519478	-164.008987
05354		27.156833	-2.620430	-164.084669
05355		27.212080	-2.685239	-164.148265
05356		27.273433	-2.719995	-164.210630
05357		27.274227	-2.736940	-164.264166
05358		27.296641	-2.753200	-164.265452
05359		27.367050	-2.780545	-164.213219
05360		27.560259	-2.803054	-164.162130
05361		27.731529	-2.818725	-164.146808
05362		27.723799	-2.831957	-164.149640
05363		27.664343	-2.841539	-164.154525
05364		27.710174	-2.834992	-164.158141
05365		27.774645	-2.815991	-164.174383
05366		27.738884	-2.817389	-164.187880
05367		27.726906	-2.813230	-164.196905
05368		27.757861	-2.797056	-164.184465
05369		27.804191	-2.777569	-164.148140
05370		27.882513	-2.748075	-164.122086
05371		27.885998	-2.733501	-164.092069
05372		27.872973	-2.723114	-164.078119
05373		27.884140	-2.706631	-164.081361
05374		27.868296	-2.693773	-164.088324
05375		27.845990	-2.688038	-164.096273
05376		27.847305	-2.679509	-164.095519
05377		27.843421	-2.675708	-164.082702
05378		27.869213	-2.665429	-164.071425
05379		27.860350	-2.669181	-164.057825
05380		27.832855	-2.684149	-164.043958
05381		27.872126	-2.691871	-164.038295
05382		27.916715	-2.701360	-164.018974
05383		27.981012	-2.708627	-163.971676
05384		28.112687	-2.712877	-163.934455
05385		28.184816	-2.725988	-163.907988
05386		28.084172	-2.774713	-163.882121
05387		27.965251	-2.816955	-163.848763
05388		27.974707	-2.766349	-163.922339
05389		28.025780	-2.735987	-164.000476
05390		27.995316	-2.703790	-164.039292
05391		27.995556	-2.691271	-164.041987
05392		28.045607	-2.701656	-164.066276
05393		28.023302	-2.728041	-164.100793
05394		27.974618	-2.774072	-164.123119
05395		27.980893	-2.819378	-164.143290
05396		27.997409	-2.865962	-164.165800
05397		28.006853	-2.922350	-164.169560
05398		28.028206	-2.965237	-164.154713
05399		28.052561	-3.004215	-164.134733
05400		28.121225	-3.013814	-164.128976
05401		28.166428	-3.022611	-164.108991
05402		28.204983	-3.041300	-164.085827
05403		28.207473	-3.061457	-164.071785
05404		28.186791	-3.112045	-164.068460
05405		28.149907	-3.162660	-164.154946
05406		28.079786	-3.212252	-164.241999
05407		28.041183	-3.272086	-164.273592
05408		28.047444	-3.322976	-164.319006
05409		28.056169	-3.369943	-164.365449
05410		28.070352	-3.423530	-164.389813
05411		28.091192	-3.466417	-164.446563
05412		28.061424	-3.510396	-164.508446
05413		28.013921	-3.561085	-164.552151
05414		27.989347	-3.612696	-164.580660
05415		27.992189	-3.653112	-164.598133
05416		27.956368	-3.677309	-164.627546
05417		27.899397	-3.692845	-164.657480
05418		27.852916	-3.723958	-164.707565
05419		27.845043	-3.747452	-164.769336
05420		27.792866	-3.752456	-164.847526
05421		27.705591	-3.761257	-164.902780
05422		27.662018	-3.787255	-164.925541
05423		27.628925	-3.800212	-164.958632
05424		27.559671	-3.801046	-164.990983
05425		27.509969	-3.808342	-164.994481
05426		27.493431	-3.814253	-164.982581
05427		27.460112	-3.817539	-164.967599
05428		27.405289	-3.816695	-164.943158
05429		27.370367	-3.817330	-164.915126
05430		27.360810	-3.814989	-164.894553
05431		27.364845	-3.816967	-164.900475
05432		27.342664	-3.813709	-164.898377
05433		27.314148	-3.811096	-164.878452
05434		27.318488	-3.799647	-164.851912
05435		27.316775	-3.768627	-164.836572
05436		27.287496	-3.742722	-164.841661
05437		27.280163	-3.734804	-164.824022
05438		27.304859	-3.719425	-164.802400
05439		27.300043	-3.707830	-164.784622
05440		27.262963	-3.709586	-164.759971
05441		27.251065	-3.714895	-164.715513
05442		27.263609	-3.706889	-164.686046
05443		27.242359	-3.705238	-164.665831
05444		27.222575	-3.707560	-164.645040
05445		27.219171	-3.696517	-164.634473
05446		27.184488	-3.682165	-164.631044
05447		27.130945	-3.670903	-164.620601
05448		27.104757	-3.667048	-164.620531
05449		27.099902	-3.665113	-164.614967
05450		27.059882	-3.669220	-164.643464
05451		26.992487	-3.773959	-164.715128
05452		27.022215	-3.791665	-164.763972
05453		26.993801	-3.825242	-164.706623
05454		26.992975	-3.871906	-164.609486
05455		26.983832	-3.901198	-164.528545
05456		26.963566	-3.929925	-164.431297
05457		26.963602	-3.969563	-164.294423
05458		26.964347	-3.948260	-164.154316
05459		26.882249	-3.910753	-164.029505
05460		26.785165	-3.889497	-163.935498
05461		26.779592	-3.889894	-163.867044
05462		26.781226	-3.857548	-163.846423
05463		26.703339	-3.822747	-163.859726
05464		26.711863	-3.815697	-163.865352
05465		26.784445	-3.801335	-163.865167
05466		26.764075	-3.780359	-163.870464
05467		26.730272	-3.740791	-163.900696
05468		26.747791	-3.702396	-163.923829
05469		26.778097	-3.681561	-163.913833
05470		26.781252	-3.633177	-163.918909
05471		26.750002	-3.615533	-163.954944
05472		26.438232	-3.593175	-164.041785
05473		26.102498	-3.375700	-164.167926
05474		26.021175	-3.158279	-164.255269
05475		25.854557	-3.101576	-164.386441
05476		25.496741	-2.984004	-164.493971
05477		25.148469	-2.485524	-164.525797
05478		24.788040	-2.208056	-164.637649
05479		24.227385	-1.845663	-164.735014
05480		23.510490	-1.371119	-164.843763
05481		22.899027	-0.774718	-165.033748
05482		22.540479	0.019598	-165.191737
05483		22.468269	1.053596	-165.243417
05484		22.432407	2.109899	-165.276021
05485		22.318301	3.170063	-165.310489
05486		22.103299	4.299699	-165.327903
05487		21.751818	5.408997	-165.444340
05488		21.384371	6.447735	-165.586894
05489		21.129305	7.475586	-165.700163
05490		20.707475	8.477709	-165.914976
05491		20.181191	9.203789	-166.089032
05492		19.410138	9.999327	-166.172447
05493		18.776668	10.677455	-166.228729
05494		18.332333	11.268661	-166.316758
05495		18.011220	11.701434	-166.364547
05496		17.747484	12.027352	-166.384461
05497		17.571931	12.248736	-166.389392
05498		17.498274	12.351277	-166.376735
05499		17.459323	12.392266	-166.355822
05500		17.444871	12.397939	-166.347964
05501		17.419921	12.381332	-166.354238
05502		17.404652	12.353530	-166.353556
05503		17.399295	12.319725	-166.341710
05504		17.422071	12.274419	-166.319132
05505		17.435071	12.228840	-166.307095
05506		17.440986	12.178952	-166.295730
05507		17.452700	12.141726	-166.286757
05508		17.424603	12.118927	-166.286971
05509		17.431168	12.107469	-166.281344
05510		17.419019	12.085328	-166.268488
05511		17.430760	12.063633	-166.253097
05512		17.455932	12.022059	-166.230839
05513		17.482843	12.000053	-166.218428
05514		17.479582	11.997045	-166.223700
05515		17.453402	11.994646	-166.236055
05516		17.462343	11.981357	-166.237392
05517		17.479611	11.976427	-166.234970
05518		17.479223	11.974124	-166.254122
05519		17.440461	11.974922	-166.294210
05520		17.432079	11.977890	-166.349612
05521		17.383412	12.012764	-166.416192
05522		17.323595	12.044926	-166.481656
05523		17.285264	12.097369	-166.530975
05524		17.246689	12.161353	-166.577962
05525		17.227241	12.248219	-166.629564
05526		17.251212	12.345736	-166.672184
05527		17.270060	12.446054	-166.711796
05528		17.311351	12.553898	-166.743331
05529		17.404851	12.635463	-166.767481
05530		17.487145	12.717888	-166.827406
05531		17.526903	12.844662	-166.880610
05532		17.612078	13.000062	-166.948243
05533		17.729261	13.125186	-166.897201
05534		17.873214	13.184263	-166.715693
05535		18.003438	13.213807	-166.505019
05536		18.147911	13.210296	-166.296862
05537		18.276758	13.206349	-166.126959
05538		18.337434	13.200347	-166.016095
05539		18.346596	13.185393	-165.948207
05540		18.374164	13.175076	-165.901023
05541		18.352331	13.175801	-165.854035
05542		18.332577	13.197614	-165.812580
05543		18.326212	13.218778	-165.782699
05544		18.273206	13.266214	-165.749385
05545		18.195411	13.335803	-165.714215
05546		18.136512	13.404878	-165.685704
05547		18.094997	13.481914	-165.668049
05548		18.068792	13.542810	-165.637827
05549		18.032556	13.581160	-165.618636
05550		17.992233	13.618487	-165.633313
05551		17.941849	13.657142	-165.668350
05552		17.891290	13.691276	-165.689357
05553		17.875822	13.699198	-165.670179
05554		17.882697	13.706793	-165.647109
05555		17.865742	13.712211	-165.640700
05556		17.853525	13.732164	-165.630250
05557		17.822681	13.748421	-165.626962
05558		17.831864	13.756618	-165.622712
05559		17.848254	13.766387	-165.640904
05560		17.841502	13.796247	-165.617058
05561		17.823474	13.838799	-165.557803
05562		17.828595	13.871737	-165.482128
05563		17.868562	13.868501	-165.411186
05564		17.904539	13.862154	-165.379228
05565		17.924805	13.853309	-165.373124
05566		17.970982	13.825274	-165.354791
05567		18.009128	13.796011	-165.317796
05568		18.053310	13.766020	-165.267300
05569		18.094716	13.753052	-165.200740
05570		18.147961	13.732138	-165.111028
05571		18.206004	13.700604	-165.027938
05572		18.286730	13.663368	-165.007218
05573		18.339602	13.656732	-165.062035
05574		18.313334	13.654377	-165.084360
05575		18.313146	13.637244	-165.040127
05576		18.346844	13.604252	-165.005541
05577		18.338913	13.600351	-165.025079
05578		18.334792	13.589826	-165.059262
05579		18.372838	13.561072	-165.073086
05580		18.400850	13.535385	-165.092599
05581		18.411006	13.518821	-165.110086
05582		18.465940	13.468119	-165.091186
05583		18.505229	13.432248	-165.089972
05584		18.486564	13.435799	-165.115848
05585		18.501200	13.414877	-165.121044
05586		18.556271	13.360955	-165.143862
05587		18.596348	13.327534	-165.172543
05588		18.617836	13.299827	-165.178171
05589		18.645988	13.275410	-165.197604
05590		18.697483	13.237119	-165.250873
05591		18.695282	13.230498	-165.316568
05592		18.706518	13.214500	-165.369278
05593		18.707971	13.191479	-165.426378
05594		18.709734	13.174842	-165.466832
05595		18.669490	13.194528	-165.493360
05596		18.654520	13.192841	-165.498364
05597		18.693991	13.165294	-165.503339
05598		18.711186	13.135872	-165.521125
05599		18.701475	13.119744	-165.494013
05600		18.714975	13.111873	-165.443391
05601		18.700398	13.109604	-165.399964
05602		18.767076	13.074851	-165.346059
05603		18.822541	13.052647	-165.366002
05604		18.796598	13.070585	-165.422189
05605		18.791046	13.065751	-165.455739
05606		18.840503	13.053252	-165.502516
05607		18.845635	13.054528	-165.546061
05608		18.875937	13.034449	-165.556004
05609		18.901838	13.028962	-165.562773
05610		18.920241	13.037377	-165.565972
05611		18.933728	13.040362	-165.558953
05612		18.938434	13.046338	-165.545220
05613		18.963183	13.051568	-165.517091
05614		18.981913	13.068468	-165.493779
05615		19.002646	13.065679	-165.460391
05616		19.049290	13.052410	-165.414795
05617		19.096586	13.036851	-165.359628
05618		19.140593	13.017883	-165.308092
05619		19.193575	12.982555	-165.243127
05620		19.264179	12.940379	-165.172296
05621		19.363953	12.885033	-165.094788
05622		19.580682	12.762683	-164.966909
05623		20.100033	12.481602	-164.716425
05624		20.886892	12.035761	-164.356357
05625		21.780535	11.466498	-163.978290
05626		23.001442	10.676982	-163.490648
05627		24.232338	9.464963	-163.055181
05628		25.170066	7.686371	-162.804624
05629		25.773477	5.757336	-162.706627
05630		26.051824	3.846543	-162.648547
05631		26.082771	2.075108	-162.724516
05632		26.128112	0.216353	-162.852008
05633		26.115504	-1.985386	-162.967980
05634		25.974563	-4.098048	-163.035303
05635		25.942170	-5.359528	-163.053880
05636		25.855692	-6.263873	-163.098342
05637		26.001227	-7.001189	-163.156907
05638		26.398558	-6.987886	-163.117520
05639		26.706550	-6.566208	-163.133040
05640		27.142902	-5.799227	-163.063661
05641		27.631412	-4.803771	-162.832666
05642		27.900245	-4.172875	-162.640331
05643		27.941844	-3.979381	-162.733128
05644		27.760915	-3.627714	-162.881615
05645		27.504970	-3.462166	-163.022415
05646		27.250030	-3.367176	-163.096653
05647		27.123709	-3.303465	-163.155424
05648		27.135026	-3.267524	-163.196850
05649		27.167063	-3.255839	-163.205971
05650		27.187280	-3.257760	-163.200401
05651		27.181926	-3.244569	-163.182462
05652		27.175545	-3.234462	-163.161232
05653		27.122132	-3.224708	-163.163809
05654		27.023777	-3.199525	-163.162539
05655		26.958960	-3.167434	-163.164170
05656		26.912122	-3.135249	-163.159268
05657		26.870610	-3.111920	-163.155356
05658		26.822783	-3.094920	-163.160847
05659		26.746099	-3.104788	-163.137251
05660		26.746860	-3.140536	-163.067916
05661		26.923731	-3.195861	-162.963340
05662		27.009124	-3.241186	-162.904811
05663		26.979631	-3.287499	-162.884420
05664		26.956598	-3.307448	-162.889176
05665		26.928036	-3.314290	-162.895433
05666		26.912059	-3.319196	-162.897423
05667		26.893541	-3.320578	-162.897371
05668		26.843424	-3.327026	-162.883506
05669		26.822087	-3.340947	-162.858288
05670		26.844141	-3.346869	-162.844512
05671		26.792551	-3.375567	-162.861617
05672		26.761532	-3.385982	-162.954684
05673		26.877668	-3.405719	-162.981697
05674		26.973847	-3.422230	-163.004887
05675		26.967638	-3.446034	-163.012597
05676		26.989304	-3.480671	-163.014647
05677		27.119219	-3.483407	-163.036475
05678		27.191645	-3.491841	-163.064343
05679		27.211412	-3.517244	-163.085769
05680		27.248666	-3.552116	-163.089444
05681		27.299683	-3.576215	-163.099450
05682		27.287986	-3.598864	-163.112314
05683		27.294795	-3.631158	-163.124267
05684		27.362287	-3.645959	-163.139704
05685		27.377034	-3.655916	-163.164825
05686		27.362290	-3.662591	-163.191988
05687		27.403246	-3.683415	-163.207191
05688		27.467017	-3.684965	-163.238813
05689		27.463477	-3.695258	-163.265381
05690		27.476233	-3.705740	-163.279843
05691		27.509858	-3.715333	-163.306554
05692		27.536826	-3.736614	-163.316257
05693		27.568962	-3.751361	-163.348924
05694		27.554083	-3.775260	-163.374918
05695		27.563653	-3.797979	-163.394308
05696		27.588924	-3.820515	-163.399997
05697		27.607598	-3.840258	-163.405936
05698		27.625811	-3.858863	-163.407586
05699		27.655755	-3.875442	-163.408498
05700		27.688556	-3.897567	-163.407210
05701		27.736447	-3.933731	-163.411337
05702		27.770888	-3.957893	-163.444227
05703		27.737259	-3.988022	-163.498425
05704		27.721243	-4.028264	-163.559201
05705		27.727101	-4.055219	-163.620208
05706		27.683959	-4.069631	-163.648184
05707		27.638394	-4.089735	-163.633872
05708		27.649374	-4.102050	-163.619468
05709		27.655629	-4.104546	-163.616631
05710		27.626743	-4.111560	-163.600426
05711		27.643768	-4.121278	-163.566346
05712		27.709249	-4.110542	-163.559177
05713		27.713137	-4.096056	-163.555453
05714		27.657301	-4.090235	-163.521740
05715		27.688769	-4.067951	-163.481846
05716		27.734237	-4.033282	-163.415173
05717		27.693930	-3.997233	-163.341378
05718		27.595650	-3.991318	-163.282612
05719		27.578005	-3.997112	-163.207893
05720		27.585985	-3.980550	-163.146150
05721		27.559379	-3.963995	-163.099065
05722		27.514840	-3.962976	-163.025232
05723		27.519192	-3.956880	-162.950045
05724		27.530345	-3.930935	-162.888286
05725		27.511368	-3.888770	-162.837112
05726		27.485906	-3.866608	-162.753962
05727		27.488525	-3.836004	-162.681199
05728		27.464001	-3.775557	-162.660270
05729		27.387160	-3.725643	-162.647438
05730		27.432611	-3.729482	-162.566975
05731		27.526876	-3.700689	-162.555983
05732		27.556110	-3.658892	-162.628830
05733		27.508247	-3.628550	-162.773967
05734		27.423432	-3.601108	-162.942800
05735		27.321706	-3.571908	-163.084438
05736		27.259815	-3.505533	-163.155327
05737		27.241345	-3.392689	-163.197054
05738		27.172113	-3.281667	-163.212654
05739		27.096308	-3.185787	-163.223791
05740		27.086649	-3.029624	-163.204888
05741		27.011697	-2.811941	-163.206393
05742		26.818638	-2.637811	-163.221481
05743		26.741341	-2.551804	-163.175649
05744		26.705661	-2.434302	-163.132991
05745		26.600681	-2.297771	-163.139078
05746		26.406943	-2.168732	-163.232996
05747		26.272806	-2.282644	-163.258681
05748		26.425738	-2.614313	-163.274359
05749		26.686676	-2.913845	-163.186281
05750		26.893420	-3.004600	-163.101718
05751		26.962874	-3.200868	-163.030708
05752		27.178567	-3.320477	-162.960348
05753		27.333173	-3.380923	-162.945230
05754		27.253633	-3.433593	-162.986758
05755		27.112714	-3.472010	-163.027183
05756		27.030065	-3.501599	-163.030895
05757		26.968760	-3.527391	-162.994436
05758		26.915669	-3.542295	-162.930718
05759		26.883404	-3.556314	-162.838804
05760		26.880103	-3.571598	-162.726339
05761		26.890787	-3.548069	-162.607707
05762		26.891845	-3.520242	-162.486651
05763		26.844094	-3.503862	-162.384378
05764		26.844522	-3.476102	-162.306975
05765		26.872070	-3.433911	-162.231438
05766		26.882432	-3.390013	-162.162378
05767		26.838756	-3.350183	-162.109277
05768		26.802176	-3.325365	-162.061869
05769		26.776770	-3.294811	-161.998670
05770		26.760260	-3.258198	-161.913720
05771		26.755065	-3.228114	-161.826300
05772		26.746763	-3.202740	-161.725296
05773		26.728464	-3.165965	-161.603729
05774		26.723608	-3.099531	-161.485766
05775		26.722717	-3.038015	-161.443944
05776		26.576384	-2.954561	-161.409648
05777		26.140897	-2.730666	-161.197969
05778		25.535530	-2.511802	-161.117514
05779		25.107962	-2.020861	-161.183432
05780		24.536762	-1.423712	-161.368880
05781		23.813703	-0.785401	-161.449907
05782		22.964279	0.009922	-161.523998
05783		22.299510	1.215747	-161.634103
05784		21.952863	2.583299	-161.792266
05785		21.706743	4.032521	-161.918461
05786		21.429015	5.448024	-162.065750
05787		21.045609	6.893306	-162.168171
05788		20.879647	8.277447	-162.233226
05789		20.685532	9.415429	-162.353247
05790		20.432085	10.171751	-162.482282
05791		20.022520	10.697517	-162.603759
05792		19.683324	11.089767	-162.709521
05793		19.462832	11.322897	-162.785636
05794		19.332745	11.368808	-162.835059
05795		19.262137	11.331812	-162.850600
05796		19.204779	11.326549	-162.874252
05797		19.163788	11.334776	-162.904222
05798		19.153758	11.300261	-162.919369
05799		19.175820	11.246239	-162.915578
05800		19.176405	11.214678	-162.917205
05801		19.178277	11.205713	-162.921251
05802		19.177572	11.192024	-162.921225
05803		19.211592	11.151451	-162.896952
05804		19.228352	11.108685	-162.861455
05805		19.236138	11.102962	-162.841908
05806		19.232699	11.099957	-162.836595
05807		19.234810	11.091094	-162.835506
05808		19.249550	11.066081	-162.829298
05809		19.251199	11.069056	-162.828491
05810		19.257586	11.058872	-162.820649
05811		19.260383	11.045565	-162.818761
05812		19.279399	11.019230	-162.805808
05813		19.282791	11.004803	-162.792490
05814		19.280112	10.999810	-162.786201
05815		19.264770	11.016767	-162.793632
05816		19.253449	11.024513	-162.802639
05817		19.257676	11.017381	-162.800568
05818		19.265714	11.014240	-162.795119
05819		19.273487	11.008994	-162.787187
05820		19.279001	11.003594	-162.777493
05821		19.268171	11.013554	-162.783855
05822		19.253030	11.023339	-162.800973
05823		19.241128	11.024889	-162.816820
05824		19.227551	11.018146	-162.830350
05825		19.211567	11.020130	-162.844011
05826		19.189043	11.036832	-162.868152
05827		19.180632	11.052599	-162.903152
05828		19.165785	11.065935	-162.918842
05829		19.144854	11.081405	-162.936995
05830		19.119761	11.109644	-162.958557
05831		19.124253	11.140529	-162.970635
05832		19.161678	11.153992	-162.977940
05833		19.214038	11.151261	-162.985686
05834		19.266035	11.165085	-163.016867
05835		19.305256	11.199632	-163.081572
05836		19.362595	11.245777	-163.157190
05837		19.471918	11.305005	-163.227461
05838		19.577849	11.419066	-163.303695
05839		19.631646	11.597493	-163.399740
05840		19.656731	11.849807	-163.512388
05841		19.651033	12.170775	-163.614714
05842		19.602014	12.446381	-163.693259
05843		19.609543	12.643230	-163.703548
05844		19.670342	12.719526	-163.644186
05845		19.730938	12.792350	-163.619154
05846		19.737453	12.843038	-163.591924
05847		19.831209	12.839714	-163.539190
05848		19.951149	12.840728	-163.486725
05849		20.044088	12.862831	-163.459377
05850		20.096753	12.904867	-163.427175
05851		20.116491	12.980873	-163.411435
05852		20.133079	13.065025	-163.396490
05853		20.159724	13.152301	-163.393790
05854		20.096454	13.268390	-163.400651
05855		20.040628	13.439777	-163.382250
05856		19.873228	13.652375	-163.360991
05857		19.721722	13.884837	-163.325888
05858		19.572699	14.155415	-163.265836
05859		19.477445	14.436896	-163.174559
05860		19.435872	14.653313	-163.065002
05861		19.413074	14.827811	-162.991422
05862		19.368899	15.068874	-162.955730
05863		19.255625	15.301657	-162.970316
05864		19.167093	15.475591	-162.981820
05865		19.104608	15.592015	-162.964307
05866		19.143875	15.606415	-162.887398
05867		19.228990	15.545332	-162.823571
05868		19.268265	15.543323	-162.805639
05869		19.231500	15.640780	-162.798393
05870		19.140414	15.773311	-162.732492
05871		19.040234	15.845993	-162.631298
05872		18.877262	15.972662	-162.524314
05873		18.692051	16.116986	-162.499858
05874		18.544078	16.214936	-162.486878
05875		18.409476	16.328148	-162.492131
05876		18.322208	16.404924	-162.531917
05877		18.321192	16.433170	-162.604063
05878		18.302567	16.451220	-162.717233
05879		18.289748	16.439962	-162.866883
05880		18.254097	16.438331	-163.042678
05881		18.261496	16.408740	-163.210819
05882		18.284019	16.371896	-163.401910
05883		18.287295	16.312361	-163.582925
05884		18.306650	16.234973	-163.727832
05885		18.344656	16.149658	-163.850046
05886		18.395794	16.025642	-163.968369
05887		18.451006	15.889421	-164.108939
05888		18.506249	15.745500	-164.280573
05889		18.627084	15.555866	-164.443037
05890		18.763128	15.379683	-164.623693
05891		18.806848	15.305524	-164.851442
05892		18.820605	15.279186	-165.082519
05893		18.806416	15.232727	-165.310396
05894		18.818065	15.181856	-165.483204
05895		18.866842	15.097816	-165.649888
05896		18.996577	14.953029	-165.840907
05897		19.123367	14.788114	-166.052247
05898		19.168857	14.671415	-166.241974
05899		19.224150	14.535018	-166.337087
05900		19.267439	14.396296	-166.404148
05901		19.213274	14.336489	-166.469954
05902		19.213612	14.268014	-166.517459
05903		19.277441	14.187313	-166.531675
05904		19.268019	14.165857	-166.533546
05905		19.287973	14.116244	-166.529941
05906		19.354596	14.045920	-166.553561
05907		19.406962	13.989279	-166.607566
05908		19.440421	13.930949	-166.656755
05909		19.505485	13.856699	-166.709698
05910		19.528658	13.796422	-166.805708
05911		19.579139	13.721713	-166.908791
05912		19.634020	13.657904	-167.012375
05913		19.631061	13.634599	-167.106645
05914		19.665491	13.604021	-167.200418
05915		19.688658	13.576696	-167.312141
05916		19.666890	13.613005	-167.456433
05917		19.620502	13.649645	-167.621690
05918		19.584853	13.711957	-167.822840
05919		19.489959	13.789989	-168.061793
05920		19.388422	13.879660	-168.357394
05921		19.217012	13.973857	-168.639458
05922		19.043434	14.032460	-168.870174
05923		18.891234	14.067559	-169.049244
05924		18.817310	14.063573	-169.110840
05925		18.877505	14.016716	-169.097443
05926		18.920560	13.982356	-169.088302
05927		18.939726	13.967745	-169.045004
05928		19.003438	13.954759	-168.999015
05929		19.039714	13.933425	-168.973740
05930		19.035611	13.898762	-168.963285
05931		19.057564	13.829135	-168.949355
05932		19.110747	13.754326	-168.921403
05933		19.161748	13.695248	-168.883653
05934		19.225645	13.646058	-168.851121
05935		19.264828	13.618943	-168.836318
05936		19.274867	13.581272	-168.825728
05937		19.292565	13.524960	-168.811074
05938		19.326519	13.452364	-168.786049
05939		19.365969	13.382706	-168.749743
05940		19.403083	13.312741	-168.711840
05941		19.461658	13.240396	-168.676202
05942		19.458877	13.197733	-168.653854
05943		19.440702	13.185886	-168.649898
05944		19.406730	13.174459	-168.652736
05945		19.398637	13.163027	-168.653905
05946		19.387870	13.148304	-168.648221
05947		19.396888	13.146486	-168.636096
05948		19.388016	13.160547	-168.624462
05949		19.384189	13.177591	-168.608613
05950		19.392005	13.181764	-168.594775
05951		19.397538	13.175659	-168.585426
05952		19.383995	13.170676	-168.579103
05953		19.408729	13.147956	-168.560871
05954		19.444506	13.114995	-168.527066
05955		19.503694	13.069234	-168.476798
05956		19.573408	12.999211	-168.408534
05957		19.770681	12.849947	-168.296513
05958		20.040646	12.630007	-168.135595
05959		20.484133	12.243447	-167.884011
05960		21.304065	11.600663	-167.513295
05961		22.314743	10.853721	-167.085502
05962		23.027300	10.315245	-166.783987
05963		23.486354	9.893241	-166.544929
05964		24.009112	9.389107	-166.303142
05965		24.678288	8.804729	-166.058405
05966		25.386515	8.171274	-165.871222
05967		25.979985	7.560973	-165.722029
05968		26.475186	6.871186	-165.579674
05969		26.930359	5.978845	-165.481410
05970		27.242081	5.045874	-165.441147
05971		27.506772	4.145947	-165.400846
05972		27.859790	3.199353	-165.355106
05973		28.110646	2.106563	-165.212500
05974		28.147367	0.617811	-165.000143
05975		28.282057	-0.604530	-164.908764
05976		28.202120	-1.193864	-164.902087
05977		28.079351	-1.763540	-164.984452
05978		27.890997	-2.244497	-165.045306
05979		27.737521	-2.511077	-165.075352
05980		27.918719	-2.446137	-164.914247
05981		28.349015	-2.024167	-164.671057
05982		28.797080	-1.482189	-164.508032
05983		29.053350	-1.101483	-164.408739
05984		29.093006	-1.152668	-164.408166
05985		28.921571	-1.070388	-164.434566
05986		28.759636	-0.976064	-164.480173
05987		28.639409	-0.896086	-164.507961
05988		28.526524	-0.827977	-164.543776
05989		28.458670	-0.746883	-164.551548
05990		28.396818	-0.681835	-164.553572
05991		28.343374	-0.626542	-164.549686
05992		28.289425	-0.578830	-164.549290
05993		28.226112	-0.529149	-164.553551
05994		28.196207	-0.488684	-164.546494
05995		28.187709	-0.450006	-164.527918
05996		28.197964	-0.435780	-164.501266
05997		28.203080	-0.423001	-164.473689
05998		28.173787	-0.409776	-164.457581
05999		28.141395	-0.414026	-164.434652
06000		28.160153	-0.414177	-164.385493
06001		28.179300	-0.411450	-164.323639
06002		28.191450	-0.435060	-164.243590
06003		28.284005	-0.463063	-164.113267
06004		28.424462	-0.563027	-163.944395
06005		28.542132	-0.669456	-163.791930
06006		28.628723	-0.801657	-163.626718
06007		28.726318	-0.947374	-163.486970
06008		28.802499	-1.029032	-163.482239
06009		28.862896	-1.072082	-163.569004
06010		28.996022	-1.110080	-163.573337
06011		29.109884	-1.092541	-163.521642
06012		29.169943	-1.078392	-163.496865
06013		29.178207	-1.076005	-163.522251
06014		29.185150	-1.060506	-163.518631
06015		29.205612	-1.029823	-163.469372
06016		29.183789	-0.992173	-163.405571
06017		29.138726	-0.970174	-163.345220
06018		29.099179	-0.965862	-163.309114
06019		29.055142	-0.973620	-163.279175
06020		29.004422	-0.986301	-163.256704
06021		29.051300	-1.024374	-163.252719
06022		29.111357	-1.065456	-163.289164
06023		29.167836	-1.092711	-163.346726
06024		29.218399	-1.130011	-163.414598
06025		29.206476	-1.141749	-163.448157
06026		29.190378	-1.150035	-163.401262
06027		29.215764	-1.150573	-163.320433
06028		29.221777	-1.140922	-163.243732
06029		29.199158	-1.127148	-163.179106
06030		29.153939	-1.119324	-163.129963
06031		29.094630	-1.103518	-163.086293
06032		29.053832	-1.067786	-163.045439
06033		29.039292	-1.044958	-162.931179
06034		29.042611	-0.982805	-162.830404
06035		28.943194	-0.921045	-162.770106
06036		28.984931	-0.921532	-162.620881
06037		29.052498	-0.884126	-162.503772
06038		28.969552	-0.813194	-162.539454
06039		28.821590	-0.754768	-162.700572
06040		28.771750	-0.723622	-162.821880
06041		28.783326	-0.657155	-162.887914
06042		28.692915	-0.573908	-162.939327
06043		28.585532	-0.513846	-162.965330
06044		28.594222	-0.461563	-162.915049
06045		28.589665	-0.389620	-162.824967
06046		28.492964	-0.280714	-162.772457
06047		28.329026	-0.158951	-162.801902
06048		28.226083	-0.025760	-162.823195
06049		28.146294	0.116785	-162.818563
06050		27.968264	0.265888	-162.852000
06051		27.837082	0.354742	-162.836557
06052		27.847226	0.413906	-162.764407
06053		27.849610	0.511291	-162.680568
06054		27.805047	0.569346	-162.596430
06055		27.806749	0.593923	-162.496371
06056		27.813591	0.632681	-162.410685
06057		27.814271	0.665652	-162.320131
06058		27.842673	0.675358	-162.215013
06059		27.881868	0.679828	-162.132652
06060		27.871705	0.695257	-162.100109
06061		27.846165	0.710679	-162.089934
06062		27.848170	0.692924	-162.054354
06063		27.891135	0.667336	-161.980578
06064		27.917803	0.621487	-161.908805
06065		27.880019	0.537046	-161.881003
06066		27.851597	0.420581	-161.837674
06067		27.977099	0.347199	-161.700010
06068		28.086488	0.341564	-161.563492
06069		28.071868	0.328285	-161.485929
06070		28.019293	0.314509	-161.440178
06071		28.012514	0.285086	-161.363752
06072		28.082662	0.220874	-161.246686
06073		28.165724	0.147834	-161.101172
06074		28.198812	0.091976	-160.975840
06075		28.245058	0.025708	-160.831297
06076		28.308861	-0.049265	-160.686451
06077		28.392587	-0.105445	-160.549041
06078		28.473716	-0.123105	-160.429190
06079		28.495347	-0.118781	-160.358189
06080		28.478207	-0.125949	-160.321728
06081		28.481901	-0.129330	-160.288314
06082		28.506403	-0.136016	-160.241944
06083		28.544595	-0.158408	-160.178906
06084		28.603816	-0.184374	-160.113087
06085		28.668843	-0.203966	-160.034416
06086		28.719347	-0.247367	-159.954312
06087		28.784361	-0.312175	-159.899031
06088		28.822061	-0.347827	-159.860028
06089		28.832932	-0.372242	-159.838689
06090		28.878959	-0.371069	-159.844621
06091		28.864326	-0.353830	-159.879688
06092		28.800966	-0.351951	-159.901496
06093		28.790059	-0.347187	-159.889617
06094		28.779549	-0.328288	-159.853781
06095		28.733099	-0.318414	-159.814255
06096		28.665083	-0.307367	-159.774162
06097		28.565765	-0.287951	-159.733502
06098		28.447709	-0.264614	-159.705278
06099		28.284641	-0.236924	-159.676342
06100		28.174563	-0.225006	-159.628883
06101		28.120630	-0.211045	-159.568893
06102		28.031143	-0.191341	-159.533595
06103		27.887258	-0.172895	-159.519070
06104		27.799982	-0.155643	-159.511290
06105		27.729977	-0.140031	-159.496369
06106		27.644466	-0.130399	-159.492108
06107		27.546564	-0.122317	-159.487606
06108		27.482924	-0.107905	-159.493893
06109		27.395427	-0.118253	-159.485604
06110		27.156341	-0.020417	-159.374498
06111		27.025211	0.183779	-159.438206
06112		26.764128	0.536460	-159.497321
06113		26.241498	0.557526	-159.630696
06114		25.325426	0.439672	-159.822185
06115		24.110360	0.544047	-160.029923
06116		23.251053	1.465479	-160.082362
06117		23.128561	2.970855	-160.086606
06118		22.735563	4.717185	-160.385440
06119		21.922741	6.603462	-160.733945
06120		20.960694	8.458739	-161.038706
06121		20.058265	10.029352	-161.462773
06122		19.294904	11.281181	-161.896830
06123		18.655263	12.032111	-162.154818
06124		18.194544	12.549865	-162.294590
06125		17.920556	12.894641	-162.336937
06126		17.805112	13.033542	-162.317366
06127		17.792741	13.027976	-162.264848
06128		17.851666	12.940500	-162.216433
06129		17.889529	12.880736	-162.193543
06130		17.910555	12.827244	-162.208864
06131		17.912062	12.748413	-162.246047
06132		17.925191	12.669926	-162.260177
06133		17.952443	12.615634	-162.254305
06134		17.976271	12.593726	-162.249660
06135		18.002820	12.573005	-162.243992
06136		18.040152	12.553631	-162.229924
06137		18.094045	12.503611	-162.203023
06138		18.145266	12.472139	-162.183941
06139		18.219623	12.460642	-162.189738
06140		18.259703	12.468565	-162.201011
06141		18.309148	12.464487	-162.217106
06142		18.367819	12.428560	-162.213201
06143		18.442071	12.416215	-162.215400
06144		18.477498	12.406034	-162.225887
06145		18.494341	12.406675	-162.233400
06146		18.525244	12.390142	-162.234165
06147		18.563114	12.364025	-162.238972
06148		18.599917	12.335540	-162.237220
06149		18.627035	12.289799	-162.238685
06150		18.641515	12.268171	-162.256271
06151		18.618140	12.257384	-162.290274
06152		18.583962	12.270382	-162.336219
06153		18.556841	12.293813	-162.388003
06154		18.486672	12.342008	-162.453327
06155		18.422507	12.414218	-162.523989
06156		18.418995	12.498082	-162.591688
06157		18.484993	12.591947	-162.647679
06158		18.595891	12.662470	-162.681742
06159		18.715256	12.742813	-162.711265
06160		18.871156	12.865282	-162.754471
06161		18.973898	13.043281	-162.863103
06162		18.998674	13.317690	-163.000210
06163		18.957923	13.647615	-163.113050
06164		19.168813	13.695596	-162.793927
06165		19.606125	13.640503	-162.365230
06166		19.816822	13.665823	-162.187853
06167		19.834374	13.759381	-162.183269
06168		19.829951	13.852003	-162.236743
06169		19.827278	13.918337	-162.318049
06170		19.773309	14.035749	-162.422349
06171		19.670939	14.190781	-162.531740
06172		19.553325	14.338961	-162.616220
06173		19.499719	14.428010	-162.630207
06174		19.500159	14.473019	-162.552961
06175		19.501908	14.510694	-162.492094
06176		19.504975	14.523261	-162.466348
06177		19.531871	14.521746	-162.476849
06178		19.593212	14.517895	-162.497462
06179		19.621231	14.545174	-162.538474
06180		19.653943	14.587483	-162.571556
06181		19.697967	14.605210	-162.598992
06182		19.697209	14.701604	-162.592028
06183		19.655321	14.752320	-162.591854
06184		19.642947	14.747640	-162.631940
06185		19.625634	14.722393	-162.710869
06186		19.610015	14.658460	-162.774468
06187		19.589083	14.604676	-162.759131
06188		19.549298	14.582322	-162.796178
06189		19.516336	14.547671	-162.864071
06190		19.544687	14.499122	-162.877334
06191		19.567629	14.459821	-162.845444
06192		19.602767	14.437533	-162.797982
06193		19.664486	14.420270	-162.745197
06194		19.739786	14.379073	-162.724179
06195		19.796203	14.325141	-162.711954
06196		19.826119	14.304122	-162.704312
06197		19.848205	14.293589	-162.711880
06198		19.866650	14.286919	-162.758276
06199		19.865589	14.282772	-162.824110
06200		19.850393	14.282894	-162.921516
06201		19.828607	14.288755	-163.029646
06202		19.813469	14.291601	-163.122790
06203		19.799089	14.297018	-163.202044
06204		19.792957	14.291027	-163.276825
06205		19.782457	14.289252	-163.351137
06206		19.769838	14.284362	-163.404098
06207		19.768078	14.283430	-163.449004
06208		19.781615	14.266463	-163.498537
06209		19.789892	14.258218	-163.549512
06210		19.750525	14.276940	-163.588465
06211		19.694754	14.306173	-163.580211
06212		19.713206	14.298827	-163.527758
06213		19.785866	14.261331	-163.499794
06214		19.795567	14.256094	-163.563931
06215		19.785112	14.281658	-163.644981
06216		19.799235	14.286655	-163.747130
06217		19.827119	14.273925	-163.870024
06218		19.812355	14.279005	-163.990224
06219		19.799629	14.273596	-164.081911
06220		19.838789	14.225776	-164.124085
06221		19.909667	14.159933	-164.132465
06222		19.969935	14.095579	-164.161981
06223		20.009659	14.032369	-164.233818
06224		20.025566	13.979454	-164.296718
06225		20.077801	13.909399	-164.262787
06226		20.206904	13.771321	-164.135171
06227		20.352445	13.639319	-163.988847
06228		20.364280	13.605066	-163.898704
06229		20.354966	13.579715	-163.832027
06230		20.295947	13.564268	-163.746485
06231		20.256510	13.520985	-163.521429
06232		20.282877	13.436141	-163.219777
06233		20.327345	13.361239	-162.955848
06234		20.399485	13.274518	-162.792443
06235		20.380872	13.264023	-162.830917
06236		20.332947	13.271689	-162.927650
06237		20.332930	13.246081	-163.030150
06238		20.322004	13.247095	-163.204248
06239		20.281976	13.266597	-163.420560
06240		20.251399	13.264583	-163.638154
06241		20.236739	13.263526	-163.833137
06242		20.207196	13.229541	-164.049304
06243		20.074939	13.211443	-164.304679
06244		19.957728	13.200357	-164.488361
06245		19.919641	13.163790	-164.618518
06246		19.929170	13.100472	-164.684013
06247		19.955510	12.991886	-164.678624
06248		19.993034	12.848301	-164.630667
06249		20.046476	12.687867	-164.568320
06250		20.125608	12.515923	-164.506195
06251		20.208916	12.362355	-164.439512
06252		20.259034	12.224112	-164.384950
06253		20.336994	12.061346	-164.323850
06254		20.447746	11.901856	-164.245207
06255		20.569165	11.773447	-164.149493
06256		20.713246	11.654924	-164.039702
06257		20.855977	11.529628	-163.940883
06258		21.040646	11.413282	-163.852342
06259		21.102716	11.349498	-163.797680
06260		21.138016	11.304215	-163.757276
06261		21.207051	11.243669	-163.709158
06262		21.297956	11.151544	-163.643492
06263		21.531182	11.001274	-163.532023
06264		21.915206	10.770403	-163.353984
06265		22.400653	10.419916	-163.113504
06266		22.961916	9.992257	-162.841589
06267		23.757169	9.396940	-162.501002
06268		24.733185	8.554461	-162.128301
06269		25.765744	7.429187	-161.845969
06270		26.431284	5.944140	-161.750273
06271		26.665465	4.234213	-161.775032
06272		26.825844	2.772615	-161.766112
06273		26.768469	1.682017	-161.658321
06274		26.535485	0.773106	-161.546005
06275		26.378674	0.048403	-161.453202
06276		26.323680	-0.630952	-161.408529
06277		26.210361	-1.178006	-161.363765
06278		26.060111	-1.520520	-161.293623
06279		26.027517	-1.835727	-161.280941
06280		25.979927	-2.011941	-161.243603
06281		26.442938	-1.715228	-160.937261
06282		26.850415	-1.208134	-160.788827
06283		27.244587	-0.627050	-160.693319
06284		27.312357	-0.809338	-160.754061
06285		27.236688	-0.898347	-160.786896
06286		27.190019	-0.922660	-160.822871
06287		27.211220	-0.916701	-160.836277
06288		27.209393	-0.893577	-160.851315
06289		27.231327	-0.893082	-160.857132
06290		27.261040	-0.886973	-160.867266
06291		27.278257	-0.861345	-160.861044
06292		27.299381	-0.832045	-160.854342
06293		27.305419	-0.794818	-160.846081
06294		27.301664	-0.760216	-160.841112
06295		27.311129	-0.737921	-160.829012
06296		27.342232	-0.720467	-160.813993
06297		27.342074	-0.719485	-160.797024
06298		27.385154	-0.725219	-160.777471
06299		27.431501	-0.735581	-160.764857
06300		27.435897	-0.747138	-160.769098
06301		27.436442	-0.770724	-160.776472
06302		27.428508	-0.791516	-160.772911
06303		27.419895	-0.800089	-160.754589
06304		27.435510	-0.808856	-160.731010
06305		27.489082	-0.815702	-160.704152
06306		27.493503	-0.819996	-160.689718
06307		27.471150	-0.836407	-160.681664
06308		27.480319	-0.856678	-160.647750
06309		27.503947	-0.882615	-160.601093
06310		27.485980	-0.959851	-160.544589
06311		27.439924	-1.052393	-160.472096
06312		27.456028	-1.155499	-160.384568
06313		27.506023	-1.250519	-160.294111
06314		27.573642	-1.354292	-160.217832
06315		27.575755	-1.466027	-160.169796
06316		27.528708	-1.572360	-160.134676
06317		27.479510	-1.587851	-160.169225
06318		27.435805	-1.440954	-160.345325
06319		27.339143	-1.375209	-160.422146
06320		27.328299	-1.333328	-160.488390
06321		27.295230	-1.303452	-160.540168
06322		27.253583	-1.266745	-160.582931
06323		27.222427	-1.237238	-160.619339
06324		27.201085	-1.216266	-160.626868
06325		27.197487	-1.209887	-160.615585
06326		27.210218	-1.208738	-160.580949
06327		27.210435	-1.196926	-160.528975
06328		27.202218	-1.196389	-160.463473
06329		27.204576	-1.216650	-160.401198
06330		27.209042	-1.255070	-160.373660
06331		27.171853	-1.306361	-160.403566
06332		27.086920	-1.338827	-160.454950
06333		27.037269	-1.364481	-160.493867
06334		27.018247	-1.394857	-160.495583
06335		27.042277	-1.409136	-160.497258
06336		27.031476	-1.410052	-160.482191
06337		27.032460	-1.418254	-160.459933
06338		27.029476	-1.421741	-160.435553
06339		26.999709	-1.417322	-160.426769
06340		26.973767	-1.423778	-160.384933
06341		27.023621	-1.428193	-160.333005
06342		27.088686	-1.435622	-160.309283
06343		27.129749	-1.440648	-160.324157
06344		27.165109	-1.465911	-160.350256
06345		27.175746	-1.482044	-160.404894
06346		27.103330	-1.480683	-160.480101
06347		27.028857	-1.487703	-160.527323
06348		27.063386	-1.481120	-160.553064
06349		27.061984	-1.469532	-160.591700
06350		27.014319	-1.467945	-160.643264
06351		27.005585	-1.466106	-160.652240
06352		27.063773	-1.442534	-160.624988
06353		27.073443	-1.409932	-160.590670
06354		27.078578	-1.399547	-160.535823
06355		27.161404	-1.403302	-160.439213
06356		27.200376	-1.399865	-160.344993
06357		27.130857	-1.401412	-160.266180
06358		27.068591	-1.427695	-160.175182
06359		27.122129	-1.432554	-160.093658
06360		27.124066	-1.413189	-160.036474
06361		27.046307	-1.387015	-159.997906
06362		27.027382	-1.356984	-159.944346
06363		27.077826	-1.320340	-159.887607
06364		27.094516	-1.273798	-159.873564
06365		27.045850	-1.244327	-159.868278
06366		27.072456	-1.205837	-159.863898
06367		27.110849	-1.158641	-159.859764
06368		27.072775	-1.085868	-159.878936
06369		26.906221	-1.065254	-159.831324
06370		27.019276	-1.082633	-159.675168
06371		27.200118	-1.074253	-159.589257
06372		27.209286	-1.040208	-159.610581
06373		27.103087	-0.993539	-159.765471
06374		27.027124	-0.960954	-159.948082
06375		27.045258	-0.920548	-160.101018
06376		27.032484	-0.847501	-160.250048
06377		26.960733	-0.787120	-160.388677
06378		26.959509	-0.741454	-160.493890
06379		26.949533	-0.664882	-160.592581
06380		26.881864	-0.555686	-160.730270
06381		26.721986	-0.437011	-160.928330
06382		26.541063	-0.340002	-161.072224
06383		26.413398	-0.260422	-161.066096
06384		26.356068	-0.274096	-160.911976
06385		26.449701	-0.457559	-160.666509
06386		26.647103	-0.711342	-160.434581
06387		26.827705	-0.783300	-160.197584
06388		26.930909	-0.874113	-160.050181
06389		27.008206	-0.952539	-159.967179
06390		27.037371	-1.019364	-159.940824
06391		27.067951	-1.112057	-159.926292
06392		27.080751	-1.198061	-159.901071
06393		27.093443	-1.303209	-159.863860
06394		27.098782	-1.364915	-159.820205
06395		27.094808	-1.407944	-159.766880
06396		27.131274	-1.447962	-159.701001
06397		27.155782	-1.464874	-159.621426
06398		27.172305	-1.477187	-159.529824
06399		27.167674	-1.493047	-159.420471
06400		27.171555	-1.502512	-159.308227
06401		27.199183	-1.502053	-159.206397
06402		27.211348	-1.486786	-159.120525
06403		27.221025	-1.465735	-159.040354
06404		27.201350	-1.448371	-158.971705
06405		27.200090	-1.438758	-158.911751
06406		27.203015	-1.415839	-158.867221
06407		27.178311	-1.415736	-158.826597
06408		27.175007	-1.426190	-158.770242
06409		27.179823	-1.407770	-158.715997
06410		27.159366	-1.381745	-158.682773
06411		27.130511	-1.352661	-158.657325
06412		27.128541	-1.327674	-158.636658
06413		27.101820	-1.301554	-158.630819
06414		27.039084	-1.277634	-158.627964
06415		26.961012	-1.260331	-158.597679
06416		26.888578	-1.260377	-158.554698
06417		26.774018	-1.278069	-158.505194
06418		26.630630	-1.315300	-158.473523
06419		26.477028	-1.359317	-158.473822
06420		26.332980	-1.339894	-158.507632
06421		26.048356	-1.145386	-158.363879
06422		25.747444	-1.078696	-158.448038
06423		25.093489	-0.943561	-158.798758
06424		24.319731	-0.641821	-159.316958
06425		23.269063	-0.387309	-159.927263
06426		22.337641	0.240190	-160.528546
06427		21.684421	1.300528	-161.044083
06428		21.584855	2.984474	-161.407645
06429		21.655452	4.337088	-161.626913
06430		21.271958	5.623456	-161.842682
06431		20.963739	6.872401	-162.141490
06432		20.702561	7.874593	-162.377812
06433		20.204511	8.759550	-162.578680
06434		19.722558	9.641873	-162.800019
06435		19.480321	10.419783	-163.029709
06436		19.168669	10.979680	-163.184196
06437		18.799616	11.421824	-163.360321
06438		18.559984	11.687110	-163.504921
06439		18.427101	11.858581	-163.565669
06440		18.398968	11.914730	-163.562169
06441		18.463660	11.866397	-163.505126
06442		18.581105	11.798316	-163.420915
06443		18.647588	11.749135	-163.371589
06444		18.645112	11.743958	-163.378388
06445		18.629054	11.742333	-163.400009
06446		18.624736	11.740134	-163.405785
06447		18.617835	11.752943	-163.404153
06448		18.627616	11.751665	-163.396551
06449		18.628547	11.744948	-163.387041
06450		18.640111	11.744628	-163.373931
06451		18.635720	11.745129	-163.373388
06452		18.633011	11.739188	-163.368567
06453		18.644327	11.711646	-163.358743
06454		18.657152	11.696288	-163.353503
06455		18.658532	11.672910	-163.346513
06456		18.668726	11.666045	-163.349091
06457		18.675381	11.636402	-163.348327
06458		18.687892	11.618617	-163.354205
06459		18.681037	11.612403	-163.367411
06460		18.670477	11.612146	-163.378599
06461		18.666027	11.609885	-163.393846
06462		18.664988	11.614462	-163.406781
06463		18.651155	11.633238	-163.425472
06464		18.621604	11.652657	-163.454314
06465		18.585850	11.675365	-163.480090
06466		18.566563	11.701574	-163.501827
06467		18.547360	11.732531	-163.529819
06468		18.527367	11.768981	-163.566601
06469		18.527443	11.819072	-163.609343
06470		18.522506	11.895855	-163.663578
06471		18.575504	11.965389	-163.712427
06472		18.684627	12.016905	-163.762854
06473		18.877226	12.103922	-163.803032
06474		19.178404	12.239404	-163.922910
06475		19.548790	12.574424	-163.835421
06476		19.586311	12.856153	-163.718948
06477		19.626350	12.903745	-163.313805
06478		19.737733	12.939990	-162.941748
06479		19.836052	12.979376	-162.756127
06480		19.894153	13.102694	-162.639712
06481		19.845263	13.259734	-162.627078
06482		19.821784	13.375530	-162.661919
06483		19.798257	13.489691	-162.760707
06484		19.669487	13.659452	-162.889002
06485		19.586032	13.791175	-162.988071
06486		19.548930	13.859870	-163.072847
06487		19.466865	13.959960	-163.204067
06488		19.356793	14.106546	-163.348833
06489		19.291286	14.210093	-163.460984
06490		19.279761	14.286504	-163.527019
06491		19.317395	14.274386	-163.610696
06492		19.267624	14.353482	-163.822793
06493		19.200215	14.477394	-163.990773
06494		19.186506	14.490291	-164.099399
06495		19.152306	14.503834	-164.223738
06496		19.104503	14.530975	-164.384312
06497		19.063128	14.523505	-164.547552
06498		19.076760	14.480267	-164.666217
06499		19.080932	14.474138	-164.748914
06500		19.072203	14.487170	-164.829371
06501		19.106904	14.458474	-164.876772
06502		19.151264	14.420427	-164.907174
06503		19.168127	14.401213	-164.969953
06504		19.166047	14.396182	-165.045319
06505		19.164999	14.384162	-165.072948
06506		19.180787	14.356143	-165.045094
06507		19.197473	14.340669	-165.026111
06508		19.191885	14.338034	-165.039789
06509		19.208961	14.316288	-165.056548
06510		19.193222	14.333631	-165.078403
06511		19.207310	14.326701	-165.103891
06512		19.224121	14.316756	-165.200594
06513		19.256151	14.288837	-165.330632
06514		19.246312	14.299105	-165.425382
06515		19.246764	14.286623	-165.471992
06516		19.265369	14.259718	-165.501728
06517		19.312697	14.227927	-165.551464
06518		19.321891	14.216835	-165.635929
06519		19.346725	14.198945	-165.742165
06520		19.371077	14.176420	-165.862018
06521		19.407050	14.141067	-166.000470
06522		19.438579	14.084991	-166.158147
06523		19.483317	14.009213	-166.314392
06524		19.516398	13.940303	-166.471294
06525		19.523256	13.898254	-166.617982
06526		19.525665	13.858086	-166.742986
06527		19.572819	13.793384	-166.828276
06528		19.597333	13.753308	-166.904845
06529		19.616661	13.717008	-166.935828
06530		19.649749	13.676291	-166.960197
06531		19.670955	13.634676	-167.009742
06532		19.681127	13.614807	-167.051359
06533		19.703908	13.589046	-167.092770
06534		19.707482	13.568772	-167.143769
06535		19.684713	13.573495	-167.188535
06536		19.646780	13.566841	-167.239956
06537		19.648296	13.531641	-167.252342
06538		19.698887	13.482574	-167.252380
06539		19.675432	13.481964	-167.276759
06540		19.678362	13.455429	-167.260820
06541		19.724114	13.423873	-167.257119
06542		19.738923	13.393062	-167.296739
06543		19.709745	13.382705	-167.347841
06544		19.707949	13.368491	-167.392822
06545		19.719264	13.345549	-167.457258
06546		19.739218	13.316559	-167.522984
06547		19.767701	13.292506	-167.602742
06548		19.767801	13.290098	-167.693543
06549		19.756209	13.275852	-167.781780
06550		19.780838	13.254087	-167.853323
06551		19.819614	13.220563	-167.951208
06552		19.876409	13.138413	-168.054828
06553		19.885237	13.061975	-168.205724
06554		19.798483	13.076328	-168.379510
06555		19.670443	13.134151	-168.493672
06556		19.581588	13.152945	-168.500056
06557		19.544520	13.155063	-168.470057
06558		19.569879	13.126842	-168.409034
06559		19.717399	13.006273	-168.296128
06560		19.855992	12.843410	-168.176226
06561		19.959023	12.687213	-168.089711
06562		20.028625	12.573477	-168.041654
06563		20.042299	12.506621	-168.016945
06564		20.062165	12.446489	-167.983024
06565		20.071511	12.419154	-167.948065
06566		20.102837	12.398650	-167.911634
06567		20.140873	12.382289	-167.888946
06568		20.151646	12.382912	-167.882286
06569		20.141801	12.375540	-167.876814
06570		20.157837	12.349946	-167.857179
06571		20.193202	12.322401	-167.822793
06572		20.240495	12.279844	-167.775412
06573		20.352788	12.201659	-167.704797
06574		20.470128	12.114023	-167.621542
06575		20.580249	12.048816	-167.523115
06576		20.746334	11.931123	-167.407843
06577		20.908954	11.792079	-167.253371
06578		21.121031	11.628275	-167.080293
06579		21.377032	11.417511	-166.893658
06580		21.620967	11.194947	-166.698695
06581		21.857920	10.968588	-166.503387
06582		22.193330	10.676754	-166.317532
06583		22.649832	10.260343	-166.130196
06584		22.987173	9.870672	-166.005911
06585		23.218121	9.558340	-165.914030
06586		23.725251	8.934013	-165.716135
06587		24.352470	8.102108	-165.409075
06588		24.821154	7.332393	-165.159517
06589		25.143518	6.711676	-165.005869
06590		25.366672	6.053843	-164.889495
06591		25.632758	5.304632	-164.746707
06592		25.419907	4.387237	-164.442409
06593		25.263599	3.729990	-164.263406
06594		25.157345	3.013501	-164.223936
06595		24.915552	2.188407	-164.369953
06596		24.554920	1.434513	-164.434409
06597		24.401353	0.881645	-164.405587
06598		24.398251	0.425220	-164.410003
06599		24.599307	0.227999	-164.218360
06600		25.242960	0.171361	-163.937720
06601		26.072848	-0.019771	-163.810235
06602		26.805219	-0.081133	-163.726542
06603		27.134264	-0.256892	-163.701861
06604		27.504356	-0.781965	-163.766227
06605		27.733387	-1.223817	-163.826531
06606		27.796265	-1.421524	-163.867038
06607		27.794373	-1.514355	-163.912139
06608		27.811187	-1.583886	-163.942426
06609		27.797198	-1.581859	-163.949162
06610		27.749995	-1.569739	-163.959569
06611		27.725083	-1.557852	-163.955180
06612		27.701595	-1.550882	-163.936546
06613		27.666241	-1.554671	-163.921167
06614		27.650978	-1.581634	-163.892830
06615		27.648253	-1.598433	-163.861088
06616		27.610098	-1.613556	-163.821739
06617		27.596460	-1.627340	-163.773841
06618		27.565173	-1.644074	-163.738422
06619		27.528610	-1.683610	-163.697317
06620		27.509821	-1.731187	-163.650102
06621		27.477544	-1.770055	-163.592765
06622		27.472036	-1.794587	-163.530296
06623		27.454461	-1.836132	-163.475581
06624		27.399398	-1.893185	-163.434537
06625		27.360605	-1.943708	-163.360276
06626		27.289086	-2.002411	-163.261678
06627		27.239956	-2.074787	-163.154814
06628		27.213592	-2.167682	-163.064924
06629		27.134416	-2.260993	-163.018353
06630		26.987471	-2.229844	-163.097432
06631		26.927077	-2.213823	-163.116530
06632		26.915990	-2.193911	-163.094205
06633		26.913131	-2.174503	-163.054667
06634		26.874166	-2.150486	-163.019130
06635		26.814382	-2.138335	-162.990131
06636		26.781239	-2.133699	-162.961764
06637		26.762549	-2.129843	-162.932275
06638		26.730561	-2.123102	-162.900644
06639		26.717060	-2.130747	-162.851321
06640		26.742724	-2.135292	-162.788502
06641		26.752297	-2.138543	-162.721116
06642		26.719427	-2.144178	-162.668358
06643		26.736296	-2.172373	-162.598286
06644		26.782060	-2.197297	-162.541196
06645		26.762633	-2.218852	-162.506874
06646		26.750534	-2.247990	-162.458875
06647		26.755424	-2.279878	-162.418955
06648		26.710306	-2.301024	-162.395653
06649		26.614209	-2.318099	-162.401208
06650		26.557336	-2.340156	-162.389259
06651		26.525551	-2.356328	-162.371705
06652		26.495305	-2.367963	-162.360357
06653		26.456412	-2.372824	-162.350988
06654		26.404426	-2.384767	-162.338382
06655		26.399060	-2.396251	-162.314945
06656		26.380997	-2.400006	-162.292276
06657		26.402681	-2.410845	-162.249836
06658		26.442396	-2.413107	-162.238167
06659		26.437158	-2.426314	-162.248026
06660		26.466100	-2.441521	-162.267489
06661		26.468189	-2.444341	-162.305359
06662		26.454257	-2.455598	-162.324020
06663		26.464443	-2.466897	-162.318619
06664		26.508666	-2.471111	-162.304447
06665		26.527776	-2.459275	-162.275717
06666		26.522195	-2.441241	-162.254494
06667		26.534942	-2.435237	-162.215200
06668		26.550037	-2.404539	-162.183994
06669		26.498733	-2.366523	-162.155945
06670		26.468435	-2.331095	-162.114982
06671		26.459680	-2.304420	-162.034729
06672		26.468276	-2.262818	-161.932956
06673		26.443978	-2.202930	-161.837422
06674		26.409844	-2.169291	-161.705758
06675		26.514294	-2.154495	-161.539899
06676		26.533190	-2.111531	-161.426584
06677		26.405570	-2.061722	-161.404976
06678		26.297324	-2.022488	-161.394156
06679		26.318311	-1.988907	-161.343107
06680		26.287337	-1.914717	-161.306954
06681		26.157423	-1.832312	-161.358247
06682		26.062133	-1.800291	-161.373559
06683		26.109334	-1.746355	-161.351296
06684		26.089902	-1.644686	-161.389879
06685		25.943835	-1.548621	-161.475606
06686		25.849432	-1.523488	-161.491556
06687		25.925911	-1.484934	-161.421762
06688		25.952001	-1.460316	-161.347915
06689		25.940050	-1.478461	-161.280858
06690		25.930841	-1.596079	-161.225134
06691		25.958475	-1.621621	-161.136557
06692		25.927206	-1.627909	-161.035010
06693		25.883813	-1.673279	-160.925616
06694		25.904153	-1.707008	-160.798419
06695		25.909246	-1.735621	-160.670761
06696		25.900504	-1.780734	-160.537613
06697		25.946254	-1.819254	-160.419007
06698		25.952904	-1.834845	-160.359376
06699		25.909680	-1.843170	-160.313805
06700		25.871326	-1.836103	-160.276885
06701		25.845322	-1.830927	-160.237100
06702		25.833205	-1.815065	-160.189758
06703		25.841871	-1.790314	-160.140104
06704		25.851821	-1.772644	-160.099603
06705		25.851860	-1.746399	-160.071389
06706		25.852020	-1.714867	-160.046135
06707		25.823089	-1.679889	-160.029478
06708		25.766063	-1.643357	-160.015124
06709		25.726264	-1.622127	-159.987999
06710		25.750129	-1.599788	-159.924427
06711		25.760119	-1.594586	-159.843106
06712		25.798255	-1.603687	-159.757306
06713		25.820733	-1.606496	-159.698604
06714		25.819806	-1.619996	-159.654625
06715		25.785193	-1.670303	-159.649984
06716		25.714684	-1.775840	-159.664074
06717		25.613253	-1.939864	-159.688948
06718		25.419041	-2.028404	-159.696409
06719		25.337660	-2.071968	-159.710539
06720		25.213948	-2.111207	-159.707604
06721		24.809388	-2.007878	-159.764678
06722		24.311958	-1.851458	-159.835368
06723		23.851093	-1.452556	-159.895320
06724		23.207487	-0.845841	-160.058827
06725		22.716576	0.013981	-160.218448
06726		22.505911	1.203961	-160.304944
06727		22.256904	2.790692	-160.460026
06728		21.930556	4.603058	-160.675928
06729		21.304372	6.488698	-160.973664
06730		20.093353	8.832453	-161.403310
06731		18.520216	11.133049	-162.318299
06732		17.474621	12.397260	-162.988876
06733		16.711288	13.222898	-163.332177
06734		16.408519	13.662877	-163.443086
06735		16.340852	13.846334	-163.423662
06736		16.445798	13.769871	-163.353539
06737		16.596564	13.585591	-163.287531
06738		16.706029	13.403208	-163.233828
06739		16.773344	13.278148	-163.200698
06740		16.800342	13.206265	-163.191642
06741		16.824877	13.136392	-163.190183
06742		16.867731	13.062977	-163.167048
06743		16.895384	13.041913	-163.142064
06744		16.924560	13.018024	-163.123953
06745		16.953654	12.976696	-163.108856
06746		16.995257	12.918085	-163.082512
06747		17.031755	12.882581	-163.062369
06748		17.055560	12.839983	-163.037899
06749		17.111641	12.786697	-163.017817
06750		17.158273	12.727101	-162.993175
06751		17.188353	12.700658	-162.991492
06752		17.183173	12.695945	-163.001026
06753		17.186804	12.662390	-162.996889
06754		17.218813	12.623192	-162.986132
06755		17.255052	12.574022	-162.970764
06756		17.290131	12.552951	-162.972041
06757		17.288152	12.526622	-162.985201
06758		17.285681	12.515547	-163.005269
06759		17.277901	12.529190	-163.024344
06760		17.277745	12.571807	-163.054107
06761		17.290925	12.620749	-163.099656
06762		17.317455	12.673740	-163.149681
06763		17.365784	12.713409	-163.195680
06764		17.440310	12.754662	-163.227500
06765		17.478223	12.842438	-163.266636
06766		17.482524	12.954167	-163.308859
06767		17.485801	13.054448	-163.347552
06768		17.502103	13.119543	-163.380235
06769		17.497109	13.187457	-163.419637
06770		17.527337	13.286662	-163.421946
06771		17.549126	13.471029	-163.464294
06772		17.613541	13.680915	-163.499523
06773		17.773713	13.789143	-163.353049
06774		17.912011	13.814267	-163.107173
06775		17.952839	13.849982	-162.964782
06776		17.977864	13.894336	-162.913138
06777		18.018084	13.935682	-162.946484
06778		18.046305	13.968212	-163.022325
06779		18.060581	13.973878	-163.132058
06780		18.095007	13.975918	-163.273546
06781		18.181846	13.943514	-163.427730
06782		18.304587	13.889435	-163.588486
06783		18.335229	13.878048	-163.745070
06784		18.340862	13.877691	-163.914200
06785		18.388028	13.862056	-164.072502
06786		18.452619	13.854086	-164.193213
06787		18.496203	13.875171	-164.267301
06788		18.513184	13.916447	-164.290767
06789		18.528391	13.975895	-164.265375
06790		18.589274	14.000601	-164.199089
06791		18.676379	13.996234	-164.107975
06792		18.783296	13.950370	-164.053538
06793		18.808105	13.969881	-164.083598
06794		18.808552	14.034244	-164.137939
06795		18.832245	14.075034	-164.119281
06796		18.936507	14.000853	-164.009145
06797		19.059416	13.924963	-163.882270
06798		19.116948	13.871137	-163.863540
06799		19.118399	13.845361	-163.909912
06800		19.159951	13.794453	-163.894969
06801		19.237885	13.737608	-163.864901
06802		19.263221	13.721990	-163.906254
06803		19.299894	13.691455	-163.970036
06804		19.339546	13.644739	-164.020779
06805		19.399792	13.587444	-164.036234
06806		19.475260	13.528016	-164.050392
06807		19.551903	13.473874	-164.077996
06808		19.639654	13.394972	-164.065580
06809		19.759499	13.292323	-163.975351
06810		19.876898	13.147517	-163.826404
06811		19.955108	13.018155	-163.689422
06812		20.053530	12.893577	-163.600730
06813		20.147365	12.798806	-163.594770
06814		20.171068	12.754346	-163.655548
06815		20.128422	12.760402	-163.773231
06816		20.087109	12.758056	-163.906916
06817		20.047879	12.756129	-164.025659
06818		20.003517	12.752675	-164.157090
06819		19.917563	12.780753	-164.310897
06820		19.881370	12.773572	-164.425558
06821		19.853131	12.769918	-164.495895
06822		19.816182	12.779279	-164.522410
06823		19.782832	12.788895	-164.527841
06824		19.769052	12.772938	-164.532515
06825		19.775612	12.753215	-164.553638
06826		19.766008	12.749199	-164.605912
06827		19.741939	12.754150	-164.669257
06828		19.735586	12.739822	-164.712985
06829		19.769473	12.708194	-164.761833
06830		19.763024	12.696746	-164.822202
06831		19.735806	12.710726	-164.894120
06832		19.747116	12.689114	-164.960547
06833		19.764695	12.656339	-165.041450
06834		19.791451	12.641426	-165.113863
06835		19.774983	12.657505	-165.195644
06836		19.738426	12.662502	-165.277548
06837		19.746205	12.648607	-165.381409
06838		19.729397	12.651008	-165.497791
06839		19.676092	12.671658	-165.593550
06840		19.637876	12.670622	-165.673629
06841		19.642649	12.650252	-165.746653
06842		19.671368	12.632772	-165.811527
06843		19.654603	12.634217	-165.881055
06844		19.651186	12.631819	-165.898066
06845		19.673570	12.604917	-165.897941
06846		19.675794	12.596062	-165.893419
06847		19.633208	12.616952	-165.917321
06848		19.601075	12.635608	-165.962369
06849		19.558218	12.648838	-166.017397
06850		19.506473	12.664751	-166.078911
06851		19.488860	12.657902	-166.128618
06852		19.536884	12.631590	-166.183626
06853		19.566635	12.609156	-166.268013
06854		19.596445	12.607361	-166.349401
06855		19.657756	12.565163	-166.440535
06856		19.676292	12.557466	-166.533257
06857		19.666308	12.559521	-166.602853
06858		19.670632	12.544067	-166.640625
06859		19.696893	12.503512	-166.643858
06860		19.634633	12.508277	-166.600848
06861		19.548924	12.514374	-166.510575
06862		19.647910	12.468465	-166.391174
06863		19.788555	12.415089	-166.252655
06864		19.983259	12.318228	-166.096948
06865		20.242552	12.178748	-165.896708
06866		20.503639	12.007977	-165.505572
06867		20.958879	11.686485	-165.078658
06868		21.483533	11.314641	-164.774862
06869		22.308807	10.733172	-164.399299
06870		23.436312	9.886237	-163.847358
06871		24.459202	8.872787	-163.300217
06872		25.513862	7.659838	-162.766949
06873		26.662271	6.279442	-162.205020
06874		27.402586	5.078041	-161.673830
06875		27.748277	3.899973	-161.351477
06876		28.083739	2.565478	-161.150370
06877		28.360653	0.766834	-160.641829
06878		28.509469	-0.877894	-159.872514
06879		28.043093	-2.081792	-159.430428
06880		27.700262	-3.192695	-159.607175
06881		27.501842	-3.873823	-159.845650
06882		28.132635	-3.164691	-159.419409
06883		28.631595	-1.791402	-159.134806
06884		28.807931	-2.031392	-159.367826
06885		28.801906	-2.313054	-159.528797
06886		28.587422	-2.515367	-159.650369
06887		28.462190	-2.642555	-159.758155
06888		28.504685	-2.714570	-159.869151
06889		28.548881	-2.771391	-159.970733
06890		28.523155	-2.846180	-160.123928
06891		28.506266	-2.901690	-160.259135
06892		28.497379	-2.907960	-160.340732
06893		28.471030	-2.909567	-160.399713
06894		28.441286	-2.907448	-160.444442
06895		28.432302	-2.897699	-160.478551
06896		28.410388	-2.894692	-160.507601
06897		28.386893	-2.891295	-160.519787
06898		28.395923	-2.893934	-160.522735
06899		28.368530	-2.919423	-160.513786
06900		28.427217	-2.921601	-160.493525
06901		28.450982	-2.926048	-160.497215
06902		28.396636	-2.947268	-160.506857
06903		28.419093	-2.940369	-160.506735
06904		28.389332	-2.940599	-160.521984
06905		28.324393	-2.959882	-160.525475
06906		28.362821	-2.976734	-160.519236
06907		28.344723	-3.007585	-160.529906
06908		28.325957	-3.028821	-160.543008
06909		28.289937	-3.049475	-160.556520
06910		28.266844	-3.074123	-160.558156
06911		28.294117	-3.092035	-160.546508
06912		28.248693	-3.130359	-160.540391
06913		28.151255	-3.177916	-160.516140
06914		28.136790	-3.212708	-160.481118
06915		28.095102	-3.254531	-160.437838
06916		28.015943	-3.308141	-160.402177
06917		27.850992	-3.403409	-160.407265
06918		27.780482	-3.502083	-160.359851
06919		27.744974	-3.596433	-160.299322
06920		27.715322	-3.692022	-160.264015
06921		27.582729	-3.782348	-160.299637
06922		27.408649	-3.835900	-160.492351
06923		27.414759	-3.896477	-160.591166
06924		27.479651	-3.952035	-160.650776
06925		27.495712	-3.982869	-160.681639
06926		27.483478	-3.993792	-160.689138
06927		27.497156	-4.005520	-160.690675
06928		27.532228	-4.022602	-160.686194
06929		27.542023	-4.030418	-160.696118
06930		27.518615	-4.044987	-160.697232
06931		27.528089	-4.067311	-160.705705
06932		27.542622	-4.092265	-160.705184
06933		27.518468	-4.115196	-160.715335
06934		27.477748	-4.149769	-160.722220
06935		27.458584	-4.183192	-160.708356
06936		27.489942	-4.207918	-160.680237
06937		27.482550	-4.210207	-160.656022
06938		27.434891	-4.227250	-160.689134
06939		27.432050	-4.256724	-160.722057
06940		27.457089	-4.273457	-160.735079
06941		27.498454	-4.282661	-160.742055
06942		27.518353	-4.285348	-160.748718
06943		27.508487	-4.295079	-160.754002
06944		27.503581	-4.298388	-160.787605
06945		27.494250	-4.311357	-160.814342
06946		27.486538	-4.308573	-160.830658
06947		27.470790	-4.316578	-160.825460
06948		27.459631	-4.318575	-160.845033
06949		27.417754	-4.324763	-160.873119
06950		27.386646	-4.334227	-160.849044
06951		27.387798	-4.340491	-160.812276
06952		27.390625	-4.341179	-160.797710
06953		27.358392	-4.349171	-160.787544
06954		27.326294	-4.360871	-160.771639
06955		27.309793	-4.361851	-160.727063
06956		27.293726	-4.362371	-160.674765
06957		27.293516	-4.369914	-160.602496
06958		27.346584	-4.376184	-160.520972
06959		27.397400	-4.370709	-160.480961
06960		27.413657	-4.370676	-160.491125
06961		27.400287	-4.377509	-160.553556
06962		27.375037	-4.381020	-160.628726
06963		27.347794	-4.389163	-160.696553
06964		27.337226	-4.398337	-160.724490
06965		27.357197	-4.390616	-160.734574
06966		27.366137	-4.373458	-160.715043
06967		27.350357	-4.354355	-160.677219
06968		27.331681	-4.334322	-160.631630
06969		27.312341	-4.314978	-160.591388
06970		27.273045	-4.299192	-160.566787
06971		27.224801	-4.284764	-160.544571
06972		27.226648	-4.275897	-160.460321
06973		27.237428	-4.254183	-160.364457
06974		27.200776	-4.232983	-160.270589
06975		27.214651	-4.229905	-160.126098
06976		27.268966	-4.194134	-160.023649
06977		27.245357	-4.147344	-159.984719
06978		27.170660	-4.112230	-159.966051
06979		27.158784	-4.100878	-159.916519
06980		27.235362	-4.073736	-159.866650
06981		27.250125	-4.038398	-159.840787
06982		27.211771	-3.997569	-159.827282
06983		27.210678	-3.967917	-159.788358
06984		27.240931	-3.932473	-159.763891
06985		27.219818	-3.880846	-159.805974
06986		27.128956	-3.851809	-159.872375
06987		27.158937	-3.831857	-159.884086
06988		27.184350	-3.812644	-159.896391
06989		27.144950	-3.809891	-159.942750
06990		27.074500	-3.923769	-160.017213
06991		27.262256	-3.926623	-159.999444
06992		27.350175	-3.919966	-159.986553
06993		27.359003	-3.911007	-160.014311
06994		27.302042	-3.911938	-160.074361
06995		27.257439	-3.946384	-160.100785
06996		27.255851	-3.963026	-160.077669
06997		27.239632	-3.966231	-160.045759
06998		27.180675	-3.975266	-160.010174
06999		27.175327	-3.994123	-159.936253
07000		27.230056	-3.983426	-159.854365
07001		27.249633	-3.958385	-159.792841
07002		27.199807	-3.937881	-159.761811
07003		27.155007	-3.918712	-159.727751
07004		27.150152	-3.904142	-159.676120
07005		27.161212	-3.877496	-159.608867
07006		27.182058	-3.865270	-159.531050
07007		27.244613	-3.853582	-159.451771
07008		27.295727	-3.824245	-159.385603
07009		27.302081	-3.803866	-159.320932
07010		27.302302	-3.801002	-159.257528
07011		27.348334	-3.773152	-159.185863
07012		27.391828	-3.731484	-159.116819
07013		27.383476	-3.713205	-159.049399
07014		27.408453	-3.705116	-158.975101
07015		27.455845	-3.688973	-158.887930
07016		27.450432	-3.678074	-158.808943
07017		27.417469	-3.667716	-158.744955
07018		27.400806	-3.674147	-158.681922
07019		27.412777	-3.677752	-158.625772
07020		27.402037	-3.684680	-158.574254
07021		27.335743	-3.706825	-158.523520
07022		27.295513	-3.742453	-158.466689
07023		27.329344	-3.754859	-158.409208
07024		27.318989	-3.768887	-158.378775
07025		27.287615	-3.788297	-158.350068
07026		27.277555	-3.820846	-158.314618
07027		27.332190	-3.840699	-158.282654
07028		27.366049	-3.850649	-158.250036
07029		27.362902	-3.880263	-158.217626
07030		27.390904	-3.903502	-158.196944
07031		27.412034	-3.903378	-158.206069
07032		27.389879	-3.940326	-158.223111
07033		27.349083	-4.034332	-158.234537
07034		27.244879	-4.158697	-158.251846
07035		27.069251	-4.364963	-158.353681
07036		26.699789	-4.454131	-158.440354
07037		26.416506	-4.587190	-158.527611
07038		26.108601	-4.704474	-158.539804
07039		25.589598	-4.558103	-158.598453
07040		24.777231	-3.342109	-158.429110
07041		23.850057	-1.974519	-158.424707
07042		23.385026	-0.326586	-158.285670
07043		22.990280	2.284530	-158.153523
07044		22.175217	5.216106	-158.286596
07045		21.270642	7.608193	-158.458619
07046		20.101237	9.097591	-158.832625
07047		19.214015	10.326208	-159.144697
07048		18.726304	11.114092	-159.382946
07049		18.334469	11.541003	-159.487730
07050		18.041872	11.888838	-159.544162
07051		17.856091	12.069416	-159.572460
07052		17.795511	12.120628	-159.576435
07053		17.815981	12.082314	-159.562311
07054		17.818054	12.061128	-159.560265
07055		17.831996	12.007188	-159.561402
07056		17.853129	11.938885	-159.553710
07057		17.908204	11.846631	-159.537797
07058		17.932744	11.801991	-159.542009
07059		17.941632	11.748896	-159.534542
07060		17.954929	11.728709	-159.529727
07061		17.970673	11.692187	-159.520908
07062		17.986357	11.660864	-159.519463
07063		17.995540	11.626615	-159.511939
07064		18.018544	11.602531	-159.511857
07065		18.011574	11.606362	-159.522252
07066		18.014007	11.568233	-159.521982
07067		18.047500	11.538213	-159.518344
07068		18.046915	11.523329	-159.523435
07069		18.051784	11.527653	-159.534430
07070		18.061544	11.501910	-159.540496
07071		18.081333	11.479545	-159.539130
07072		18.082111	11.483943	-159.560216
07073		18.076199	11.481820	-159.583082
07074		18.073549	11.476670	-159.605055
07075		18.060529	11.478549	-159.624387
07076		18.056577	11.477191	-159.649771
07077		18.034986	11.487081	-159.678503
07078		18.020032	11.503577	-159.708987
07079		18.025255	11.509109	-159.743203
07080		18.054922	11.517484	-159.771969
07081		18.082092	11.549940	-159.812723
07082		18.131764	11.628130	-159.881003
07083		18.159048	11.725847	-159.963625
07084		18.183361	11.877260	-160.058419
07085		18.173882	12.029520	-160.196007
07086		18.257185	12.279224	-160.410484
07087		18.263895	12.566793	-160.618848
07088		18.207083	12.840167	-160.771926
07089		18.218125	13.032363	-160.859425
07090		18.280303	13.165434	-160.912868
07091		18.311101	13.301523	-160.953902
07092		18.341960	13.418339	-160.937810
07093		18.487710	13.344115	-160.772231
07094		18.543153	13.382801	-160.759320
07095		18.512733	13.466532	-160.809202
07096		18.480211	13.531938	-160.904558
07097		18.482839	13.556654	-161.007158
07098		18.462307	13.578110	-161.109249
07099		18.448209	13.596196	-161.192665
07100		18.475975	13.594386	-161.265569
07101		18.517444	13.592749	-161.296017
07102		18.550597	13.607059	-161.267600
07103		18.568027	13.632916	-161.235842
07104		18.585277	13.644849	-161.183729
07105		18.604099	13.661672	-161.124029
07106		18.618732	13.680907	-161.049408
07107		18.637724	13.691207	-160.983913
07108		18.624713	13.698764	-160.951227
07109		18.610262	13.716591	-160.926403
07110		18.593643	13.742809	-160.911334
07111		18.570460	13.776360	-160.921093
07112		18.560563	13.794197	-160.948943
07113		18.561893	13.791846	-160.996756
07114		18.551622	13.792396	-161.058618
07115		18.547305	13.803995	-161.099086
07116		18.564408	13.816474	-161.106149
07117		18.584561	13.822611	-161.146849
07118		18.583775	13.840377	-161.256409
07119		18.593121	13.850523	-161.383666
07120		18.600865	13.859520	-161.496660
07121		18.594373	13.874803	-161.597392
07122		18.617652	13.839396	-161.671719
07123		18.734172	13.722198	-161.700410
07124		18.757979	13.668727	-161.758578
07125		18.724067	13.657238	-161.790544
07126		18.714640	13.635108	-161.794901
07127		18.739650	13.585934	-161.770508
07128		18.774501	13.552087	-161.749966
07129		18.770275	13.546904	-161.758839
07130		18.791127	13.514603	-161.774563
07131		18.818389	13.483157	-161.802214
07132		18.826668	13.457512	-161.852459
07133		18.817267	13.453593	-161.890082
07134		18.830372	13.435624	-161.895949
07135		18.846994	13.406827	-161.892042
07136		18.853633	13.396899	-161.887631
07137		18.890664	13.355363	-161.894346
07138		18.915304	13.340316	-161.924384
07139		18.916493	13.328271	-161.888211
07140		18.908413	13.334191	-161.769150
07141		18.938181	13.319220	-161.573077
07142		18.967331	13.316202	-161.378001
07143		18.997290	13.314359	-161.216939
07144		19.041333	13.298541	-161.120760
07145		19.095832	13.273541	-161.106565
07146		19.108842	13.265158	-161.155906
07147		19.095696	13.262708	-161.224290
07148		19.091737	13.249701	-161.298722
07149		19.108481	13.219096	-161.407851
07150		19.125173	13.187661	-161.527550
07151		19.126584	13.163770	-161.656137
07152		19.096961	13.159579	-161.777462
07153		19.049180	13.163089	-161.868409
07154		19.009679	13.151345	-161.941304
07155		18.960851	13.146568	-162.016985
07156		18.926100	13.130629	-162.088454
07157		18.900525	13.124486	-162.168613
07158		18.880169	13.114120	-162.262198
07159		18.875673	13.100375	-162.369887
07160		18.852129	13.085371	-162.464614
07161		18.847129	13.078193	-162.561788
07162		18.868722	13.056104	-162.678572
07163		18.852495	13.041686	-162.791464
07164		18.808580	13.037748	-162.869952
07165		18.811292	13.023844	-162.862487
07166		18.817338	13.026200	-162.823666
07167		18.839568	13.032327	-162.746726
07168		18.847535	13.051382	-162.693144
07169		18.836683	13.071247	-162.669881
07170		18.810309	13.083140	-162.689923
07171		18.773659	13.096155	-162.748934
07172		18.743395	13.113103	-162.835172
07173		18.704503	13.126349	-162.927215
07174		18.688389	13.128658	-163.015608
07175		18.674928	13.135969	-163.095937
07176		18.655411	13.140325	-163.197927
07177		18.660051	13.131645	-163.302948
07178		18.644649	13.125734	-163.427907
07179		18.609902	13.126407	-163.554490
07180		18.566808	13.121007	-163.655194
07181		18.499940	13.122733	-163.692114
07182		18.477315	13.123082	-163.644074
07183		18.510455	13.097972	-163.575903
07184		18.557325	13.080162	-163.520494
07185		18.601793	13.044014	-163.491717
07186		18.627005	13.030800	-163.518391
07187		18.630355	13.010977	-163.574718
07188		18.626914	12.997528	-163.649927
07189		18.627836	12.969222	-163.722794
07190		18.579750	12.963842	-163.799498
07191		18.432060	12.984696	-163.853314
07192		18.296573	12.972643	-163.853570
07193		18.305067	12.887881	-163.821638
07194		18.300080	12.782469	-163.795448
07195		18.240838	12.697946	-163.805415
07196		18.132374	12.674145	-163.837641
07197		18.078475	12.644428	-163.845227
07198		18.087473	12.591709	-163.822261
07199		18.091275	12.559346	-163.797500
07200		18.098279	12.531854	-163.778290
07201		18.138749	12.490517	-163.744519
07202		18.198291	12.426495	-163.698745
07203		18.287410	12.338904	-163.622687
07204		18.456058	12.241986	-163.509118
07205		18.708483	12.123404	-163.365296
07206		18.990180	11.944185	-163.180216
07207		19.501592	11.627516	-162.899897
07208		20.292601	11.174839	-162.608549
07209		21.068415	10.622500	-162.293301
07210		22.164469	9.868225	-161.893074
07211		23.395783	8.873963	-161.493986
07212		24.263804	7.638979	-161.264852
07213		24.888225	6.045565	-161.111941
07214		25.347223	4.102578	-160.963037
07215		25.653828	2.125844	-160.857544
07216		25.721863	-0.430896	-160.884837
07217		25.933304	-2.756232	-160.906651
07218		25.890134	-3.883424	-160.841037
07219		25.777224	-4.218904	-160.590545
07220		26.210624	-4.034056	-160.288829
07221		26.976676	-3.325245	-160.104441
07222		27.412974	-2.353573	-160.001840
07223		27.252972	-2.741249	-160.001616
07224		27.065674	-2.968360	-159.953279
07225		26.922837	-3.114227	-159.972682
07226		26.878535	-3.224202	-160.006939
07227		26.862147	-3.298954	-160.033205
07228		26.895032	-3.383449	-160.056364
07229		26.924743	-3.422964	-160.062088
07230		26.936005	-3.430675	-160.052860
07231		26.964998	-3.417523	-160.069862
07232		26.932468	-3.391146	-160.074679
07233		26.919557	-3.374384	-160.083972
07234		26.877687	-3.360033	-160.086090
07235		26.859163	-3.348670	-160.087496
07236		26.893683	-3.329958	-160.078775
07237		26.896176	-3.333587	-160.065091
07238		26.899760	-3.345562	-160.033722
07239		26.931934	-3.372552	-159.988985
07240		26.929912	-3.396466	-159.953307
