// General information: 
//  MT Manager version: 2022.2.0 
//  XDA version: 2022.2.0 build 7381 rev 124627 built on 2023-07-19
// Device information: 
//  DeviceId: 00B447F8
//  ProductCode: MTW2-3A7G6
//  Firmware Version: 4.3.5
//  Hardware Version: 2.0.0
// Device settings: 
//  Filter Profile: human(46.1)
//  Option Flags: Orientation Smoother Disabled, Position/Velocity Smoother Disabled, Continuous Zero Rotation Update Disabled, AHS Disabled, ICC Disabled
// Coordinate system: ENU
PacketCounter	SampleTimeFine	Roll	Pitch	Yaw
04173		23.867406	31.469416	166.539902
04174		23.761896	31.458856	166.496039
04175		23.687712	31.463091	166.458299
04176		23.620267	31.442360	166.408643
04177		23.561595	31.407777	166.360215
04178		23.543038	31.378078	166.285067
04179		23.558649	31.318570	166.197003
04180		23.645980	31.253198	166.126503
04181		23.805207	31.138201	166.028913
04182		24.053894	31.020049	165.947566
04183		24.300817	30.936239	165.870045
04184		24.485713	30.879102	165.739085
04185		24.707628	30.853021	165.618617
04186		24.865429	30.812266	165.467709
04187		25.023494	30.768115	165.266475
04188		25.269968	30.743571	165.116445
04189		25.412235	30.725112	164.970423
04190		25.410543	30.752713	164.844968
04191		25.359287	30.811864	164.752093
04192		25.311652	30.859089	164.663860
04193		25.296145	30.902002	164.553475
04194		25.320302	30.892101	164.440026
04195		25.321695	30.845138	164.320345
04196		25.321635	30.736943	164.218255
04197		25.298623	30.604638	164.130065
04198		25.148363	30.429174	164.037145
04199		24.936849	30.242128	163.982618
04200		24.688233	30.038691	163.933586
04201		24.411373	29.841938	163.891021
04202		24.190658	29.677433	163.862220
04203		23.976692	29.525523	163.838381
04204		23.708746	29.366399	163.804751
04205		23.417333	29.204697	163.775077
04206		23.133825	29.017071	163.771652
04207		22.834391	28.802083	163.800773
04208		22.504544	28.563065	163.882137
04209		22.152417	28.355262	163.931958
04210		21.779445	28.119105	163.999308
04211		21.450808	27.890220	164.061745
04212		21.192102	27.654573	164.142530
04213		21.004807	27.395103	164.214827
04214		20.826661	27.119999	164.298851
04215		20.616347	26.849139	164.398725
04216		20.394633	26.596525	164.516638
04217		20.192535	26.337600	164.636396
04218		20.012803	26.070390	164.771003
04219		19.848187	25.821699	164.922142
04220		19.683108	25.579401	165.066971
04221		19.485410	25.331593	165.205899
04222		19.288197	25.095747	165.333752
04223		19.105411	24.871231	165.446219
04224		18.878247	24.645160	165.551298
04225		18.570779	24.419196	165.629569
04226		18.239638	24.197639	165.678692
04227		17.930302	23.975465	165.729541
04228		17.648279	23.733617	165.786683
04229		17.369143	23.483086	165.866412
04230		17.057256	23.235441	165.965018
04231		16.704514	22.973310	166.059687
04232		16.298599	22.707464	166.154210
04233		15.853131	22.461421	166.245863
04234		15.384388	22.231317	166.329957
04235		14.922361	22.019631	166.399149
04236		14.489668	21.791416	166.441598
04237		14.106790	21.544442	166.496534
04238		13.775784	21.287686	166.548309
04239		13.471372	21.025468	166.587621
04240		13.170053	20.768823	166.630355
04241		12.875470	20.501713	166.718833
04242		12.662998	20.244819	166.899291
04243		12.523155	20.016277	167.088615
04244		12.441919	19.913000	167.307229
04245		12.420812	19.900886	167.448662
04246		12.443843	19.960113	167.540350
04247		12.539545	20.157025	167.611084
04248		12.673004	20.362610	167.681506
04249		12.902972	20.561724	167.748897
04250		13.141302	20.761932	167.812424
04251		13.389345	20.938450	167.878681
04252		13.528455	21.085786	167.902771
04253		13.573694	21.265778	167.914339
04254		13.612801	21.473529	167.929565
04255		13.793760	21.638090	168.007319
04256		14.036360	21.760119	168.033918
04257		14.168695	21.882840	168.019439
04258		14.149652	22.014341	167.997360
04259		14.182672	22.096558	167.944295
04260		14.232306	22.171358	167.904224
04261		14.224795	22.239082	167.872026
04262		14.171338	22.294265	167.849902
04263		14.145209	22.348540	167.795472
04264		14.105759	22.389574	167.723126
04265		14.020098	22.407529	167.670769
04266		13.929727	22.367284	167.619756
04267		13.857192	22.369469	167.589378
04268		13.771868	22.384769	167.561812
04269		13.705990	22.354604	167.559228
04270		13.633613	22.326896	167.563065
04271		13.481607	22.308441	167.557867
04272		13.355313	22.315888	167.567913
04273		13.225399	22.317468	167.604089
04274		13.096223	22.289044	167.640486
04275		13.052527	22.247182	167.678282
04276		13.018970	22.170777	167.717067
04277		12.987107	22.062664	167.748445
04278		13.010867	21.970608	167.809452
04279		12.956968	21.892362	167.859961
04280		12.835149	21.840848	167.903566
04281		12.685952	21.798585	167.948983
04282		12.550498	21.753453	168.005128
04283		12.486973	21.694832	168.037441
04284		12.493089	21.657260	168.067338
04285		12.521249	21.603597	168.106611
04286		12.595357	21.560529	168.142268
04287		12.696142	21.570372	168.129586
04288		12.723675	21.591697	168.113983
04289		12.758160	21.575320	168.132742
04290		12.734989	21.566670	168.145699
04291		12.642428	21.553623	168.176463
04292		12.595373	21.540468	168.206891
04293		12.583921	21.539896	168.227292
04294		12.567668	21.535864	168.231775
04295		12.557584	21.517044	168.232733
04296		12.556705	21.505272	168.233318
04297		12.513430	21.508592	168.235599
04298		12.512627	21.493347	168.242132
04299		12.551919	21.464277	168.243932
04300		12.604656	21.445886	168.248840
04301		12.678100	21.418932	168.270947
04302		12.780689	21.425628	168.294972
04303		12.873938	21.457299	168.292949
04304		13.000075	21.480711	168.294669
04305		13.175250	21.530331	168.296774
04306		13.345952	21.605339	168.298498
04307		13.487702	21.692866	168.291579
04308		13.686721	21.789967	168.293030
04309		13.912515	21.917508	168.287741
04310		14.121576	22.047635	168.270838
04311		14.377673	22.162557	168.255998
04312		14.670789	22.277545	168.261760
04313		14.876884	22.410576	168.258647
04314		15.032607	22.566555	168.229874
04315		15.180103	22.721970	168.205218
04316		15.344933	22.835280	168.198325
04317		15.556567	22.950608	168.177311
04318		15.825641	23.079018	168.187876
04319		16.134457	23.205087	168.213690
04320		16.392703	23.330364	168.204775
04321		16.524287	23.488824	168.171028
04322		16.650106	23.671383	168.131493
04323		16.843792	23.847787	168.099854
04324		17.069177	24.017047	168.068770
04325		17.250264	24.210081	168.015801
04326		17.302652	24.370085	167.938004
04327		17.388538	24.545041	167.887520
04328		17.495749	24.699846	167.838912
04329		17.614698	24.818209	167.784749
04330		17.665881	24.955527	167.685753
04331		17.712324	25.155816	167.558125
04332		17.785904	25.382703	167.428862
04333		17.846826	25.593614	167.288213
04334		17.937123	25.834992	167.134228
04335		18.073609	26.135307	166.959913
04336		18.336783	26.523955	166.837106
04337		18.617799	26.904163	166.710596
04338		18.903232	27.273377	166.545835
04339		19.280513	27.711218	166.348725
04340		19.533117	28.115605	166.133578
04341		19.833412	28.530993	165.970072
04342		20.328377	28.866524	165.771656
04343		20.780576	29.194164	165.579258
04344		21.007752	29.563291	165.389354
04345		21.149410	29.962306	165.194789
04346		21.285783	30.326596	165.005192
04347		21.425632	30.605785	164.819395
04348		21.630895	30.852641	164.662485
04349		21.855209	31.085283	164.559703
04350		21.968351	31.205286	164.515785
04351		21.964604	31.215126	164.539539
04352		21.958906	31.238694	164.595525
04353		21.922676	31.354894	164.628371
04354		21.867094	31.492187	164.617762
04355		21.900715	31.609624	164.587453
04356		22.042946	31.706299	164.553193
04357		22.207591	31.807649	164.540836
04358		22.312186	31.870259	164.536534
04359		22.405430	31.928371	164.527266
04360		22.484346	31.990327	164.517676
04361		22.545958	32.083678	164.474994
04362		22.591363	32.160103	164.435531
04363		22.666740	32.218623	164.423906
04364		22.774950	32.238611	164.425304
04365		22.840576	32.220276	164.405708
04366		22.865626	32.182005	164.392568
04367		22.867665	32.166254	164.409992
04368		22.868862	32.149115	164.450663
04369		22.915359	32.099338	164.517001
04370		22.996371	32.027677	164.612238
04371		23.107346	31.931050	164.730496
04372		23.234080	31.769637	164.904975
04373		23.393356	31.615181	165.059699
04374		23.538593	31.584003	165.079570
04375		23.611062	31.713302	165.082706
04376		23.653587	31.901938	165.057494
04377		23.814910	32.033263	165.012354
04378		24.031645	32.107012	164.975558
04379		24.154170	32.176688	164.959658
04380		24.187763	32.262709	164.943451
04381		24.215124	32.355636	164.953753
04382		24.297092	32.418369	164.980610
04383		24.421983	32.478825	165.024305
04384		24.522951	32.520788	165.065693
04385		24.585897	32.546686	165.101780
04386		24.613118	32.528643	165.135469
04387		24.593805	32.505475	165.145348
04388		24.549873	32.483396	165.139855
04389		24.475116	32.457287	165.128612
04390		24.375058	32.436301	165.101444
04391		24.272009	32.419255	165.056601
04392		24.142641	32.401094	164.998942
04393		24.022006	32.406047	164.937973
04394		23.926446	32.402695	164.882166
04395		23.852312	32.401608	164.828110
04396		23.821724	32.428773	164.780332
04397		23.838402	32.494434	164.751496
04398		23.896542	32.566931	164.742120
04399		23.980821	32.610514	164.740481
04400		24.046765	32.654668	164.728466
04401		24.039963	32.703791	164.681234
04402		23.990460	32.727729	164.602387
04403		23.913520	32.721865	164.496021
04404		23.797688	32.690519	164.378553
04405		23.610946	32.647893	164.232571
04406		23.312871	32.593860	164.028719
04407		22.890119	32.541647	163.783946
04408		22.399118	32.476672	163.555462
04409		21.883254	32.279589	163.342032
04410		21.379279	32.011686	163.054260
04411		20.951991	31.591892	162.683391
04412		20.743951	31.074524	162.402045
04413		20.479613	30.396524	162.122893
04414		20.006014	29.713873	161.932400
04415		19.277686	29.044850	161.875751
04416		18.326295	28.435566	161.949917
04417		17.289637	27.908801	162.121122
04418		16.345977	27.459616	162.363661
04419		15.551908	27.048605	162.631213
04420		14.923243	26.682187	162.893973
04421		14.473374	26.335753	163.159054
04422		14.202613	26.018666	163.455406
04423		14.016780	25.702567	163.723074
04424		13.851515	25.405166	163.949949
04425		13.656676	25.105205	164.180057
04426		13.423780	24.812695	164.398158
04427		13.135117	24.545647	164.555651
04428		12.786176	24.299968	164.660478
04429		12.392845	24.073108	164.747332
04430		11.983504	23.835294	164.836941
04431		11.603699	23.608201	164.940629
04432		11.268498	23.382716	165.055092
04433		10.940794	23.176650	165.190767
04434		10.632194	22.986873	165.315654
04435		10.383904	22.804902	165.425446
04436		10.182332	22.651179	165.526071
04437		9.971677	22.508572	165.606453
04438		9.729817	22.387399	165.666282
04439		9.510630	22.287032	165.704890
04440		9.290322	22.178225	165.721928
04441		9.046878	22.058282	165.713874
04442		8.810476	21.953190	165.709142
04443		8.576233	21.836551	165.703778
04444		8.341811	21.731663	165.703837
04445		8.127324	21.631165	165.701525
04446		7.934245	21.526933	165.696399
04447		7.744859	21.435669	165.683022
04448		7.541218	21.352034	165.657459
04449		7.333498	21.293410	165.627492
04450		7.157697	21.234415	165.623099
04451		7.022892	21.177533	165.641774
04452		6.914889	21.099095	165.659023
04453		6.851932	21.013823	165.678925
04454		6.796682	20.957170	165.707050
04455		6.846701	20.910012	165.744094
04456		6.988183	20.879980	165.845226
04457		7.139071	20.851933	165.946649
04458		7.359393	20.786687	166.072084
04459		7.583949	20.728839	166.241076
04460		7.736708	20.683511	166.393312
04461		7.893828	20.644620	166.527301
04462		8.092998	20.668905	166.645955
04463		8.379771	20.740086	166.754132
04464		8.738849	20.900949	166.883949
04465		9.011033	21.047884	167.029578
04466		9.157985	21.074458	167.186553
04467		9.295816	21.075894	167.395826
04468		9.416342	21.149346	167.641795
04469		9.602862	21.362859	167.892786
04470		9.718246	21.649351	168.054729
04471		9.759013	21.915687	168.143766
04472		10.028014	22.084550	168.281462
04473		10.489961	22.166341	168.436848
04474		10.647135	22.197760	168.527441
04475		10.360377	22.190338	168.543525
04476		10.183691	22.235902	168.564278
04477		10.172809	22.277501	168.574342
04478		10.184869	22.300670	168.589042
04479		10.201285	22.306728	168.607086
04480		10.181738	22.302695	168.602346
04481		10.112765	22.308080	168.576565
04482		10.036204	22.305648	168.568392
04483		9.978435	22.300809	168.538016
04484		9.883675	22.318028	168.504769
04485		9.822866	22.340549	168.478703
04486		9.793532	22.339926	168.446346
04487		9.700234	22.337010	168.379028
04488		9.605433	22.343800	168.307116
04489		9.526696	22.343129	168.272008
04490		9.396962	22.316570	168.234227
04491		9.242550	22.294784	168.196725
04492		9.117826	22.276841	168.175535
04493		9.024385	22.256385	168.158598
04494		8.953554	22.243746	168.139835
04495		8.908019	22.234008	168.112474
04496		8.893643	22.232694	168.096552
04497		8.872912	22.223435	168.095978
04498		8.825242	22.207021	168.082808
04499		8.741910	22.156762	168.077745
04500		8.642589	22.121000	168.083220
04501		8.577275	22.103400	168.068041
04502		8.563939	22.126224	168.042654
04503		8.532480	22.135080	168.053392
04504		8.498408	22.121325	168.086734
04505		8.476969	22.100471	168.111966
04506		8.428335	22.071131	168.148989
04507		8.391239	22.044230	168.197844
04508		8.348738	22.019055	168.231441
04509		8.299999	22.006132	168.255970
04510		8.257886	21.991022	168.272783
04511		8.252079	21.970825	168.296807
04512		8.226513	21.948959	168.315386
04513		8.209852	21.932153	168.334789
04514		8.227389	21.909513	168.365970
04515		8.248495	21.893928	168.395394
04516		8.242147	21.874339	168.430677
04517		8.228287	21.835743	168.448617
04518		8.204398	21.807070	168.465923
04519		8.194788	21.787079	168.482234
04520		8.194007	21.766003	168.496318
04521		8.210844	21.742632	168.511231
04522		8.206995	21.727736	168.516788
04523		8.187508	21.709553	168.521856
04524		8.199617	21.693600	168.531287
04525		8.210253	21.685230	168.536210
04526		8.234641	21.671744	168.545684
04527		8.281978	21.656185	168.552953
04528		8.361240	21.666012	168.549231
04529		8.510034	21.724766	168.518413
04530		8.718302	21.760382	168.527605
04531		8.938867	21.762782	168.577703
04532		9.121949	21.803915	168.623366
04533		9.274037	21.861837	168.670831
04534		9.451924	21.903791	168.708972
04535		9.709291	21.951801	168.745940
04536		9.930419	22.001708	168.769352
04537		10.073352	22.035814	168.783732
04538		10.215380	22.081100	168.807992
04539		10.402285	22.127969	168.842553
04540		10.617286	22.182457	168.870869
04541		10.823389	22.246109	168.893170
04542		11.073249	22.303759	168.935723
04543		11.373804	22.337411	168.984864
04544		11.671333	22.367026	169.041411
04545		11.869979	22.374818	169.071022
04546		11.956544	22.380447	169.082286
04547		12.073993	22.406926	169.085437
04548		12.219270	22.440874	169.077700
04549		12.364764	22.482349	169.061039
04550		12.499326	22.531448	169.043253
04551		12.622768	22.590861	169.027469
04552		12.772831	22.652423	168.994926
04553		12.917165	22.707395	168.970122
04554		13.076140	22.776826	168.936559
04555		13.234724	22.856074	168.897842
04556		13.371090	22.931840	168.864809
04557		13.525169	23.009323	168.843511
04558		13.703427	23.099548	168.823780
04559		13.902190	23.205131	168.819067
04560		14.159331	23.310283	168.848133
04561		14.518733	23.382113	168.890360
04562		14.953139	23.492245	168.964300
04563		15.335088	23.618179	169.037434
04564		15.536026	23.706466	169.059222
04565		15.616439	23.830903	169.063010
04566		15.749236	23.982163	169.063733
04567		16.039591	24.184588	169.077675
04568		16.423865	24.409948	169.093090
04569		16.778696	24.603211	169.115365
04570		17.173406	24.785990	169.160335
04571		17.584510	24.968279	169.188878
04572		17.942286	25.173130	169.209574
04573		18.175555	25.385419	169.212584
04574		18.338728	25.591446	169.212878
04575		18.595974	25.768500	169.205330
04576		19.016009	25.991229	169.127286
04577		19.576123	26.306093	168.991177
04578		20.108340	26.592720	168.862715
04579		20.493015	26.865655	168.718885
04580		20.713672	27.197247	168.561268
04581		20.716902	27.561284	168.400540
04582		20.682399	27.853055	168.220087
04583		20.759854	28.147805	168.001867
04584		20.887152	28.589272	167.767705
04585		20.817895	29.106922	167.555587
04586		20.690489	29.544540	167.336089
04587		20.713897	29.960184	167.043438
04588		20.912857	30.449702	166.739430
04589		21.085068	31.050034	166.436342
04590		21.273154	31.747117	166.041796
04591		21.746087	32.452478	165.619978
04592		22.461990	33.014870	165.278488
04593		23.188448	33.479864	165.018626
04594		23.844455	33.955662	164.865697
04595		24.306498	34.393914	164.685931
04596		24.665937	34.855125	164.534644
04597		24.989527	35.322583	164.445460
04598		25.418339	35.759149	164.325475
04599		25.969271	36.200325	164.180322
04600		26.509198	36.613992	164.074610
04601		27.056079	37.038826	163.936707
04602		27.680916	37.492517	163.741981
04603		28.229124	37.964273	163.566329
04604		28.617705	38.465352	163.394432
04605		28.926069	38.958501	163.213971
04606		29.248148	39.348378	163.068898
04607		29.625814	39.641741	163.009366
04608		29.959357	39.935847	163.009492
04609		30.129858	40.186191	163.030417
04610		30.202113	40.235452	163.074111
04611		30.224420	40.216288	163.140453
04612		30.179716	40.281833	163.191153
04613		30.111445	40.394462	163.200081
04614		30.137134	40.442811	163.206887
04615		30.272742	40.488871	163.263421
04616		30.414936	40.574066	163.363919
04617		30.490028	40.637777	163.435771
04618		30.504782	40.668366	163.500150
04619		30.550499	40.666386	163.599736
04620		30.615763	40.617703	163.679607
04621		30.683490	40.549789	163.710931
04622		30.779504	40.521332	163.728044
04623		30.827043	40.561624	163.694074
04624		30.859317	40.573813	163.673877
04625		30.949678	40.558050	163.741516
04626		31.053250	40.533092	163.842693
04627		31.138238	40.492184	163.932514
04628		31.199635	40.444907	164.031355
04629		31.237623	40.399733	164.110364
04630		31.261105	40.344913	164.177978
04631		31.252997	40.277428	164.214825
04632		31.215079	40.187038	164.245174
04633		31.156529	40.114507	164.285032
04634		31.090269	40.049614	164.304993
04635		31.053306	39.984766	164.343078
04636		31.044828	39.915787	164.381203
04637		31.038530	39.857504	164.409287
04638		31.003870	39.813451	164.433253
04639		30.950667	39.761871	164.451649
04640		30.944259	39.705274	164.491378
04641		30.952485	39.650102	164.540762
04642		30.957473	39.601696	164.577976
04643		30.952644	39.557927	164.601386
04644		30.923395	39.513488	164.617638
04645		30.878182	39.482663	164.628322
04646		30.820548	39.471532	164.625222
04647		30.782002	39.460012	164.611374
04648		30.763991	39.462707	164.594094
04649		30.763535	39.470612	164.587301
04650		30.764976	39.470241	164.594361
04651		30.758538	39.466178	164.612996
04652		30.750281	39.458511	164.628455
04653		30.729873	39.452284	164.632736
04654		30.720672	39.434213	164.630487
04655		30.706658	39.427291	164.623388
04656		30.705987	39.434377	164.629515
04657		30.705852	39.447097	164.637830
04658		30.695941	39.457451	164.636442
04659		30.678620	39.457223	164.630047
04660		30.662156	39.450761	164.623008
04661		30.648523	39.469688	164.616625
04662		30.631526	39.476448	164.609361
04663		30.629257	39.476092	164.603897
04664		30.633198	39.482849	164.607153
04665		30.630152	39.486003	164.604003
04666		30.610664	39.508997	164.585727
04667		30.582394	39.534779	164.566211
04668		30.550860	39.550047	164.544460
04669		30.499600	39.564932	164.512759
04670		30.409815	39.571114	164.460868
04671		30.236032	39.558658	164.361786
04672		30.002613	39.514066	164.229197
04673		29.760259	39.466906	164.093643
04674		29.523791	39.419208	163.953845
04675		29.341464	39.355463	163.822061
04676		29.208089	39.275311	163.725528
04677		29.142440	39.213532	163.693854
04678		29.098888	39.151699	163.699555
04679		29.109175	39.058522	163.689435
04680		29.201377	38.901969	163.641321
04681		29.352317	38.699045	163.499046
04682		29.420922	38.446309	163.274207
04683		29.380389	38.102224	162.976339
04684		29.270947	37.646841	162.666023
04685		29.121508	37.153905	162.426228
04686		28.759342	36.596161	162.237373
04687		28.167729	36.015512	162.122666
04688		27.456380	35.516019	162.059534
04689		26.688844	35.056660	162.026408
04690		25.816263	34.574564	162.052526
04691		24.912442	34.141110	162.090458
04692		24.063538	33.689070	162.092386
04693		23.374909	33.214870	162.131307
04694		22.779326	32.725747	162.174524
04695		22.136010	32.149541	162.190842
04696		21.416597	31.540646	162.250622
04697		20.675960	31.042901	162.329546
04698		19.927365	30.502352	162.357109
04699		19.181091	29.913061	162.470643
04700		18.323102	29.184818	162.768738
04701		17.313829	28.684554	163.189693
04702		16.456629	28.274372	163.364304
04703		16.020468	27.725205	163.691197
04704		15.662297	27.233122	164.134612
04705		15.136201	26.819785	164.527095
04706		14.571824	26.475152	164.898266
04707		14.083184	26.185064	165.288177
04708		13.580047	25.925786	165.670304
04709		13.010847	25.665455	165.992545
04710		12.295300	25.329333	166.224138
04711		11.495943	25.026758	166.474625
04712		10.809552	24.938061	166.807273
04713		10.245434	24.788751	167.077981
04714		9.827255	24.491375	167.316670
04715		9.498853	24.217375	167.566542
04716		9.144267	24.013146	167.823994
04717		8.737770	23.786914	168.058274
04718		8.333560	23.546173	168.269464
04719		8.091025	23.301312	168.474459
04720		7.958878	23.036815	168.670970
04721		7.791943	22.795169	168.847802
04722		7.530916	22.582294	168.990404
04723		7.194964	22.357720	169.102270
04724		6.866973	22.161119	169.184656
04725		6.568472	21.979447	169.241412
04726		6.310520	21.819508	169.292706
04727		6.054187	21.671242	169.367449
04728		5.884552	21.512971	169.460622
04729		5.840376	21.366645	169.587898
04730		5.813666	21.225937	169.731751
04731		5.742312	21.087112	169.877845
04732		5.665895	20.959275	170.007922
04733		5.640454	20.843629	170.127450
04734		5.680744	20.758957	170.239183
04735		5.690360	20.684284	170.293942
04736		5.645643	20.628084	170.313443
04737		5.669754	20.601443	170.298964
04738		5.723249	20.592096	170.287124
04739		5.712881	20.562193	170.283420
04740		5.660001	20.559595	170.280911
04741		5.558874	20.552476	170.274409
04742		5.494875	20.538592	170.268859
04743		5.460914	20.513255	170.274130
04744		5.403184	20.473923	170.287359
04745		5.374429	20.445557	170.312982
04746		5.385127	20.416196	170.332871
04747		5.395467	20.400526	170.348547
04748		5.421843	20.409833	170.373800
04749		5.476670	20.409530	170.390576
04750		5.488897	20.402190	170.406869
04751		5.488045	20.408284	170.420939
04752		5.473113	20.413430	170.441756
04753		5.508414	20.434582	170.477939
04754		5.542679	20.437258	170.506411
04755		5.572284	20.455415	170.537368
04756		5.615839	20.484846	170.560478
04757		5.662823	20.514561	170.586021
04758		5.699438	20.547051	170.590325
04759		5.720844	20.562922	170.595134
04760		5.731745	20.582754	170.589848
04761		5.717649	20.602783	170.576865
04762		5.712445	20.625326	170.566843
04763		5.758073	20.631761	170.563385
04764		5.784057	20.631611	170.550047
04765		5.777487	20.653039	170.534298
04766		5.763331	20.663561	170.523150
04767		5.766924	20.681024	170.513510
04768		5.778220	20.704902	170.507454
04769		5.796276	20.722892	170.514802
04770		5.833739	20.741872	170.509992
04771		5.841167	20.754559	170.499244
04772		5.838973	20.778360	170.477259
04773		5.828782	20.799157	170.448617
04774		5.820261	20.809309	170.425518
04775		5.797889	20.811847	170.401395
04776		5.781455	20.817549	170.386576
04777		5.802835	20.825781	170.382498
04778		5.790301	20.837578	170.364818
04779		5.791104	20.843331	170.345620
04780		5.813038	20.837833	170.329554
04781		5.823841	20.856495	170.306699
04782		5.786960	20.884937	170.289224
04783		5.716755	20.907067	170.273815
04784		5.680709	20.913949	170.256858
04785		5.651297	20.940572	170.240900
04786		5.641717	20.936666	170.217092
04787		5.642864	20.914283	170.214173
04788		5.660702	20.896636	170.199916
04789		5.700693	20.890892	170.175941
04790		5.654384	20.912413	170.177067
04791		5.573067	20.930260	170.166867
04792		5.549446	20.943869	170.150407
04793		5.520025	20.960423	170.125812
04794		5.451733	21.005862	170.098231
04795		5.348595	21.028592	170.079461
04796		5.282953	21.068998	170.065972
04797		5.252522	21.104417	170.055425
04798		5.277546	21.141789	170.049559
04799		5.283600	21.176682	170.043389
04800		5.260145	21.203748	170.024038
04801		5.231559	21.232294	170.025306
04802		5.217075	21.249171	170.026330
04803		5.198177	21.256813	170.031818
04804		5.167898	21.277066	170.021527
04805		5.159918	21.295338	170.012991
04806		5.147118	21.314443	170.002322
04807		5.127861	21.335700	169.991039
04808		5.106681	21.366796	169.984372
04809		5.094863	21.389740	169.986658
04810		5.097738	21.411156	169.988998
04811		5.107676	21.432801	170.000779
04812		5.138622	21.450462	170.019056
04813		5.211240	21.481312	170.045796
04814		5.332043	21.515503	170.079264
04815		5.449534	21.535020	170.100351
04816		5.566056	21.559988	170.126158
04817		5.736252	21.589751	170.168545
04818		5.982845	21.635725	170.224196
04819		6.295082	21.674509	170.302506
04820		6.618210	21.698469	170.378523
04821		6.927526	21.749114	170.438981
04822		7.235134	21.825515	170.489189
04823		7.534511	21.931394	170.530190
04824		7.768279	22.041695	170.557630
04825		7.917816	22.132771	170.566009
04826		8.056335	22.260457	170.563922
04827		8.193065	22.409294	170.569480
04828		8.363447	22.517335	170.611118
04829		8.574120	22.611079	170.644195
04830		8.802310	22.729786	170.640692
04831		8.983752	22.851577	170.628442
04832		9.131407	22.982578	170.610457
04833		9.297224	23.119457	170.563425
04834		9.463806	23.253131	170.497352
04835		9.626928	23.428325	170.420616
04836		9.771077	23.607949	170.338943
04837		9.917034	23.740358	170.237230
04838		10.071632	23.912347	170.087491
04839		10.162362	24.148109	169.950325
04840		10.187408	24.344815	169.818761
04841		10.251986	24.530871	169.642217
04842		10.435699	24.794555	169.396992
04843		10.537347	25.144097	169.186889
04844		10.531098	25.341832	168.987122
04845		10.626172	25.522273	168.738467
04846		10.811428	25.807381	168.390733
04847		10.867735	26.225944	168.013603
04848		10.723205	26.673574	167.610204
04849		10.532119	27.093116	167.123873
04850		10.475455	27.591464	166.595165
04851		10.414547	28.118935	166.100997
04852		10.306214	28.503704	165.634919
04853		10.256721	28.851089	165.131169
04854		10.243969	29.243969	164.592622
04855		10.083134	29.715582	164.101090
04856		9.855438	30.173424	163.616212
04857		9.769924	30.588914	163.077041
04858		9.907687	30.997577	162.532816
04859		10.203560	31.430995	162.075485
04860		10.532757	31.829342	161.572350
04861		10.935797	32.276191	161.058036
04862		11.384561	32.752319	160.565064
04863		11.879124	33.198011	160.168005
04864		12.384433	33.604248	159.854654
04865		12.828356	33.988367	159.562161
04866		13.179864	34.389300	159.266042
04867		13.512358	34.769781	159.052347
04868		13.869597	35.107547	158.928722
04869		14.200517	35.407953	158.824955
04870		14.486410	35.694444	158.714470
04871		14.738483	35.971255	158.637668
04872		14.987035	36.234670	158.616330
04873		15.254485	36.489794	158.601602
04874		15.527084	36.754991	158.567766
04875		15.773832	37.024695	158.505780
04876		15.967628	37.243030	158.442096
04877		16.167874	37.417501	158.444256
04878		16.409349	37.562967	158.470867
04879		16.628484	37.675546	158.522912
04880		16.778222	37.790474	158.577229
04881		16.854833	37.897799	158.594944
04882		16.904607	38.007886	158.620746
04883		16.979408	38.076873	158.668382
04884		17.105247	38.092933	158.757927
04885		17.188971	38.119031	158.812146
04886		17.237229	38.120010	158.881242
04887		17.343310	38.128282	158.988344
04888		17.446924	38.126901	159.077753
04889		17.562648	38.093605	159.215703
04890		17.712585	38.032860	159.379478
04891		17.866532	37.951974	159.536404
04892		18.026331	37.848880	159.692338
04893		18.162380	37.724288	159.847098
04894		18.273077	37.597306	160.014836
04895		18.364427	37.495585	160.173400
04896		18.439537	37.416225	160.273682
04897		18.499544	37.356613	160.349394
04898		18.519948	37.322451	160.401632
04899		18.559654	37.331981	160.452036
04900		18.608265	37.348497	160.491439
04901		18.649741	37.373928	160.509302
04902		18.675741	37.411035	160.521900
04903		18.694756	37.444776	160.539380
04904		18.715434	37.487416	160.534351
04905		18.717212	37.528950	160.530526
04906		18.720896	37.548205	160.518038
04907		18.706261	37.577824	160.492858
04908		18.680360	37.602580	160.459466
04909		18.640474	37.651060	160.405916
04910		18.604703	37.680643	160.367733
04911		18.587521	37.698378	160.342976
04912		18.550239	37.705447	160.324626
04913		18.510087	37.705631	160.308736
04914		18.461811	37.721411	160.269258
04915		18.417559	37.747181	160.232828
04916		18.403399	37.755059	160.220470
04917		18.402599	37.766547	160.206707
04918		18.400406	37.789157	160.192376
04919		18.380434	37.818798	160.169623
04920		18.364271	37.838283	160.149150
04921		18.384263	37.853032	160.131687
04922		18.405818	37.885683	160.113331
04923		18.425748	37.906435	160.107313
04924		18.449622	37.929051	160.109190
04925		18.436981	37.929451	160.112018
04926		18.431778	37.936403	160.103954
04927		18.408491	37.972161	160.086072
04928		18.389058	37.992545	160.059066
04929		18.380343	38.015735	160.027573
04930		18.360475	38.020166	160.002533
04931		18.335312	38.035612	159.977173
04932		18.304805	38.046472	159.959770
04933		18.285024	38.052750	159.941015
04934		18.257466	38.067764	159.917266
04935		18.224214	38.082674	159.884663
04936		18.182803	38.092339	159.852980
04937		18.130101	38.097010	159.812004
04938		18.046854	38.111206	159.749170
04939		17.964816	38.101550	159.696125
04940		17.877787	38.085925	159.632214
04941		17.754975	38.059729	159.559641
04942		17.612650	38.011853	159.490710
04943		17.463136	37.954088	159.425175
04944		17.308751	37.878982	159.361385
04945		17.164434	37.787025	159.317014
04946		16.983156	37.679421	159.273372
04947		16.772411	37.561276	159.216374
04948		16.560906	37.447174	159.152935
04949		16.332672	37.339106	159.076735
04950		16.094683	37.197504	159.025036
04951		15.869733	37.042063	158.986916
04952		15.589289	36.842253	158.894448
04953		15.278014	36.599013	158.805910
04954		15.011709	36.339110	158.740439
04955		14.710621	36.034302	158.668073
04956		14.358814	35.668196	158.633385
04957		13.989865	35.230733	158.617139
04958		13.616632	34.787831	158.652752
04959		13.170819	34.329308	158.717247
04960		12.637510	33.839795	158.812891
04961		12.057847	33.360599	158.976167
04962		11.511067	32.896973	159.188582
04963		11.018868	32.438260	159.413570
04964		10.606120	32.021310	159.668786
04965		10.222833	31.672602	159.961426
04966		9.811285	31.315991	160.258019
04967		9.421771	30.882002	160.526885
04968		9.060850	30.491570	160.831192
04969		8.697190	30.179077	161.116983
04970		8.353583	29.784968	161.337940
04971		8.054959	29.411884	161.653073
04972		7.719684	29.096049	161.917318
04973		7.416084	28.770000	162.168615
04974		7.229889	28.454304	162.455104
04975		7.115072	28.151850	162.705875
04976		7.042278	27.877255	162.961335
04977		6.975052	27.627221	163.203881
04978		6.902117	27.372306	163.424473
04979		6.814213	27.132473	163.645698
04980		6.720783	26.946818	163.856869
04981		6.650399	26.796319	164.043489
04982		6.621693	26.618713	164.238904
04983		6.619377	26.427501	164.440212
04984		6.630485	26.254037	164.635865
04985		6.626247	26.090165	164.816360
04986		6.589604	25.939066	165.003094
04987		6.575443	25.790336	165.215782
04988		6.597380	25.667232	165.445250
04989		6.640307	25.539990	165.693936
04990		6.721719	25.384902	165.964723
04991		6.829964	25.222501	166.245774
04992		6.932444	25.058125	166.511052
04993		6.992249	24.931147	166.739095
04994		7.001718	24.820582	166.940877
04995		7.005225	24.722826	167.114898
04996		7.036484	24.635052	167.253044
04997		7.049812	24.570502	167.358769
04998		7.046781	24.489985	167.457086
04999		7.070636	24.407400	167.562053
05000		7.117983	24.315789	167.679735
05001		7.179596	24.261372	167.817107
05002		7.258568	24.189994	167.958799
05003		7.366628	24.089879	168.111734
05004		7.481814	23.991595	168.263429
05005		7.547642	23.886800	168.403015
05006		7.558766	23.782080	168.532136
05007		7.583392	23.689684	168.645655
05008		7.618002	23.604630	168.757386
05009		7.632196	23.516023	168.853815
05010		7.627261	23.423156	168.949504
05011		7.580423	23.302163	169.031964
05012		7.470958	23.135807	169.132228
05013		7.389430	22.940008	169.265410
05014		7.324712	22.732184	169.400012
05015		7.216500	22.490004	169.546338
05016		7.079309	22.250486	169.692744
05017		6.944659	22.008010	169.821431
05018		6.782120	21.786548	169.914842
05019		6.637610	21.613217	169.985976
05020		6.511819	21.456483	170.038924
05021		6.396801	21.334987	170.082218
05022		6.287886	21.243549	170.120349
05023		6.197689	21.147846	170.147663
05024		6.062798	21.059851	170.164502
05025		5.842948	20.968870	170.169170
05026		5.592702	20.878830	170.172928
05027		5.331348	20.764448	170.185860
05028		5.111366	20.645666	170.223636
05029		4.959582	20.557506	170.257678
05030		4.845399	20.473791	170.305323
05031		4.701607	20.390643	170.342600
05032		4.568799	20.346144	170.353900
05033		4.516781	20.356235	170.363162
05034		4.527370	20.392021	170.360789
05035		4.548699	20.419726	170.350399
05036		4.589454	20.487958	170.360365
05037		4.669319	20.562643	170.388786
05038		4.796783	20.624352	170.437833
05039		4.908293	20.647732	170.478713
05040		4.973644	20.695097	170.503627
05041		5.058599	20.761496	170.503372
05042		5.132348	20.810700	170.501803
05043		5.207949	20.843426	170.497555
05044		5.275097	20.917289	170.496140
05045		5.328400	20.990087	170.482374
05046		5.371379	21.019221	170.487061
05047		5.429920	21.028418	170.496237
05048		5.478821	21.061982	170.508233
05049		5.486917	21.099356	170.503674
05050		5.501022	21.133586	170.477407
05051		5.518680	21.158675	170.452268
05052		5.528788	21.190488	170.438106
05053		5.535438	21.210903	170.422613
05054		5.531792	21.228041	170.419563
05055		5.536787	21.253896	170.405508
05056		5.521592	21.271111	170.402945
05057		5.533613	21.272106	170.386546
05058		5.544317	21.266389	170.352930
05059		5.504544	21.279657	170.311607
05060		5.443795	21.300389	170.255363
05061		5.422222	21.304748	170.206173
05062		5.399344	21.321385	170.173975
05063		5.287448	21.351204	170.142288
05064		5.157850	21.376303	170.128088
05065		5.146653	21.405834	170.123132
05066		5.170045	21.422498	170.111569
05067		5.174915	21.446024	170.073077
05068		5.099615	21.470959	170.053354
05069		5.008957	21.471239	170.036432
05070		4.971771	21.469846	170.042703
05071		4.921068	21.475553	170.046201
05072		4.861886	21.468563	170.055018
05073		4.839258	21.444950	170.072733
05074		4.848546	21.439144	170.081792
05075		4.828179	21.449111	170.073461
05076		4.831011	21.450828	170.064259
05077		4.842442	21.437952	170.063807
05078		4.839111	21.436512	170.065904
05079		4.815817	21.437978	170.066139
05080		4.823604	21.442268	170.068944
05081		4.842044	21.433033	170.076752
05082		4.848008	21.432663	170.088528
05083		4.858420	21.434799	170.090976
05084		4.879934	21.427061	170.101805
05085		4.904207	21.409065	170.100783
05086		4.899203	21.421164	170.102952
05087		4.919385	21.426126	170.100517
05088		4.954309	21.419627	170.101352
05089		4.951832	21.415497	170.099288
05090		4.919178	21.418597	170.095585
05091		4.911624	21.410496	170.100070
05092		4.897485	21.403797	170.099657
05093		4.876396	21.414944	170.099989
05094		4.874250	21.416032	170.089708
05095		4.871442	21.439323	170.067636
05096		4.867192	21.479345	170.037975
05097		4.864463	21.522840	170.006279
05098		4.876926	21.559899	169.987052
05099		4.904480	21.597328	169.986023
05100		4.960376	21.658109	169.984740
05101		5.036004	21.705430	169.999597
05102		5.150332	21.784547	170.005217
05103		5.266984	21.877334	170.002964
05104		5.388811	21.953818	169.995810
05105		5.499584	22.054881	169.995116
05106		5.589445	22.142738	169.993635
05107		5.676753	22.227409	169.979759
05108		5.783367	22.327371	169.966798
05109		5.953585	22.417315	169.957317
05110		6.185832	22.489066	169.959927
05111		6.442656	22.558952	169.976436
05112		6.699051	22.624491	169.993869
05113		6.923023	22.711943	169.998808
05114		7.092707	22.784430	169.994753
05115		7.271847	22.848556	169.993747
05116		7.464635	22.928621	169.995848
05117		7.658297	23.008722	169.998658
05118		7.873490	23.076827	169.993075
05119		8.104272	23.162112	169.985828
05120		8.339636	23.240574	169.965961
05121		8.584211	23.319781	169.947529
05122		8.827727	23.377566	169.971342
05123		9.127229	23.410189	170.015476
05124		9.475331	23.449598	170.066019
05125		9.763078	23.488109	170.113710
05126		10.011515	23.541090	170.135762
05127		10.255762	23.612161	170.120312
05128		10.466919	23.697352	170.064435
05129		10.592760	23.806064	169.971841
05130		10.628452	23.919548	169.866436
05131		10.610709	24.009199	169.760126
05132		10.593979	24.113261	169.634782
05133		10.582289	24.248982	169.507559
05134		10.562769	24.381974	169.379457
05135		10.606875	24.528645	169.236121
05136		10.736547	24.694863	169.099145
05137		10.949906	24.777343	169.016062
05138		11.233092	24.822659	168.919996
05139		11.576757	24.935451	168.751005
05140		11.848964	25.162081	168.509453
05141		11.943072	25.513490	168.214578
05142		11.952578	25.846644	167.867035
05143		12.035735	26.208730	167.476498
05144		12.188861	26.628749	167.166088
05145		12.368559	26.905893	166.955270
05146		12.652531	27.158563	166.756877
05147		12.988474	27.464350	166.477207
05148		13.221082	27.838168	166.148367
05149		13.396749	28.313710	165.799702
05150		13.680707	28.824709	165.333017
05151		14.183137	29.374122	164.759007
05152		14.758675	30.010949	164.211897
05153		15.230391	30.687136	163.690601
05154		15.618058	31.375313	163.095709
05155		16.005443	32.102607	162.599174
05156		16.391939	32.817092	162.266943
05157		16.745202	33.272459	161.993372
05158		17.131106	33.529101	161.778606
05159		17.491872	33.732294	161.666679
05160		17.736796	33.923239	161.600196
05161		17.940302	34.129932	161.523755
05162		18.167667	34.351201	161.446050
05163		18.346622	34.620097	161.425872
05164		18.480672	34.825463	161.426451
05165		18.579250	34.961902	161.450209
05166		18.606806	35.085283	161.453631
05167		18.561278	35.233816	161.439159
05168		18.522896	35.386710	161.411569
05169		18.525324	35.541038	161.390208
05170		18.580194	35.642804	161.370105
05171		18.663175	35.705270	161.363723
05172		18.712100	35.794050	161.363670
05173		18.735899	35.869380	161.349718
05174		18.746196	35.910834	161.324148
05175		18.754529	35.943044	161.307491
05176		18.735479	35.981116	161.294542
05177		18.720410	36.005856	161.271458
05178		18.711632	35.999324	161.255864
05179		18.706799	36.000125	161.243988
05180		18.696528	36.033524	161.224398
05181		18.690278	36.054958	161.199392
05182		18.683331	36.063018	161.163682
05183		18.696319	36.096045	161.153267
05184		18.727969	36.109543	161.167906
05185		18.778380	36.091459	161.195048
05186		18.837507	36.094537	161.223521
05187		18.879137	36.111322	161.260852
05188		18.922513	36.104451	161.279332
05189		18.990011	36.073505	161.295472
05190		19.067127	36.037423	161.324379
05191		19.118979	35.993777	161.357948
05192		19.158801	35.942341	161.391954
05193		19.232073	35.848575	161.443766
05194		19.341198	35.689566	161.524343
05195		19.472278	35.525277	161.611518
05196		19.550984	35.372256	161.639122
05197		19.555205	35.233675	161.660071
05198		19.472028	35.103415	161.642174
05199		19.409125	35.036289	161.608238
05200		19.360926	35.031270	161.568866
05201		19.344437	35.031926	161.538057
05202		19.375497	35.065132	161.538160
05203		19.453666	35.116705	161.565403
05204		19.539544	35.163124	161.587823
05205		19.622353	35.197812	161.608941
05206		19.681131	35.248762	161.624364
05207		19.696999	35.305435	161.634979
05208		19.696853	35.343877	161.624248
05209		19.685054	35.369729	161.602211
05210		19.689148	35.386208	161.585766
05211		19.679824	35.422883	161.579625
05212		19.679770	35.429533	161.575501
05213		19.710010	35.445564	161.588955
05214		19.711339	35.463180	161.600912
05215		19.708415	35.483642	161.606825
05216		19.701177	35.491127	161.606726
05217		19.680892	35.520539	161.602507
05218		19.645537	35.538262	161.595042
05219		19.617968	35.535613	161.584834
05220		19.577440	35.538963	161.572671
05221		19.509602	35.551982	161.540091
05222		19.438383	35.572492	161.512666
05223		19.381094	35.575783	161.500188
05224		19.325040	35.584137	161.478164
05225		19.249890	35.597926	161.448167
05226		19.171233	35.610732	161.415868
05227		19.101432	35.620857	161.388536
05228		19.047843	35.628109	161.365594
05229		19.015507	35.639727	161.353452
05230		18.984649	35.649649	161.343734
05231		18.945708	35.662278	161.319298
05232		18.885027	35.674111	161.288570
05233		18.815230	35.688597	161.250949
05234		18.716367	35.686728	161.197057
05235		18.554708	35.667005	161.119802
05236		18.325814	35.630473	161.028000
05237		18.033891	35.571647	160.914185
05238		17.696599	35.469469	160.794135
05239		17.372880	35.315060	160.718904
05240		17.048624	35.125829	160.646103
05241		16.689323	34.889814	160.590199
05242		16.233219	34.613192	160.534808
05243		15.702271	34.280705	160.524086
05244		15.187756	33.858025	160.544831
05245		14.656112	33.394060	160.606091
05246		14.064964	32.885423	160.721544
05247		13.503598	32.350655	160.906807
05248		13.013559	31.799791	161.135228
05249		12.546870	31.239741	161.389651
05250		12.027313	30.713515	161.670853
05251		11.481846	30.206749	161.959756
05252		10.997783	29.710445	162.260703
05253		10.613617	29.239067	162.553989
05254		10.278050	28.797018	162.819955
05255		9.924903	28.404468	163.071343
05256		9.557088	28.079099	163.304108
05257		9.185935	27.763582	163.498313
05258		8.857966	27.464855	163.689601
05259		8.618822	27.222428	163.872710
05260		8.425793	26.970650	164.045014
05261		8.253004	26.710383	164.209562
05262		8.074391	26.484320	164.356510
05263		7.874360	26.282218	164.477789
05264		7.663624	26.087240	164.579561
05265		7.461482	25.868189	164.685864
05266		7.279614	25.659904	164.810216
05267		7.082009	25.464443	164.921725
05268		6.855209	25.275320	165.030377
05269		6.613824	25.109585	165.136778
05270		6.418507	24.921481	165.288295
05271		6.274204	24.717728	165.463055
05272		6.151102	24.547918	165.637875
05273		6.047458	24.365913	165.809530
05274		5.940739	24.198901	165.982949
05275		5.819752	24.068449	166.138982
05276		5.727306	23.949546	166.303732
05277		5.684764	23.835508	166.460483
05278		5.645826	23.742719	166.577045
05279		5.569343	23.700068	166.636192
05280		5.405565	23.684287	166.649422
05281		5.247542	23.652375	166.652955
05282		5.177130	23.640890	166.657329
05283		5.180542	23.610520	166.674990
05284		5.188252	23.571873	166.721185
05285		5.186202	23.525044	166.782827
05286		5.214867	23.465730	166.870261
05287		5.248126	23.344472	166.985928
05288		5.297263	23.195331	167.120866
05289		5.328397	23.066247	167.241632
05290		5.315575	22.941316	167.348961
05291		5.287667	22.824979	167.442584
05292		5.287163	22.732559	167.519954
05293		5.312654	22.657627	167.587664
05294		5.305649	22.573880	167.635622
05295		5.289537	22.484927	167.690442
05296		5.298826	22.387123	167.758597
05297		5.268708	22.299259	167.822616
05298		5.206816	22.235902	167.870923
05299		5.143012	22.194312	167.893544
05300		5.071584	22.167298	167.878450
05301		4.993978	22.154610	167.831876
05302		4.888216	22.113653	167.776558
05303		4.778788	22.058458	167.746571
05304		4.676048	22.000148	167.730159
05305		4.587561	21.949400	167.732811
05306		4.509166	21.864755	167.749398
05307		4.450702	21.783356	167.753234
05308		4.386113	21.725159	167.741546
05309		4.303396	21.676366	167.723179
05310		4.262652	21.639083	167.714401
05311		4.237409	21.608115	167.702920
05312		4.185403	21.614268	167.673516
05313		4.138118	21.607382	167.646647
05314		4.143365	21.639926	167.625960
05315		4.181480	21.728571	167.586005
05316		4.169176	21.793916	167.521991
05317		4.124348	21.823558	167.467313
05318		4.150601	21.892275	167.430434
05319		4.165330	21.965999	167.400305
05320		4.218832	22.008477	167.409009
05321		4.275555	22.043755	167.410562
05322		4.293335	22.093762	167.386267
05323		4.357136	22.147825	167.381332
05324		4.442447	22.177697	167.389293
05325		4.461213	22.213850	167.383997
05326		4.455703	22.245599	167.367091
05327		4.473677	22.278727	167.353474
05328		4.489181	22.308559	167.327098
05329		4.517375	22.340019	167.303023
05330		4.538912	22.349218	167.285260
05331		4.513642	22.351886	167.278222
05332		4.452515	22.348476	167.273470
05333		4.406303	22.358855	167.278105
05334		4.371525	22.361179	167.301551
05335		4.369321	22.354667	167.333082
05336		4.335571	22.350449	167.355424
05337		4.275171	22.357900	167.360415
05338		4.258753	22.366011	167.362161
05339		4.237028	22.368642	167.355863
05340		4.150151	22.384675	167.360147
05341		4.059703	22.403618	167.369173
05342		4.051324	22.410974	167.382304
05343		4.074056	22.417345	167.398722
05344		4.079549	22.423478	167.401509
05345		4.095542	22.414674	167.411873
05346		4.085305	22.421657	167.405967
05347		4.017709	22.437943	167.394862
05348		3.967192	22.438485	167.373084
05349		3.935563	22.440407	167.361090
05350		3.898080	22.429835	167.366635
05351		3.862113	22.425818	167.372333
05352		3.830274	22.415114	167.380727
05353		3.810081	22.387403	167.375847
05354		3.801063	22.377496	167.369028
05355		3.811694	22.375876	167.368648
05356		3.822258	22.374475	167.360640
05357		3.821418	22.373942	167.355095
05358		3.808786	22.386759	167.343395
05359		3.841226	22.413549	167.309068
05360		3.862034	22.448651	167.271547
05361		3.885112	22.443047	167.240316
05362		3.889448	22.453237	167.222165
05363		3.856445	22.470492	167.196517
05364		3.830615	22.483891	167.182792
05365		3.860462	22.471065	167.185125
05366		3.863849	22.468237	167.201055
05367		3.850306	22.463991	167.210464
05368		3.872770	22.458560	167.214450
05369		3.885220	22.460142	167.214014
05370		3.916511	22.460339	167.217901
05371		3.938389	22.461632	167.211074
05372		3.920318	22.477122	167.199581
05373		3.914287	22.479674	167.192481
05374		3.920087	22.473606	167.195077
05375		3.915359	22.470932	167.200251
05376		3.909140	22.471793	167.203951
05377		3.913151	22.471275	167.213035
05378		3.932026	22.468664	167.229375
05379		3.952072	22.458291	167.237268
05380		3.955543	22.455360	167.252009
05381		3.989513	22.452773	167.271760
05382		4.053406	22.457211	167.285699
05383		4.149750	22.482703	167.303297
05384		4.260544	22.503495	167.332682
05385		4.375448	22.501530	167.371706
05386		4.449467	22.502336	167.415915
05387		4.473894	22.518341	167.440110
05388		4.517926	22.522811	167.448239
05389		4.615942	22.515003	167.443201
05390		4.724038	22.515248	167.450442
05391		4.802234	22.511898	167.468251
05392		4.890791	22.495490	167.500551
05393		4.983857	22.489107	167.532695
05394		5.062496	22.515646	167.566354
05395		5.177170	22.549371	167.607544
05396		5.347108	22.584375	167.644156
05397		5.522351	22.649562	167.664128
05398		5.641619	22.721920	167.660246
05399		5.718614	22.803650	167.634710
05400		5.834348	22.885602	167.595128
05401		5.941877	22.941920	167.536338
05402		5.970558	22.982163	167.469718
05403		5.988493	23.029202	167.395861
05404		6.003317	23.055408	167.330280
05405		5.987307	23.059491	167.286450
05406		5.961442	23.111823	167.238143
05407		5.915867	23.200290	167.173269
05408		5.895803	23.269885	167.114216
05409		5.952854	23.350680	167.060538
05410		6.072562	23.447288	167.008169
05411		6.178305	23.524233	166.955983
05412		6.286282	23.600916	166.903660
05413		6.389462	23.702565	166.848700
05414		6.459881	23.826927	166.789238
05415		6.527948	23.921013	166.735829
05416		6.610733	23.988078	166.671979
05417		6.653371	24.066391	166.591014
05418		6.642836	24.146197	166.514447
05419		6.644673	24.188192	166.461593
05420		6.736119	24.212915	166.424961
05421		6.896540	24.264003	166.389794
05422		7.025088	24.327193	166.366020
05423		7.130139	24.375918	166.359193
05424		7.253555	24.423962	166.346997
05425		7.400963	24.498120	166.346099
05426		7.531905	24.572514	166.353587
05427		7.650910	24.639162	166.350394
05428		7.768246	24.714624	166.339294
05429		7.880480	24.817716	166.322471
05430		8.012202	24.933947	166.334697
05431		8.207294	25.040595	166.372558
05432		8.463323	25.139512	166.413419
05433		8.750848	25.228958	166.457360
05434		9.022849	25.318108	166.512423
05435		9.274992	25.374841	166.578470
05436		9.520182	25.427767	166.624196
05437		9.755744	25.511833	166.659111
05438		9.964909	25.598270	166.695824
05439		10.170951	25.661185	166.727231
05440		10.390530	25.736114	166.743805
05441		10.573521	25.838457	166.757894
05442		10.709490	25.912942	166.769357
05443		10.896152	25.985557	166.788626
05444		11.114423	26.079965	166.795373
05445		11.301598	26.165163	166.799161
05446		11.460899	26.244063	166.785799
05447		11.621316	26.365829	166.741238
05448		11.751288	26.499063	166.677843
05449		11.870131	26.653677	166.595893
05450		12.008715	26.834996	166.489104
05451		12.179484	27.069895	166.364725
05452		12.439160	27.359920	166.230974
05453		12.671633	27.602116	166.061695
05454		12.921112	27.906527	165.890213
05455		13.215152	28.206582	165.697813
05456		13.584523	28.518460	165.483487
05457		14.025491	28.840801	165.289716
05458		14.470261	29.110518	165.130566
05459		14.898829	29.301608	164.993155
05460		15.283233	29.504334	164.871572
05461		15.607179	29.729144	164.793464
05462		15.865149	29.868390	164.744766
05463		16.085894	29.954952	164.713394
05464		16.246209	30.048867	164.725162
05465		16.374596	30.091064	164.772469
05466		16.488494	30.070729	164.832023
05467		16.567719	30.073185	164.887822
05468		16.588948	30.101251	164.906542
05469		16.588692	30.138300	164.906271
05470		16.627693	30.159537	164.906365
05471		16.709110	30.158438	164.911552
05472		16.785475	30.176531	164.904482
05473		16.835235	30.176705	164.920543
05474		16.893190	30.172927	164.950079
05475		16.944473	30.172459	164.956562
05476		16.975644	30.200123	164.948499
05477		16.992512	30.200519	164.950823
05478		17.061542	30.180983	164.960506
05479		17.140252	30.175634	164.952304
05480		17.173492	30.142523	164.964280
05481		17.188627	30.104163	164.994900
05482		17.227007	30.064031	165.021491
05483		17.299754	30.017020	165.041477
05484		17.382011	29.951901	165.063273
05485		17.450269	29.888471	165.081959
05486		17.488365	29.819837	165.102728
05487		17.513073	29.727876	165.118152
05488		17.539666	29.637845	165.133521
05489		17.566601	29.574629	165.148334
05490		17.565721	29.484613	165.163901
05491		17.583662	29.391452	165.145712
05492		17.559021	29.332428	165.122880
05493		17.457870	29.302714	165.111891
05494		17.364583	29.261024	165.093204
05495		17.327055	29.213408	165.067903
05496		17.289006	29.175235	165.047340
05497		17.206886	29.150985	165.024457
05498		17.143769	29.133311	165.011788
05499		17.141097	29.131958	165.012997
05500		17.155571	29.148144	165.026604
05501		17.180940	29.150718	165.048490
05502		17.201016	29.160517	165.060667
05503		17.216420	29.172697	165.066523
05504		17.231217	29.199114	165.059409
05505		17.236478	29.215214	165.047468
05506		17.258220	29.224277	165.048137
05507		17.271696	29.238618	165.063506
05508		17.288579	29.241438	165.068144
05509		17.292835	29.251623	165.075205
05510		17.297963	29.246647	165.064105
05511		17.292050	29.267787	165.053815
05512		17.274291	29.294766	165.032208
05513		17.261399	29.317344	165.019249
05514		17.261609	29.313886	165.011016
05515		17.257473	29.320111	165.015625
05516		17.241538	29.330313	165.015098
05517		17.241392	29.340202	165.018120
05518		17.251895	29.345009	165.030489
05519		17.240758	29.348589	165.050317
05520		17.214449	29.344268	165.085440
05521		17.166680	29.300917	165.107328
05522		17.026657	29.260198	165.099637
05523		16.769209	29.220157	165.046652
05524		16.443154	29.177196	164.957849
05525		16.079595	29.130013	164.853274
05526		15.701825	29.051974	164.748799
05527		15.354878	28.984015	164.652949
05528		15.096002	28.925059	164.592378
05529		14.928322	28.880284	164.554870
05530		14.792629	28.820872	164.526654
05531		14.575847	28.739676	164.486087
05532		14.285407	28.654076	164.450167
05533		14.038131	28.558635	164.411214
05534		13.844463	28.455356	164.384542
05535		13.635993	28.349343	164.368727
05536		13.455543	28.236371	164.370101
05537		13.324592	28.117392	164.389856
05538		13.219840	27.992960	164.432152
05539		13.117530	27.887303	164.489324
05540		13.005983	27.787821	164.545752
05541		12.839163	27.665761	164.581011
05542		12.609586	27.530660	164.595250
05543		12.408578	27.404101	164.640647
05544		12.238454	27.256265	164.714005
05545		12.044216	27.074013	164.797768
05546		11.793973	26.873780	164.891895
05547		11.486044	26.679083	164.987559
05548		11.178167	26.498205	165.104197
05549		10.942227	26.324639	165.231419
05550		10.778998	26.176996	165.358562
05551		10.651045	26.053288	165.485989
05552		10.537536	25.936348	165.585025
05553		10.383542	25.853247	165.636529
05554		10.191613	25.788934	165.673042
05555		9.998253	25.732784	165.693822
05556		9.832152	25.717028	165.696066
05557		9.691915	25.717067	165.682844
05558		9.605301	25.753543	165.674251
05559		9.538445	25.791149	165.660104
05560		9.470912	25.801736	165.646461
05561		9.333151	25.780922	165.621469
05562		9.116872	25.752673	165.586825
05563		8.891471	25.730379	165.549264
05564		8.693765	25.685702	165.522555
05565		8.563384	25.637611	165.500192
05566		8.455442	25.576274	165.462897
05567		8.341976	25.502977	165.424467
05568		8.153994	25.413450	165.363592
05569		7.823100	25.279358	165.268686
05570		7.446617	25.133550	165.193547
05571		7.185553	24.997114	165.154595
05572		7.012284	24.867847	165.154872
05573		6.853443	24.703358	165.179005
05574		6.686186	24.530057	165.213000
05575		6.491291	24.393581	165.248731
05576		6.300383	24.272362	165.280948
05577		6.142986	24.134247	165.326055
05578		6.033570	24.007312	165.366339
05579		5.913697	23.886178	165.405208
05580		5.786023	23.771151	165.439431
05581		5.648295	23.649170	165.472822
05582		5.528704	23.542769	165.511999
05583		5.424872	23.435756	165.545638
05584		5.351439	23.329473	165.575388
05585		5.251128	23.249332	165.578398
05586		5.104649	23.186397	165.557487
05587		4.982601	23.122182	165.528384
05588		4.916880	23.062386	165.517157
05589		4.926959	22.993996	165.518987
05590		4.967698	22.916012	165.533634
05591		4.968489	22.841361	165.546061
05592		4.963733	22.764762	165.569588
05593		4.981383	22.713742	165.593370
05594		4.980631	22.672452	165.608260
05595		4.960670	22.623415	165.612794
05596		4.902259	22.589160	165.603197
05597		4.826718	22.571835	165.591359
05598		4.776223	22.588504	165.601848
05599		4.700193	22.618400	165.608798
05600		4.541436	22.579028	165.614888
05601		4.388113	22.553304	165.609139
05602		4.256526	22.551039	165.602823
05603		4.176102	22.523761	165.611110
05604		4.184191	22.493813	165.641313
05605		4.247514	22.479389	165.676482
05606		4.308137	22.463081	165.717669
05607		4.379856	22.442464	165.760275
05608		4.458243	22.419359	165.799048
05609		4.537271	22.423767	165.822105
05610		4.614229	22.444021	165.853713
05611		4.699860	22.455884	165.884998
05612		4.781681	22.465953	165.921848
05613		4.868678	22.507180	165.947702
05614		4.944950	22.551154	165.971279
05615		5.042650	22.594660	165.999650
05616		5.111354	22.603774	166.030610
05617		5.118714	22.600480	166.045872
05618		5.116677	22.613139	166.064059
05619		5.114448	22.637718	166.082625
05620		5.121849	22.646906	166.105244
05621		5.107890	22.645028	166.113198
05622		5.098403	22.653893	166.123015
05623		5.096682	22.655565	166.138261
05624		5.125999	22.661386	166.146678
05625		5.224229	22.676393	166.189604
05626		5.343572	22.689237	166.261960
05627		5.434609	22.658541	166.307341
05628		5.454882	22.601968	166.372907
05629		5.396883	22.577406	166.422775
05630		5.290776	22.562491	166.444767
05631		5.184102	22.567175	166.466674
05632		5.096175	22.548747	166.496260
05633		5.005747	22.541365	166.508316
05634		4.900769	22.556520	166.516419
05635		4.787303	22.575657	166.530483
05636		4.709429	22.586553	166.549997
05637		4.639088	22.619576	166.564191
05638		4.567139	22.649480	166.567980
05639		4.560464	22.674755	166.564205
05640		4.574263	22.695908	166.560234
05641		4.577139	22.718034	166.559054
05642		4.597870	22.730185	166.561122
05643		4.594753	22.742724	166.559266
05644		4.553401	22.754900	166.569502
05645		4.524193	22.757245	166.582428
05646		4.493868	22.763691	166.597492
05647		4.458016	22.770934	166.618918
05648		4.452720	22.762163	166.644813
05649		4.467021	22.753467	166.680347
05650		4.499840	22.750914	166.723619
05651		4.526475	22.747042	166.772625
05652		4.533552	22.736356	166.823634
05653		4.491813	22.727669	166.864848
05654		4.432813	22.729820	166.886499
05655		4.434827	22.727717	166.906436
05656		4.471728	22.727989	166.928996
05657		4.503546	22.729033	166.944228
05658		4.549444	22.732007	166.963345
05659		4.587775	22.737313	166.973861
05660		4.609064	22.756633	166.966988
05661		4.649121	22.747392	166.968861
05662		4.715480	22.726564	166.972845
05663		4.715471	22.733304	166.993248
05664		4.660626	22.732233	166.995584
05665		4.629370	22.729588	166.995637
05666		4.612090	22.731497	167.005493
05667		4.600969	22.727618	167.012469
05668		4.603193	22.721230	167.017945
05669		4.587304	22.707494	167.034326
05670		4.598893	22.688065	167.051929
05671		4.628993	22.682401	167.062966
05672		4.650759	22.680651	167.069253
05673		4.719420	22.666835	167.088512
05674		4.826692	22.642262	167.110041
05675		4.888855	22.637631	167.127760
05676		4.909173	22.643392	167.131760
05677		4.987331	22.635376	167.145473
05678		5.106979	22.641176	167.160659
05679		5.200206	22.672853	167.178696
05680		5.271633	22.693515	167.197089
05681		5.367517	22.706110	167.215768
05682		5.485326	22.729562	167.222328
05683		5.580929	22.780487	167.232759
05684		5.676737	22.815857	167.249205
05685		5.823504	22.839588	167.269169
05686		5.961495	22.870956	167.281269
05687		6.069174	22.917383	167.291576
05688		6.205488	22.944992	167.303672
05689		6.338150	22.974933	167.302614
05690		6.410969	23.020313	167.299440
05691		6.496419	23.058468	167.297764
05692		6.598025	23.115291	167.289545
05693		6.687536	23.169363	167.282241
05694		6.787360	23.226657	167.277827
05695		6.903925	23.293015	167.279094
05696		7.053640	23.363416	167.280086
05697		7.228427	23.434280	167.288455
05698		7.399950	23.502712	167.299071
05699		7.566215	23.570677	167.305760
05700		7.742460	23.638265	167.314009
05701		7.913952	23.685587	167.340977
05702		8.110769	23.681295	167.385909
05703		8.351877	23.669641	167.450057
05704		8.603860	23.681915	167.511949
05705		8.881005	23.700302	167.565586
05706		9.144513	23.724256	167.606442
05707		9.361298	23.766930	167.637900
05708		9.558921	23.814720	167.669908
05709		9.755949	23.862599	167.684271
05710		9.936984	23.927889	167.678629
05711		10.067688	23.982840	167.680009
05712		10.236201	23.998285	167.690512
05713		10.516805	24.013039	167.707441
05714		10.834237	24.045970	167.719224
05715		11.156116	24.061934	167.735510
05716		11.524957	24.069282	167.748194
05717		11.894299	24.108946	167.734039
05718		12.129362	24.192556	167.691094
05719		12.235341	24.270331	167.650875
05720		12.352866	24.341229	167.606002
05721		12.547333	24.419249	167.551765
05722		12.719806	24.541001	167.491140
05723		12.825328	24.664993	167.417165
05724		12.917407	24.744377	167.334234
05725		13.093271	24.846152	167.242418
05726		13.249878	24.991491	167.136007
05727		13.334444	25.108328	167.023232
05728		13.438805	25.222417	166.900975
05729		13.592253	25.393997	166.741214
05730		13.722864	25.616907	166.625528
05731		13.927659	25.725000	166.605891
05732		14.341540	25.829817	166.634799
05733		14.894711	25.994141	166.666299
05734		15.300862	26.171700	166.694175
05735		15.452757	26.344783	166.681935
05736		15.510389	26.510295	166.615611
05737		15.637596	26.706807	166.485056
05738		15.788584	26.935136	166.305265
05739		15.859262	27.217733	166.110864
05740		15.871730	27.548064	165.889796
05741		15.900963	27.847256	165.637285
05742		15.997632	28.206575	165.358208
05743		16.034097	28.627274	165.081219
05744		16.035656	29.008908	164.804813
05745		16.105265	29.374607	164.500905
05746		16.298320	29.800468	164.165030
05747		16.446162	30.364949	163.861593
05748		16.531959	30.933303	163.627105
05749		16.818002	31.446365	163.433209
05750		17.403876	31.858203	163.297356
05751		18.018608	32.245563	163.216209
05752		18.573373	32.529448	163.219682
05753		19.077930	32.690818	163.251149
05754		19.498554	32.816797	163.259854
05755		19.783954	32.972451	163.224694
05756		19.981135	33.196276	163.153961
05757		20.166017	33.484340	163.016392
05758		20.421838	33.799186	162.825898
05759		20.765555	34.130124	162.634756
05760		21.170243	34.487595	162.448355
05761		21.604769	34.843512	162.270545
05762		22.010087	35.202153	162.104762
05763		22.335617	35.551953	161.958766
05764		22.588381	35.855136	161.850160
05765		22.860942	36.123167	161.768204
05766		23.165447	36.402532	161.689453
05767		23.444280	36.704579	161.598980
05768		23.668724	37.009486	161.485160
05769		23.849541	37.299966	161.365426
05770		24.046479	37.555899	161.247921
05771		24.297067	37.786085	161.149170
05772		24.532130	38.011742	161.087089
05773		24.706570	38.206967	161.061346
05774		24.828523	38.337372	161.079496
05775		24.919193	38.403338	161.123150
05776		24.946647	38.446129	161.137455
05777		24.915106	38.502483	161.123574
05778		24.891989	38.485183	161.150037
05779		24.953134	38.421265	161.233353
05780		24.990468	38.346858	161.298975
05781		24.984698	38.326428	161.377213
05782		24.978280	38.315749	161.477889
05783		25.031679	38.249505	161.590249
05784		25.156545	38.144811	161.735230
05785		25.257190	38.049081	161.880042
05786		25.296520	37.931843	161.999959
05787		25.292120	37.791677	162.114137
05788		25.260730	37.658529	162.193765
05789		25.233663	37.536666	162.231751
05790		25.210937	37.454418	162.259823
05791		25.155060	37.397727	162.252998
05792		25.101101	37.356698	162.247190
05793		25.083740	37.325882	162.237027
05794		25.068823	37.333128	162.231185
05795		25.074994	37.378377	162.240335
05796		25.102029	37.410137	162.261259
05797		25.140803	37.411233	162.280622
05798		25.162995	37.427330	162.290594
05799		25.172716	37.450948	162.292258
05800		25.185047	37.466387	162.303308
05801		25.188892	37.474391	162.312040
05802		25.183090	37.481655	162.308486
05803		25.176780	37.495648	162.305613
05804		25.183639	37.510344	162.300713
05805		25.173728	37.537868	162.309385
05806		25.175746	37.539191	162.318053
05807		25.181838	37.553999	162.335038
05808		25.190876	37.566571	162.354301
05809		25.208223	37.565630	162.366287
05810		25.224460	37.563193	162.371874
05811		25.231804	37.567556	162.387123
05812		25.229440	37.570382	162.387327
05813		25.228279	37.569427	162.374623
05814		25.229474	37.572276	162.378249
05815		25.225707	37.570624	162.375115
05816		25.225971	37.566737	162.373454
05817		25.225292	37.573368	162.378423
05818		25.235745	37.576260	162.385447
05819		25.238707	37.574618	162.382057
05820		25.227339	37.574470	162.371936
05821		25.214147	37.575872	162.373117
05822		25.212141	37.578795	162.379671
05823		25.212824	37.589212	162.386157
05824		25.208178	37.601856	162.389533
05825		25.181665	37.606915	162.373906
05826		25.122148	37.611915	162.352264
05827		25.032753	37.616048	162.318033
05828		24.913447	37.614018	162.267949
05829		24.756224	37.589950	162.192690
05830		24.560036	37.552929	162.106905
05831		24.382037	37.520293	162.024466
05832		24.268511	37.500808	161.978956
05833		24.228155	37.498474	161.980638
05834		24.246245	37.522091	162.012215
05835		24.243938	37.538212	162.046331
05836		24.177054	37.520897	162.046490
05837		24.087145	37.474564	162.013519
05838		23.969087	37.386544	161.951935
05839		23.792793	37.251488	161.860333
05840		23.566637	37.086598	161.739684
05841		23.348897	36.912968	161.634610
05842		23.170008	36.764810	161.566486
05843		23.028484	36.674130	161.527471
05844		23.011209	36.632008	161.546724
05845		23.106209	36.597682	161.635742
05846		23.126700	36.529083	161.698119
05847		23.060856	36.426891	161.725554
05848		23.009948	36.308902	161.747121
05849		22.961731	36.165356	161.755945
05850		22.865167	35.997444	161.763891
05851		22.727421	35.777627	161.765257
05852		22.653479	35.509464	161.779536
05853		22.598553	35.197851	161.813570
05854		22.429787	34.839761	161.845211
05855		22.147100	34.486616	161.891891
05856		21.795284	34.151914	161.936064
05857		21.370863	33.830113	161.960051
05858		20.920104	33.508050	161.971382
05859		20.484788	33.184091	161.979624
05860		20.050235	32.813742	161.985005
05861		19.673280	32.448894	162.033696
05862		19.347954	32.101852	162.058184
05863		19.066477	31.750768	162.115594
05864		18.752621	31.396944	162.178428
05865		18.347615	31.025159	162.243833
05866		17.922607	30.658270	162.331783
05867		17.578269	30.319096	162.450726
05868		17.298042	30.007767	162.531262
05869		17.036141	29.678184	162.573411
05870		16.704329	29.266426	162.652899
05871		16.266731	28.875880	162.841411
05872		15.754494	28.595200	162.908668
05873		15.314228	28.272836	162.960661
05874		14.987554	27.963877	163.108753
05875		14.711178	27.667189	163.280827
05876		14.484985	27.374973	163.467881
05877		14.317194	27.080006	163.697332
05878		14.170310	26.794195	163.939892
05879		14.002888	26.516226	164.195483
05880		13.836517	26.256140	164.462628
05881		13.699337	26.003491	164.734534
05882		13.587146	25.745330	165.005539
05883		13.467503	25.488462	165.259454
05884		13.320440	25.246334	165.505343
05885		13.152889	25.017259	165.763549
05886		12.978374	24.816007	166.024776
05887		12.818179	24.604704	166.270216
05888		12.650632	24.376166	166.506492
05889		12.444561	24.156710	166.762739
05890		12.173927	23.946178	167.010701
05891		11.851633	23.708964	167.233426
05892		11.551024	23.434599	167.452727
05893		11.304941	23.204262	167.669855
05894		11.008928	22.964173	167.841092
05895		10.684529	22.757509	167.996767
05896		10.413511	22.564189	168.139002
05897		10.244135	22.365109	168.273744
05898		10.111963	22.171663	168.389870
05899		9.949056	21.978893	168.493233
05900		9.768552	21.824912	168.588551
05901		9.534035	21.723106	168.655464
05902		9.293491	21.639756	168.700272
05903		9.044348	21.557835	168.711115
05904		8.790999	21.469917	168.692996
05905		8.527744	21.401822	168.656266
05906		8.300619	21.359166	168.596980
05907		8.126207	21.336658	168.542791
05908		8.015049	21.301647	168.484756
05909		7.901649	21.277618	168.444169
05910		7.840529	21.248558	168.415089
05911		7.818394	21.208978	168.410226
05912		7.789893	21.160907	168.391966
05913		7.676408	21.093085	168.373502
05914		7.558593	21.030494	168.354237
05915		7.395734	20.937803	168.340603
05916		7.219574	20.831911	168.345825
05917		7.063887	20.697529	168.390831
05918		6.867595	20.529714	168.455409
05919		6.671323	20.315561	168.543010
05920		6.523115	20.092202	168.671292
05921		6.445459	19.867727	168.817226
05922		6.451100	19.686015	168.939024
05923		6.484923	19.578009	169.015528
05924		6.469581	19.532561	169.019049
05925		6.387036	19.527045	168.960610
05926		6.383978	19.527900	168.824130
05927		6.528315	19.536504	168.720272
05928		6.588800	19.532651	168.654261
05929		6.538177	19.539268	168.613095
05930		6.474580	19.544579	168.598952
05931		6.497319	19.567629	168.592934
05932		6.497941	19.601280	168.579138
05933		6.463909	19.639015	168.556486
05934		6.390423	19.672934	168.533867
05935		6.279430	19.690047	168.510751
05936		6.188278	19.733726	168.505830
05937		6.167321	19.766722	168.508122
05938		6.173375	19.791521	168.518693
05939		6.156206	19.818641	168.527570
05940		6.126179	19.859602	168.526247
05941		6.118521	19.899438	168.531111
05942		6.116536	19.918181	168.538703
05943		6.093898	19.919623	168.552023
05944		6.081261	19.932122	168.560596
05945		6.073952	19.945324	168.568825
05946		6.068447	19.974339	168.558873
05947		6.053415	20.003229	168.546663
05948		6.030820	20.029217	168.530412
05949		6.002896	20.051119	168.520876
05950		5.981068	20.079397	168.511500
05951		5.969502	20.097124	168.509980
05952		5.976489	20.113425	168.520109
05953		6.000060	20.128115	168.531515
05954		6.012545	20.136183	168.539329
05955		6.016858	20.160083	168.547430
05956		6.014948	20.188255	168.535392
05957		6.029367	20.217145	168.531081
05958		6.087755	20.264708	168.522860
05959		6.135709	20.339798	168.500851
05960		6.124505	20.453957	168.474858
05961		6.044162	20.524488	168.457180
05962		5.962806	20.544127	168.450316
05963		5.890894	20.553172	168.459298
05964		5.790940	20.584546	168.465309
05965		5.715144	20.611742	168.459979
05966		5.723958	20.636004	168.456722
05967		5.730361	20.651952	168.444509
05968		5.694452	20.673570	168.426873
05969		5.653231	20.706721	168.401969
05970		5.604157	20.745635	168.385097
05971		5.513526	20.790245	168.374509
05972		5.379302	20.824164	168.346464
05973		5.260200	20.865444	168.293030
05974		5.139641	20.913612	168.235517
05975		4.978612	20.970256	168.195514
05976		4.915828	20.984394	168.148030
05977		4.916379	21.010218	168.135607
05978		4.833695	21.057455	168.111047
05979		4.706856	21.104415	168.098421
05980		4.614363	21.145118	168.077056
05981		4.600780	21.188303	168.051307
05982		4.581270	21.227365	168.028867
05983		4.539502	21.275947	168.005726
05984		4.490470	21.307724	167.988607
05985		4.445224	21.336691	167.984034
05986		4.409262	21.360447	167.987936
05987		4.396846	21.385724	167.983762
05988		4.383053	21.417420	167.976282
05989		4.352581	21.435733	167.962148
05990		4.331838	21.449410	167.950922
05991		4.341188	21.466363	167.948898
05992		4.341856	21.478224	167.958717
05993		4.350786	21.484486	167.967098
05994		4.353791	21.492203	167.975694
05995		4.352101	21.499420	167.977755
05996		4.360549	21.518219	167.979386
05997		4.385278	21.531636	167.986475
05998		4.425629	21.532713	168.002117
05999		4.487404	21.542452	168.021887
06000		4.556059	21.555051	168.052517
06001		4.693747	21.555683	168.094411
06002		4.850932	21.571658	168.129858
06003		4.982321	21.597239	168.166130
06004		5.170156	21.608433	168.201409
06005		5.367709	21.627787	168.236395
06006		5.438366	21.662545	168.251122
06007		5.509940	21.691532	168.271501
06008		5.623519	21.726716	168.314424
06009		5.777114	21.785486	168.344036
06010		5.975354	21.826647	168.365750
06011		6.049126	21.799752	168.355105
06012		6.034796	21.768282	168.330898
06013		6.013188	21.775415	168.300982
06014		6.015476	21.795255	168.260914
06015		6.078231	21.810499	168.228138
06016		6.168147	21.826275	168.194554
06017		6.258264	21.864627	168.153747
06018		6.345814	21.934225	168.110458
06019		6.468356	22.007358	168.089211
06020		6.688723	22.082932	168.085787
06021		6.999357	22.170070	168.107071
06022		7.324808	22.222839	168.120946
06023		7.561009	22.282689	168.102285
06024		7.699722	22.363483	168.090793
06025		7.807559	22.451049	168.076438
06026		7.903397	22.562742	168.041124
06027		7.979843	22.687915	167.987929
06028		8.060406	22.816377	167.913393
06029		8.148050	22.944579	167.830428
06030		8.243883	23.075381	167.742209
06031		8.327882	23.211558	167.619092
06032		8.371330	23.370503	167.419979
06033		8.410211	23.570393	167.181475
06034		8.460989	23.749634	166.916027
06035		8.487542	23.963545	166.562310
06036		8.434209	24.272523	166.230385
06037		8.283689	24.436581	166.007604
06038		8.180748	24.500612	165.803445
06039		8.156639	24.630895	165.557440
06040		8.067881	24.836578	165.318762
06041		7.897611	25.015593	165.101977
06042		7.804727	25.136239	164.857450
06043		7.821125	25.279273	164.599969
06044		7.834090	25.447511	164.385291
06045		7.835325	25.590339	164.171906
06046		7.846120	25.728594	163.904557
06047		7.830328	25.897078	163.587362
06048		7.731977	26.124189	163.258322
06049		7.620667	26.373963	162.882704
06050		7.508452	26.648173	162.409007
06051		7.307869	26.941702	161.908183
06052		7.048946	27.285956	161.479151
06053		6.813610	27.605693	161.059315
06054		6.676102	27.829185	160.598157
06055		6.635283	28.048551	160.159945
06056		6.606902	28.277197	159.755860
06057		6.582467	28.491767	159.397309
06058		6.579768	28.694640	159.081477
06059		6.595300	28.899071	158.806914
06060		6.643223	29.087212	158.551937
06061		6.750359	29.282325	158.301597
06062		6.869667	29.475802	158.065789
06063		6.971507	29.672479	157.870225
06064		7.091425	29.887199	157.696153
06065		7.278307	30.130424	157.496815
06066		7.492834	30.398393	157.277365
06067		7.715661	30.668457	157.134124
06068		8.021145	30.916365	157.025592
06069		8.397041	31.195699	156.865502
06070		8.804436	31.513472	156.677242
06071		9.203744	31.870208	156.478436
06072		9.574247	32.248144	156.318906
06073		9.925955	32.620089	156.180972
06074		10.339508	32.985022	156.031717
06075		10.826227	33.356866	155.872502
06076		11.355018	33.762390	155.739654
06077		11.868405	34.158058	155.641482
06078		12.406154	34.552246	155.605157
06079		12.975609	34.971970	155.602517
06080		13.555903	35.425605	155.581623
06081		14.128621	35.895724	155.547412
06082		14.686067	36.373703	155.526508
06083		15.273296	36.847133	155.561344
06084		15.874332	37.275639	155.631172
06085		16.439817	37.643312	155.700257
06086		16.916386	37.970493	155.771109
06087		17.283389	38.256111	155.918016
06088		17.565555	38.425361	156.090303
06089		17.760550	38.492563	156.232346
06090		17.867706	38.543874	156.367816
06091		17.921612	38.602140	156.480320
06092		17.919202	38.649792	156.538773
06093		17.880190	38.701170	156.558397
06094		17.847907	38.732050	156.552750
06095		17.843059	38.767471	156.542359
06096		17.840034	38.814644	156.531289
06097		17.812877	38.865088	156.521367
06098		17.797212	38.923384	156.521384
06099		17.783558	38.967242	156.506337
06100		17.768832	39.003349	156.482867
06101		17.765759	39.049578	156.459549
06102		17.758545	39.087079	156.428686
06103		17.725509	39.121599	156.391654
06104		17.691844	39.155551	156.357255
06105		17.653208	39.195336	156.321564
06106		17.609782	39.235707	156.287767
06107		17.574019	39.265545	156.261488
06108		17.547998	39.269363	156.244285
06109		17.518707	39.269537	156.214189
06110		17.477425	39.254678	156.174814
06111		17.480848	39.219210	156.186643
06112		17.490897	39.179622	156.191344
06113		17.461623	39.155501	156.170987
06114		17.418086	39.159308	156.140609
06115		17.410674	39.158816	156.139844
06116		17.466248	39.113065	156.196478
06117		17.546702	39.000424	156.292580
06118		17.638846	38.847313	156.425978
06119		17.712220	38.663048	156.607620
06120		17.773752	38.485147	156.787861
06121		17.798228	38.334785	156.918366
06122		17.837161	38.210823	157.035167
06123		17.883342	38.111186	157.113365
06124		17.885999	38.063466	157.177294
06125		17.893308	38.019874	157.214443
06126		17.912653	37.988933	157.220311
06127		17.933497	37.985724	157.230413
06128		17.965227	38.001693	157.246582
06129		18.012636	38.028911	157.271438
06130		18.083665	38.038796	157.301949
06131		18.122970	38.047585	157.318003
06132		18.114740	38.071056	157.316488
06133		18.105276	38.093113	157.309115
06134		18.101326	38.099398	157.304562
06135		18.096751	38.089770	157.296729
06136		18.097726	38.082627	157.285892
06137		18.088816	38.085744	157.275180
06138		18.079558	38.101703	157.269297
06139		18.107142	38.104822	157.281576
06140		18.135279	38.103073	157.291272
06141		18.137612	38.101935	157.284889
06142		18.129938	38.112940	157.273709
06143		18.130437	38.126463	157.275598
06144		18.149184	38.125812	157.287096
06145		18.160145	38.132041	157.293670
06146		18.155468	38.133682	157.297266
06147		18.143114	38.143156	157.289510
06148		18.133602	38.149287	157.286480
06149		18.126201	38.171691	157.280142
06150		18.101799	38.180565	157.275742
06151		18.064351	38.177489	157.261905
06152		17.979956	38.158148	157.235788
06153		17.881387	38.124229	157.198722
06154		17.757597	38.055862	157.164715
06155		17.567821	37.971534	157.097063
06156		17.339847	37.871341	157.001062
06157		17.077846	37.763459	156.894312
06158		16.788329	37.662759	156.758037
06159		16.516937	37.587776	156.627351
06160		16.289427	37.527601	156.541242
06161		16.135885	37.437288	156.502771
06162		16.027897	37.292036	156.495734
06163		15.904949	37.110031	156.496668
06164		15.721276	36.881351	156.480231
06165		15.536769	36.544228	156.565050
06166		15.423608	36.130291	156.685091
06167		15.374498	35.701984	156.793076
06168		15.321084	35.273976	156.963589
06169		15.159365	34.792493	157.166925
06170		14.918700	34.293598	157.412395
06171		14.671205	33.829815	157.654462
06172		14.412202	33.383681	157.874917
06173		14.109455	32.966753	158.093897
06174		13.780124	32.597464	158.304956
06175		13.509108	32.301812	158.520973
06176		13.294411	32.030319	158.712469
06177		13.163187	31.782631	158.890983
06178		13.039126	31.546671	159.048546
06179		12.884485	31.289668	159.191308
06180		12.705401	31.016864	159.329767
06181		12.540795	30.754968	159.482582
06182		12.382955	30.490323	159.626346
06183		12.164518	30.163833	159.844094
06184		11.887478	29.845810	160.109430
06185		11.635124	29.551510	160.301319
06186		11.525285	29.239796	160.507872
06187		11.480404	28.951275	160.764087
06188		11.371046	28.691980	160.993692
06189		11.224057	28.465053	161.199654
06190		11.105513	28.271110	161.399206
06191		11.000601	28.082715	161.569847
06192		10.890567	27.915575	161.714018
06193		10.830081	27.778876	161.843702
06194		10.893003	27.676184	162.010506
06195		11.028883	27.578522	162.166894
06196		11.095569	27.445056	162.302282
06197		11.099472	27.290181	162.460354
06198		11.143644	27.128955	162.659733
06199		11.219099	26.974646	162.862964
06200		11.262799	26.835058	163.041217
06201		11.242791	26.691005	163.196874
06202		11.173429	26.563972	163.333713
06203		11.090296	26.459931	163.472965
06204		11.027273	26.356916	163.605251
06205		11.004671	26.250159	163.719293
06206		10.930928	26.135478	163.815379
06207		10.812722	26.031009	163.901879
06208		10.692201	25.907196	163.995313
06209		10.585941	25.779706	164.117690
06210		10.466907	25.661187	164.232307
06211		10.346454	25.528434	164.333999
06212		10.254868	25.410419	164.449106
06213		10.182719	25.310038	164.571241
06214		10.115241	25.159265	164.698621
06215		10.082285	24.982037	164.846917
06216		10.064641	24.801873	164.998043
06217		10.022531	24.606121	165.147960
06218		9.959246	24.405465	165.289136
06219		9.856168	24.213204	165.408135
06220		9.735329	24.048518	165.524079
06221		9.615342	23.911455	165.630737
06222		9.517056	23.748415	165.724449
06223		9.421638	23.577527	165.826772
06224		9.304718	23.426545	165.926341
06225		9.141675	23.282322	166.005695
06226		8.997150	23.114917	166.112117
06227		8.864799	22.947009	166.227688
06228		8.744207	22.716790	166.346793
06229		8.628099	22.495574	166.476758
06230		8.456021	22.321306	166.546421
06231		8.171089	22.170878	166.580232
06232		7.930064	22.036009	166.586903
06233		7.778083	21.911746	166.584821
06234		7.698904	21.783489	166.612319
06235		7.628262	21.646071	166.679101
06236		7.558759	21.500137	166.764776
06237		7.503227	21.372906	166.866909
06238		7.464874	21.220354	166.997259
06239		7.488233	21.061074	167.161008
06240		7.559960	20.925647	167.336201
06241		7.626713	20.807751	167.510957
06242		7.760817	20.710082	167.711401
06243		7.966821	20.627827	167.911147
06244		8.081981	20.545603	168.076397
06245		8.151374	20.504253	168.199441
06246		8.234892	20.519784	168.282373
06247		8.313692	20.564202	168.322578
06248		8.358461	20.616259	168.340300
06249		8.372307	20.677082	168.332213
06250		8.343942	20.743302	168.305290
06251		8.319296	20.798750	168.271207
06252		8.340221	20.844183	168.244631
06253		8.379429	20.904023	168.225834
06254		8.343050	20.960068	168.189192
06255		8.267288	21.008361	168.144562
06256		8.223999	21.054900	168.095967
06257		8.135485	21.111786	168.030753
06258		8.024561	21.166288	167.974542
06259		7.998350	21.200338	167.941013
06260		7.972317	21.215209	167.924575
06261		7.915449	21.235500	167.902190
06262		7.878772	21.269433	167.879659
06263		7.843604	21.292639	167.865688
06264		7.826608	21.309157	167.848674
06265		7.794744	21.344027	167.827536
06266		7.736405	21.387728	167.797752
06267		7.715201	21.420679	167.768719
06268		7.732911	21.467173	167.744168
06269		7.746591	21.551889	167.727887
06270		7.776476	21.673821	167.737054
06271		7.836200	21.773748	167.765143
06272		7.755518	21.780154	167.759547
06273		7.560867	21.804030	167.727289
06274		7.374911	21.862744	167.700479
06275		7.218000	21.909488	167.704351
06276		7.189441	21.919923	167.694824
06277		7.213718	21.934459	167.686922
06278		7.193361	21.957932	167.683152
06279		7.170957	21.956898	167.682850
06280		7.150788	21.971146	167.672553
06281		7.125325	22.005677	167.660772
06282		7.131366	22.008776	167.661119
06283		7.204078	21.997123	167.672964
06284		7.257919	21.998226	167.683134
06285		7.253666	22.022068	167.690359
06286		7.232976	22.032527	167.704616
06287		7.230852	22.022183	167.715434
06288		7.222696	22.018572	167.720872
06289		7.179132	22.029410	167.725699
06290		7.159177	22.025267	167.735147
06291		7.155225	22.021068	167.744108
06292		7.145702	22.019658	167.759260
06293		7.138531	22.018429	167.770360
06294		7.145755	22.020008	167.775557
06295		7.147170	22.031051	167.774730
06296		7.148365	22.032712	167.774354
06297		7.174689	22.033426	167.784041
06298		7.210094	22.037775	167.814665
06299		7.280902	22.028020	167.859371
06300		7.382595	22.016904	167.923519
06301		7.483240	22.016037	167.985057
06302		7.551032	22.022454	168.027139
06303		7.579739	22.025924	168.034015
06304		7.614162	22.045300	168.023353
06305		7.664688	22.060900	168.026814
06306		7.724432	22.058890	168.038830
06307		7.789732	22.067726	168.058473
06308		7.845415	22.083182	168.079361
06309		7.941833	22.084721	168.110491
06310		8.048793	22.088597	168.130758
06311		8.088815	22.092299	168.139313
06312		8.101736	22.111228	168.133696
06313		8.166390	22.113052	168.131064
06314		8.236723	22.106123	168.131594
06315		8.284373	22.105750	168.139241
06316		8.300240	22.103100	168.142655
06317		8.328530	22.089613	168.153146
06318		8.391666	22.085515	168.151938
06319		8.456057	22.109600	168.156889
06320		8.490788	22.123776	168.161947
06321		8.568238	22.146038	168.169346
06322		8.629556	22.172206	168.178102
06323		8.635715	22.200498	168.180343
06324		8.642455	22.240462	168.182322
06325		8.683640	22.291501	168.185742
06326		8.748586	22.352363	168.182450
06327		8.848031	22.420717	168.180726
06328		8.985039	22.520974	168.194014
06329		9.182053	22.584140	168.243118
06330		9.425221	22.633945	168.327656
06331		9.669839	22.675445	168.427538
06332		9.841752	22.723327	168.511386
06333		9.921022	22.789805	168.570741
06334		9.959100	22.870125	168.599022
06335		10.015803	22.936057	168.619771
06336		10.101367	23.012640	168.615705
06337		10.202169	23.095817	168.604869
06338		10.317222	23.175635	168.601526
06339		10.450048	23.246792	168.592097
06340		10.579451	23.314498	168.569142
06341		10.692599	23.364834	168.571989
06342		10.835708	23.382649	168.592942
06343		11.044276	23.399144	168.633713
06344		11.301842	23.413648	168.706677
06345		11.555427	23.409203	168.779679
06346		11.728881	23.397774	168.819174
06347		11.808560	23.423983	168.831873
06348		11.852759	23.439730	168.840815
06349		11.964218	23.439792	168.838988
06350		12.117228	23.491178	168.813811
06351		12.213336	23.581610	168.771555
06352		12.294627	23.652633	168.722314
06353		12.432374	23.718231	168.649296
06354		12.592779	23.826403	168.558820
06355		12.693646	23.941704	168.496760
06356		12.802549	24.006287	168.451851
06357		12.977527	24.083242	168.376388
06358		13.114005	24.210298	168.262437
06359		13.163176	24.310144	168.164822
06360		13.229726	24.380412	168.044667
06361		13.337553	24.491894	167.869953
06362		13.374566	24.658653	167.685874
06363		13.337689	24.770556	167.522170
06364		13.368978	24.879079	167.353720
06365		13.461969	25.022045	167.175693
06366		13.518437	25.203967	167.005220
06367		13.510490	25.398915	166.817089
06368		13.507588	25.606787	166.578989
06369		13.503055	25.892106	166.312577
06370		13.404099	26.209835	166.117269
06371		13.296386	26.368494	165.969888
06372		13.334044	26.488607	165.816460
06373		13.389471	26.660264	165.630429
06374		13.273665	26.884467	165.441948
06375		13.071667	27.092005	165.247957
06376		12.986938	27.263725	165.030164
06377		13.024105	27.487063	164.789268
06378		13.050856	27.732166	164.567470
06379		13.024814	27.932912	164.354710
06380		12.992450	28.139469	164.080584
06381		12.922470	28.424892	163.694522
06382		12.743192	28.845016	163.186603
06383		12.366501	29.343730	162.559607
06384		11.839341	29.863186	161.873424
06385		11.452689	30.379498	161.281675
06386		11.478098	30.877658	160.791625
06387		11.822562	31.277877	160.397048
06388		12.240922	31.570514	160.078161
06389		12.605734	31.840521	159.821336
06390		12.856382	32.099677	159.632550
06391		13.030673	32.363046	159.468587
06392		13.172794	32.632399	159.303795
06393		13.351905	32.883048	159.150654
06394		13.574328	33.104374	159.012066
06395		13.823801	33.288329	158.885415
06396		14.089766	33.461293	158.752940
06397		14.332097	33.640332	158.592191
06398		14.519366	33.827816	158.417496
06399		14.672894	34.041675	158.240527
06400		14.809092	34.275601	158.066345
06401		14.941252	34.498957	157.916305
06402		15.086168	34.690733	157.795231
06403		15.244988	34.846393	157.686555
06404		15.417813	35.003434	157.596422
06405		15.574317	35.168219	157.529035
06406		15.703899	35.327755	157.487334
06407		15.820090	35.481125	157.437391
06408		15.919165	35.625408	157.414658
06409		16.037261	35.729417	157.436326
06410		16.188019	35.775074	157.469825
06411		16.348602	35.820295	157.523265
06412		16.464076	35.877325	157.596774
06413		16.546744	35.923594	157.660964
06414		16.601594	35.959064	157.697011
06415		16.641808	36.004500	157.719627
06416		16.677676	36.041831	157.739077
06417		16.706177	36.064156	157.749730
06418		16.727464	36.084375	157.757566
06419		16.747187	36.103308	157.778367
06420		16.746762	36.121274	157.807934
06421		16.737431	36.139223	157.812929
06422		16.753283	36.123658	157.851506
06423		16.812587	36.119126	157.920038
06424		16.846790	36.099149	158.004631
06425		16.882881	36.071008	158.107635
06426		16.903795	36.063075	158.207065
06427		16.941614	36.058222	158.299245
06428		17.037827	36.020250	158.414567
06429		17.197029	35.957777	158.514397
06430		17.353081	35.862902	158.607876
06431		17.442140	35.768725	158.737224
06432		17.468103	35.683656	158.830313
06433		17.508179	35.600098	158.902367
06434		17.551592	35.512246	158.995050
06435		17.628087	35.433643	159.083238
06436		17.706159	35.363463	159.142560
06437		17.732785	35.301403	159.202654
06438		17.724376	35.275289	159.256853
06439		17.717550	35.260353	159.295985
06440		17.729751	35.258637	159.309127
06441		17.771015	35.277814	159.313939
06442		17.825107	35.302817	159.316172
06443		17.883717	35.311072	159.339830
06444		17.937923	35.314810	159.368984
06445		17.948335	35.327610	159.384811
06446		17.957686	35.341650	159.394175
06447		17.965796	35.350068	159.398820
06448		17.964799	35.360056	159.393703
06449		17.964052	35.370491	159.382057
06450		17.950909	35.390030	159.375841
06451		17.958275	35.398926	159.373281
06452		17.966505	35.414262	159.375896
06453		17.966530	35.439256	159.368887
06454		17.974158	35.458659	159.371829
06455		17.989935	35.468125	159.366679
06456		17.970684	35.473954	159.348198
06457		17.948044	35.486631	159.324839
06458		17.911530	35.510231	159.299636
06459		17.864001	35.530224	159.269497
06460		17.822547	35.539364	159.242528
06461		17.757793	35.532032	159.209005
06462		17.679971	35.517767	159.181409
06463		17.627561	35.499996	159.173898
06464		17.565493	35.477228	159.157552
06465		17.468010	35.461171	159.138293
06466		17.346134	35.440063	159.105015
06467		17.197910	35.411386	159.050074
06468		17.035873	35.372539	158.986703
06469		16.846061	35.330966	158.921413
06470		16.611579	35.248539	158.844726
06471		16.373149	35.143434	158.770910
06472		16.191202	35.050580	158.717504
06473		16.055757	34.921840	158.729703
06474		16.024137	34.716409	158.852268
06475		16.100394	34.486463	159.057633
06476		16.124969	34.248140	159.157017
06477		15.873956	34.007618	159.171966
06478		15.455632	33.742379	159.224922
06479		14.996941	33.422521	159.237256
06480		14.577825	33.103138	159.253870
06481		14.231285	32.767440	159.313369
06482		13.907942	32.419832	159.423204
06483		13.577817	32.073326	159.577696
06484		13.229577	31.718644	159.740602
06485		12.904456	31.348190	159.918395
06486		12.608332	30.999554	160.119720
06487		12.338544	30.694298	160.331797
06488		12.068173	30.397479	160.527215
06489		11.798114	30.085488	160.710016
06490		11.563004	29.787289	160.903135
06491		11.307202	29.463320	161.172211
06492		11.086028	29.231438	161.396824
06493		10.967438	29.007819	161.544051
06494		10.934769	28.754062	161.826006
06495		10.851672	28.565832	162.102223
06496		10.725981	28.364917	162.286163
06497		10.693322	28.188094	162.477607
06498		10.679743	28.033100	162.663588
06499		10.603986	27.888022	162.831599
06500		10.502677	27.740643	162.980494
06501		10.399333	27.581408	163.107221
06502		10.288703	27.435931	163.210780
06503		10.150420	27.286247	163.289723
06504		10.029936	27.145514	163.381465
06505		9.911364	27.020363	163.455974
06506		9.772633	26.876303	163.526114
06507		9.593769	26.727843	163.584068
06508		9.422111	26.564578	163.665996
06509		9.268598	26.396063	163.773039
06510		9.115165	26.206203	163.883699
06511		8.948487	25.993139	164.011790
06512		8.808182	25.795378	164.167089
06513		8.686929	25.610625	164.299431
06514		8.574363	25.443206	164.425142
06515		8.482559	25.292544	164.543372
06516		8.393476	25.134633	164.656564
06517		8.321477	24.964941	164.782578
06518		8.272686	24.799501	164.921991
06519		8.216000	24.623467	165.062483
06520		8.170334	24.461480	165.199106
06521		8.145112	24.337811	165.337758
06522		8.139879	24.271332	165.456544
06523		8.155153	24.243757	165.534031
06524		8.160724	24.197236	165.614261
06525		8.172913	24.138207	165.707159
06526		8.172710	24.086945	165.787078
06527		8.096363	24.035453	165.860940
06528		7.989933	23.985846	165.921474
06529		7.882037	23.938684	165.960947
06530		7.780282	23.894544	166.004163
06531		7.680132	23.837448	166.019054
06532		7.600026	23.785676	166.039140
06533		7.518470	23.721463	166.058563
06534		7.434638	23.633120	166.081308
06535		7.309808	23.556598	166.117187
06536		7.187583	23.493968	166.132433
06537		7.055547	23.477266	166.121125
06538		6.881459	23.448089	166.084875
06539		6.672681	23.414770	166.020964
06540		6.421959	23.381017	165.943332
06541		6.184306	23.339640	165.883138
06542		6.030477	23.282976	165.853249
06543		5.938092	23.221889	165.855204
06544		5.868885	23.147976	165.895705
06545		5.790430	23.055736	165.958634
06546		5.729356	22.971617	166.038804
06547		5.663050	22.856155	166.140776
06548		5.618479	22.736303	166.273810
06549		5.579455	22.590031	166.417611
06550		5.520770	22.437688	166.574385
06551		5.524059	22.303310	166.766589
06552		5.707177	22.207713	167.005310
06553		6.044060	22.044868	167.306162
06554		6.281877	21.772070	167.639979
06555		6.301124	21.521523	167.901920
06556		6.106737	21.379344	168.043047
06557		5.884357	21.326947	168.074730
06558		5.730495	21.329979	168.041640
06559		5.699838	21.372300	167.996678
06560		5.752517	21.414453	167.942772
06561		5.830097	21.454758	167.907800
06562		5.903946	21.480292	167.890580
06563		5.947589	21.486564	167.888104
06564		5.956245	21.497688	167.877003
06565		5.906515	21.502323	167.843681
06566		5.857139	21.528580	167.807046
06567		5.838718	21.560994	167.775804
06568		5.834880	21.581694	167.751580
06569		5.833896	21.606722	167.743243
06570		5.808509	21.638961	167.726274
06571		5.774764	21.653316	167.719066
06572		5.765091	21.681658	167.711648
06573		5.769215	21.714839	167.706462
06574		5.774700	21.747947	167.694732
06575		5.763715	21.763558	167.683763
06576		5.754284	21.785713	167.675966
06577		5.749826	21.817962	167.657985
06578		5.726777	21.851560	167.644339
06579		5.716650	21.875408	167.636907
06580		5.699193	21.896527	167.628557
06581		5.670090	21.924063	167.613147
06582		5.656273	21.960300	167.604057
06583		5.661822	21.989407	167.599721
06584		5.658680	22.030398	167.592599
06585		5.635651	22.049079	167.588111
06586		5.626235	22.059040	167.590560
06587		5.649729	22.081512	167.569524
06588		5.675611	22.100434	167.549024
06589		5.652849	22.130144	167.534810
06590		5.604307	22.159482	167.510374
06591		5.568557	22.193539	167.487712
06592		5.528669	22.276477	167.458143
06593		5.475051	22.338356	167.422052
06594		5.528589	22.367506	167.427356
06595		5.574356	22.387576	167.425118
06596		5.450045	22.453510	167.402948
06597		5.333136	22.490959	167.396755
06598		5.349715	22.522825	167.404668
06599		5.378481	22.562167	167.401151
06600		5.339991	22.608628	167.400978
06601		5.309191	22.643477	167.402404
06602		5.281871	22.675465	167.396095
06603		5.237656	22.702338	167.387174
06604		5.176878	22.725979	167.374513
06605		5.090841	22.756827	167.367654
06606		5.040864	22.768522	167.363693
06607		5.064237	22.770158	167.370953
06608		5.070925	22.779852	167.369566
06609		5.060279	22.790676	167.367791
06610		5.072093	22.795545	167.365618
06611		5.069641	22.809348	167.367241
06612		5.081855	22.808449	167.358048
06613		5.077403	22.812442	167.346123
06614		5.090211	22.818057	167.335566
06615		5.131633	22.817074	167.338860
06616		5.171907	22.827248	167.336753
06617		5.192338	22.834424	167.331810
06618		5.219016	22.833794	167.328370
06619		5.238701	22.839421	167.333489
06620		5.264809	22.845491	167.329266
06621		5.318134	22.848393	167.339592
06622		5.364166	22.845263	167.356759
06623		5.415790	22.833823	167.368070
06624		5.466315	22.843482	167.379719
06625		5.520419	22.839429	167.383703
06626		5.566564	22.829306	167.382153
06627		5.589723	22.835496	167.365782
06628		5.628755	22.835371	167.362126
06629		5.659972	22.830415	167.366711
06630		5.672257	22.855759	167.351925
06631		5.655027	22.891146	167.306256
06632		5.691144	22.931580	167.276346
06633		5.779020	22.971413	167.249420
06634		5.830426	22.989346	167.220269
06635		5.846513	23.035016	167.186717
06636		5.850969	23.078282	167.151236
06637		5.876400	23.102737	167.126264
06638		5.959000	23.131471	167.106050
06639		6.077987	23.188747	167.065476
06640		6.195035	23.227173	167.026090
06641		6.321128	23.244266	167.011324
06642		6.437113	23.251955	167.003115
06643		6.535382	23.279565	166.999747
06644		6.649619	23.287811	167.007291
06645		6.783540	23.284152	167.007705
06646		6.913854	23.312493	167.012677
06647		7.063621	23.352438	167.019486
06648		7.218876	23.379447	167.013359
06649		7.345328	23.402837	166.995531
06650		7.416919	23.460738	166.975537
06651		7.464709	23.536439	166.946976
06652		7.560173	23.602394	166.935319
06653		7.701083	23.654290	166.930967
06654		7.848515	23.709142	166.911181
06655		7.958470	23.787057	166.881423
06656		8.022223	23.862931	166.835977
06657		8.093972	23.949563	166.801635
06658		8.215823	24.015087	166.791100
06659		8.402735	24.085782	166.790518
06660		8.588569	24.153424	166.798963
06661		8.741286	24.207087	166.798181
06662		8.905757	24.282296	166.775620
06663		9.065685	24.380315	166.726237
06664		9.208077	24.458979	166.678540
06665		9.355147	24.529136	166.617609
06666		9.499247	24.625820	166.531095
06667		9.592121	24.753220	166.427348
06668		9.647052	24.862560	166.307277
06669		9.705400	24.971655	166.152928
06670		9.767334	25.131028	165.969594
06671		9.796284	25.307829	165.767257
06672		9.800225	25.489650	165.547540
06673		9.811175	25.637725	165.297839
06674		9.812973	25.832803	165.031196
06675		9.794255	26.033197	164.801487
06676		9.848932	26.161553	164.523321
06677		10.159853	26.356093	164.118324
06678		10.527843	26.615250	163.740095
06679		10.673775	26.895766	163.465606
06680		10.621537	27.120759	163.174138
06681		10.512164	27.351851	162.809481
06682		10.360718	27.625504	162.460264
06683		10.158644	27.949122	162.164865
06684		9.990592	28.226601	161.849730
06685		9.947614	28.494976	161.474787
06686		9.943348	28.851193	161.100228
06687		9.805023	29.200747	160.772081
06688		9.668662	29.475052	160.418866
06689		9.631382	29.740307	160.049342
06690		9.647844	30.054461	159.697753
06691		9.652692	30.424136	159.316866
06692		9.604444	30.799780	158.894076
06693		9.551134	31.205573	158.445150
06694		9.581745	31.645137	158.058600
06695		9.728131	32.057587	157.678322
06696		9.984448	32.427992	157.297017
06697		10.310350	32.790343	156.970153
06698		10.658903	33.151807	156.679559
06699		10.995360	33.526580	156.384666
06700		11.284624	33.913003	156.109473
06701		11.495024	34.309303	155.867900
06702		11.727609	34.676513	155.661926
06703		12.051667	35.013378	155.493700
06704		12.416176	35.337690	155.341875
06705		12.717078	35.628052	155.219725
06706		12.974382	35.895043	155.108250
06707		13.204695	36.172851	154.982706
06708		13.409036	36.477752	154.826013
06709		13.589595	36.795455	154.641000
06710		13.753526	37.085502	154.513240
06711		13.942963	37.323632	154.423950
06712		14.180058	37.501437	154.383566
06713		14.430145	37.645469	154.407195
06714		14.648057	37.741413	154.471349
06715		14.788589	37.825449	154.540699
06716		14.844232	37.903586	154.591658
06717		14.886097	37.966376	154.636446
06718		14.942971	38.013365	154.683498
06719		15.018910	38.031314	154.739884
06720		15.106901	38.053405	154.774750
06721		15.131877	38.060275	154.779401
06722		15.167129	38.063530	154.828750
06723		15.226477	38.058395	154.895101
06724		15.316920	38.031481	154.973573
06725		15.427433	37.993265	155.088662
06726		15.545255	37.942620	155.216414
06727		15.688276	37.866839	155.362632
06728		15.853096	37.754722	155.534490
06729		16.031314	37.610750	155.696577
06730		16.215925	37.430472	155.907370
06731		16.390752	37.217202	156.176445
06732		16.540617	37.046421	156.373711
06733		16.605775	36.987010	156.502585
06734		16.617558	36.999667	156.593555
06735		16.684260	37.038236	156.662158
06736		16.814360	37.086130	156.694004
06737		16.966698	37.136692	156.733953
06738		17.088684	37.195159	156.783621
06739		17.149873	37.255905	156.827521
06740		17.204544	37.297017	156.860408
06741		17.268022	37.326154	156.884161
06742		17.303032	37.350591	156.894908
06743		17.325509	37.370806	156.905416
06744		17.346129	37.378146	156.908541
06745		17.356177	37.389476	156.907860
06746		17.360151	37.401098	156.914859
06747		17.370590	37.408707	156.929820
06748		17.388764	37.421890	156.938350
06749		17.415660	37.441671	156.946057
06750		17.422115	37.471006	156.948777
06751		17.434520	37.490552	156.947965
06752		17.447741	37.495782	156.956376
06753		17.453486	37.522115	156.947553
06754		17.432463	37.554606	156.923012
06755		17.426104	37.575617	156.903987
06756		17.413542	37.594957	156.882896
06757		17.369808	37.613074	156.852757
06758		17.279096	37.612232	156.808894
06759		17.138013	37.576998	156.729399
06760		16.984477	37.511909	156.647786
06761		16.839879	37.445317	156.576657
06762		16.698097	37.369917	156.506868
06763		16.515908	37.261268	156.429047
06764		16.301929	37.137860	156.329008
06765		16.078606	36.992933	156.219455
06766		15.905319	36.835736	156.136218
06767		15.826228	36.712338	156.043702
06768		15.903728	36.630357	155.932351
06769		16.103228	36.545739	155.831346
06770		16.304056	36.412442	155.742683
06771		16.449451	36.240682	155.667149
06772		16.511547	36.048068	155.583184
06773		16.536794	35.856651	155.552340
06774		16.508119	35.616123	155.523056
06775		16.461191	35.331302	155.526648
06776		16.400770	35.009688	155.575775
06777		16.306962	34.660291	155.671465
06778		16.145523	34.285734	155.802126
06779		15.952297	33.901531	155.987830
06780		15.828098	33.534037	156.276850
06781		15.790437	33.208032	156.628067
06782		15.762222	32.888125	156.987739
06783		15.690179	32.572464	157.324394
06784		15.560348	32.253266	157.624276
06785		15.387027	31.936717	157.925510
06786		15.157545	31.621589	158.203980
06787		14.872089	31.300853	158.431448
06788		14.559228	30.980299	158.630528
06789		14.183971	30.650406	158.783583
06790		13.770199	30.324120	158.920675
06791		13.347092	29.998126	159.062973
06792		12.931563	29.677040	159.207823
06793		12.550386	29.361145	159.340363
06794		12.220674	29.042789	159.447777
06795		11.953475	28.720472	159.543816
06796		11.684341	28.404340	159.695763
06797		11.362618	28.155354	159.853402
06798		11.077339	27.922250	160.017136
06799		10.892447	27.698796	160.195132
06800		10.724277	27.468608	160.363194
06801		10.544884	27.271809	160.550526
06802		10.358250	27.100507	160.755702
06803		10.169888	26.931540	160.952440
06804		9.983692	26.780462	161.131913
06805		9.800191	26.646799	161.300144
06806		9.644891	26.532087	161.476146
06807		9.509624	26.435400	161.658452
06808		9.373309	26.363908	161.828916
06809		9.235277	26.310569	161.988628
06810		9.104662	26.283191	162.144023
06811		8.986107	26.290158	162.295022
06812		8.884641	26.286714	162.453032
06813		8.819537	26.229162	162.623502
06814		8.778916	26.140389	162.833032
06815		8.751978	26.060871	163.060213
06816		8.719233	25.943072	163.269649
06817		8.680499	25.816351	163.467904
06818		8.614627	25.720672	163.656138
06819		8.519414	25.629197	163.817419
06820		8.413376	25.526044	163.964305
06821		8.275828	25.423932	164.106146
06822		8.136304	25.314112	164.240659
06823		8.008419	25.212818	164.362795
06824		7.880893	25.108082	164.476655
06825		7.754953	24.999722	164.582671
06826		7.663120	24.893228	164.695638
06827		7.579787	24.797876	164.815419
06828		7.487831	24.713576	164.924618
06829		7.387189	24.600091	165.031744
06830		7.308255	24.505675	165.151520
06831		7.238280	24.414227	165.255168
06832		7.192098	24.316753	165.359509
06833		7.153696	24.247762	165.451647
06834		7.085322	24.183986	165.533349
06835		7.018727	24.120884	165.619978
06836		7.004478	24.051702	165.722938
06837		6.995182	23.957619	165.844897
06838		6.954381	23.853571	165.956966
06839		6.863410	23.739089	166.052167
06840		6.790575	23.649301	166.141824
06841		6.740800	23.575718	166.225978
06842		6.686226	23.482398	166.301949
06843		6.655718	23.398448	166.367530
06844		6.599768	23.338328	166.404214
06845		6.529892	23.309076	166.434678
06846		6.456920	23.314747	166.440925
06847		6.343958	23.271936	166.434138
06848		6.190953	23.178234	166.463088
06849		5.996834	23.068581	166.516393
06850		5.780976	22.939768	166.575950
06851		5.616674	22.836371	166.623209
06852		5.502986	22.727803	166.672304
06853		5.433967	22.627095	166.721090
06854		5.402210	22.534213	166.774828
06855		5.376697	22.422373	166.844976
06856		5.383106	22.292429	166.932009
06857		5.392605	22.164362	167.018634
06858		5.387171	22.074263	167.087599
06859		5.381764	22.033817	167.125940
06860		5.373476	22.061865	167.116449
06861		5.376837	22.134303	167.089855
06862		5.448533	22.203530	167.060760
06863		5.571179	22.263946	167.036209
06864		5.657481	22.332614	167.032222
06865		5.706924	22.354866	167.047650
06866		5.755348	22.358623	167.053920
06867		5.876776	22.404391	167.075477
06868		6.063385	22.458333	167.112017
06869		6.247094	22.483330	167.160509
06870		6.361083	22.472537	167.203744
06871		6.482611	22.536364	167.239050
06872		6.589994	22.632209	167.267378
06873		6.559968	22.658204	167.224126
06874		6.480441	22.655270	167.145849
06875		6.404110	22.700886	167.076946
06876		6.271285	22.771639	167.018597
06877		6.122000	22.820398	166.961368
06878		6.019838	22.841190	166.887278
06879		5.918951	22.870121	166.845280
06880		5.741619	22.910301	166.791027
06881		5.527902	22.981365	166.751860
06882		5.457639	23.018278	166.731221
06883		5.506344	23.012954	166.770205
06884		5.488238	22.981688	166.797117
06885		5.404904	22.987525	166.799465
06886		5.300989	22.999310	166.799090
06887		5.214208	23.005721	166.803310
06888		5.138984	22.998407	166.790595
06889		5.075350	23.006934	166.770775
06890		5.060095	23.022112	166.776558
06891		5.061767	23.034741	166.789753
06892		5.042758	23.032992	166.780135
06893		5.023611	23.047441	166.770234
06894		4.992227	23.067854	166.748602
06895		4.969253	23.079161	166.732358
06896		4.963266	23.092398	166.729880
06897		4.970766	23.092449	166.735462
06898		4.950271	23.087110	166.727253
06899		4.931804	23.086395	166.705108
06900		4.886132	23.094509	166.693650
06901		4.906841	23.063889	166.690090
06902		4.911282	23.081845	166.697736
06903		4.867617	23.087956	166.692433
06904		4.862988	23.059858	166.681404
06905		4.833044	23.077084	166.674293
06906		4.806487	23.075788	166.669060
06907		4.813605	23.065349	166.658418
06908		4.804438	23.071935	166.670791
06909		4.804610	23.067442	166.669348
06910		4.806104	23.080405	166.675406
06911		4.823099	23.089461	166.685973
06912		4.850590	23.082887	166.708871
06913		4.894128	23.095964	166.739226
06914		4.943760	23.105028	166.777647
06915		5.008229	23.086669	166.808545
06916		5.040072	23.084136	166.832126
06917		5.038599	23.098893	166.833559
06918		5.065493	23.106782	166.828272
06919		5.134614	23.125484	166.834402
06920		5.254570	23.113984	166.859219
06921		5.336992	23.090561	166.879888
06922		5.371417	23.107062	166.882711
06923		5.411605	23.147152	166.865308
06924		5.478653	23.170036	166.845604
06925		5.556216	23.190584	166.831119
06926		5.605812	23.226172	166.815729
06927		5.620765	23.263978	166.794552
06928		5.658317	23.300614	166.782268
06929		5.745660	23.338542	166.776273
06930		5.822013	23.375319	166.769864
06931		5.885554	23.435077	166.762376
06932		5.950653	23.491338	166.746673
06933		6.002335	23.549348	166.728388
06934		6.043999	23.619673	166.700951
06935		6.081265	23.694728	166.668364
06936		6.139765	23.758278	166.651160
06937		6.235797	23.795786	166.648035
06938		6.347091	23.841079	166.645634
06939		6.414510	23.889907	166.620238
06940		6.470984	23.946279	166.590011
06941		6.565457	24.004579	166.564032
06942		6.694426	24.052107	166.540339
06943		6.830115	24.103225	166.517044
06944		6.950420	24.158063	166.496275
06945		7.044121	24.222419	166.469617
06946		7.121971	24.286988	166.445337
06947		7.180595	24.363030	166.408310
06948		7.236800	24.435230	166.372286
06949		7.276178	24.515735	166.317344
06950		7.280275	24.621096	166.242581
06951		7.269922	24.707800	166.172200
06952		7.301637	24.783285	166.100643
06953		7.355301	24.865542	166.026835
06954		7.385188	24.966010	165.941433
06955		7.377618	25.060290	165.846654
06956		7.381321	25.152410	165.744727
06957		7.415799	25.269583	165.629655
06958		7.461734	25.382867	165.532034
06959		7.524001	25.441921	165.465599
06960		7.618640	25.482035	165.441657
06961		7.721151	25.510619	165.422997
06962		7.815049	25.528573	165.402629
06963		7.897856	25.557665	165.366074
06964		7.980179	25.614975	165.309550
06965		8.061354	25.681866	165.225754
06966		8.137263	25.749604	165.120627
06967		8.192212	25.830795	164.997379
06968		8.227196	25.911114	164.871213
06969		8.229727	26.004968	164.743767
06970		8.234488	26.104066	164.609467
06971		8.252229	26.224841	164.461260
06972		8.265353	26.369307	164.318310
06973		8.301655	26.493768	164.135695
06974		8.559897	26.623328	163.821329
06975		9.189599	26.839305	163.559354
06976		9.884234	26.927115	163.473895
06977		10.368374	26.949087	163.417290
06978		10.672733	27.049104	163.311227
06979		10.814187	27.183891	163.202912
06980		10.890177	27.290767	163.117474
06981		10.994487	27.369511	163.040412
06982		11.091574	27.448220	162.943028
06983		11.120379	27.532049	162.840011
06984		11.101694	27.609200	162.729250
06985		11.101319	27.702456	162.615932
06986		11.120498	27.833236	162.486648
06987		11.090341	27.987087	162.371384
06988		11.043121	28.081648	162.256844
06989		11.081523	28.177176	162.123520
06990		11.181210	28.355991	161.974181
06991		11.235842	28.538047	161.896642
06992		11.236224	28.565480	161.816802
06993		11.380266	28.612942	161.751299
06994		11.545397	28.736724	161.634123
06995		11.597777	28.938569	161.455534
06996		11.564295	29.189971	161.232577
06997		11.561236	29.428931	160.974200
06998		11.666636	29.661266	160.688398
06999		11.883806	29.925922	160.391797
07000		12.127003	30.225966	160.115231
07001		12.379586	30.491815	159.855635
07002		12.639258	30.735959	159.595815
07003		12.886194	31.015246	159.343844
07004		13.101659	31.333738	159.104143
07005		13.318239	31.654725	158.862209
07006		13.594955	31.971951	158.633023
07007		13.939345	32.266019	158.464543
07008		14.293234	32.527485	158.331419
07009		14.657009	32.789540	158.196786
07010		14.987827	33.048583	158.055544
07011		15.262669	33.291207	157.956300
07012		15.520646	33.538514	157.871207
07013		15.787786	33.781523	157.770082
07014		16.046946	34.016501	157.699478
07015		16.277507	34.224526	157.647899
07016		16.492376	34.396238	157.574770
07017		16.691515	34.552029	157.487058
07018		16.865771	34.710798	157.415707
07019		17.036103	34.875363	157.371094
07020		17.231320	35.041150	157.320268
07021		17.453338	35.219599	157.235127
07022		17.670141	35.400108	157.141302
07023		17.886413	35.584864	157.075587
07024		18.137638	35.761053	157.001182
07025		18.424099	35.931536	156.924137
07026		18.679484	36.088523	156.863742
07027		18.855522	36.234698	156.842767
07028		19.006698	36.353424	156.832876
07029		19.165831	36.452533	156.832090
07030		19.299900	36.537909	156.873560
07031		19.417517	36.596562	156.958165
07032		19.506039	36.651642	157.028060
07033		19.533762	36.721422	157.055628
07034		19.527047	36.787252	157.080935
07035		19.539627	36.826887	157.113004
07036		19.576923	36.812022	157.147695
07037		19.634106	36.785954	157.211641
07038		19.652782	36.775116	157.243549
07039		19.655294	36.761255	157.277879
07040		19.699725	36.754639	157.328355
07041		19.767839	36.705430	157.415792
07042		19.882203	36.619966	157.530720
07043		19.988911	36.472336	157.653256
07044		20.093072	36.274899	157.826493
07045		20.210170	36.064419	158.010098
07046		20.288560	35.906954	158.146472
07047		20.261311	35.796660	158.263579
07048		20.242633	35.760451	158.370743
07049		20.263800	35.757741	158.403399
07050		20.311096	35.778978	158.458583
07051		20.367330	35.798486	158.503403
07052		20.435885	35.816548	158.549691
07053		20.502667	35.844275	158.585938
07054		20.565862	35.876900	158.625017
07055		20.629070	35.918819	158.657412
07056		20.682821	35.973012	158.672824
07057		20.746557	36.030645	158.684207
07058		20.783025	36.079470	158.689551
07059		20.823906	36.113220	158.689120
07060		20.849118	36.160541	158.697202
07061		20.876271	36.193582	158.702724
07062		20.918612	36.229253	158.704661
07063		20.937812	36.255095	158.703179
07064		20.963227	36.282465	158.704811
07065		21.001006	36.299915	158.717762
07066		21.009636	36.340191	158.702544
07067		20.996546	36.375286	158.679410
07068		20.997641	36.393376	158.669642
07069		21.001071	36.414972	158.668947
07070		20.994856	36.457289	158.653073
07071		20.972388	36.496157	158.626506
07072		20.941782	36.510150	158.606594
07073		20.902085	36.514709	158.580320
07074		20.856054	36.535294	158.558460
07075		20.790256	36.559284	158.528949
07076		20.695322	36.580219	158.486850
07077		20.577569	36.601566	158.436004
07078		20.442662	36.625515	158.366546
07079		20.279262	36.637372	158.288460
07080		20.084912	36.645838	158.191315
07081		19.871032	36.644494	158.084563
07082		19.636367	36.624396	157.981856
07083		19.402405	36.590385	157.897262
07084		19.189256	36.539266	157.819270
07085		18.948236	36.480198	157.734651
07086		18.735506	36.378358	157.721807
07087		18.542136	36.261014	157.697341
07088		18.280512	36.183428	157.622672
07089		17.964372	36.129754	157.512280
07090		17.662575	36.067761	157.403347
07091		17.399913	35.985080	157.298877
07092		17.141154	35.899080	157.209845
07093		16.875221	35.743285	157.149397
07094		16.705387	35.516537	157.220063
07095		16.533238	35.243688	157.315545
07096		16.321928	34.983906	157.445952
07097		16.070875	34.705503	157.610478
07098		15.785466	34.413977	157.804236
07099		15.486543	34.108650	157.992263
07100		15.173224	33.757213	158.167528
07101		14.854464	33.379052	158.352835
07102		14.519576	33.010053	158.540945
07103		14.145189	32.625697	158.732896
07104		13.755830	32.241652	158.942047
07105		13.345956	31.855421	159.139531
07106		12.914393	31.478376	159.319837
07107		12.495008	31.138687	159.502937
07108		12.092798	30.793296	159.687443
07109		11.741058	30.448151	159.877792
07110		11.435507	30.116260	160.064155
07111		11.103242	29.779314	160.236216
07112		10.793841	29.447865	160.419259
07113		10.536982	29.151064	160.603946
07114		10.282787	28.851079	160.771833
07115		9.982823	28.538693	160.917081
07116		9.664082	28.243240	161.050729
07117		9.380018	27.968863	161.181187
07118		9.175078	27.698802	161.329812
07119		9.028487	27.437065	161.505605
07120		8.889291	27.184536	161.681600
07121		8.748780	26.923353	161.851411
07122		8.641610	26.684700	162.042167
07123		8.555444	26.481021	162.236511
07124		8.462905	26.309230	162.407754
07125		8.338726	26.138423	162.542078
07126		8.217730	25.999011	162.658918
07127		8.109754	25.889382	162.764703
07128		7.991905	25.804269	162.856125
07129		7.872886	25.706580	162.934878
07130		7.789784	25.608090	163.016290
07131		7.747503	25.519418	163.102493
07132		7.692554	25.425893	163.183346
07133		7.585475	25.329312	163.256124
07134		7.439680	25.235252	163.332466
07135		7.312558	25.119274	163.414806
07136		7.204174	25.023048	163.487410
07137		7.099754	24.932618	163.551340
07138		6.952593	24.814989	163.589248
07139		6.699004	24.706211	163.591318
07140		6.305316	24.581080	163.569701
07141		5.810014	24.424956	163.538426
07142		5.310154	24.300560	163.504628
07143		4.876154	24.177646	163.482339
07144		4.525796	24.058663	163.489252
07145		4.270167	23.930982	163.523935
07146		4.133277	23.814942	163.592434
07147		4.053533	23.674833	163.689506
07148		3.998622	23.564208	163.807404
07149		3.955468	23.469245	163.906111
07150		3.936922	23.391171	164.004492
07151		3.943678	23.346166	164.103176
07152		3.951153	23.288407	164.177980
07153		3.890462	23.233194	164.230342
07154		3.761263	23.173350	164.256647
07155		3.630821	23.118555	164.294806
07156		3.510634	23.045842	164.343834
07157		3.416491	22.960803	164.397052
07158		3.344423	22.871450	164.467962
07159		3.311786	22.786107	164.547870
07160		3.261048	22.709697	164.615459
07161		3.191563	22.636642	164.685569
07162		3.143677	22.576610	164.759526
07163		3.117691	22.524632	164.795974
07164		3.026500	22.499089	164.767633
07165		2.783065	22.510852	164.693047
07166		2.464322	22.513354	164.601287
07167		2.181322	22.496700	164.511460
07168		1.929564	22.470069	164.434137
07169		1.675184	22.421710	164.393040
07170		1.447535	22.351989	164.379059
07171		1.299739	22.283608	164.387276
07172		1.191923	22.205192	164.432277
07173		1.102877	22.124555	164.491263
07174		1.024751	22.038061	164.556873
07175		0.935243	21.948385	164.612080
07176		0.851625	21.855005	164.685673
07177		0.804073	21.786209	164.756842
07178		0.795651	21.702603	164.835324
07179		0.815279	21.622153	164.921682
07180		0.782154	21.537705	164.983679
07181		0.677242	21.510367	164.981286
07182		0.492042	21.519565	164.924823
07183		0.288983	21.529547	164.859445
07184		0.161467	21.554277	164.798803
07185		0.114258	21.550374	164.788871
07186		0.115485	21.527174	164.822716
07187		0.153458	21.521783	164.885981
07188		0.239707	21.553810	164.954975
07189		0.354534	21.590347	165.034305
07190		0.527036	21.672691	165.097047
07191		0.633189	21.768396	165.139094
07192		0.599936	21.859559	165.150742
07193		0.652016	21.939569	165.182932
07194		0.831461	22.019554	165.275888
07195		0.911881	22.075382	165.337368
07196		0.758522	22.064508	165.354497
07197		0.706192	22.080470	165.382279
07198		0.709828	22.125578	165.384987
07199		0.685894	22.140546	165.368096
07200		0.696227	22.152229	165.368157
07201		0.708030	22.162217	165.355402
07202		0.723073	22.161068	165.348780
07203		0.742367	22.176049	165.353402
07204		0.767000	22.197868	165.347993
07205		0.811604	22.205632	165.355842
07206		0.823925	22.202471	165.358924
07207		0.812200	22.228853	165.355060
07208		0.827657	22.250703	165.333503
07209		0.817727	22.253830	165.318172
07210		0.768549	22.264143	165.295889
07211		0.733907	22.275848	165.235660
07212		0.737403	22.306291	165.196457
07213		0.722973	22.352164	165.162851
07214		0.684950	22.401971	165.125938
07215		0.611382	22.455800	165.081662
07216		0.493167	22.515799	165.044273
07217		0.385856	22.563766	165.029471
07218		0.338326	22.583313	164.999111
07219		0.310275	22.611303	164.986752
07220		0.279757	22.650373	164.986374
07221		0.298124	22.665340	164.990639
07222		0.347888	22.660898	165.000382
07223		0.368210	22.657786	165.010346
07224		0.289217	22.686103	165.024775
07225		0.216477	22.688256	165.039052
07226		0.215069	22.677807	165.041486
07227		0.177409	22.681241	165.028820
07228		0.156635	22.686767	165.016216
07229		0.172157	22.679880	165.014957
07230		0.167675	22.696827	165.010700
07231		0.181845	22.703502	165.008131
07232		0.171867	22.708257	165.011070
07233		0.142810	22.693627	165.008459
07234		0.129535	22.694954	165.012735
07235		0.124020	22.691589	165.012891
07236		0.107032	22.690018	165.016445
07237		0.117919	22.681028	165.025286
07238		0.119765	22.684597	165.038034
07239		0.120616	22.678119	165.044855
07240		0.129118	22.665796	165.053350
07241		0.142775	22.671607	165.072431
07242		0.171525	22.664276	165.095561
07243		0.204915	22.645975	165.129550
07244		0.229925	22.641706	165.175902
07245		0.306581	22.645577	165.221930
07246		0.419743	22.643934	165.278376
07247		0.492478	22.635156	165.317995
07248		0.485936	22.613418	165.345873
07249		0.465639	22.613498	165.365514
07250		0.472717	22.617233	165.379934
07251		0.494167	22.610616	165.395554
07252		0.520847	22.594794	165.412492
07253		0.531373	22.591457	165.416914
07254		0.555478	22.582253	165.414955
07255		0.589549	22.573132	165.422357
07256		0.635962	22.567439	165.439365
07257		0.694128	22.555444	165.451279
07258		0.732487	22.542194	165.456352
07259		0.763732	22.524879	165.464401
07260		0.821218	22.504052	165.470601
07261		0.872661	22.489818	165.472804
07262		0.934186	22.473123	165.479898
07263		1.011968	22.447149	165.496845
07264		1.099058	22.425491	165.516566
07265		1.200330	22.413142	165.544327
07266		1.304795	22.397921	165.584640
07267		1.417306	22.368750	165.609227
07268		1.532390	22.339237	165.641457
07269		1.665805	22.301256	165.673223
07270		1.770539	22.259944	165.709881
07271		1.845874	22.238855	165.744128
07272		1.947675	22.215510	165.776522
07273		2.079084	22.195106	165.800906
07274		2.177778	22.202382	165.814996
07275		2.241927	22.215117	165.832789
07276		2.342695	22.220656	165.849291
07277		2.446148	22.245884	165.862836
07278		2.550928	22.290257	165.884123
07279		2.648675	22.359482	165.913174
07280		2.740639	22.434306	165.952480
07281		2.861433	22.487511	165.991583
07282		2.966106	22.539474	166.007095
07283		3.025236	22.596083	166.003452
07284		3.089734	22.649178	166.006023
07285		3.225623	22.690016	166.014505
07286		3.370577	22.729369	166.018554
07287		3.482111	22.767330	166.012483
07288		3.571114	22.812948	165.997327
07289		3.636658	22.866993	165.986078
07290		3.712687	22.907452	165.970833
07291		3.788755	22.956741	165.946986
07292		3.831221	23.023960	165.912242
07293		3.870889	23.076368	165.892228
07294		3.974214	23.118095	165.888003
07295		4.138439	23.194731	165.904476
07296		4.286595	23.272659	165.907848
07297		4.415864	23.321999	165.915319
07298		4.553249	23.380836	165.913864
07299		4.688164	23.456708	165.901366
07300		4.782307	23.533487	165.885933
07301		4.858279	23.624297	165.873147
07302		4.946781	23.688355	165.857705
07303		5.050495	23.734880	165.847159
07304		5.151247	23.795733	165.828982
07305		5.224110	23.866146	165.802380
07306		5.279393	23.937579	165.774284
07307		5.349839	24.003932	165.738997
07308		5.449906	24.074738	165.710028
07309		5.555851	24.147366	165.670000
07310		5.604000	24.213185	165.628258
07311		5.618176	24.281023	165.566562
07312		5.638324	24.364449	165.522767
07313		5.673738	24.404309	165.488636
07314		5.723755	24.456610	165.462348
07315		5.731870	24.500795	165.419800
07316		5.743776	24.551085	165.373250
07317		5.756258	24.611346	165.325728
07318		5.790588	24.673391	165.286700
07319		5.845379	24.703294	165.254221
07320		5.891937	24.738934	165.226903
07321		5.891624	24.782039	165.178025
07322		5.867342	24.835409	165.130057
07323		5.831704	24.884425	165.083392
07324		5.797347	24.934038	165.047350
07325		5.787797	24.973868	165.032407
07326		5.816112	24.999595	165.037119
07327		5.887784	25.018867	165.045176
07328		5.970347	25.036349	165.040097
07329		6.050991	25.065775	165.027731
07330		6.118664	25.082909	165.002721
07331		6.188882	25.123721	164.959217
07332		6.249015	25.170694	164.912143
07333		6.283190	25.210463	164.862397
07334		6.321941	25.250726	164.824332
07335		6.394734	25.304898	164.789388
07336		6.470592	25.367424	164.759799
07337		6.540030	25.403798	164.750171
07338		6.617757	25.433629	164.745467
07339		6.723318	25.483648	164.754176
07340		6.829771	25.488860	164.780478
07341		6.924151	25.477531	164.787150
07342		7.039153	25.495484	164.756299
07343		7.153622	25.533764	164.731003
07344		7.241756	25.601823	164.727318
07345		7.271563	25.693684	164.689600
07346		7.254665	25.785312	164.605499
07347		7.211323	25.887382	164.490227
07348		7.138895	25.970756	164.360683
07349		7.038651	26.033772	164.222382
07350		6.905440	26.101101	164.069367
07351		6.733678	26.200039	163.926399
07352		6.602630	26.284860	163.810386
07353		6.564598	26.332468	163.700116
07354		6.613868	26.407680	163.622089
07355		6.646911	26.481558	163.549512
07356		6.681456	26.555974	163.473068
07357		6.740433	26.628843	163.393564
07358		6.804895	26.697509	163.297785
