// General information: 
//  MT Manager version: 2022.2.0 
//  XDA version: 2022.2.0 build 7381 rev 124627 built on 2023-07-19
// Device information: 
//  DeviceId: 00B44804
//  ProductCode: MTW2-3A7G6
//  Firmware Version: 4.3.5
//  Hardware Version: 2.0.0
// Device settings: 
//  Filter Profile: human(46.1)
//  Option Flags: Orientation Smoother Disabled, Position/Velocity Smoother Disabled, Continuous Zero Rotation Update Disabled, AHS Disabled, ICC Disabled
// Coordinate system: ENU
PacketCounter	SampleTimeFine	Roll	Pitch	Yaw
04173		38.710526	-1.177274	-157.034427
04174		38.637910	-1.135681	-157.000472
04175		38.610414	-1.107834	-156.979735
04176		38.565620	-1.084332	-156.953497
04177		38.521482	-1.040767	-156.910252
04178		38.533689	-1.004552	-156.865621
04179		38.645632	-0.992934	-156.836576
04180		38.784352	-0.978044	-156.830253
04181		38.867500	-0.973726	-156.835423
04182		38.934657	-0.988871	-156.852764
04183		39.043748	-1.026253	-156.874572
04184		39.180744	-1.073083	-156.886954
04185		39.264759	-1.127719	-156.873489
04186		39.300031	-1.169881	-156.824832
04187		39.365055	-1.189326	-156.758074
04188		39.475249	-1.186556	-156.691871
04189		39.525411	-1.170384	-156.618252
04190		39.526945	-1.173172	-156.566901
04191		39.599003	-1.211421	-156.535998
04192		39.561693	-1.279522	-156.505651
04193		39.494249	-1.403623	-156.480886
04194		39.488138	-1.515887	-156.438867
04195		39.404576	-1.542293	-156.391111
04196		39.360340	-1.440612	-156.385372
04197		39.396741	-1.296754	-156.400220
04198		39.389966	-1.059477	-156.412007
04199		39.319252	-0.769194	-156.420982
04200		39.259055	-0.445489	-156.427460
04201		39.254709	-0.145311	-156.423861
04202		39.259289	0.110793	-156.416494
04203		39.190370	0.343271	-156.388033
04204		38.969762	0.563574	-156.328540
04205		38.630446	0.752930	-156.270983
04206		38.288806	0.921648	-156.274764
04207		37.854784	1.131538	-156.324341
04208		37.684814	1.523007	-156.457143
04209		37.484627	1.871618	-156.589946
04210		37.221508	2.220394	-156.721857
04211		36.996487	2.614534	-156.868825
04212		36.834436	2.978961	-157.042159
04213		36.738114	3.288065	-157.220464
04214		36.616185	3.598512	-157.407872
04215		36.471297	3.916622	-157.592174
04216		36.332135	4.183331	-157.784706
04217		36.212080	4.419015	-157.989045
04218		36.112552	4.681555	-158.185648
04219		36.006682	4.946525	-158.404964
04220		35.959136	5.185738	-158.648326
04221		35.926991	5.428247	-158.904859
04222		35.896789	5.659210	-159.150082
04223		35.845103	5.877433	-159.373066
04224		35.743602	6.082361	-159.585426
04225		35.609597	6.273788	-159.797000
04226		35.430287	6.461980	-159.995958
04227		35.232202	6.636101	-160.189788
04228		35.068967	6.809763	-160.391605
04229		34.901451	7.002055	-160.608027
04230		34.741784	7.206482	-160.833781
04231		34.500350	7.422920	-161.042530
04232		34.140502	7.671572	-161.236879
04233		33.803036	7.914113	-161.434472
04234		33.498596	8.146085	-161.662635
04235		33.219464	8.352451	-161.913024
04236		32.944653	8.550349	-162.176069
04237		32.698288	8.732016	-162.463289
04238		32.487096	8.890320	-162.769865
04239		32.253743	9.031520	-163.074442
04240		31.967503	9.164612	-163.393379
04241		31.688584	9.322371	-163.758720
04242		31.529822	9.473069	-164.185114
04243		31.542538	9.545855	-164.600863
04244		31.613569	9.531193	-164.997282
04245		31.750519	9.434647	-165.364929
04246		32.023046	9.181200	-165.633560
04247		32.489303	8.754097	-165.791716
04248		32.872577	8.318019	-165.838395
04249		33.159073	7.901804	-165.790975
04250		33.562667	7.547827	-165.664966
04251		34.096768	7.255292	-165.528796
04252		34.545792	7.028271	-165.377089
04253		34.877874	6.801066	-165.207963
04254		35.101923	6.521500	-165.042504
04255		35.361797	6.225825	-164.926034
04256		35.566237	5.917015	-164.811696
04257		35.592531	5.602352	-164.675336
04258		35.651884	5.354226	-164.551648
04259		35.804409	5.171135	-164.468718
04260		35.869823	5.014342	-164.424476
04261		35.831780	4.865656	-164.372059
04262		35.817815	4.780130	-164.302095
04263		35.966690	4.695892	-164.218457
04264		36.100607	4.604102	-164.129606
04265		36.208881	4.595026	-164.062898
04266		36.373856	4.657946	-164.023086
04267		36.565508	4.723594	-164.019069
04268		36.712608	4.762636	-164.036040
04269		36.789727	4.841052	-164.044503
04270		36.829266	4.978507	-164.063730
04271		36.949240	5.089103	-164.056560
04272		36.902773	5.201292	-164.027493
04273		36.735433	5.400388	-164.067218
04274		36.611924	5.581221	-164.135704
04275		36.590367	5.733092	-164.175425
04276		36.757982	5.947301	-164.220692
04277		36.930958	6.130294	-164.241477
04278		37.014239	6.251301	-164.262875
04279		37.077988	6.344706	-164.299872
04280		37.043602	6.448887	-164.311198
04281		36.922135	6.601437	-164.338602
04282		36.986068	6.766258	-164.367521
04283		37.179753	6.823717	-164.425231
04284		37.379898	6.814402	-164.473437
04285		37.516306	6.816524	-164.472074
04286		37.632040	6.805210	-164.466797
04287		37.650431	6.750726	-164.440912
04288		37.749478	6.690815	-164.436670
04289		37.901336	6.677225	-164.456968
04290		37.858693	6.705753	-164.474608
04291		37.761409	6.729877	-164.486227
04292		37.661177	6.726774	-164.494872
04293		37.587527	6.697490	-164.488912
04294		37.568658	6.665272	-164.486831
04295		37.520814	6.635641	-164.486664
04296		37.385093	6.565231	-164.462318
04297		37.176470	6.496648	-164.427856
04298		37.004119	6.418433	-164.412726
04299		36.819675	6.316709	-164.402487
04300		36.552187	6.205664	-164.384455
04301		36.199479	6.143901	-164.373603
04302		35.876022	6.190082	-164.399753
04303		35.684276	6.234558	-164.424445
04304		35.545676	6.285604	-164.445395
04305		35.384646	6.345419	-164.436431
04306		35.305884	6.422189	-164.424321
04307		35.281712	6.501857	-164.419699
04308		35.264362	6.574882	-164.404541
04309		35.278660	6.634937	-164.380394
04310		35.333870	6.685045	-164.362018
04311		35.403038	6.730947	-164.344937
04312		35.429900	6.802109	-164.306699
04313		35.359466	6.907804	-164.236632
04314		35.260995	6.982334	-164.164105
04315		35.186290	7.059729	-164.110836
04316		35.182580	7.146147	-164.081529
04317		35.231242	7.221313	-164.073920
04318		35.290765	7.293605	-164.080017
04319		35.335207	7.368164	-164.052896
04320		35.359536	7.434130	-163.973669
04321		35.351603	7.496040	-163.888136
04322		35.376331	7.554847	-163.826560
04323		35.465964	7.592685	-163.787645
04324		35.510689	7.624611	-163.721762
04325		35.456723	7.680267	-163.634375
04326		35.427866	7.771165	-163.545230
04327		35.384475	7.892809	-163.455914
04328		35.368188	8.013509	-163.383429
04329		35.384136	8.119845	-163.280881
04330		35.307968	8.192703	-163.136010
04331		35.213137	8.185374	-162.977810
04332		35.139204	8.122634	-162.781726
04333		34.987619	8.037630	-162.509861
04334		34.748465	7.905850	-162.196930
04335		34.557641	7.667411	-161.869522
04336		34.426288	7.367725	-161.537718
04337		34.404135	7.063108	-161.212591
04338		35.156555	6.838510	-160.823551
04339		35.048476	6.445563	-160.516105
04340		35.592293	6.088845	-160.137672
04341		36.712743	5.579005	-159.703067
04342		37.373830	5.156996	-159.374797
04343		37.588263	4.810612	-159.096961
04344		37.645681	4.485061	-158.821931
04345		37.649066	4.193769	-158.537428
04346		37.572940	3.950360	-158.262192
04347		37.489979	3.757021	-158.014557
04348		37.497637	3.598308	-157.816155
04349		37.570498	3.483856	-157.683026
04350		37.578571	3.440717	-157.615291
04351		37.529235	3.456205	-157.594257
04352		37.548204	3.461643	-157.566457
04353		37.575874	3.445440	-157.520556
04354		37.589456	3.390072	-157.452922
04355		37.638403	3.308257	-157.365404
04356		37.763240	3.186451	-157.268375
04357		37.880501	3.025012	-157.207571
04358		38.013439	2.855514	-157.204250
04359		38.105079	2.722543	-157.207216
04360		38.144543	2.635122	-157.194524
04361		38.031205	2.537439	-157.145017
04362		37.913616	2.463957	-157.092451
04363		37.958664	2.382433	-157.065119
04364		38.182505	2.296418	-157.106252
04365		38.399296	2.221770	-157.148579
04366		38.452948	2.168828	-157.173323
04367		38.371413	2.163627	-157.185465
04368		38.340672	2.151323	-157.210047
04369		38.424941	2.096221	-157.273325
04370		38.553855	2.027805	-157.369382
04371		38.538457	1.957572	-157.466647
04372		38.400111	1.850304	-157.586484
04373		38.253782	1.687838	-157.684166
04374		37.977975	1.529106	-157.731244
04375		37.679404	1.339177	-157.746354
04376		37.510862	1.145289	-157.760553
04377		37.591838	0.968225	-157.740571
04378		37.702908	0.818396	-157.704433
04379		37.765272	0.707919	-157.666953
04380		37.826983	0.592722	-157.645849
04381		37.904599	0.488405	-157.652753
04382		38.023075	0.378230	-157.661620
04383		38.149010	0.246094	-157.685637
04384		38.246490	0.143737	-157.700264
04385		38.333518	0.073415	-157.704077
04386		38.326341	0.045599	-157.704182
04387		38.322027	0.047263	-157.694085
04388		38.311292	0.058131	-157.675424
04389		38.268808	0.083471	-157.647994
04390		38.215789	0.127806	-157.615886
04391		38.158170	0.167310	-157.576426
04392		38.079766	0.209543	-157.528364
04393		38.048968	0.239563	-157.472755
04394		38.000504	0.249545	-157.421185
04395		37.971041	0.226771	-157.384289
04396		37.998780	0.179950	-157.355956
04397		38.078260	0.099129	-157.358687
04398		38.184635	-0.004040	-157.388801
04399		38.302323	-0.102082	-157.418049
04400		38.394472	-0.184793	-157.434894
04401		38.445262	-0.241411	-157.434638
04402		38.418476	-0.258922	-157.408588
04403		38.372015	-0.244799	-157.361254
04404		38.302093	-0.200740	-157.293514
04405		38.157862	-0.122775	-157.197485
04406		37.914931	0.008914	-157.054589
04407		37.650107	0.206680	-156.845889
04408		37.412576	0.461161	-156.593327
04409		37.121311	0.789717	-156.380574
04410		36.703362	1.197317	-156.190464
04411		36.424808	1.734285	-156.021984
04412		36.215939	2.398211	-155.785076
04413		35.958877	3.208066	-155.568511
04414		35.572613	4.132740	-155.425584
04415		35.054200	5.119098	-155.413735
04416		34.406262	6.090447	-155.528967
04417		33.763058	6.994065	-155.740528
04418		33.050913	7.816499	-155.984456
04419		32.371018	8.533069	-156.210427
04420		31.785026	9.099936	-156.411204
04421		31.418351	9.541364	-156.612134
04422		31.174779	9.878361	-156.839260
04423		31.004240	10.166362	-157.077774
04424		30.872140	10.400417	-157.295127
04425		30.660076	10.616479	-157.501520
04426		30.438972	10.835940	-157.700015
04427		30.222146	11.065846	-157.888846
04428		29.982871	11.281158	-158.064240
04429		29.590970	11.493065	-158.222347
04430		29.165661	11.712805	-158.362524
04431		28.830918	11.927293	-158.503330
04432		28.633446	12.122863	-158.657526
04433		28.440125	12.279944	-158.845547
04434		28.236454	12.417751	-159.043994
04435		28.114081	12.526021	-159.222471
04436		28.027547	12.594630	-159.368181
04437		27.885038	12.641757	-159.485072
04438		27.760507	12.668948	-159.578176
04439		27.702713	12.675082	-159.648953
04440		27.563230	12.680974	-159.728494
04441		27.360258	12.690135	-159.815734
04442		27.191100	12.704968	-159.908086
04443		27.027181	12.720033	-160.025716
04444		26.840947	12.726821	-160.177986
04445		26.706510	12.722754	-160.341089
04446		26.649542	12.707926	-160.481297
04447		26.531433	12.667737	-160.593308
04448		26.388819	12.636839	-160.662162
04449		26.305538	12.580932	-160.706563
04450		26.262709	12.486746	-160.753275
04451		26.213585	12.389830	-160.811966
04452		26.182972	12.307693	-160.886851
04453		26.204251	12.226039	-160.982803
04454		26.265352	12.122091	-161.090045
04455		26.381213	12.018367	-161.181891
04456		26.639629	11.905603	-161.297972
04457		27.048220	11.752752	-161.431751
04458		27.433328	11.547763	-161.562292
04459		27.816434	11.317839	-161.693454
04460		28.192018	11.050388	-161.786468
04461		28.513435	10.745013	-161.850766
04462		28.878450	10.355199	-161.883662
04463		29.311967	9.877183	-161.861492
04464		29.887725	9.371650	-161.806437
04465		30.472877	8.957421	-161.772279
04466		30.973639	8.662728	-161.785753
04467		31.340711	8.426273	-161.849127
04468		31.548406	8.212680	-161.964437
04469		31.627874	7.999404	-162.075775
04470		31.487263	7.740245	-162.083839
04471		31.351128	7.450336	-162.008724
04472		31.754087	7.146917	-161.921744
04473		32.082140	6.903763	-161.838386
04474		32.188831	6.773190	-161.750400
04475		32.210768	6.721771	-161.662524
04476		32.220298	6.670008	-161.609288
04477		32.244130	6.592547	-161.582986
04478		32.255846	6.535327	-161.579949
04479		32.189277	6.503994	-161.588370
04480		32.086389	6.498585	-161.587164
04481		31.988530	6.515108	-161.596422
04482		31.889730	6.550535	-161.630484
04483		31.712197	6.564760	-161.655088
04484		31.532900	6.563019	-161.665025
04485		31.401691	6.567742	-161.673415
04486		31.310929	6.601955	-161.674473
04487		31.255726	6.653978	-161.669703
04488		31.259174	6.709946	-161.694280
04489		31.205472	6.789745	-161.752580
04490		31.148133	6.899203	-161.802880
04491		31.042306	6.994138	-161.836230
04492		30.916142	7.079191	-161.853001
04493		30.849714	7.150827	-161.883291
04494		30.829613	7.184141	-161.914450
04495		30.862143	7.224955	-161.941857
04496		30.911207	7.247206	-161.970664
04497		30.920545	7.309455	-162.019680
04498		30.947103	7.339081	-162.034671
04499		30.899250	7.496109	-162.040771
04500		31.028469	7.605898	-162.039976
04501		31.382246	7.653257	-162.052584
04502		31.609260	7.675391	-162.041411
04503		31.600331	7.732179	-162.035064
04504		31.649427	7.768833	-162.056487
04505		31.749622	7.807990	-162.098776
04506		31.723827	7.842040	-162.117150
04507		31.723292	7.840739	-162.133741
04508		31.650330	7.836070	-162.139547
04509		31.588404	7.827275	-162.140975
04510		31.565526	7.820898	-162.153724
04511		31.553433	7.809558	-162.164610
04512		31.541160	7.794927	-162.155939
04513		31.541716	7.776272	-162.137265
04514		31.596989	7.735203	-162.109219
04515		31.615627	7.678696	-162.064448
04516		31.661859	7.658968	-162.023967
04517		31.750240	7.625836	-161.975427
04518		31.794092	7.592949	-161.943447
04519		31.791220	7.557200	-161.933140
04520		31.803643	7.517231	-161.932648
04521		31.799097	7.491675	-161.934777
04522		31.789439	7.477931	-161.936025
04523		31.765016	7.471023	-161.942687
04524		31.712702	7.445388	-161.957170
04525		31.614044	7.414211	-161.973261
04526		31.507089	7.381032	-161.995062
04527		31.364174	7.327439	-162.017654
04528		31.146142	7.218223	-162.031695
04529		30.870498	7.044577	-162.026341
04530		30.681187	6.917365	-162.055644
04531		30.676975	6.887281	-162.102319
04532		30.663508	6.874516	-162.125434
04533		30.676599	6.836029	-162.130806
04534		30.783737	6.767756	-162.101475
04535		30.915536	6.706161	-162.054193
04536		31.054477	6.663480	-162.019181
04537		31.155740	6.657461	-161.997117
04538		31.206946	6.655946	-161.988559
04539		31.232229	6.669868	-161.995021
04540		31.291265	6.662761	-161.986415
04541		31.359268	6.646421	-161.984203
04542		31.465835	6.626632	-162.001298
04543		31.581556	6.614949	-162.017413
04544		31.686192	6.610477	-162.018701
04545		31.777680	6.604860	-161.994733
04546		31.858328	6.606608	-161.950707
04547		31.936518	6.598521	-161.911318
04548		32.039640	6.588985	-161.867438
04549		32.105336	6.612696	-161.829852
04550		32.107164	6.678396	-161.808178
04551		32.090700	6.733406	-161.791524
04552		32.088420	6.762306	-161.763013
04553		32.110131	6.790874	-161.726326
04554		32.164725	6.808700	-161.675027
04555		32.221605	6.821666	-161.614799
04556		32.248725	6.860644	-161.564284
04557		32.296867	6.907770	-161.523888
04558		32.333655	6.947940	-161.479737
04559		32.373925	6.986595	-161.445195
04560		32.406154	7.007299	-161.460067
04561		32.437505	6.999976	-161.489864
04562		32.451112	7.046259	-161.522371
04563		32.515019	7.129902	-161.504937
04564		32.563189	7.215052	-161.411084
04565		32.564036	7.316066	-161.291516
04566		32.558537	7.369481	-161.206823
04567		32.614021	7.352099	-161.142886
04568		32.705684	7.253358	-161.043148
04569		32.806617	7.181089	-160.936557
04570		32.936049	7.116227	-160.821809
04571		33.083090	7.066362	-160.694121
04572		33.213652	7.020753	-160.539124
04573		33.328043	6.986608	-160.397366
04574		33.455842	6.969649	-160.315266
04575		33.615466	6.913776	-160.276172
04576		33.780426	6.792901	-160.219341
04577		33.932945	6.676705	-160.131083
04578		34.094803	6.574151	-159.992080
04579		34.259188	6.421374	-159.778889
04580		34.274875	6.225964	-159.476142
04581		34.167446	6.115660	-159.168676
04582		34.140612	6.000316	-158.872253
04583		34.090938	5.861903	-158.533926
04584		33.924519	5.605718	-158.132514
04585		33.666680	5.398930	-157.766442
04586		33.494383	5.143742	-157.423680
04587		33.382309	4.793869	-157.060763
04588		33.177694	4.373631	-156.674363
04589		32.963613	3.890235	-156.299735
04590		32.816940	3.333586	-155.945123
04591		32.724411	2.776181	-155.614047
04592		32.810937	2.419400	-155.353180
04593		33.431169	2.017554	-155.238552
04594		33.594546	1.442575	-155.148600
04595		33.685058	1.091385	-155.027071
04596		33.785510	0.781105	-154.913991
04597		34.209952	0.395995	-154.829420
04598		35.019178	-0.093481	-154.687617
04599		35.883987	-0.645819	-154.459949
04600		36.861510	-1.223490	-154.227888
04601		37.878297	-1.845230	-154.025431
04602		38.514822	-2.454247	-153.839877
04603		38.820857	-3.011836	-153.618796
04604		39.000097	-3.529636	-153.388734
04605		39.164012	-3.976502	-153.182186
04606		39.348913	-4.369980	-153.039792
04607		39.590469	-4.730621	-152.943309
04608		39.760685	-4.998231	-152.866252
04609		39.863459	-5.147150	-152.845292
04610		39.994638	-5.247711	-152.866169
04611		40.058634	-5.307293	-152.868172
04612		40.022203	-5.352219	-152.857355
04613		40.037875	-5.418052	-152.858461
04614		40.142557	-5.514209	-152.863700
04615		40.276452	-5.615523	-152.866808
04616		40.408310	-5.691635	-152.871777
04617		40.466205	-5.742430	-152.870036
04618		40.472044	-5.800271	-152.882054
04619		40.479939	-5.836756	-152.931659
04620		40.599646	-5.863644	-153.002469
04621		40.791852	-5.877203	-153.080415
04622		41.003165	-5.896602	-153.137321
04623		41.038439	-5.977159	-153.125748
04624		40.950778	-6.045417	-153.082018
04625		40.821510	-6.091668	-153.085928
04626		40.849078	-6.157504	-153.172670
04627		40.928405	-6.227200	-153.285441
04628		40.968989	-6.281753	-153.396066
04629		41.023969	-6.313363	-153.491263
04630		41.067382	-6.322246	-153.559369
04631		41.054883	-6.302828	-153.606147
04632		40.946006	-6.274128	-153.641442
04633		40.865596	-6.235722	-153.665303
04634		40.786869	-6.214150	-153.699594
04635		40.747665	-6.210780	-153.750990
04636		40.763020	-6.215389	-153.787598
04637		40.686159	-6.215213	-153.809621
04638		40.569131	-6.207870	-153.823905
04639		40.429777	-6.191292	-153.831741
04640		40.309463	-6.187793	-153.839810
04641		40.225292	-6.190984	-153.851692
04642		40.159735	-6.195453	-153.860058
04643		40.091013	-6.191047	-153.876345
04644		40.019952	-6.183223	-153.885187
04645		39.940361	-6.170758	-153.883847
04646		39.853160	-6.163713	-153.874724
04647		39.817544	-6.158981	-153.874084
04648		39.823098	-6.168794	-153.871877
04649		39.837059	-6.181790	-153.876340
04650		39.847545	-6.186519	-153.881884
04651		39.839709	-6.177619	-153.897846
04652		39.829748	-6.166920	-153.908342
04653		39.839219	-6.151922	-153.906680
04654		39.829852	-6.139735	-153.896159
04655		39.828252	-6.134446	-153.890259
04656		39.838296	-6.131976	-153.893282
04657		39.855595	-6.132849	-153.898550
04658		39.851795	-6.124481	-153.900282
04659		39.844625	-6.123751	-153.900093
04660		39.842962	-6.122775	-153.896924
04661		39.854043	-6.123532	-153.887948
04662		39.847750	-6.127041	-153.883936
04663		39.860955	-6.130292	-153.882971
04664		39.857707	-6.131337	-153.893330
04665		39.862439	-6.122019	-153.897491
04666		39.868047	-6.116262	-153.895276
04667		39.872310	-6.120874	-153.886633
04668		39.861850	-6.117792	-153.874090
04669		39.856157	-6.106064	-153.858160
04670		39.826990	-6.076403	-153.827612
04671		39.755178	-6.020776	-153.770938
04672		39.628741	-5.920700	-153.689550
04673		39.506575	-5.801107	-153.592868
04674		39.403500	-5.665016	-153.496149
04675		39.326012	-5.543750	-153.403368
04676		39.290450	-5.434234	-153.330037
04677		39.269544	-5.348032	-153.289686
04678		39.274611	-5.268569	-153.283088
04679		39.319761	-5.204100	-153.285188
04680		39.445908	-5.135855	-153.267466
04681		39.584861	-5.067349	-153.208448
04682		39.723448	-4.943462	-153.103326
04683		39.861056	-4.763835	-152.977748
04684		40.017627	-4.464698	-152.889477
04685		40.101603	-4.080533	-152.811888
04686		39.982376	-3.528811	-152.760481
04687		39.785586	-2.770532	-152.759139
04688		39.819171	-1.883489	-152.749161
04689		39.644759	-0.985812	-152.646572
04690		39.109897	-0.078046	-152.464719
04691		38.556649	0.774526	-152.239699
04692		38.274718	1.570105	-152.019617
04693		38.235395	2.267326	-151.868241
04694		38.254715	2.866017	-151.769310
04695		38.204083	3.493337	-151.711727
04696		38.364845	4.301283	-151.662680
04697		38.817566	5.076801	-151.664736
04698		38.757498	5.755300	-151.739243
04699		37.465982	5.888605	-151.790458
04700		34.825108	6.853132	-152.290349
04701		33.828511	7.722262	-152.746653
04702		33.632594	8.385920	-153.150019
04703		33.650051	8.989979	-153.508798
04704		33.216655	9.583592	-153.880992
04705		32.639539	10.117449	-154.238750
04706		32.264343	10.561353	-154.557508
04707		32.140872	10.976539	-154.870487
04708		32.195387	11.311881	-155.170801
04709		32.046768	11.554660	-155.441311
04710		31.531900	11.782209	-155.694713
04711		30.892487	12.034463	-155.982006
04712		30.622449	12.283048	-156.375782
04713		30.602455	12.446359	-156.825987
04714		30.300723	12.616621	-157.277577
04715		29.869826	12.833363	-157.692542
04716		29.519489	13.042405	-158.110045
04717		29.249367	13.238707	-158.520008
04718		29.038321	13.440514	-158.926109
04719		28.819283	13.630533	-159.312503
04720		28.587150	13.816458	-159.677596
04721		28.387729	14.003306	-160.011418
04722		28.148077	14.203823	-160.324947
04723		27.781575	14.419600	-160.634813
04724		27.449439	14.631905	-160.935789
04725		27.219508	14.801993	-161.209380
04726		26.963970	14.932535	-161.492451
04727		26.720197	15.063627	-161.797508
04728		26.533717	15.185895	-162.122957
04729		26.479724	15.268601	-162.441061
04730		26.404912	15.341420	-162.748494
04731		26.304624	15.407578	-163.064271
04732		26.228287	15.442499	-163.380766
04733		26.247726	15.439092	-163.673802
04734		26.329401	15.400543	-163.929418
04735		26.437890	15.319455	-164.123461
04736		26.500028	15.207522	-164.269035
04737		26.612333	15.058107	-164.346398
04738		26.835628	14.895725	-164.401289
04739		26.901872	14.748725	-164.446408
04740		26.877554	14.643919	-164.460361
04741		26.837953	14.576770	-164.466596
04742		26.848509	14.523604	-164.482255
04743		26.847676	14.479062	-164.511225
04744		26.786994	14.457629	-164.557079
04745		26.767464	14.428075	-164.623068
04746		26.799396	14.371307	-164.681236
04747		26.843934	14.303299	-164.715899
04748		26.881120	14.233589	-164.734347
04749		26.952365	14.176599	-164.727107
04750		26.994474	14.142556	-164.708647
04751		26.988885	14.109523	-164.683313
04752		26.968225	14.077735	-164.656614
04753		26.985352	14.040588	-164.629647
04754		27.007461	14.005499	-164.597948
04755		27.021995	13.960798	-164.569344
04756		27.078483	13.907428	-164.547020
04757		27.148997	13.855977	-164.537548
04758		27.215498	13.806538	-164.524631
04759		27.257070	13.767141	-164.516094
04760		27.302523	13.736429	-164.505781
04761		27.325471	13.704608	-164.495429
04762		27.343414	13.672332	-164.483176
04763		27.402269	13.641127	-164.473907
04764		27.438100	13.617021	-164.461420
04765		27.440948	13.606584	-164.445025
04766		27.436148	13.602360	-164.430130
04767		27.448676	13.599110	-164.423142
04768		27.455565	13.594060	-164.425226
04769		27.476343	13.596911	-164.424144
04770		27.553481	13.579010	-164.416823
04771		27.600229	13.567300	-164.396085
04772		27.635792	13.561468	-164.367491
04773		27.694192	13.547706	-164.329104
04774		27.735784	13.531417	-164.294885
04775		27.756112	13.532061	-164.266456
04776		27.777343	13.532974	-164.241880
04777		27.805957	13.540405	-164.213573
04778		27.836599	13.532085	-164.173012
04779		27.896632	13.525228	-164.120577
04780		28.009256	13.540330	-164.061942
04781		28.052094	13.554491	-163.999054
04782		27.982163	13.582224	-163.951817
04783		27.916535	13.621592	-163.917336
04784		27.847122	13.671233	-163.895557
04785		27.849882	13.701563	-163.889043
04786		27.852541	13.704597	-163.869453
04787		27.742614	13.715358	-163.835414
04788		27.827791	13.728924	-163.802040
04789		27.779407	13.765043	-163.752066
04790		27.590636	13.817228	-163.701697
04791		27.512904	13.861801	-163.678120
04792		27.508959	13.909400	-163.659850
04793		27.466442	13.974677	-163.644729
04794		27.422820	14.025904	-163.604615
04795		27.233116	14.074344	-163.564018
04796		27.123697	14.127233	-163.559977
04797		27.178268	14.129522	-163.595014
04798		27.349259	14.096263	-163.650412
04799		27.388709	14.072636	-163.701521
04800		27.314049	14.059446	-163.732462
04801		27.187058	14.040680	-163.753647
04802		27.050818	14.018045	-163.792988
04803		26.916320	14.007300	-163.828930
04804		26.855237	13.989113	-163.851147
04805		26.821050	13.971819	-163.868705
04806		26.770128	13.964095	-163.880597
04807		26.726143	13.954609	-163.892920
04808		26.689359	13.946269	-163.901460
04809		26.675164	13.941400	-163.916526
04810		26.645060	13.938203	-163.932369
04811		26.626522	13.927809	-163.942281
04812		26.607200	13.919416	-163.954745
04813		26.611036	13.887607	-163.958793
04814		26.716908	13.848656	-163.959147
04815		26.848238	13.817707	-163.948904
04816		26.955601	13.782673	-163.953538
04817		27.065611	13.738505	-163.955330
04818		27.246987	13.682540	-163.959960
04819		27.487418	13.635210	-163.978814
04820		27.739741	13.598373	-163.978452
04821		28.023607	13.560029	-163.950280
04822		28.325917	13.501549	-163.892770
04823		28.601114	13.433067	-163.800239
04824		28.805169	13.398678	-163.686910
04825		28.925923	13.409385	-163.564820
04826		29.037766	13.411506	-163.441770
04827		29.147691	13.400582	-163.321013
04828		29.257122	13.414511	-163.213094
04829		29.368216	13.438673	-163.094307
04830		29.505566	13.439302	-162.964227
04831		29.642213	13.419796	-162.842742
04832		29.745817	13.393428	-162.713210
04833		29.838324	13.367335	-162.567237
04834		29.907213	13.334392	-162.387915
04835		29.978127	13.300837	-162.179197
04836		30.076401	13.280990	-161.995810
04837		30.157629	13.268480	-161.820490
04838		30.199388	13.227193	-161.586161
04839		30.233285	13.166838	-161.320785
04840		30.266004	13.111565	-161.054193
04841		30.276887	13.017031	-160.743155
04842		30.263219	12.864823	-160.319960
04843		30.302725	12.724078	-159.939928
04844		30.354310	12.628159	-159.639376
04845		30.386263	12.511123	-159.312737
04846		30.356613	12.328120	-158.843533
04847		30.253887	12.096098	-158.266786
04848		30.148636	11.838908	-157.630404
04849		29.986950	11.547776	-156.939026
04850		29.762882	11.308483	-156.187391
04851		29.616810	11.058601	-155.524167
04852		29.580469	10.808685	-154.951536
04853		29.513939	10.517328	-154.364193
04854		29.309056	10.235990	-153.730056
04855		29.069576	9.965701	-153.163640
04856		28.956319	9.658764	-152.640587
04857		28.942880	9.398807	-152.122457
04858		29.134038	8.915426	-151.642100
04859		29.222126	8.454499	-151.225029
04860		29.474326	7.930257	-150.817598
04861		30.049614	7.350694	-150.360698
04862		30.888724	6.722358	-149.884671
04863		31.830862	6.078664	-149.466917
04864		32.453083	5.500085	-149.140565
04865		32.783193	4.996075	-148.869313
04866		33.015333	4.543667	-148.627563
04867		33.265731	4.128446	-148.426817
04868		33.535787	3.745422	-148.255316
04869		33.778989	3.381755	-148.098863
04870		33.931887	3.051983	-147.944867
04871		34.050652	2.749152	-147.815848
04872		34.231648	2.453752	-147.710566
04873		34.428744	2.150416	-147.610387
04874		34.579818	1.839659	-147.508441
04875		34.696807	1.539390	-147.388523
04876		34.783113	1.272149	-147.276570
04877		34.908635	1.020263	-147.197997
04878		35.117930	0.773491	-147.131898
04879		35.341357	0.567680	-147.075626
04880		35.531963	0.407028	-147.017567
04881		35.656314	0.297074	-146.938975
04882		35.727576	0.219162	-146.860817
04883		35.808363	0.103297	-146.858193
04884		35.865776	0.013006	-146.876720
04885		35.928195	-0.067743	-146.897846
04886		36.005038	-0.131932	-146.938373
04887		36.071109	-0.201747	-146.993235
04888		36.122550	-0.261312	-147.035614
04889		36.200981	-0.299749	-147.113853
04890		36.407916	-0.344760	-147.222926
04891		36.700090	-0.368672	-147.361286
04892		36.974052	-0.387026	-147.500504
04893		37.127230	-0.368533	-147.624115
04894		37.165468	-0.321287	-147.735007
04895		37.219844	-0.285265	-147.837990
04896		37.241798	-0.280789	-147.931218
04897		37.158331	-0.291755	-148.005672
04898		37.025324	-0.300372	-148.049479
04899		36.933395	-0.335211	-148.100239
04900		36.870021	-0.382776	-148.145641
04901		36.818501	-0.425539	-148.167336
04902		36.754104	-0.482242	-148.191923
04903		36.753843	-0.536936	-148.211367
04904		36.796173	-0.597064	-148.216290
04905		36.789108	-0.650054	-148.226300
04906		36.811282	-0.679090	-148.222775
04907		36.821104	-0.699721	-148.212737
04908		36.848139	-0.709385	-148.195511
04909		36.916359	-0.713519	-148.165351
04910		36.924841	-0.726002	-148.154462
04911		36.956464	-0.728133	-148.132644
04912		36.929898	-0.723752	-148.116806
04913		36.917430	-0.715200	-148.102421
04914		36.908327	-0.716381	-148.084908
04915		36.913099	-0.719572	-148.068109
04916		36.902935	-0.720807	-148.060921
04917		36.908316	-0.726614	-148.062332
04918		36.927396	-0.739502	-148.068047
04919		36.954057	-0.762564	-148.063466
04920		36.937913	-0.786252	-148.059466
04921		36.987315	-0.818620	-148.054295
04922		37.049253	-0.844853	-148.048981
04923		37.075365	-0.861268	-148.051425
04924		37.111878	-0.900485	-148.050551
04925		37.080205	-0.921747	-148.047702
04926		37.081330	-0.941403	-148.040503
04927		37.093996	-0.954522	-148.035644
04928		37.089155	-0.959948	-148.022690
04929		37.119801	-0.957112	-148.007710
04930		37.104788	-0.945920	-147.999525
04931		37.108850	-0.935571	-147.985797
04932		37.093601	-0.934941	-147.977945
04933		37.098358	-0.930726	-147.967854
04934		37.090955	-0.924648	-147.960488
04935		37.097982	-0.922945	-147.945803
04936		37.080277	-0.915156	-147.929930
04937		37.051517	-0.894739	-147.907711
04938		37.030554	-0.861552	-147.874203
04939		36.981154	-0.816212	-147.839029
04940		36.934259	-0.767192	-147.800028
04941		36.867003	-0.713088	-147.758997
04942		36.756035	-0.636968	-147.709505
04943		36.659262	-0.537622	-147.655407
04944		36.562903	-0.423209	-147.605375
04945		36.450744	-0.307082	-147.560735
04946		36.322536	-0.172779	-147.516091
04947		36.172070	-0.033357	-147.486231
04948		35.998303	0.117644	-147.457632
04949		35.846618	0.269456	-147.437048
04950		35.689240	0.443971	-147.436542
04951		35.521294	0.649866	-147.436943
04952		35.280082	0.909683	-147.415234
04953		35.056706	1.227251	-147.429181
04954		34.873024	1.597339	-147.439601
04955		34.650319	2.026510	-147.468212
04956		34.423979	2.515530	-147.506034
04957		34.167995	3.068896	-147.581763
04958		33.894182	3.662734	-147.707467
04959		33.587216	4.290430	-147.866831
04960		33.193243	4.943494	-148.056776
04961		32.757963	5.606684	-148.281947
04962		32.339573	6.229703	-148.550317
04963		31.978752	6.812868	-148.837716
04964		31.632968	7.354941	-149.153273
04965		31.318408	7.856356	-149.506021
04966		31.106432	8.301199	-149.856233
04967		30.820099	8.719025	-150.213714
04968		30.463119	9.169439	-150.601294
04969		30.424595	9.574378	-150.953550
04970		30.206862	9.884346	-151.321930
04971		29.768663	10.230548	-151.742520
04972		29.397001	10.543537	-152.166545
04973		29.178119	10.803966	-152.591753
04974		29.059705	11.015886	-153.004091
04975		28.943092	11.182896	-153.414363
04976		28.850557	11.319785	-153.817753
04977		28.794538	11.435605	-154.204291
04978		28.751230	11.527155	-154.554539
04979		28.670906	11.596315	-154.875657
04980		28.597397	11.646926	-155.179875
04981		28.583960	11.679042	-155.482479
04982		28.618136	11.696768	-155.786898
04983		28.654897	11.716914	-156.074599
04984		28.650341	11.738048	-156.348012
04985		28.672006	11.752409	-156.603659
04986		28.705118	11.753124	-156.857377
04987		28.740348	11.756066	-157.115330
04988		28.816915	11.742760	-157.374014
04989		28.940446	11.723194	-157.650754
04990		29.090653	11.703882	-157.939933
04991		29.267721	11.672960	-158.218832
04992		29.420930	11.639244	-158.466887
04993		29.529889	11.592841	-158.659996
04994		29.622209	11.536393	-158.813019
04995		29.674464	11.464760	-158.932497
04996		29.754182	11.375094	-159.007669
04997		29.824262	11.287635	-159.059123
04998		29.866945	11.225363	-159.103323
04999		29.917715	11.174469	-159.163658
05000		29.970368	11.113854	-159.231383
05001		30.054712	11.058345	-159.311480
05002		30.143837	11.007799	-159.409449
05003		30.251838	10.967951	-159.510816
05004		30.326824	10.934839	-159.600900
05005		30.380425	10.917038	-159.691222
05006		30.416110	10.907012	-159.783278
05007		30.467035	10.879246	-159.877379
05008		30.505901	10.844510	-159.959700
05009		30.547904	10.822023	-160.031210
05010		30.546242	10.816963	-160.106515
05011		30.535273	10.835384	-160.189270
05012		30.445050	10.897993	-160.304465
05013		30.318479	10.986648	-160.478664
05014		30.219218	11.087865	-160.686807
05015		30.097419	11.199914	-160.923523
05016		29.929807	11.320156	-161.180498
05017		29.723820	11.443627	-161.434551
05018		29.530292	11.557385	-161.663587
05019		29.362584	11.643442	-161.871627
05020		29.204025	11.707503	-162.051590
05021		29.060526	11.757254	-162.189748
05022		28.953139	11.792271	-162.300554
05023		28.843419	11.836968	-162.397313
05024		28.716649	11.893854	-162.480753
05025		28.501002	11.985967	-162.577738
05026		28.221063	12.098524	-162.701476
05027		27.918409	12.232794	-162.858298
05028		27.599913	12.373227	-163.052479
05029		27.388858	12.488041	-163.243036
05030		27.227542	12.593283	-163.433129
05031		27.035075	12.700291	-163.605808
05032		26.862781	12.765370	-163.725754
05033		26.844872	12.767650	-163.781834
05034		26.935594	12.725178	-163.765489
05035		27.005926	12.682727	-163.709469
05036		27.122018	12.629950	-163.631045
05037		27.285902	12.567690	-163.567191
05038		27.486089	12.510388	-163.520630
05039		27.614846	12.465159	-163.488646
05040		27.741573	12.401548	-163.446145
05041		27.932468	12.310040	-163.388397
05042		28.168659	12.220564	-163.324929
05043		28.325439	12.151761	-163.268746
05044		28.458920	12.083437	-163.207795
05045		28.589599	12.024299	-163.157956
05046		28.725229	11.978032	-163.110778
05047		28.807214	11.952873	-163.071953
05048		28.831581	11.938411	-163.032528
05049		28.871811	11.933600	-162.981122
05050		28.935119	11.913545	-162.928978
05051		28.980542	11.894312	-162.866339
05052		29.039978	11.879088	-162.818249
05053		29.031715	11.886127	-162.779287
05054		28.980363	11.906953	-162.735780
05055		28.885779	11.943254	-162.697731
05056		28.767120	11.992889	-162.672870
05057		28.811304	12.019181	-162.668420
05058		28.768462	12.049904	-162.659693
05059		28.666053	12.105963	-162.680669
05060		28.643058	12.119728	-162.688308
05061		28.682981	12.149974	-162.695135
05062		28.686570	12.211588	-162.695765
05063		28.505131	12.296235	-162.707753
05064		28.346655	12.354223	-162.730560
05065		28.422698	12.403620	-162.793411
05066		28.605707	12.401980	-162.859841
05067		28.630890	12.397599	-162.874932
05068		28.518393	12.402118	-162.881464
05069		28.433207	12.407922	-162.904287
05070		28.373964	12.414000	-162.939906
05071		28.297987	12.420434	-162.977885
05072		28.236966	12.443568	-163.005350
05073		28.188184	12.462320	-163.040080
05074		28.136517	12.464188	-163.065605
05075		28.101761	12.449270	-163.071765
05076		28.130539	12.421330	-163.065761
05077		28.171935	12.407795	-163.059357
05078		28.170651	12.404728	-163.061420
05079		28.149617	12.393238	-163.061050
05080		28.166344	12.380662	-163.063124
05081		28.169210	12.371406	-163.064069
05082		28.154905	12.364740	-163.068356
05083		28.162774	12.345159	-163.059275
05084		28.196874	12.325623	-163.060297
05085		28.178901	12.307764	-163.064598
05086		28.133646	12.280119	-163.064626
05087		28.143928	12.257382	-163.065189
05088		28.161672	12.247401	-163.060953
05089		28.145317	12.244698	-163.060087
05090		28.107593	12.239951	-163.056448
05091		28.079969	12.227812	-163.059273
05092		28.034650	12.213680	-163.059005
05093		28.031038	12.240540	-163.072941
05094		28.058819	12.248889	-163.069621
05095		28.081341	12.266044	-163.060966
05096		28.118226	12.276455	-163.040405
05097		28.176911	12.282981	-163.014904
05098		28.196434	12.297509	-162.982993
05099		28.164813	12.321857	-162.952951
05100		28.134993	12.343481	-162.925108
05101		28.148322	12.358078	-162.888057
05102		28.195523	12.356505	-162.818850
05103		28.297770	12.363811	-162.744631
05104		28.388272	12.378267	-162.669159
05105		28.444114	12.409615	-162.596421
05106		28.500223	12.445796	-162.532761
05107		28.535720	12.472086	-162.455586
05108		28.593410	12.484061	-162.377691
05109		28.688337	12.496015	-162.308834
05110		28.796292	12.498352	-162.244081
05111		28.901515	12.489902	-162.191398
05112		29.004330	12.481027	-162.135318
05113		29.118647	12.472472	-162.065004
05114		29.214564	12.483665	-161.995120
05115		29.284549	12.507839	-161.923748
05116		29.362296	12.534607	-161.849594
05117		29.462185	12.558593	-161.780950
05118		29.564884	12.568104	-161.695549
05119		29.677107	12.555645	-161.605695
05120		29.800675	12.533351	-161.520473
05121		29.915045	12.529676	-161.437488
05122		30.033561	12.566489	-161.420170
05123		30.197289	12.625629	-161.429628
05124		30.405119	12.677682	-161.442685
05125		30.578928	12.724969	-161.446791
05126		30.733074	12.755263	-161.431367
05127		30.886269	12.756104	-161.374311
05128		30.995706	12.735773	-161.261585
05129		31.020312	12.729630	-161.102994
05130		30.980288	12.762495	-160.948153
05131		30.901484	12.824332	-160.797131
05132		30.820019	12.876203	-160.625823
05133		30.771214	12.895050	-160.445712
05134		30.760314	12.882907	-160.257501
05135		30.758647	12.829132	-160.044191
05136		30.790196	12.748818	-159.861027
05137		30.860075	12.655560	-159.755988
05138		30.925128	12.529738	-159.643614
05139		30.942255	12.334108	-159.424411
05140		30.930504	12.062968	-159.056282
05141		30.888819	11.766763	-158.588150
05142		30.822606	11.480307	-158.076921
05143		30.763021	11.221837	-157.539338
05144		30.827891	11.018551	-157.136254
05145		31.158499	10.916500	-156.876273
05146		31.526861	10.595345	-156.634788
05147		31.631772	10.314220	-156.300071
05148		31.635788	9.956682	-155.869847
05149		31.902491	9.469449	-155.371223
05150		32.596229	8.815400	-154.751439
05151		33.280505	8.093574	-154.015512
05152		33.614957	7.376606	-153.315349
05153		33.829201	6.639272	-152.647822
05154		34.015617	5.905012	-151.960678
05155		34.175055	5.245957	-151.378468
05156		34.450295	4.666356	-150.965473
05157		34.733050	4.178854	-150.639417
05158		34.838449	3.783545	-150.372501
05159		34.897289	3.447086	-150.181258
05160		35.045616	3.133957	-150.055362
05161		35.229418	2.819267	-149.942992
05162		35.356427	2.508327	-149.828317
05163		35.489979	2.240474	-149.735409
05164		35.671194	2.008420	-149.665682
05165		35.811475	1.846065	-149.612757
05166		35.858142	1.727265	-149.558797
05167		35.869270	1.620373	-149.510565
05168		35.927546	1.500357	-149.457015
05169		36.035182	1.390102	-149.406934
05170		36.155789	1.289797	-149.350602
05171		36.273234	1.196547	-149.298528
05172		36.403286	1.111348	-149.271840
05173		36.511946	1.037911	-149.245270
05174		36.588626	0.978840	-149.221446
05175		36.645240	0.921027	-149.200690
05176		36.712355	0.860544	-149.200311
05177		36.752262	0.811224	-149.208195
05178		36.783303	0.773732	-149.224954
05179		36.831028	0.737122	-149.230081
05180		36.864727	0.693921	-149.242444
05181		36.880777	0.665765	-149.244232
05182		36.880094	0.653432	-149.228377
05183		36.856007	0.621965	-149.228016
05184		36.840417	0.586425	-149.254763
05185		36.881396	0.548949	-149.292175
05186		36.925962	0.507350	-149.334936
05187		36.972275	0.460986	-149.396239
05188		37.037363	0.416846	-149.471049
05189		37.080501	0.373394	-149.558293
05190		37.105099	0.347690	-149.645536
05191		37.123482	0.344079	-149.712502
05192		37.142707	0.351637	-149.788308
05193		37.150519	0.348154	-149.919707
05194		37.142968	0.376407	-150.074799
05195		37.203690	0.441734	-150.201497
05196		37.173842	0.524040	-150.320803
05197		36.926264	0.605817	-150.426570
05198		36.668120	0.684926	-150.461066
05199		36.441148	0.728868	-150.468889
05200		36.261546	0.721186	-150.478088
05201		36.141482	0.692695	-150.491591
05202		36.121442	0.645002	-150.509308
05203		36.186026	0.561802	-150.535864
05204		36.270386	0.470396	-150.567971
05205		36.357249	0.371838	-150.586611
05206		36.424461	0.285831	-150.592114
05207		36.470111	0.219589	-150.589758
05208		36.504069	0.191263	-150.572166
05209		36.526925	0.176843	-150.550831
05210		36.565230	0.176159	-150.524145
05211		36.603345	0.179696	-150.505298
05212		36.626999	0.195637	-150.493363
05213		36.661401	0.185201	-150.493402
05214		36.652036	0.183547	-150.494708
05215		36.659136	0.185835	-150.490576
05216		36.657642	0.190342	-150.480524
05217		36.676575	0.213242	-150.461380
05218		36.648361	0.243406	-150.454194
05219		36.645256	0.266710	-150.438525
05220		36.626884	0.292229	-150.419946
05221		36.608407	0.308265	-150.394880
05222		36.578788	0.323892	-150.379814
05223		36.547757	0.340528	-150.367773
05224		36.516353	0.363424	-150.352856
05225		36.495695	0.379691	-150.332685
05226		36.481790	0.396784	-150.312248
05227		36.447233	0.414954	-150.294085
05228		36.421103	0.428281	-150.282495
05229		36.420110	0.430158	-150.273770
05230		36.410947	0.432212	-150.268340
05231		36.393122	0.432948	-150.258607
05232		36.368097	0.433883	-150.246077
05233		36.348511	0.442922	-150.230378
05234		36.310203	0.465375	-150.203305
05235		36.219224	0.522489	-150.167586
05236		36.067074	0.623313	-150.119449
05237		35.877932	0.752562	-150.043944
05238		35.637105	0.905892	-149.944894
05239		35.402321	1.075986	-149.860695
05240		35.146822	1.270133	-149.779027
05241		34.823560	1.496148	-149.716385
05242		34.373540	1.824934	-149.691032
05243		33.971473	2.214029	-149.703471
05244		33.514158	2.666056	-149.722493
05245		33.041489	3.173438	-149.764966
05246		32.566654	3.736682	-149.879301
05247		32.093038	4.318843	-150.076049
05248		31.684207	4.910306	-150.335731
05249		31.288969	5.485485	-150.620660
05250		30.874575	6.057400	-150.928619
05251		30.461522	6.620429	-151.251497
05252		30.025297	7.133598	-151.583212
05253		29.580396	7.620361	-151.896823
05254		29.282054	8.076181	-152.176010
05255		29.011630	8.498340	-152.456043
05256		28.738893	8.892755	-152.755180
05257		28.495428	9.216249	-153.044585
05258		28.246595	9.523366	-153.346336
05259		28.066419	9.785184	-153.639065
05260		27.920711	10.007406	-153.934305
05261		27.801241	10.210860	-154.209526
05262		27.692280	10.390920	-154.464114
05263		27.604220	10.558839	-154.705067
05264		27.488500	10.688487	-154.945229
05265		27.345569	10.821553	-155.192821
05266		27.220443	10.936557	-155.430903
05267		27.093434	11.043299	-155.657686
05268		26.904251	11.153419	-155.889044
05269		26.734745	11.264682	-156.128819
05270		26.601319	11.357917	-156.400785
05271		26.499703	11.439797	-156.683838
05272		26.436496	11.495659	-156.964619
05273		26.386048	11.527247	-157.229990
05274		26.342780	11.535359	-157.486074
05275		26.319987	11.507681	-157.739511
05276		26.375252	11.470686	-157.993450
05277		26.477123	11.423324	-158.212814
05278		26.570958	11.358050	-158.356615
05279		26.606023	11.266268	-158.417367
05280		26.600520	11.170077	-158.441064
05281		26.604994	11.054273	-158.446874
05282		26.688127	10.928733	-158.450290
05283		26.831673	10.790509	-158.448318
05284		26.964889	10.655624	-158.472422
05285		27.089335	10.525199	-158.521292
05286		27.237963	10.408533	-158.603567
05287		27.346647	10.325864	-158.723244
05288		27.420945	10.270232	-158.850040
05289		27.478569	10.212735	-158.977106
05290		27.536485	10.146006	-159.100443
05291		27.582918	10.061488	-159.217061
05292		27.669828	9.960089	-159.305454
05293		27.796032	9.847217	-159.381367
05294		27.925721	9.741882	-159.460568
05295		28.068797	9.663264	-159.564865
05296		28.188869	9.603569	-159.685937
05297		28.275312	9.556613	-159.816543
05298		28.337960	9.510849	-159.938886
05299		28.405968	9.448095	-160.018358
05300		28.529027	9.371483	-160.039940
05301		28.664765	9.286330	-160.026253
05302		28.785895	9.227343	-160.016214
05303		28.837285	9.196491	-160.048269
05304		28.802877	9.185656	-160.107300
05305		28.769504	9.184868	-160.192670
05306		28.725090	9.185192	-160.298089
05307		28.672316	9.179692	-160.397714
05308		28.651431	9.161030	-160.485039
05309		28.627237	9.145070	-160.565738
05310		28.628022	9.127103	-160.649870
05311		28.620541	9.100375	-160.717935
05312		28.644535	9.070413	-160.765762
05313		28.688536	9.037564	-160.804134
05314		28.736700	8.993201	-160.824860
05315		28.817754	8.931478	-160.821876
05316		28.943408	8.880009	-160.797775
05317		29.043743	8.830106	-160.762195
05318		29.132339	8.752876	-160.730214
05319		29.223091	8.687030	-160.721328
05320		29.224219	8.647421	-160.738510
05321		29.178115	8.608346	-160.758202
05322		29.172057	8.550229	-160.758334
05323		29.248073	8.498554	-160.760918
05324		29.264291	8.447992	-160.770773
05325		29.254618	8.417689	-160.776207
05326		29.270969	8.406489	-160.764993
05327		29.275064	8.406688	-160.758297
05328		29.280358	8.408421	-160.738759
05329		29.352951	8.415110	-160.715189
05330		29.433436	8.439071	-160.719581
05331		29.440732	8.522403	-160.728256
05332		29.521117	8.626819	-160.775678
05333		29.474163	8.715352	-160.801015
05334		29.422143	8.810571	-160.829560
05335		29.392261	8.911666	-160.872213
05336		29.378995	9.034055	-160.929698
05337		29.401415	9.118888	-160.960872
05338		29.551301	9.156274	-160.955305
05339		29.545391	9.261175	-160.932253
05340		29.430723	9.384278	-160.917906
05341		29.312408	9.453936	-160.907606
05342		29.359309	9.489563	-160.921484
05343		29.496269	9.526624	-160.947818
05344		29.660628	9.556110	-160.985441
05345		29.792299	9.566353	-161.026573
05346		29.747779	9.582032	-161.047659
05347		29.683992	9.600150	-161.053762
05348		29.685017	9.624036	-161.055577
05349		29.679299	9.648134	-161.069117
05350		29.653156	9.681175	-161.090328
05351		29.597572	9.713235	-161.109879
05352		29.592844	9.740704	-161.118409
05353		29.621327	9.749856	-161.113477
05354		29.638138	9.740233	-161.107145
05355		29.679250	9.727182	-161.108016
05356		29.713465	9.721587	-161.121138
05357		29.708822	9.730121	-161.125498
05358		29.685202	9.714899	-161.132605
05359		29.663358	9.650848	-161.133375
05360		29.715688	9.577520	-161.141747
05361		29.760520	9.530225	-161.150441
05362		29.737239	9.502003	-161.152036
05363		29.693283	9.469311	-161.149213
05364		29.708957	9.449762	-161.156133
05365		29.730727	9.446971	-161.166217
05366		29.678212	9.451652	-161.177778
05367		29.643838	9.449899	-161.185794
05368		29.659626	9.433655	-161.183851
05369		29.682534	9.415352	-161.184758
05370		29.713298	9.408795	-161.189495
05371		29.702807	9.407100	-161.190577
05372		29.702741	9.402719	-161.185063
05373		29.735823	9.398480	-161.181995
05374		29.749656	9.394509	-161.179941
05375		29.731065	9.401480	-161.186475
05376		29.709796	9.400561	-161.195295
05377		29.690230	9.398831	-161.199826
05378		29.699568	9.406817	-161.203747
05379		29.695400	9.405097	-161.205384
05380		29.657295	9.400939	-161.211991
05381		29.630279	9.387057	-161.227553
05382		29.593479	9.350823	-161.242597
05383		29.564979	9.293758	-161.255324
05384		29.591315	9.243805	-161.275632
05385		29.568757	9.220288	-161.307000
05386		29.418953	9.201760	-161.331124
05387		29.261165	9.170024	-161.348830
05388		29.217882	9.120066	-161.355721
05389		29.165111	9.025380	-161.361678
05390		29.107381	8.907610	-161.361840
05391		29.050292	8.841491	-161.397187
05392		29.095213	8.851005	-161.462034
05393		29.088781	8.875730	-161.509571
05394		29.064855	8.909771	-161.536847
05395		29.101593	8.955146	-161.553728
05396		29.177064	9.006651	-161.557983
05397		29.246329	9.059539	-161.541677
05398		29.333419	9.103774	-161.517000
05399		29.417901	9.144835	-161.490804
05400		29.501282	9.169377	-161.468211
05401		29.565110	9.187259	-161.451392
05402		29.601468	9.217411	-161.452413
05403		29.607164	9.256498	-161.458518
05404		29.587928	9.344154	-161.474328
05405		29.509617	9.477629	-161.492044
05406		29.406860	9.585444	-161.489745
05407		29.353731	9.685613	-161.478474
05408		29.348617	9.775157	-161.473286
05409		29.350423	9.854017	-161.464669
05410		29.387027	9.937693	-161.461157
05411		29.420385	10.035808	-161.462722
05412		29.417870	10.131353	-161.459599
05413		29.415072	10.216146	-161.435848
05414		29.410498	10.299099	-161.396029
05415		29.433562	10.387145	-161.362796
05416		29.456698	10.478837	-161.331409
05417		29.452811	10.564654	-161.292738
05418		29.439209	10.653492	-161.270553
05419		29.416275	10.745062	-161.283040
05420		29.404486	10.819645	-161.295769
05421		29.393615	10.870078	-161.281675
05422		29.408427	10.922608	-161.268425
05423		29.439868	10.968723	-161.256577
05424		29.460548	11.027261	-161.233840
05425		29.529104	11.071411	-161.198581
05426		29.606283	11.115656	-161.159122
05427		29.691127	11.167170	-161.120201
05428		29.769363	11.214538	-161.067465
05429		29.825072	11.255217	-161.004008
05430		29.897688	11.293247	-160.947068
05431		30.012550	11.330847	-160.900067
05432		30.144450	11.362534	-160.845988
05433		30.272077	11.382238	-160.784633
05434		30.399644	11.392294	-160.738812
05435		30.525456	11.395186	-160.708422
05436		30.635828	11.386702	-160.662681
05437		30.736281	11.379433	-160.604200
05438		30.849739	11.378643	-160.554510
05439		30.950613	11.393443	-160.497583
05440		31.016149	11.394493	-160.410539
05441		31.087024	11.391868	-160.316197
05442		31.159922	11.402699	-160.254775
05443		31.226476	11.404428	-160.188843
05444		31.285043	11.398342	-160.111087
05445		31.345384	11.385589	-160.033713
05446		31.402436	11.363462	-159.930148
05447		31.450680	11.314411	-159.784104
05448		31.479848	11.261723	-159.615129
05449		31.521955	11.189778	-159.433698
05450		31.641065	11.092711	-159.214924
05451		32.123424	10.947742	-158.956910
05452		32.144749	10.720613	-158.696271
05453		32.223831	10.510478	-158.442101
05454		32.394103	10.251361	-158.173180
05455		32.769485	9.921117	-157.879185
05456		33.414512	9.517407	-157.551815
05457		34.126722	9.076091	-157.247135
05458		34.607686	8.681424	-157.009359
05459		34.873986	8.333697	-156.804493
05460		35.040498	8.023816	-156.622387
05461		35.212839	7.754408	-156.493031
05462		35.404898	7.526755	-156.405256
05463		35.535980	7.348523	-156.323999
05464		35.643838	7.229057	-156.277793
05465		35.767263	7.147076	-156.284827
05466		35.865210	7.099161	-156.301759
05467		35.923506	7.076785	-156.309178
05468		35.984257	7.056364	-156.291956
05469		36.076817	7.043052	-156.256989
05470		36.174007	7.033603	-156.207431
05471		36.299530	7.018991	-156.166209
05472		36.439673	6.976375	-156.120367
05473		36.517494	6.913568	-156.118352
05474		36.587453	6.854728	-156.142868
05475		36.649481	6.807988	-156.159924
05476		36.676962	6.736299	-156.163363
05477		36.724354	6.656632	-156.160684
05478		36.773420	6.602006	-156.178829
05479		36.853858	6.545649	-156.181657
05480		36.880553	6.517924	-156.187040
05481		36.868659	6.497999	-156.216197
05482		36.951211	6.480297	-156.259772
05483		37.100633	6.444090	-156.314506
05484		37.213305	6.422402	-156.376914
05485		37.279677	6.414550	-156.436255
05486		37.342099	6.423475	-156.482358
05487		37.356099	6.443512	-156.521048
05488		37.342328	6.458970	-156.561989
05489		37.301429	6.474516	-156.614879
05490		37.309645	6.520778	-156.660405
05491		37.210538	6.586735	-156.672895
05492		36.929833	6.614624	-156.676990
05493		36.612451	6.636581	-156.678007
05494		36.371474	6.661752	-156.685610
05495		36.233093	6.675920	-156.680193
05496		36.075443	6.690676	-156.669444
05497		35.896631	6.697114	-156.664323
05498		35.791233	6.693115	-156.662629
05499		35.779353	6.667687	-156.672867
05500		35.795591	6.628801	-156.693766
05501		35.798628	6.589057	-156.712418
05502		35.799547	6.559523	-156.730363
05503		35.826591	6.525632	-156.741311
05504		35.867809	6.491255	-156.744985
05505		35.901450	6.468704	-156.750194
05506		35.951089	6.447211	-156.754907
05507		35.984654	6.437558	-156.763784
05508		36.000331	6.427861	-156.765749
05509		36.020744	6.425092	-156.777285
05510		36.043320	6.425306	-156.771704
05511		36.044399	6.418310	-156.763928
05512		36.052558	6.413219	-156.745770
05513		36.085963	6.409982	-156.730992
05514		36.079838	6.404883	-156.723695
05515		36.066549	6.407796	-156.721530
05516		36.061581	6.412840	-156.719677
05517		36.069190	6.423064	-156.719141
05518		36.071662	6.436458	-156.727938
05519		36.036590	6.468095	-156.743499
05520		36.013740	6.545262	-156.784714
05521		35.961495	6.646686	-156.827934
05522		35.863975	6.770049	-156.856829
05523		35.646924	6.921039	-156.861158
05524		35.379332	7.084516	-156.826978
05525		35.083011	7.260602	-156.777563
05526		34.777129	7.435002	-156.726510
05527		34.504288	7.583198	-156.673292
05528		34.311883	7.704468	-156.643915
05529		34.206385	7.800258	-156.645892
05530		34.134118	7.883352	-156.642567
05531		33.980691	7.979197	-156.628485
05532		33.740174	8.118504	-156.608825
05533		33.525447	8.270166	-156.594224
05534		33.343898	8.420797	-156.595679
05535		33.124449	8.587888	-156.600426
05536		32.956961	8.752543	-156.617092
05537		32.841410	8.892747	-156.665659
05538		32.741809	9.027825	-156.753396
05539		32.672096	9.150686	-156.850549
05540		32.601840	9.268805	-156.949592
05541		32.457788	9.421703	-157.035698
05542		32.224445	9.612641	-157.112739
05543		31.991509	9.828890	-157.205391
05544		31.745759	10.074974	-157.315170
05545		31.489795	10.352935	-157.432945
05546		31.227141	10.634650	-157.558825
05547		30.927428	10.909310	-157.697180
05548		30.627470	11.159824	-157.860441
05549		30.376924	11.386697	-158.047697
05550		30.238525	11.579780	-158.227280
05551		30.123356	11.745872	-158.391505
05552		29.979360	11.889150	-158.528592
05553		29.849517	12.004389	-158.631864
05554		29.726244	12.095249	-158.729348
05555		29.639656	12.160707	-158.813148
05556		29.588417	12.189820	-158.877804
05557		29.542316	12.204130	-158.922792
05558		29.555478	12.218333	-158.949896
05559		29.570978	12.262171	-158.958679
05560		29.534860	12.339152	-158.962327
05561		29.417275	12.438781	-158.973189
05562		29.248981	12.540427	-158.991529
05563		29.113406	12.608793	-159.025044
05564		29.037124	12.626187	-159.072779
05565		29.009963	12.599128	-159.125732
05566		28.988882	12.554424	-159.178142
05567		28.962195	12.505830	-159.220603
05568		28.861239	12.482201	-159.253141
05569		28.638573	12.510971	-159.288332
05570		28.332399	12.556378	-159.340988
05571		28.070393	12.600676	-159.413928
05572		27.967328	12.636192	-159.511182
05573		27.863547	12.652620	-159.635117
05574		27.690404	12.659548	-159.761412
05575		27.518177	12.657644	-159.876986
05576		27.398161	12.647791	-159.996183
05577		27.287447	12.638496	-160.112908
05578		27.201239	12.622807	-160.218238
05579		27.108313	12.606253	-160.324529
05580		27.052237	12.570462	-160.436356
05581		26.977307	12.531665	-160.545056
05582		26.911866	12.490878	-160.659774
05583		26.870449	12.429118	-160.781369
05584		26.865176	12.344599	-160.878747
05585		26.856422	12.250244	-160.946736
05586		26.815220	12.137209	-161.001622
05587		26.831585	11.994704	-161.049375
05588		26.889939	11.838840	-161.087392
05589		26.961044	11.686712	-161.139868
05590		27.052831	11.539587	-161.200168
05591		27.127637	11.393319	-161.265565
05592		27.197329	11.253728	-161.338935
05593		27.317467	11.109003	-161.398220
05594		27.481824	10.964373	-161.443970
05595		27.608829	10.837074	-161.468986
05596		27.701396	10.721710	-161.479515
05597		27.797936	10.627698	-161.487921
05598		27.912747	10.542067	-161.482892
05599		28.037968	10.483112	-161.461972
05600		28.024274	10.462491	-161.442666
05601		27.945851	10.435463	-161.426639
05602		27.931086	10.403936	-161.438911
05603		27.965020	10.351911	-161.473174
05604		28.020157	10.269491	-161.508027
05605		28.117930	10.174541	-161.540180
05606		28.245663	10.078666	-161.580198
05607		28.383959	9.976966	-161.622575
05608		28.518497	9.878533	-161.653336
05609		28.673790	9.774539	-161.670306
05610		28.856363	9.667851	-161.680234
05611		29.001206	9.584047	-161.685224
05612		29.125532	9.514615	-161.676553
05613		29.270490	9.433615	-161.661277
05614		29.413338	9.364838	-161.638831
05615		29.481062	9.283901	-161.606788
05616		29.556084	9.217232	-161.575738
05617		29.626950	9.162388	-161.549887
05618		29.660534	9.110291	-161.542656
05619		29.643708	9.056690	-161.554939
05620		29.590881	9.020891	-161.582454
05621		29.532421	8.995974	-161.608251
05622		29.459526	8.980460	-161.625811
05623		29.429684	8.993898	-161.623363
05624		29.482259	8.998492	-161.625554
05625		29.463742	8.994863	-161.630801
05626		29.485227	9.021807	-161.636994
05627		29.505723	9.064042	-161.670269
05628		29.521432	9.161418	-161.741405
05629		29.408514	9.288767	-161.801444
05630		29.227108	9.404119	-161.851063
05631		29.026244	9.513885	-161.889436
05632		28.873538	9.636351	-161.931382
05633		28.740025	9.770025	-161.979253
05634		28.573385	9.899689	-162.023108
05635		28.412341	9.997283	-162.038331
05636		28.253679	10.110305	-162.048288
05637		28.054249	10.234210	-162.059036
05638		27.939793	10.287047	-162.054174
05639		28.005197	10.316529	-162.047512
05640		28.143067	10.342259	-162.039386
05641		28.337189	10.350589	-162.035742
05642		28.495292	10.335250	-162.049514
05643		28.496068	10.340863	-162.069552
05644		28.504491	10.345642	-162.078184
05645		28.499933	10.349454	-162.087116
05646		28.429377	10.352321	-162.101661
05647		28.356337	10.354644	-162.117489
05648		28.345779	10.359264	-162.131522
05649		28.335723	10.352379	-162.138377
05650		28.318375	10.329481	-162.140569
05651		28.323242	10.306668	-162.138700
05652		28.324426	10.308233	-162.144867
05653		28.306678	10.320084	-162.147774
05654		28.290878	10.326748	-162.141991
05655		28.298139	10.325420	-162.141470
05656		28.309610	10.309407	-162.137566
05657		28.324369	10.298373	-162.134669
05658		28.331126	10.291879	-162.127959
05659		28.334317	10.262648	-162.101190
05660		28.399867	10.208966	-162.060022
05661		28.599155	10.173919	-162.018293
05662		28.718739	10.153063	-161.999856
05663		28.671994	10.143628	-162.002983
05664		28.618745	10.138797	-162.015848
05665		28.582585	10.134043	-162.026419
05666		28.543177	10.124816	-162.037200
05667		28.505789	10.113206	-162.051312
05668		28.451505	10.096008	-162.056110
05669		28.414009	10.079595	-162.062527
05670		28.400804	10.057427	-162.072245
05671		28.356974	10.020123	-162.073328
05672		28.307919	9.961200	-162.068969
05673		28.379365	9.891585	-162.076109
05674		28.422952	9.829799	-162.076966
05675		28.386780	9.761573	-162.072962
05676		28.363852	9.714958	-162.076672
05677		28.421984	9.684440	-162.093846
05678		28.443128	9.645090	-162.101753
05679		28.420114	9.614271	-162.102513
05680		28.431622	9.617154	-162.103106
05681		28.470034	9.633855	-162.110164
05682		28.477498	9.636706	-162.119542
05683		28.470380	9.632142	-162.127360
05684		28.512523	9.641063	-162.139794
05685		28.550933	9.657760	-162.146871
05686		28.571010	9.666543	-162.143319
05687		28.603798	9.666434	-162.152100
05688		28.656537	9.667740	-162.171089
05689		28.695517	9.671440	-162.176563
05690		28.731813	9.679705	-162.179719
05691		28.778610	9.696761	-162.187653
05692		28.830671	9.722434	-162.192809
05693		28.877373	9.755829	-162.198900
05694		28.916986	9.788965	-162.200500
05695		28.960039	9.819723	-162.195874
05696		29.030676	9.846533	-162.191619
05697		29.109423	9.868022	-162.184041
05698		29.185746	9.887717	-162.169353
05699		29.278520	9.905092	-162.154983
05700		29.361108	9.926179	-162.149189
05701		29.452127	9.965087	-162.167841
05702		29.523439	10.019100	-162.223872
05703		29.555736	10.056092	-162.290036
05704		29.583880	10.079640	-162.338582
05705		29.659760	10.089590	-162.348157
05706		29.745631	10.099743	-162.306011
05707		29.834736	10.120615	-162.234540
05708		29.936109	10.145724	-162.172124
05709		30.031778	10.165172	-162.109981
05710		30.085993	10.167586	-162.037500
05711		30.132474	10.166163	-161.991893
05712		30.208147	10.174036	-161.980548
05713		30.272922	10.148878	-161.971657
05714		30.323071	10.097092	-161.965397
05715		30.425753	10.056467	-161.978229
05716		30.590327	10.009069	-161.993359
05717		30.719532	9.948945	-161.965027
05718		30.783253	9.911808	-161.868923
05719		30.850303	9.918136	-161.765644
05720		30.946590	9.937884	-161.671852
05721		30.990621	9.939776	-161.562318
05722		30.988267	9.907439	-161.441302
05723		31.005522	9.858652	-161.312941
05724		31.040916	9.822284	-161.199313
05725		31.082985	9.758543	-161.060828
05726		31.101967	9.690894	-160.911408
05727		31.124867	9.646632	-160.780078
05728		31.133839	9.594959	-160.637251
05729		31.084335	9.533796	-160.456823
05730		31.109686	9.517009	-160.350332
05731		31.218817	9.560014	-160.347220
05732		31.391626	9.586151	-160.390645
05733		31.570918	9.561569	-160.411525
05734		31.702641	9.523288	-160.360275
05735		31.769692	9.484153	-160.231716
05736		31.819065	9.419530	-160.059090
05737		31.884005	9.277968	-159.842467
05738		31.869980	9.123913	-159.551016
05739		31.788817	8.907154	-159.209333
05740		31.734617	8.659063	-158.838581
05741		31.635528	8.379097	-158.442811
05742		31.411388	8.062552	-157.979083
05743		31.164482	7.742124	-157.527937
05744		30.952931	7.409721	-157.112887
05745		30.778811	7.036021	-156.691313
05746		30.527829	6.608216	-156.206678
05747		30.234719	6.227344	-155.739810
05748		30.192571	6.018835	-155.378231
05749		30.552045	5.370943	-155.167963
05750		30.757412	4.896080	-155.018128
05751		31.105944	4.517323	-154.903514
05752		31.584769	4.175739	-154.877799
05753		32.118078	3.855809	-154.892637
05754		32.620986	3.576904	-154.863778
05755		32.965646	3.288587	-154.766189
05756		33.298640	2.965117	-154.618816
05757		33.730148	2.588342	-154.410687
05758		34.293187	2.165740	-154.141852
05759		34.970787	1.699119	-153.846802
05760		35.736088	1.212349	-153.556986
05761		36.313455	0.739526	-153.307280
05762		36.673570	0.296232	-153.103737
05763		36.923169	-0.095571	-152.917015
05764		37.106051	-0.445414	-152.770608
05765		37.342507	-0.786679	-152.655484
05766		37.605162	-1.136464	-152.552590
05767		37.801217	-1.481938	-152.431927
05768		37.926891	-1.813686	-152.295577
05769		38.021470	-2.126631	-152.155385
05770		38.140023	-2.418841	-152.025449
05771		38.305389	-2.693229	-151.904607
05772		38.480476	-2.926587	-151.800853
05773		38.627760	-3.100669	-151.730177
05774		38.765800	-3.202007	-151.675348
05775		38.905476	-3.204372	-151.613654
05776		38.967904	-3.136973	-151.539694
05777		38.929611	-3.072847	-151.454857
05778		38.839795	-3.043810	-151.448581
05779		38.814014	-3.022954	-151.492137
05780		38.833785	-2.994177	-151.536772
05781		38.731495	-2.983708	-151.591365
05782		38.642633	-2.971491	-151.661013
05783		38.670066	-2.947153	-151.745467
05784		38.808658	-2.931871	-151.856026
05785		38.947809	-2.931187	-151.995058
05786		39.036799	-2.900529	-152.116121
05787		38.938819	-2.841042	-152.226631
05788		38.742319	-2.749073	-152.309088
05789		38.647842	-2.679045	-152.406711
05790		38.641814	-2.658183	-152.448389
05791		38.488430	-2.632315	-152.461288
05792		38.355103	-2.626257	-152.468883
05793		38.346667	-2.653968	-152.475677
05794		38.354441	-2.698870	-152.481332
05795		38.393513	-2.763084	-152.495997
05796		38.425756	-2.837290	-152.511937
05797		38.457439	-2.891890	-152.525474
05798		38.494330	-2.938426	-152.531506
05799		38.530073	-2.981722	-152.534182
05800		38.553217	-3.021028	-152.532188
05801		38.555946	-3.043908	-152.525109
05802		38.560782	-3.059252	-152.515961
05803		38.589674	-3.076988	-152.501821
05804		38.639035	-3.109966	-152.476465
05805		38.643101	-3.145487	-152.459630
05806		38.645082	-3.166579	-152.445981
05807		38.666091	-3.198699	-152.438463
05808		38.694142	-3.217737	-152.433854
05809		38.704298	-3.236187	-152.431676
05810		38.724340	-3.248880	-152.430920
05811		38.750812	-3.256083	-152.434936
05812		38.765151	-3.256495	-152.434213
05813		38.792886	-3.269277	-152.431000
05814		38.794286	-3.278981	-152.428737
05815		38.793621	-3.294436	-152.428815
05816		38.791397	-3.298599	-152.434829
05817		38.791504	-3.295015	-152.437304
05818		38.818353	-3.297757	-152.435368
05819		38.828841	-3.303473	-152.427401
05820		38.827885	-3.320908	-152.414756
05821		38.813958	-3.334576	-152.406558
05822		38.811712	-3.343505	-152.406737
05823		38.817977	-3.348915	-152.411855
05824		38.824987	-3.349577	-152.415762
05825		38.815453	-3.342601	-152.410471
05826		38.780011	-3.317277	-152.395505
05827		38.715537	-3.275401	-152.364787
05828		38.662272	-3.231483	-152.328563
05829		38.573548	-3.175404	-152.277199
05830		38.449712	-3.105756	-152.206896
05831		38.341144	-3.037035	-152.144495
05832		38.285500	-2.998604	-152.102472
05833		38.290830	-2.994424	-152.099984
05834		38.356440	-3.025656	-152.138773
05835		38.417535	-3.062772	-152.174707
05836		38.393492	-3.089001	-152.188259
05837		38.328015	-3.098135	-152.179394
05838		38.253916	-3.074485	-152.150311
05839		38.116477	-2.999347	-152.078156
05840		37.919456	-2.866155	-151.986181
05841		37.725446	-2.703827	-151.894522
05842		37.554879	-2.526452	-151.811125
05843		37.451532	-2.376126	-151.759819
05844		37.440744	-2.263446	-151.775063
05845		37.510269	-2.180196	-151.816980
05846		37.527637	-2.095692	-151.852296
05847		37.478254	-2.002283	-151.876715
05848		37.435515	-1.894938	-151.884561
05849		37.427781	-1.771403	-151.883556
05850		37.366697	-1.606720	-151.883359
05851		37.259733	-1.391387	-151.889886
05852		37.196512	-1.133291	-151.917598
05853		37.156245	-0.818631	-151.950381
05854		37.016121	-0.427542	-151.991929
05855		36.823397	0.023311	-152.044645
05856		36.673748	0.504429	-152.081250
05857		36.549584	1.003951	-152.083577
05858		36.316416	1.464867	-152.057889
05859		35.972869	1.889994	-152.026833
05860		35.481858	2.335394	-152.034611
05861		35.231228	2.798207	-152.075988
05862		35.079775	3.212954	-152.153220
05863		34.974564	3.613015	-152.234312
05864		34.704680	4.001996	-152.313085
05865		34.341300	4.400995	-152.410854
05866		33.947735	4.835492	-152.587567
05867		33.878443	5.307514	-152.813418
05868		34.163002	5.759483	-153.020283
05869		34.339781	6.100339	-153.125045
05870		33.632260	6.368847	-153.293622
05871		32.985562	6.764382	-153.556469
05872		32.653158	7.111034	-153.824674
05873		32.368812	7.433317	-154.064546
05874		32.073994	7.758269	-154.319254
05875		31.824753	8.050651	-154.590607
05876		31.652105	8.313419	-154.869948
05877		31.572548	8.555734	-155.171060
05878		31.520563	8.770359	-155.491176
05879		31.462815	8.969789	-155.815841
05880		31.388446	9.142595	-156.134325
05881		31.358789	9.320917	-156.451324
05882		31.383551	9.466774	-156.763107
05883		31.395626	9.601196	-157.064147
05884		31.359272	9.757105	-157.369284
05885		31.356250	9.900296	-157.672963
05886		31.355702	10.030135	-157.994402
05887		31.361742	10.167533	-158.327062
05888		31.361887	10.308134	-158.658558
05889		31.293581	10.475740	-159.018505
05890		31.213189	10.656752	-159.393082
05891		31.093020	10.829982	-159.749707
05892		30.903273	11.009927	-160.076164
05893		30.705779	11.189776	-160.380541
05894		30.456024	11.367092	-160.686801
05895		30.228801	11.526730	-161.000945
05896		30.096231	11.652176	-161.327629
05897		29.997765	11.750674	-161.671713
05898		29.934513	11.840122	-162.008412
05899		29.804584	11.948597	-162.321471
05900		29.620423	12.040995	-162.590369
05901		29.438526	12.122438	-162.794241
05902		29.280972	12.191983	-162.948192
05903		29.098193	12.252190	-163.092384
05904		28.867182	12.287503	-163.215078
05905		28.644102	12.296134	-163.314908
05906		28.483611	12.271223	-163.400314
05907		28.410310	12.215742	-163.487680
05908		28.381639	12.158873	-163.577500
05909		28.324851	12.111436	-163.681185
05910		28.338832	12.056596	-163.786290
05911		28.379125	12.000828	-163.897765
05912		28.399702	11.953251	-164.005364
05913		28.322623	11.938046	-164.109115
05914		28.212767	11.944716	-164.213674
05915		28.078341	11.981350	-164.333452
05916		27.873039	12.050882	-164.473644
05917		27.652364	12.177802	-164.663345
05918		27.386257	12.367661	-164.932592
05919		27.072179	12.610904	-165.274739
05920		26.771053	12.872190	-165.678797
05921		26.552558	13.113354	-166.091270
05922		26.422790	13.297504	-166.429613
05923		26.367652	13.409987	-166.648785
05924		26.301585	13.466154	-166.753309
05925		26.223933	13.480654	-166.789896
05926		26.181474	13.458251	-166.769146
05927		26.207165	13.434246	-166.719548
05928		26.275086	13.424667	-166.681924
05929		26.233686	13.423509	-166.668430
05930		26.173371	13.404750	-166.661792
05931		26.259629	13.352740	-166.645416
05932		26.347844	13.302379	-166.614884
05933		26.345768	13.263458	-166.582645
05934		26.355100	13.229013	-166.551795
05935		26.316244	13.206746	-166.529585
05936		26.283052	13.178422	-166.520058
05937		26.326321	13.141934	-166.516644
05938		26.425347	13.107085	-166.506604
05939		26.460976	13.078369	-166.489357
05940		26.478193	13.044180	-166.460722
05941		26.531030	13.010544	-166.440120
05942		26.564932	12.985359	-166.423961
05943		26.550783	12.974919	-166.416528
05944		26.548485	12.956886	-166.404046
05945		26.574478	12.928591	-166.388744
05946		26.611742	12.894037	-166.356718
05947		26.639079	12.855292	-166.322921
05948		26.635333	12.824633	-166.292207
05949		26.632675	12.800802	-166.269150
05950		26.654614	12.775859	-166.247061
05951		26.672427	12.751047	-166.230304
05952		26.703085	12.728568	-166.214416
05953		26.747485	12.708240	-166.192805
05954		26.780671	12.684600	-166.166303
05955		26.809534	12.657383	-166.133551
05956		26.845629	12.620431	-166.090014
05957		26.907826	12.581368	-166.058320
05958		27.024906	12.527526	-166.022564
05959		27.147049	12.484249	-165.956984
05960		27.268574	12.485897	-165.874869
05961		27.396685	12.521225	-165.804914
05962		27.455253	12.552656	-165.756095
05963		27.378174	12.617623	-165.719396
05964		27.297818	12.677826	-165.685540
05965		27.278129	12.724521	-165.653277
05966		27.311518	12.736926	-165.618627
05967		27.326667	12.744431	-165.563368
05968		27.373495	12.754660	-165.484361
05969		27.379427	12.766461	-165.409565
05970		27.323840	12.794778	-165.336792
05971		27.261413	12.864450	-165.273850
05972		27.274820	12.970324	-165.189755
05973		27.330978	13.058681	-165.101035
05974		27.237725	13.166759	-165.031512
05975		27.340005	13.232581	-165.016392
05976		27.447075	13.261465	-164.979402
05977		27.433027	13.325706	-164.956388
05978		27.364345	13.393085	-164.928175
05979		27.202881	13.479406	-164.898202
05980		27.170572	13.546224	-164.906516
05981		27.319775	13.566352	-164.900056
05982		27.533564	13.570490	-164.887119
05983		27.695247	13.555654	-164.888464
05984		27.709881	13.555480	-164.893816
05985		27.689490	13.547248	-164.905422
05986		27.644084	13.543195	-164.920280
05987		27.616217	13.531391	-164.924385
05988		27.623785	13.508432	-164.909398
05989		27.660821	13.491516	-164.884551
05990		27.720239	13.477618	-164.866726
05991		27.756644	13.457874	-164.865772
05992		27.762291	13.444696	-164.866261
05993		27.760018	13.435226	-164.872924
05994		27.770242	13.438761	-164.875304
05995		27.796988	13.437899	-164.871754
05996		27.818195	13.416540	-164.864601
05997		27.846360	13.391705	-164.857900
05998		27.869561	13.377402	-164.852959
05999		27.879617	13.350375	-164.848512
06000		27.941994	13.312727	-164.853101
06001		27.990898	13.289239	-164.886427
06002		27.998499	13.258128	-164.906513
06003		28.110948	13.216671	-164.918891
06004		28.282180	13.180666	-164.929084
06005		28.414308	13.147131	-164.916025
06006		28.481415	13.140151	-164.899433
06007		28.507529	13.137061	-164.878394
06008		28.558496	13.121586	-164.855737
06009		28.629391	13.101179	-164.835006
06010		28.743140	13.079953	-164.809434
06011		28.831443	13.067056	-164.776629
06012		28.799565	13.047134	-164.733324
06013		28.721411	12.994828	-164.668736
06014		28.707665	12.927432	-164.583816
06015		28.741138	12.860938	-164.495483
06016		28.756981	12.817217	-164.410396
06017		28.755970	12.780439	-164.334035
06018		28.783911	12.744730	-164.262463
06019		28.839325	12.703985	-164.201059
06020		28.937124	12.663545	-164.149096
06021		29.132855	12.646086	-164.132334
06022		29.371430	12.663991	-164.140830
06023		29.595912	12.695920	-164.143566
06024		29.750435	12.731406	-164.137911
06025		29.856044	12.766322	-164.077641
06026		29.952888	12.799536	-163.975370
06027		30.026651	12.839984	-163.862134
06028		30.088266	12.886759	-163.744907
06029		30.141861	12.913805	-163.620165
06030		30.199568	12.893892	-163.466102
06031		30.245552	12.821165	-163.257385
06032		30.291202	12.686582	-162.971278
06033		30.357880	12.517585	-162.641961
06034		30.427587	12.338926	-162.300120
06035		30.454839	12.146083	-161.876634
06036		30.525911	12.002958	-161.508163
06037		30.566524	11.949784	-161.266077
06038		30.488297	11.937606	-161.050007
06039		30.357117	11.895736	-160.767741
06040		30.261338	11.827729	-160.472648
06041		30.224360	11.740254	-160.204287
06042		30.174489	11.648839	-159.911652
06043		30.088035	11.573147	-159.589156
06044		30.085097	11.483522	-159.319425
06045		30.118932	11.374471	-159.071322
06046		30.102541	11.251002	-158.769882
06047		30.001974	11.130402	-158.381655
06048		29.940050	10.987014	-157.964540
06049		29.921456	10.824019	-157.547176
06050		29.910943	10.664925	-157.048632
06051		29.797741	10.572220	-156.478777
06052		29.689258	10.466786	-155.956962
06053		29.645765	10.356554	-155.475107
06054		29.554421	10.254624	-155.016977
06055		29.439601	10.154506	-154.596207
06056		29.366029	10.021649	-154.221754
06057		29.317967	9.869392	-153.894377
06058		29.236170	9.712301	-153.614452
06059		29.149934	9.561706	-153.378195
06060		29.092714	9.399724	-153.155247
06061		29.042703	9.235259	-152.938957
06062		29.004110	9.083169	-152.746527
06063		29.018223	8.935118	-152.597077
06064		29.087677	8.770546	-152.452082
06065		29.094642	8.618252	-152.297882
06066		29.166403	8.381045	-152.126755
06067		29.421256	8.061484	-151.977504
06068		29.583047	7.735156	-151.875706
06069		29.681707	7.417653	-151.763292
06070		29.737609	7.083912	-151.611304
06071		29.825155	6.723652	-151.443687
06072		30.079012	6.342138	-151.275439
06073		30.494415	5.930342	-151.088726
06074		30.977745	5.501064	-150.871784
06075		31.530250	5.045247	-150.650689
06076		32.273398	4.567003	-150.444262
06077		33.043596	4.074958	-150.275441
06078		33.621928	3.577236	-150.179991
06079		34.019019	3.064235	-150.122744
06080		34.397020	2.537687	-150.056988
06081		34.799203	2.005087	-149.975737
06082		35.186630	1.463143	-149.899308
06083		35.571397	0.940282	-149.840233
06084		35.970352	0.448494	-149.798908
06085		36.338487	-0.015436	-149.768083
06086		36.680547	-0.415509	-149.754644
06087		36.984539	-0.736608	-149.768109
06088		37.181774	-0.966237	-149.802939
06089		37.286402	-1.103141	-149.850788
06090		37.393534	-1.184425	-149.916229
06091		37.454792	-1.231439	-149.958392
06092		37.453071	-1.254186	-149.973537
06093		37.452367	-1.273931	-149.965976
06094		37.475302	-1.321990	-149.943723
06095		37.496652	-1.366908	-149.908666
06096		37.527713	-1.424119	-149.884629
06097		37.541894	-1.467313	-149.866587
06098		37.567457	-1.500054	-149.845403
06099		37.579323	-1.513499	-149.815594
06100		37.613862	-1.505540	-149.782140
06101		37.676926	-1.500737	-149.757909
06102		37.723730	-1.509079	-149.731209
06103		37.713244	-1.508442	-149.691630
06104		37.700314	-1.499682	-149.664275
06105		37.733791	-1.505554	-149.640849
06106		37.753102	-1.500537	-149.620307
06107		37.765314	-1.487373	-149.601634
06108		37.776198	-1.466912	-149.589046
06109		37.810939	-1.454378	-149.570916
06110		37.790536	-1.447860	-149.573844
06111		37.807333	-1.466452	-149.621238
06112		37.781359	-1.476728	-149.673805
06113		37.764651	-1.422119	-149.691490
06114		37.671554	-1.383464	-149.682574
06115		37.581988	-1.375690	-149.696498
06116		37.521592	-1.356994	-149.770454
06117		37.662658	-1.326562	-149.892213
06118		37.791295	-1.279505	-150.040426
06119		37.766292	-1.204879	-150.198025
06120		37.625935	-1.137613	-150.337041
06121		37.457143	-1.071075	-150.467633
06122		37.309990	-1.019691	-150.599983
06123		37.153511	-0.997374	-150.692883
06124		36.879914	-0.971444	-150.771033
06125		36.735686	-0.975605	-150.832478
06126		36.689833	-0.985632	-150.861251
06127		36.714072	-1.019627	-150.880643
06128		36.775677	-1.065719	-150.900540
06129		36.843337	-1.135105	-150.926064
06130		36.907431	-1.222290	-150.952534
06131		36.903951	-1.289780	-150.963041
06132		36.865643	-1.334378	-150.969629
06133		36.874598	-1.369734	-150.971624
06134		36.898234	-1.385109	-150.966111
06135		36.913107	-1.387717	-150.947406
06136		36.929539	-1.386022	-150.930297
06137		36.948229	-1.388699	-150.916559
06138		36.958431	-1.392339	-150.917016
06139		36.977981	-1.405017	-150.925706
06140		37.002748	-1.429149	-150.931447
06141		37.007519	-1.451286	-150.927055
06142		37.031310	-1.472892	-150.910647
06143		37.068954	-1.492400	-150.902243
06144		37.098244	-1.506222	-150.897738
06145		37.117174	-1.522819	-150.897858
06146		37.127852	-1.544157	-150.889167
06147		37.164169	-1.563875	-150.872161
06148		37.172114	-1.585025	-150.862416
06149		37.231390	-1.602859	-150.849622
06150		37.242670	-1.611231	-150.836019
06151		37.230752	-1.594417	-150.812385
06152		37.160458	-1.555921	-150.787298
06153		37.121872	-1.506399	-150.753183
06154		37.008705	-1.432610	-150.708991
06155		36.857191	-1.340598	-150.642764
06156		36.689553	-1.238260	-150.556882
06157		36.498677	-1.124459	-150.454801
06158		36.287267	-1.001914	-150.336171
06159		36.093634	-0.893771	-150.224720
06160		35.957813	-0.802190	-150.163810
06161		35.831039	-0.712938	-150.132218
06162		35.665845	-0.594534	-150.122808
06163		35.486639	-0.458126	-150.117857
06164		35.238910	-0.270243	-150.169261
06165		35.113697	-0.032769	-150.292426
06166		34.879371	0.284433	-150.432399
06167		34.639364	0.648006	-150.605532
06168		34.435933	1.063069	-150.805703
06169		34.224003	1.538893	-151.028976
06170		33.985203	2.074564	-151.268790
06171		33.757926	2.632658	-151.493004
06172		33.547166	3.196343	-151.694112
06173		33.365864	3.771610	-151.868880
06174		33.211094	4.328199	-152.044825
06175		33.208577	4.863827	-152.215741
06176		33.294859	5.337924	-152.385831
06177		33.454652	5.764592	-152.551504
06178		33.634881	6.112899	-152.704566
06179		33.704364	6.412576	-152.847015
06180		33.610474	6.720559	-153.022012
06181		33.521834	7.064588	-153.230435
06182		33.164140	7.259399	-153.464962
06183		32.438758	7.479977	-153.739888
06184		31.926661	7.820946	-154.064687
06185		31.708164	8.141004	-154.377265
06186		31.608930	8.420863	-154.677393
06187		31.451527	8.668049	-154.983131
06188		31.267409	8.898293	-155.245760
06189		31.098487	9.099301	-155.468596
06190		30.988188	9.257387	-155.658626
06191		30.892275	9.380690	-155.832902
06192		30.815045	9.462403	-155.983992
06193		30.772967	9.479683	-156.122264
06194		30.843416	9.427747	-156.268315
06195		30.963230	9.333299	-156.413924
06196		31.016134	9.263387	-156.575134
06197		31.035507	9.226687	-156.745334
06198		31.053716	9.218504	-156.937732
06199		31.096513	9.223355	-157.123727
06200		31.129916	9.234155	-157.294526
06201		31.113409	9.261074	-157.447761
06202		31.062625	9.295193	-157.582951
06203		31.031311	9.330536	-157.707147
06204		31.024960	9.350030	-157.821926
06205		31.025644	9.357346	-157.921388
06206		30.982953	9.370421	-158.013910
06207		30.914076	9.395103	-158.105051
06208		30.837141	9.423376	-158.212581
06209		30.795331	9.454352	-158.332751
06210		30.739015	9.489737	-158.458577
06211		30.641363	9.523748	-158.580367
06212		30.567137	9.553351	-158.711708
06213		30.585488	9.571829	-158.869326
06214		30.583096	9.599191	-159.057540
06215		30.565344	9.639992	-159.273846
06216		30.596678	9.682249	-159.497802
06217		30.621215	9.731987	-159.738307
06218		30.606330	9.782307	-159.981084
06219		30.540648	9.845521	-160.204538
06220		30.446450	9.919256	-160.420714
06221		30.378651	9.985802	-160.647619
06222		30.358845	10.044416	-160.871773
06223		30.312206	10.097804	-161.079606
06224		30.227122	10.153320	-161.273189
06225		30.088638	10.220316	-161.472915
06226		29.969327	10.319774	-161.711707
06227		29.904154	10.417268	-161.984263
06228		29.818076	10.511761	-162.247446
06229		29.661583	10.591536	-162.483303
06230		29.499714	10.629661	-162.677208
06231		29.296176	10.636191	-162.843451
06232		29.099459	10.620237	-162.982602
06233		28.984698	10.594771	-163.111227
06234		28.953985	10.592382	-163.254349
06235		28.909860	10.621770	-163.416212
06236		28.855667	10.691481	-163.610180
06237		28.859074	10.774845	-163.834570
06238		28.859874	10.887610	-164.090222
06239		28.851728	11.029145	-164.366135
06240		28.947830	11.161275	-164.641483
06241		29.038727	11.285319	-164.935462
06242		29.178063	11.393255	-165.231485
06243		29.376584	11.484867	-165.486021
06244		29.506670	11.578803	-165.683793
06245		29.558265	11.653022	-165.824303
06246		29.659483	11.679027	-165.901544
06247		29.795924	11.671202	-165.926558
06248		29.856904	11.647973	-165.916960
06249		29.907707	11.614934	-165.882857
06250		29.938463	11.575078	-165.837654
06251		29.987604	11.530204	-165.806654
06252		30.023336	11.481069	-165.795498
06253		30.111589	11.432130	-165.808093
06254		30.190776	11.391980	-165.830379
06255		30.290865	11.354518	-165.844602
06256		30.379479	11.319730	-165.848929
06257		30.466911	11.299547	-165.831631
06258		30.554873	11.286724	-165.815453
06259		30.579693	11.284118	-165.799155
06260		30.577394	11.300923	-165.796313
06261		30.567357	11.310449	-165.800680
06262		30.563939	11.306537	-165.804410
06263		30.579556	11.304672	-165.822254
06264		30.586832	11.316581	-165.839054
06265		30.541915	11.327295	-165.837308
06266		30.522600	11.334602	-165.815599
06267		30.537454	11.361667	-165.787316
06268		30.564223	11.395547	-165.745389
06269		30.538345	11.433509	-165.689174
06270		30.402722	11.491982	-165.597260
06271		30.230966	11.600982	-165.470241
06272		30.136771	11.757592	-165.351433
06273		30.086439	11.886602	-165.255315
06274		29.886051	11.969191	-165.174219
06275		29.727525	12.013882	-165.126906
06276		29.640609	12.039115	-165.082696
06277		29.584073	12.058231	-165.032705
06278		29.535591	12.056742	-164.976556
06279		29.501025	12.073126	-164.933881
06280		29.476177	12.108297	-164.916815
06281		29.530456	12.113849	-164.905707
06282		29.683748	12.076119	-164.901232
06283		29.842122	12.032039	-164.925147
06284		29.891239	12.008050	-164.949657
06285		29.821297	12.002393	-164.968475
06286		29.805489	12.019950	-164.977024
06287		29.853987	12.047000	-164.991229
06288		29.885359	12.063692	-164.991222
06289		29.911361	12.072897	-164.985858
06290		29.963588	12.077958	-164.974473
06291		30.013394	12.077137	-164.963943
06292		30.053779	12.076087	-164.957103
06293		30.099564	12.076952	-164.949556
06294		30.132281	12.076387	-164.935713
06295		30.171241	12.070968	-164.916475
06296		30.221839	12.064169	-164.908137
06297		30.228819	12.056378	-164.908016
06298		30.222006	12.057715	-164.926691
06299		30.202241	12.061902	-164.965140
06300		30.141187	12.076791	-165.018188
06301		30.039465	12.090573	-165.068663
06302		29.963679	12.097649	-165.096387
06303		29.953544	12.090590	-165.094138
06304		29.983489	12.059291	-165.078663
06305		30.025988	12.029603	-165.073403
06306		30.010858	12.017613	-165.086998
06307		29.930469	12.003514	-165.101985
06308		29.882176	11.971674	-165.120019
06309		29.914059	11.968801	-165.145161
06310		29.969902	11.969040	-165.155824
06311		29.992496	11.954044	-165.137533
06312		30.048012	11.930896	-165.110910
06313		30.135007	11.899746	-165.086431
06314		30.215303	11.865963	-165.070699
06315		30.245720	11.852101	-165.061685
06316		30.261743	11.853051	-165.053235
06317		30.295615	11.855376	-165.050898
06318		30.296727	11.865325	-165.007051
06319		30.307204	11.846298	-164.952084
06320		30.334420	11.830977	-164.901104
06321		30.394650	11.816204	-164.838959
06322		30.434481	11.811248	-164.767206
06323		30.460072	11.819773	-164.687885
06324		30.477281	11.825604	-164.609944
06325		30.509274	11.819200	-164.528982
06326		30.566650	11.812745	-164.446599
06327		30.640800	11.806772	-164.362417
06328		30.712372	11.803169	-164.282095
06329		30.799630	11.824332	-164.244196
06330		30.885731	11.875206	-164.252176
06331		30.967158	11.942903	-164.259034
06332		31.046730	11.999160	-164.234333
06333		31.133329	12.049743	-164.179844
06334		31.208729	12.093859	-164.102270
06335		31.279179	12.133982	-164.023714
06336		31.357103	12.155600	-163.934408
06337		31.445656	12.164253	-163.841705
06338		31.529622	12.159533	-163.750459
06339		31.595738	12.142168	-163.641213
06340		31.640790	12.121702	-163.534541
06341		31.708947	12.111251	-163.474230
06342		31.804355	12.110485	-163.450576
06343		31.905042	12.107353	-163.455260
06344		32.032800	12.095762	-163.482227
06345		32.165503	12.088715	-163.512493
06346		32.245291	12.080195	-163.501531
06347		32.280005	12.055982	-163.456501
06348		32.321581	12.033832	-163.432906
06349		32.383092	12.000996	-163.398114
06350		32.448784	11.944713	-163.310749
06351		32.505199	11.869724	-163.186500
06352		32.580381	11.811150	-163.068343
06353		32.650594	11.743585	-162.938797
06354		32.688537	11.667529	-162.788660
06355		32.737651	11.604383	-162.669878
06356		32.780579	11.555300	-162.590547
06357		32.771979	11.481627	-162.496065
06358		32.711678	11.386654	-162.366401
06359		32.699262	11.292844	-162.248267
06360		32.701659	11.189921	-162.113772
06361		32.638524	11.062887	-161.928934
06362		32.568431	10.932745	-161.732258
06363		32.540489	10.832221	-161.562515
06364		32.503131	10.737328	-161.387426
06365		32.425908	10.640491	-161.179729
06366		32.385891	10.545192	-160.954690
06367		32.382597	10.441644	-160.709861
06368		32.311039	10.310061	-160.421756
06369		32.104449	10.170200	-160.087474
06370		32.013534	10.110490	-159.835168
06371		32.018617	10.098881	-159.692334
06372		32.035550	10.048939	-159.561952
06373		31.898874	9.973946	-159.356956
06374		31.689646	9.882171	-159.113138
06375		31.537389	9.775317	-158.887897
06376		31.430323	9.638749	-158.655058
06377		31.300069	9.491736	-158.386336
06378		31.207427	9.346936	-158.139579
06379		31.169872	9.204645	-157.909378
06380		31.083411	9.022423	-157.621863
06381		30.878121	8.767164	-157.207211
06382		30.577287	8.434925	-156.653740
06383		30.294951	8.004898	-156.011474
06384		30.019894	7.563116	-155.342151
06385		29.841309	7.245130	-154.771963
06386		29.905514	6.723398	-154.371838
06387		29.961116	6.198012	-154.049123
06388		29.952368	5.823520	-153.830897
06389		30.023627	5.462413	-153.668127
06390		30.144805	5.109808	-153.525904
06391		30.312566	4.776752	-153.390830
06392		30.550586	4.449511	-153.242168
06393		30.863797	4.127349	-153.085029
06394		31.205810	3.818909	-152.914960
06395		31.612458	3.535417	-152.722861
06396		32.089400	3.261259	-152.513390
06397		32.574226	2.983685	-152.282182
06398		33.009916	2.705343	-152.043646
06399		33.401008	2.417609	-151.802649
06400		33.691633	2.146982	-151.570070
06401		33.916403	1.900634	-151.370360
06402		34.099732	1.678572	-151.193090
06403		34.251535	1.469159	-151.045144
06404		34.397718	1.265736	-150.921401
06405		34.541730	1.075487	-150.820749
06406		34.671865	0.896656	-150.740902
06407		34.799640	0.735353	-150.662055
06408		34.939061	0.585740	-150.606323
06409		35.046206	0.460896	-150.574749
06410		35.157205	0.363491	-150.558679
06411		35.293397	0.269453	-150.559177
06412		35.396246	0.188874	-150.589413
06413		35.475717	0.118839	-150.620203
06414		35.524927	0.050233	-150.638798
06415		35.573981	-0.013937	-150.647246
06416		35.629782	-0.062615	-150.643893
06417		35.678775	-0.100582	-150.619187
06418		35.713219	-0.110770	-150.581152
06419		35.732745	-0.097840	-150.551377
06420		35.787352	-0.069765	-150.531322
06421		35.758068	-0.062496	-150.531298
06422		35.784012	-0.030377	-150.558132
06423		35.775935	-0.008402	-150.595362
06424		35.803449	0.043071	-150.637323
06425		35.674039	0.094451	-150.675268
06426		35.599378	0.134090	-150.704944
06427		35.708830	0.124303	-150.742279
06428		35.990557	0.079224	-150.825624
06429		36.438879	0.028396	-150.915671
06430		36.633358	0.021822	-150.968700
06431		36.669307	0.048867	-151.051531
06432		36.716713	0.094228	-151.126502
06433		36.697685	0.151721	-151.191669
06434		36.656870	0.223399	-151.258269
06435		36.736377	0.262154	-151.332219
06436		36.684942	0.283562	-151.396629
06437		36.541055	0.315037	-151.442074
06438		36.433204	0.341666	-151.477195
06439		36.393834	0.345901	-151.509342
06440		36.397431	0.337138	-151.526143
06441		36.472398	0.311579	-151.530549
06442		36.571470	0.267231	-151.544199
06443		36.645991	0.232561	-151.557921
06444		36.664784	0.195246	-151.569773
06445		36.680389	0.183012	-151.577358
06446		36.708239	0.169237	-151.579271
06447		36.707893	0.169039	-151.580111
06448		36.735238	0.165826	-151.566585
06449		36.745951	0.159887	-151.552815
06450		36.748284	0.153009	-151.540832
06451		36.764552	0.145034	-151.528868
06452		36.791061	0.135727	-151.524017
06453		36.820713	0.117959	-151.516630
06454		36.852546	0.100795	-151.510873
06455		36.885938	0.084759	-151.494093
06456		36.902127	0.071624	-151.473282
06457		36.921110	0.065380	-151.448048
06458		36.919791	0.065650	-151.425651
06459		36.917964	0.080042	-151.398989
06460		36.915661	0.100673	-151.369729
06461		36.886333	0.139558	-151.336267
06462		36.836228	0.188720	-151.308924
06463		36.812586	0.236664	-151.291540
06464		36.764152	0.291620	-151.274124
06465		36.693066	0.353043	-151.248633
06466		36.628715	0.425793	-151.216758
06467		36.545472	0.505211	-151.169770
06468		36.447684	0.575268	-151.116529
06469		36.331458	0.658033	-151.056877
06470		36.167255	0.774127	-150.980046
06471		35.983282	0.912476	-150.901853
06472		35.880702	1.034151	-150.851126
06473		35.847330	1.169077	-150.848078
06474		35.822665	1.336044	-150.915577
06475		35.897045	1.534781	-151.076485
06476		35.891904	1.768349	-151.163950
06477		35.634811	2.126117	-151.232258
06478		35.323430	2.520661	-151.248087
06479		34.926026	2.984171	-151.254634
06480		34.619680	3.464864	-151.294095
06481		34.365579	3.952433	-151.371537
06482		34.071384	4.457190	-151.503626
06483		33.801772	4.945671	-151.676226
06484		33.547149	5.426914	-151.870858
06485		33.279684	5.890441	-152.073119
06486		33.055814	6.340802	-152.286184
06487		32.997886	6.764372	-152.486385
06488		32.965830	7.162392	-152.675497
06489		32.916833	7.529222	-152.846861
06490		32.636668	7.749934	-153.092818
06491		32.116803	8.201336	-153.409045
06492		32.177456	8.601951	-153.677987
06493		32.380234	8.739467	-153.904058
06494		32.040584	8.948452	-154.211005
06495		31.802531	9.169721	-154.543306
06496		31.774202	9.355637	-154.840828
06497		31.770264	9.523516	-155.101077
06498		31.731744	9.677987	-155.348715
06499		31.705760	9.801316	-155.578528
06500		31.640117	9.921251	-155.792940
06501		31.568162	10.044784	-155.992189
06502		31.521031	10.164384	-156.178200
06503		31.425466	10.265022	-156.348181
06504		31.315505	10.354009	-156.507286
06505		31.234882	10.422855	-156.667632
06506		31.157994	10.486132	-156.823807
06507		31.020206	10.561243	-156.983742
06508		30.894880	10.653794	-157.151302
06509		30.778538	10.755182	-157.340235
06510		30.657194	10.860495	-157.546722
06511		30.513371	10.973429	-157.775690
06512		30.423080	11.072900	-158.013225
06513		30.390892	11.142384	-158.242066
06514		30.326811	11.194903	-158.463236
06515		30.279659	11.244329	-158.671025
06516		30.248409	11.291957	-158.878864
06517		30.240173	11.334399	-159.091879
06518		30.219671	11.380924	-159.326070
06519		30.204532	11.426472	-159.568361
06520		30.204536	11.458329	-159.802610
06521		30.252307	11.450191	-160.035460
06522		30.373559	11.392388	-160.242520
06523		30.585335	11.304576	-160.415785
06524		30.749848	11.230579	-160.572497
06525		30.854822	11.168514	-160.717503
06526		30.961641	11.114132	-160.842362
06527		31.004789	11.073597	-160.962751
06528		30.995491	11.023521	-161.070640
06529		31.001823	10.954729	-161.168998
06530		31.024158	10.875600	-161.261417
06531		31.011091	10.799876	-161.332256
06532		30.995495	10.733358	-161.400568
06533		30.974122	10.689506	-161.480460
06534		30.927180	10.683247	-161.570609
06535		30.855343	10.703362	-161.688862
06536		30.766124	10.725971	-161.790338
06537		30.719583	10.761049	-161.872461
06538		30.667994	10.801935	-161.957590
06539		30.557199	10.831315	-162.021861
06540		30.396312	10.889182	-162.083657
06541		30.242684	10.958257	-162.173027
06542		30.103109	11.027048	-162.288274
06543		30.002947	11.085260	-162.408493
06544		29.935390	11.151272	-162.542478
06545		29.843477	11.234651	-162.687741
06546		29.792138	11.331935	-162.848249
06547		29.721019	11.453567	-163.032784
06548		29.645473	11.601205	-163.250022
06549		29.550240	11.770008	-163.478538
06550		29.423720	11.961141	-163.739864
06551		29.368426	12.159386	-164.037099
06552		29.519447	12.335005	-164.371548
06553		29.764596	12.550109	-164.732253
06554		29.729602	12.874728	-165.130416
06555		29.443040	13.253372	-165.509904
06556		29.109040	13.582005	-165.801432
06557		28.869363	13.794145	-165.952282
06558		28.709705	13.879427	-165.987957
06559		28.705001	13.857752	-165.969851
06560		28.829054	13.763938	-165.927542
06561		28.986593	13.646923	-165.897101
06562		29.129728	13.541998	-165.882710
06563		29.214529	13.478770	-165.875190
06564		29.242204	13.447457	-165.869430
06565		29.225111	13.427312	-165.845666
06566		29.199374	13.407679	-165.812556
06567		29.225337	13.377406	-165.782858
06568		29.256691	13.360242	-165.764024
06569		29.269832	13.350553	-165.752233
06570		29.290227	13.335991	-165.738701
06571		29.293330	13.325898	-165.721132
06572		29.325090	13.307336	-165.697402
06573		29.350869	13.287018	-165.675009
06574		29.389198	13.267849	-165.651513
06575		29.413528	13.256460	-165.634255
06576		29.431784	13.243662	-165.619553
06577		29.471223	13.216458	-165.594665
06578		29.501962	13.199363	-165.570906
06579		29.511356	13.199291	-165.553118
06580		29.513239	13.203344	-165.528348
06581		29.513267	13.202554	-165.499630
06582		29.522972	13.205707	-165.466045
06583		29.559348	13.217265	-165.428970
06584		29.557599	13.225265	-165.388957
06585		29.547162	13.227967	-165.344987
06586		29.542502	13.259017	-165.286451
06587		29.609824	13.289647	-165.224303
06588		29.646825	13.317699	-165.158329
06589		29.640894	13.344267	-165.088678
06590		29.618627	13.360708	-165.000108
06591		29.547002	13.367672	-164.911609
06592		29.531833	13.403405	-164.832574
06593		29.402868	13.373044	-164.746360
06594		29.481071	13.342861	-164.714522
06595		29.368019	13.368318	-164.638470
06596		29.209561	13.394102	-164.551322
06597		29.111342	13.413337	-164.507375
06598		29.056578	13.434874	-164.496679
06599		29.052858	13.441003	-164.504264
06600		29.033808	13.453002	-164.497098
06601		28.990858	13.480768	-164.520728
06602		28.999199	13.536200	-164.554386
06603		29.005238	13.579099	-164.570799
06604		28.907340	13.636182	-164.578481
06605		28.752936	13.664151	-164.591312
06606		28.689594	13.648813	-164.605157
06607		28.661975	13.622528	-164.615708
06608		28.633221	13.600176	-164.630886
06609		28.617633	13.576719	-164.646459
06610		28.575147	13.557683	-164.659674
06611		28.544075	13.539939	-164.675117
06612		28.543188	13.515957	-164.686283
06613		28.524049	13.496317	-164.691061
06614		28.514459	13.473008	-164.698548
06615		28.496668	13.445939	-164.714997
06616		28.460462	13.402102	-164.730881
06617		28.418868	13.358816	-164.738704
06618		28.385517	13.316936	-164.742961
06619		28.348665	13.299566	-164.744003
06620		28.363651	13.288400	-164.749165
06621		28.388966	13.276824	-164.752002
06622		28.416502	13.272276	-164.764132
06623		28.418783	13.261981	-164.779551
06624		28.428748	13.236150	-164.783413
06625		28.457291	13.203644	-164.778836
06626		28.493918	13.171545	-164.760817
06627		28.545283	13.138659	-164.737287
06628		28.603346	13.123693	-164.722513
06629		28.630247	13.124365	-164.709931
06630		28.645493	13.129659	-164.668852
06631		28.665797	13.111126	-164.621787
06632		28.729112	13.091994	-164.573908
06633		28.820324	13.080173	-164.530307
06634		28.862366	13.085248	-164.489818
06635		28.865399	13.088187	-164.446063
06636		28.876875	13.083984	-164.398269
06637		28.907985	13.074750	-164.346752
06638		28.959861	13.040979	-164.281679
06639		29.045918	12.992203	-164.199220
06640		29.138536	12.952112	-164.121961
06641		29.227907	12.944730	-164.061619
06642		29.274122	12.952361	-164.001661
06643		29.336512	12.960963	-163.957191
06644		29.406751	12.981055	-163.941206
06645		29.459908	12.999259	-163.919502
06646		29.510815	13.003751	-163.906110
06647		29.583519	13.004220	-163.908077
06648		29.660850	13.013569	-163.901437
06649		29.675601	13.041513	-163.871825
06650		29.681110	13.074314	-163.834716
06651		29.721001	13.096793	-163.796017
06652		29.771853	13.120137	-163.762263
06653		29.830796	13.135592	-163.721436
06654		29.900866	13.134252	-163.662466
06655		29.985371	13.125026	-163.599176
06656		30.036804	13.115849	-163.522458
06657		30.102133	13.121828	-163.466180
06658		30.175868	13.156803	-163.451747
06659		30.286394	13.195711	-163.450598
06660		30.416809	13.243650	-163.465971
06661		30.537952	13.282357	-163.479961
06662		30.665520	13.288172	-163.465459
06663		30.797890	13.267083	-163.419885
06664		30.922057	13.248603	-163.370189
06665		31.024469	13.229592	-163.311627
06666		31.133807	13.185159	-163.223367
06667		31.226078	13.140754	-163.113921
06668		31.280308	13.096330	-163.000225
06669		31.315390	13.027671	-162.846497
06670		31.339831	12.923816	-162.659606
06671		31.381152	12.803270	-162.437876
06672		31.428957	12.680365	-162.204031
06673		31.436033	12.550044	-161.947841
06674		31.414692	12.420408	-161.667573
06675		31.468391	12.322115	-161.454974
06676		31.477108	12.255795	-161.270171
06677		31.463632	12.131290	-161.004002
06678		31.462654	12.004637	-160.659572
06679		31.545579	11.896377	-160.323995
06680		31.552401	11.808846	-159.993242
06681		31.400816	11.730235	-159.616500
06682		31.222360	11.640451	-159.226720
06683		31.155003	11.519438	-158.893061
06684		31.107818	11.366505	-158.557731
06685		30.968701	11.174322	-158.160095
06686		30.829587	10.973176	-157.732725
06687		30.832385	10.762252	-157.357636
06688		30.869441	10.551593	-156.985845
06689		30.855620	10.341571	-156.621647
06690		30.986449	10.148357	-156.280070
06691		31.071513	9.746070	-155.897746
06692		31.023462	9.392679	-155.507265
06693		30.909174	9.041283	-155.090060
06694		30.905071	8.644400	-154.695349
06695		31.167302	8.194523	-154.281654
06696		31.629808	7.728130	-153.867511
06697		32.214145	7.246775	-153.494570
06698		32.887871	6.749298	-153.144001
06699		33.402666	6.252093	-152.811637
06700		33.693084	5.792395	-152.510310
06701		33.845849	5.359036	-152.241648
06702		34.027923	4.935268	-152.004929
06703		34.290560	4.505731	-151.792167
06704		34.563605	4.106821	-151.601853
06705		34.764243	3.755366	-151.443997
06706		34.915648	3.433907	-151.309120
06707		35.071841	3.112420	-151.168920
06708		35.212635	2.785395	-150.996032
06709		35.290203	2.478209	-150.817663
06710		35.385321	2.191869	-150.672532
06711		35.515098	1.931616	-150.556039
06712		35.651528	1.705085	-150.495135
06713		35.807245	1.511326	-150.477035
06714		35.976856	1.356266	-150.484748
06715		36.102366	1.244291	-150.498717
06716		36.177838	1.181471	-150.504349
06717		36.251028	1.166548	-150.499800
06718		36.302249	1.159200	-150.497117
06719		36.326833	1.139146	-150.542137
06720		36.393398	1.125600	-150.569995
06721		36.386049	1.118042	-150.591937
06722		36.330878	1.114319	-150.628776
06723		36.306821	1.106651	-150.687632
06724		36.285237	1.100583	-150.747856
06725		36.268687	1.105392	-150.837387
06726		36.305135	1.105633	-150.960712
06727		36.385461	1.102235	-151.100207
06728		36.568806	1.129636	-151.231419
06729		36.673409	1.155222	-151.354636
06730		36.564334	1.188394	-151.502949
06731		36.396457	1.236753	-151.609198
06732		36.113720	1.279189	-151.661529
06733		35.751893	1.253789	-151.732837
06734		35.510271	1.165590	-151.814841
06735		35.434415	1.054296	-151.869715
06736		35.546081	0.947299	-151.901752
06737		35.735201	0.820551	-151.934964
06738		35.867956	0.677737	-151.970101
06739		35.936205	0.552586	-152.005554
06740		35.997494	0.453898	-152.029896
06741		36.061585	0.371010	-152.041786
06742		36.093970	0.320878	-152.038106
06743		36.123992	0.274098	-152.032016
06744		36.144911	0.238474	-152.020546
06745		36.177937	0.211457	-152.010259
06746		36.203024	0.186783	-152.001474
06747		36.221045	0.151738	-151.992763
06748		36.245619	0.117455	-151.984014
06749		36.302407	0.074653	-151.975001
06750		36.343564	0.038790	-151.965241
06751		36.369061	-0.002680	-151.963774
06752		36.364932	-0.039104	-151.962398
06753		36.402450	-0.071914	-151.947798
06754		36.422828	-0.104258	-151.937109
06755		36.460164	-0.123934	-151.917288
06756		36.468326	-0.143806	-151.907677
06757		36.469758	-0.154102	-151.884282
06758		36.416329	-0.137446	-151.846800
06759		36.349174	-0.093553	-151.786055
06760		36.252523	-0.027420	-151.714159
06761		36.145484	0.043979	-151.634340
06762		36.056329	0.113016	-151.553653
06763		35.939675	0.206061	-151.462768
06764		35.786469	0.296616	-151.366469
06765		35.611817	0.389729	-151.269082
06766		35.436500	0.483964	-151.184811
06767		35.335435	0.543650	-151.122010
06768		35.360340	0.556733	-151.075853
06769		35.455000	0.557462	-151.028767
06770		35.540432	0.595309	-150.988880
06771		35.573132	0.680339	-150.933797
06772		35.541309	0.798529	-150.901239
06773		35.547539	0.955312	-150.907316
06774		35.583616	1.150821	-150.928428
06775		35.481041	1.400256	-150.956675
06776		35.336864	1.704641	-151.009580
06777		35.245380	2.052445	-151.093601
06778		35.129394	2.457973	-151.199532
06779		34.977603	2.919953	-151.325090
06780		34.865235	3.410337	-151.494692
06781		34.866328	3.886993	-151.720763
06782		34.924415	4.346131	-151.976110
06783		34.920050	4.760770	-152.226387
06784		34.793932	5.165044	-152.461717
06785		34.637549	5.567471	-152.685857
06786		34.497673	5.977707	-152.892661
06787		34.304404	6.400019	-153.068869
06788		34.098107	6.823797	-153.220211
06789		33.874558	7.218599	-153.352641
06790		33.623418	7.621460	-153.490853
06791		33.336780	8.000587	-153.657647
06792		33.000835	8.397957	-153.847224
06793		32.732885	8.782295	-154.037444
06794		32.654032	9.134980	-154.206458
06795		32.458447	9.405666	-154.377126
06796		32.097658	9.729045	-154.580098
06797		31.795465	10.019575	-154.794891
06798		31.632811	10.253789	-154.996162
06799		31.530421	10.447183	-155.173352
06800		31.376135	10.626020	-155.340783
06801		31.207431	10.785476	-155.514085
06802		31.083999	10.914842	-155.687072
06803		31.012976	11.025872	-155.855801
06804		30.942179	11.112212	-156.011514
06805		30.846547	11.180798	-156.165223
06806		30.738816	11.233847	-156.313903
06807		30.678251	11.256764	-156.455836
06808		30.654044	11.256180	-156.597295
06809		30.642224	11.228905	-156.729790
06810		30.595482	11.186182	-156.865766
06811		30.601825	11.131120	-157.000639
06812		30.640004	11.071579	-157.148552
06813		30.635207	11.038674	-157.315742
06814		30.622106	11.037083	-157.500542
06815		30.665486	11.047007	-157.695769
06816		30.688652	11.068371	-157.890812
06817		30.687304	11.101027	-158.077440
06818		30.675683	11.129615	-158.249078
06819		30.659879	11.142277	-158.395988
06820		30.618059	11.169889	-158.527148
06821		30.539443	11.217228	-158.658679
06822		30.444313	11.270527	-158.782837
06823		30.368558	11.317744	-158.899364
06824		30.311060	11.353030	-159.011276
06825		30.250796	11.380011	-159.119881
06826		30.192997	11.394927	-159.230063
06827		30.152307	11.402938	-159.342563
06828		30.154824	11.395766	-159.446533
06829		30.133478	11.386422	-159.548720
06830		30.083659	11.384334	-159.658426
06831		30.063808	11.369284	-159.761249
06832		30.054618	11.340135	-159.853306
06833		30.059161	11.309517	-159.942267
06834		30.082219	11.287431	-160.038511
06835		30.088502	11.266446	-160.155435
06836		30.130076	11.252884	-160.283675
06837		30.173618	11.257887	-160.417498
06838		30.174569	11.282599	-160.548077
06839		30.121772	11.314758	-160.673339
06840		30.076856	11.333373	-160.789467
06841		30.074175	11.337855	-160.891486
06842		30.057993	11.339136	-160.983963
06843		30.038522	11.317775	-161.056469
06844		30.043160	11.277072	-161.106358
06845		30.036726	11.216896	-161.143866
06846		30.075087	11.158819	-161.173251
06847		30.073282	11.135728	-161.228816
06848		29.952306	11.162788	-161.323982
06849		29.787126	11.221066	-161.444667
06850		29.601564	11.278574	-161.576073
06851		29.491362	11.301424	-161.696930
06852		29.454815	11.285073	-161.813158
06853		29.452749	11.225067	-161.929823
06854		29.510981	11.143517	-162.058858
06855		29.552329	11.087394	-162.212953
06856		29.593758	11.049626	-162.395791
06857		29.621886	11.023021	-162.574988
06858		29.637773	11.000224	-162.741417
06859		29.651757	10.955467	-162.881197
06860		29.712279	10.856066	-162.945990
06861		29.804091	10.749172	-162.938985
06862		29.985954	10.641706	-162.911075
06863		30.247343	10.548885	-162.878511
06864		30.419229	10.477767	-162.862548
06865		30.506532	10.446312	-162.849316
06866		30.656457	10.414744	-162.837116
06867		30.772593	10.360275	-162.851591
06868		30.842223	10.273613	-162.889060
06869		30.848487	10.245728	-162.932432
06870		30.844515	10.268724	-162.987166
06871		30.713210	10.294715	-163.028181
06872		30.589635	10.366042	-163.052069
06873		30.660969	10.486848	-163.034228
06874		30.847195	10.577852	-162.982649
06875		30.829019	10.664800	-162.920287
06876		30.663429	10.768741	-162.875509
06877		30.501886	10.923790	-162.885349
06878		30.339506	11.015306	-162.852804
06879		30.167542	11.107053	-162.791500
06880		29.691501	11.206894	-162.721449
06881		29.471719	11.312541	-162.721005
06882		29.412442	11.365446	-162.796968
06883		29.546708	11.351883	-162.908051
06884		29.413239	11.376141	-162.991822
06885		29.254653	11.398512	-163.054829
06886		29.019043	11.438210	-163.084522
06887		28.862994	11.468401	-163.119616
06888		28.819662	11.485003	-163.145913
06889		28.825789	11.493074	-163.161461
06890		28.769632	11.501026	-163.176335
06891		28.717949	11.517016	-163.193825
06892		28.721172	11.526066	-163.202091
06893		28.718812	11.530919	-163.201043
06894		28.715745	11.525989	-163.197103
06895		28.734187	11.522691	-163.194946
06896		28.717736	11.517212	-163.200517
06897		28.692341	11.519899	-163.203636
06898		28.689790	11.516452	-163.208222
06899		28.658890	11.495867	-163.195948
06900		28.679908	11.480611	-163.198953
06901		28.688931	11.479411	-163.210412
06902		28.602091	11.475442	-163.218621
06903		28.587235	11.485257	-163.233086
06904		28.582318	11.506682	-163.238202
06905		28.511322	11.512250	-163.245978
06906		28.499014	11.510379	-163.261137
06907		28.475400	11.510601	-163.268121
06908		28.440610	11.513566	-163.282559
06909		28.399934	11.521766	-163.292663
06910		28.352953	11.527787	-163.302063
06911		28.345508	11.532811	-163.314938
06912		28.283068	11.555590	-163.321601
06913		28.187901	11.567720	-163.329277
06914		28.158231	11.576601	-163.343445
06915		28.119949	11.581798	-163.362465
06916		28.053954	11.608019	-163.386180
06917		28.101675	11.647929	-163.401708
06918		28.142017	11.658469	-163.383323
06919		28.270283	11.671576	-163.371231
06920		28.375061	11.699710	-163.385411
06921		28.385841	11.745532	-163.405109
06922		28.375079	11.773838	-163.402607
06923		28.443363	11.772725	-163.386314
06924		28.525247	11.780235	-163.359341
06925		28.584032	11.798246	-163.323381
06926		28.625561	11.816923	-163.277136
06927		28.673785	11.831230	-163.235605
06928		28.707725	11.845518	-163.211183
06929		28.743073	11.866830	-163.195616
06930		28.763860	11.898650	-163.177421
06931		28.801065	11.937033	-163.150263
06932		28.862129	11.980173	-163.121564
06933		28.898727	12.031077	-163.090675
06934		28.921280	12.075860	-163.051997
06935		28.970874	12.111972	-163.010646
06936		29.053839	12.151718	-162.995511
06937		29.115834	12.194187	-162.990489
06938		29.148724	12.241252	-162.968719
06939		29.192575	12.278135	-162.937401
06940		29.261570	12.297094	-162.900682
06941		29.345821	12.306631	-162.868184
06942		29.419958	12.310415	-162.838621
06943		29.502949	12.323625	-162.810745
06944		29.574412	12.343057	-162.777259
06945		29.650455	12.370450	-162.740593
06946		29.712472	12.404618	-162.707400
06947		29.782386	12.446226	-162.675642
06948		29.831779	12.488492	-162.637895
06949		29.862511	12.521421	-162.577798
06950		29.903805	12.542208	-162.504130
06951		29.945566	12.572978	-162.440164
06952		29.978650	12.608485	-162.386795
06953		30.006348	12.644694	-162.325247
06954		30.037052	12.665851	-162.242871
06955		30.061319	12.674995	-162.157634
06956		30.079603	12.672846	-162.062426
06957		30.106246	12.658676	-161.950191
06958		30.166068	12.658462	-161.868698
06959		30.215005	12.696197	-161.850337
06960		30.259746	12.761200	-161.886310
06961		30.296741	12.835227	-161.949730
06962		30.327328	12.893121	-162.013482
06963		30.368875	12.916392	-162.041943
06964		30.438361	12.911680	-162.028998
06965		30.510543	12.895467	-161.983394
06966		30.575804	12.882680	-161.911117
06967		30.616801	12.875057	-161.817639
06968		30.637233	12.872040	-161.713858
06969		30.648808	12.869998	-161.607448
06970		30.656326	12.859428	-161.485965
06971		30.662716	12.838659	-161.336602
06972		30.690226	12.805921	-161.193592
06973		30.718614	12.776170	-161.061962
06974		30.759576	12.733824	-160.915961
06975		30.921271	12.682195	-160.791367
06976		31.175649	12.644140	-160.725345
06977		31.397291	12.608180	-160.674030
06978		31.486502	12.541625	-160.581966
06979		31.517489	12.467701	-160.470784
06980		31.588514	12.400717	-160.394920
06981		31.660196	12.335321	-160.307341
06982		31.682125	12.260311	-160.181308
06983		31.676983	12.191364	-160.053148
06984		31.681545	12.117408	-159.934549
06985		31.668170	12.018522	-159.802578
06986		31.622260	11.903705	-159.629884
06987		31.632037	11.780538	-159.485364
06988		31.679035	11.665366	-159.360122
06989		31.767225	11.561299	-159.199292
06990		32.051250	11.326143	-159.036924
06991		32.083984	11.153673	-158.936754
06992		32.145728	11.056683	-158.890422
06993		32.255953	10.953576	-158.838556
06994		32.357169	10.790698	-158.713044
06995		32.458445	10.569767	-158.517506
06996		32.584653	10.309823	-158.264325
06997		32.775351	10.026582	-157.954538
06998		33.093467	9.703039	-157.585358
06999		33.503708	9.359345	-157.206744
07000		33.961690	9.000496	-156.873647
07001		34.340976	8.630869	-156.566980
07002		34.596564	8.261439	-156.263512
07003		34.774386	7.879230	-155.965815
07004		34.972328	7.483077	-155.674338
07005		35.179739	7.070103	-155.398085
07006		35.414478	6.664106	-155.147106
07007		35.670705	6.277140	-154.942210
07008		35.937384	5.896788	-154.764196
07009		36.181421	5.521998	-154.600110
07010		36.382474	5.162636	-154.440788
07011		36.541712	4.830314	-154.303194
07012		36.726085	4.501580	-154.170758
07013		36.922920	4.185343	-154.032050
07014		37.076812	3.905804	-153.913326
07015		37.228170	3.639239	-153.818249
07016		37.368580	3.386189	-153.723000
07017		37.431274	3.153276	-153.625341
07018		37.466747	2.930718	-153.534935
07019		37.544623	2.709416	-153.462035
07020		37.666541	2.469308	-153.390439
07021		37.770414	2.216775	-153.305238
07022		37.825261	1.986129	-153.225799
07023		37.917610	1.754655	-153.154784
07024		38.046427	1.516175	-153.082848
07025		38.164160	1.287775	-153.003430
07026		38.231231	1.085714	-152.925990
07027		38.297151	0.916471	-152.876452
07028		38.415376	0.752292	-152.843701
07029		38.513606	0.596935	-152.829289
07030		38.609989	0.460713	-152.843916
07031		38.690842	0.354864	-152.878213
07032		38.755330	0.273330	-152.885082
07033		38.768345	0.203522	-152.881047
07034		38.786020	0.165041	-152.857600
07035		38.808326	0.148315	-152.824573
07036		38.760472	0.139034	-152.807162
07037		38.686575	0.123358	-152.815964
07038		38.591219	0.123192	-152.825901
07039		38.390124	0.107912	-152.861644
07040		38.139241	0.080974	-152.878222
07041		38.031736	0.076943	-152.918584
07042		37.950682	0.084800	-153.010186
07043		37.987308	0.093528	-153.106197
07044		38.109916	0.098130	-153.230815
07045		38.240412	0.124933	-153.348889
07046		38.144705	0.143792	-153.424674
07047		37.833449	0.187037	-153.507960
07048		37.732361	0.176596	-153.563184
07049		37.671093	0.122555	-153.589165
07050		37.578542	0.044879	-153.606994
07051		37.527936	-0.033391	-153.605757
07052		37.540758	-0.101417	-153.606548
07053		37.635952	-0.178849	-153.613159
07054		37.687366	-0.259876	-153.626202
07055		37.736956	-0.340536	-153.637397
07056		37.813912	-0.425006	-153.648012
07057		37.919803	-0.509453	-153.646929
07058		37.964200	-0.583854	-153.642507
07059		38.000980	-0.634754	-153.632289
07060		38.055918	-0.679722	-153.629584
07061		38.106366	-0.710872	-153.629370
07062		38.163036	-0.754515	-153.626358
07063		38.176765	-0.788553	-153.622194
07064		38.212342	-0.810599	-153.619572
07065		38.239224	-0.827501	-153.615009
07066		38.278593	-0.837496	-153.601299
07067		38.293407	-0.849597	-153.591820
07068		38.307198	-0.860267	-153.580804
07069		38.304798	-0.855563	-153.582763
07070		38.333648	-0.848538	-153.575625
07071		38.342008	-0.838849	-153.567636
07072		38.325393	-0.820505	-153.559036
07073		38.305397	-0.801951	-153.538982
07074		38.288426	-0.779233	-153.517264
07075		38.272145	-0.753635	-153.493625
07076		38.238160	-0.712888	-153.463816
07077		38.186114	-0.655234	-153.428160
07078		38.132963	-0.592145	-153.374107
07079		38.074065	-0.517792	-153.304542
07080		38.012321	-0.445442	-153.212475
07081		37.946727	-0.383155	-153.109937
07082		37.805502	-0.294737	-153.011858
07083		37.655879	-0.180682	-152.938085
07084		37.534394	-0.068795	-152.878910
07085		37.370220	0.061629	-152.834617
07086		37.225727	0.204637	-152.833865
07087		37.065319	0.358533	-152.834679
07088		36.870809	0.524058	-152.822695
07089		36.659727	0.702921	-152.794147
07090		36.482386	0.888637	-152.758270
07091		36.318553	1.075439	-152.717989
07092		36.147044	1.283941	-152.693668
07093		36.022978	1.528100	-152.723900
07094		35.891483	1.787519	-152.805175
07095		35.712535	2.065958	-152.949179
07096		35.551029	2.370034	-153.125936
07097		35.376633	2.704310	-153.326523
07098		35.197747	3.062050	-153.526782
07099		34.985828	3.459682	-153.713281
07100		34.766993	3.908922	-153.891721
07101		34.582259	4.396860	-154.067625
07102		34.412589	4.904529	-154.260577
07103		34.201554	5.440070	-154.471679
07104		34.012760	5.994938	-154.687318
07105		33.853014	6.533456	-154.904122
07106		33.602200	7.058689	-155.128113
07107		33.275820	7.576300	-155.377933
07108		33.002575	8.068864	-155.623886
07109		32.752806	8.526729	-155.873570
07110		32.494512	8.951186	-156.112424
07111		32.217511	9.341996	-156.341016
07112		31.960397	9.706768	-156.572913
07113		31.754994	10.040937	-156.807110
07114		31.590322	10.345388	-157.025400
07115		31.347640	10.645287	-157.238758
07116		31.059696	10.935025	-157.463826
07117		30.802159	11.196263	-157.701794
07118		30.622477	11.423669	-157.939829
07119		30.463267	11.625760	-158.188336
07120		30.312716	11.807162	-158.441726
07121		30.160143	11.955671	-158.703213
07122		30.028053	12.073111	-158.960463
07123		29.897734	12.167484	-159.209062
07124		29.809851	12.230641	-159.419306
07125		29.717299	12.287588	-159.583874
07126		29.619130	12.317093	-159.712325
07127		29.537154	12.328528	-159.809679
07128		29.489799	12.323876	-159.890716
07129		29.434432	12.314438	-159.965974
07130		29.387466	12.302729	-160.036600
07131		29.390149	12.277842	-160.102285
07132		29.388029	12.248673	-160.159165
07133		29.350724	12.230444	-160.211711
07134		29.278844	12.215628	-160.265935
07135		29.206240	12.200142	-160.315281
07136		29.145987	12.175933	-160.352827
07137		29.119521	12.154672	-160.382849
07138		29.083553	12.130980	-160.396234
07139		28.918148	12.125404	-160.391124
07140		28.581276	12.157914	-160.381138
07141		28.130490	12.231723	-160.369122
07142		27.699952	12.307505	-160.357677
07143		27.313976	12.370572	-160.361070
07144		26.997099	12.421715	-160.394573
07145		26.779609	12.453938	-160.461076
07146		26.687431	12.450852	-160.550758
07147		26.599992	12.436396	-160.656806
07148		26.552911	12.406845	-160.772992
07149		26.567367	12.358873	-160.886881
07150		26.607164	12.297086	-161.000926
07151		26.685973	12.223910	-161.105573
07152		26.768230	12.160068	-161.196200
07153		26.754673	12.125284	-161.269577
07154		26.670094	12.113055	-161.341969
07155		26.596283	12.095784	-161.418535
07156		26.540528	12.082271	-161.499185
07157		26.492366	12.075882	-161.586152
07158		26.460990	12.059224	-161.681527
07159		26.448435	12.033261	-161.781179
07160		26.449216	12.006545	-161.880450
07161		26.424586	11.987437	-161.979570
07162		26.411293	11.966616	-162.082435
07163		26.443028	11.921969	-162.150998
07164		26.436406	11.861316	-162.148602
07165		26.307944	11.818046	-162.103771
07166		26.106921	11.803164	-162.033429
07167		25.897645	11.810595	-161.974750
07168		25.730261	11.835279	-161.940277
07169		25.529650	11.878868	-161.959323
07170		25.340396	11.924017	-162.016947
07171		25.235948	11.950185	-162.101680
07172		25.154415	11.966897	-162.210193
07173		25.083667	11.993161	-162.327633
07174		25.009327	12.014497	-162.452911
07175		24.941399	12.033721	-162.583231
07176		24.858582	12.036960	-162.710757
07177		24.835408	12.020064	-162.849088
07178		24.850918	11.991125	-162.989416
07179		24.887478	11.951943	-163.110653
07180		24.874870	11.904970	-163.189355
07181		24.851991	11.827643	-163.186694
07182		24.833710	11.731217	-163.126602
07183		24.764927	11.644657	-163.050977
07184		24.798151	11.560903	-162.986522
07185		24.898840	11.497695	-162.964537
07186		24.966387	11.467065	-162.993945
07187		25.035499	11.433551	-163.052244
07188		25.171274	11.390008	-163.118731
07189		25.354175	11.333534	-163.177364
07190		25.572069	11.249999	-163.210548
07191		25.675085	11.192547	-163.200868
07192		25.655836	11.168120	-163.160717
07193		25.814885	11.134918	-163.115832
07194		25.932726	11.106461	-163.105899
07195		25.910557	11.126621	-163.113799
07196		25.820219	11.192682	-163.122797
07197		25.785406	11.227485	-163.135006
07198		25.828201	11.224418	-163.136000
07199		25.876058	11.214570	-163.126509
07200		25.910163	11.195549	-163.123361
07201		25.958010	11.174247	-163.125132
07202		25.973219	11.154315	-163.141167
07203		25.967933	11.138255	-163.172280
07204		26.017416	11.124092	-163.207517
07205		26.063025	11.129095	-163.244244
07206		26.021563	11.160069	-163.280650
07207		26.002709	11.212222	-163.303426
07208		26.060152	11.256370	-163.334508
07209		26.019263	11.320720	-163.342259
07210		26.061626	11.401370	-163.312306
07211		26.204824	11.445972	-163.280649
07212		26.317918	11.494773	-163.239434
07213		26.290153	11.551596	-163.180719
07214		26.214306	11.632930	-163.116274
07215		26.075581	11.714620	-163.041273
07216		25.879986	11.838795	-162.986231
07217		25.752891	11.991516	-163.006534
07218		25.681910	12.104121	-162.995738
07219		25.555480	12.197723	-163.013290
07220		25.511535	12.270453	-163.066162
07221		25.637216	12.318888	-163.142498
07222		25.857223	12.327406	-163.216915
07223		25.793110	12.342382	-163.238243
07224		25.515742	12.374165	-163.285500
07225		25.342177	12.399814	-163.324360
07226		25.252060	12.404714	-163.349408
07227		25.224381	12.385248	-163.350447
07228		25.211539	12.352428	-163.352878
07229		25.189745	12.319721	-163.358263
07230		25.153023	12.299848	-163.367919
07231		25.165513	12.288678	-163.367537
07232		25.166740	12.281434	-163.365635
07233		25.157729	12.283127	-163.369081
07234		25.147883	12.276989	-163.372168
07235		25.138584	12.260477	-163.366856
07236		25.165612	12.258211	-163.369441
07237		25.149199	12.256587	-163.370990
07238		25.116894	12.248569	-163.377611
07239		25.102947	12.244205	-163.383511
07240		25.090592	12.224848	-163.384466
07241		25.069726	12.201784	-163.386815
07242		25.062589	12.184239	-163.400701
07243		25.020550	12.172230	-163.413227
07244		24.968958	12.179671	-163.434969
07245		24.994083	12.174303	-163.466274
07246		25.006384	12.163452	-163.489659
07247		25.009565	12.171443	-163.507269
07248		24.999906	12.190586	-163.510309
07249		24.978103	12.194364	-163.512572
07250		24.959125	12.183440	-163.516571
07251		24.991703	12.175676	-163.507223
07252		25.026780	12.169618	-163.489912
07253		25.077934	12.164595	-163.471831
07254		25.149219	12.128873	-163.451298
07255		25.206554	12.091043	-163.429550
07256		25.278003	12.049186	-163.407826
07257		25.359097	12.006816	-163.382564
07258		25.425075	11.958783	-163.351588
07259		25.502191	11.905613	-163.322390
07260		25.564108	11.827051	-163.297653
07261		25.616075	11.742786	-163.273492
07262		25.700314	11.646637	-163.240071
07263		25.787713	11.549800	-163.212748
07264		25.920737	11.483767	-163.197144
07265		26.012828	11.408503	-163.183543
07266		26.094147	11.341503	-163.167860
07267		26.232346	11.275733	-163.126436
