// General information: 
//  MT Manager version: 2022.2.0 
//  XDA version: 2022.2.0 build 7381 rev 124627 built on 2023-07-19
// Device information: 
//  DeviceId: 00B44856
//  ProductCode: MTW2-3A7G6
//  Firmware Version: 4.3.5
//  Hardware Version: 2.0.0
// Device settings: 
//  Filter Profile: human(46.1)
//  Option Flags: Orientation Smoother Disabled, Position/Velocity Smoother Disabled, Continuous Zero Rotation Update Disabled, AHS Disabled, ICC Disabled
// Coordinate system: ENU
PacketCounter	SampleTimeFine	Roll	Pitch	Yaw
19749		8.563384	5.037908	6.907767
19750		8.609062	5.051138	6.869807
19751		8.641912	5.050158	6.840177
19752		8.658290	5.031950	6.816629
19753		8.647996	5.009854	6.808746
19754		8.631187	4.975532	6.824022
19755		8.620689	4.941173	6.854971
19756		8.653308	4.889706	6.892005
19757		8.740910	4.840676	6.940669
19758		8.915867	4.793399	7.003878
19759		9.102417	4.752880	7.091375
19760		9.279427	4.707829	7.196142
19761		9.422185	4.662225	7.311620
19762		9.542486	4.608185	7.424759
19763		9.659493	4.566371	7.535194
19764		9.810288	4.528487	7.642270
19765		9.980015	4.496506	7.756371
19766		10.156017	4.479671	7.876785
19767		10.326147	4.475982	7.997485
19768		10.461537	4.472986	8.106179
19769		10.552753	4.480675	8.201010
19770		10.615926	4.487376	8.281457
19771		10.643035	4.492310	8.336262
19772		10.655147	4.498225	8.374325
19773		10.659590	4.492506	8.404361
19774		10.658158	4.481451	8.428742
19775		10.662122	4.465681	8.451073
19776		10.693326	4.427347	8.464061
19777		10.764119	4.380051	8.468854
19778		10.894467	4.321120	8.465347
19779		11.093618	4.255681	8.458853
19780		11.370714	4.176291	8.442395
19781		11.692774	4.094626	8.419542
19782		12.061891	4.016444	8.399463
19783		12.449112	3.949600	8.381429
19784		12.803871	3.878531	8.362454
19785		13.093240	3.809254	8.343529
19786		13.314014	3.739861	8.321114
19787		13.467699	3.671831	8.291633
19788		13.539324	3.594693	8.252564
19789		13.561023	3.506750	8.214203
19790		13.554158	3.399560	8.171876
19791		13.526155	3.289593	8.129547
19792		13.480664	3.166446	8.085746
19793		13.408294	3.050769	8.039817
19794		13.339511	2.933944	7.989454
19795		13.279797	2.824546	7.934902
19796		13.227696	2.721620	7.887482
19797		13.170483	2.630151	7.845823
19798		13.115913	2.552962	7.805075
19799		13.055036	2.481105	7.769185
19800		12.982205	2.413720	7.738759
19801		12.907595	2.364138	7.715395
19802		12.826100	2.323130	7.691229
19803		12.780875	2.299702	7.661398
19804		12.793036	2.282987	7.628043
19805		12.854678	2.273589	7.587059
19806		12.962260	2.278394	7.544982
19807		13.048061	2.304392	7.509099
19808		13.070643	2.340390	7.478909
19809		12.973216	2.386202	7.456372
19810		12.800044	2.419749	7.437484
19811		12.557752	2.450179	7.432959
19812		12.292152	2.475185	7.438857
19813		12.074111	2.517166	7.453347
19814		11.942828	2.566868	7.467821
19815		11.879156	2.627008	7.478070
19816		11.854564	2.695877	7.488193
19817		11.845752	2.767582	7.498711
19818		11.816431	2.836469	7.504006
19819		11.721161	2.914054	7.514223
19820		11.605081	2.990071	7.535626
19821		11.505546	3.064919	7.567305
19822		11.431287	3.123349	7.605205
19823		11.415565	3.187301	7.649933
19824		11.480083	3.258551	7.705980
19825		11.568691	3.331156	7.772104
19826		11.670172	3.395469	7.839638
19827		11.744048	3.456144	7.913896
19828		11.776822	3.520224	7.992064
19829		11.807965	3.578410	8.071706
19830		11.832982	3.621844	8.138105
19831		11.872542	3.657982	8.194773
19832		11.924114	3.688878	8.243119
19833		11.989801	3.721710	8.284901
19834		12.018614	3.745137	8.327647
19835		11.991999	3.777097	8.365880
19836		11.960038	3.802934	8.393428
19837		11.906685	3.824336	8.416298
19838		11.869847	3.839368	8.436048
19839		11.868455	3.849621	8.451714
19840		11.926217	3.853245	8.457062
19841		11.996061	3.852618	8.457204
19842		12.053295	3.850648	8.460799
19843		12.072928	3.841585	8.465792
19844		12.060222	3.814003	8.474509
19845		12.021549	3.780965	8.486294
19846		12.005749	3.741945	8.496280
19847		12.026940	3.706361	8.508351
19848		12.061773	3.678536	8.527669
19849		12.106074	3.667289	8.555674
19850		12.165293	3.656824	8.584466
19851		12.208484	3.649630	8.604822
19852		12.232901	3.645739	8.624778
19853		12.249069	3.646292	8.649009
19854		12.278320	3.649131	8.673601
19855		12.317931	3.662576	8.695802
19856		12.357279	3.684575	8.711839
19857		12.422787	3.712106	8.724567
19858		12.463745	3.721398	8.735138
19859		12.454892	3.733228	8.749337
19860		12.422227	3.740792	8.762991
19861		12.386712	3.754684	8.784865
19862		12.361597	3.765208	8.807259
19863		12.374627	3.793482	8.824655
19864		12.419079	3.833783	8.841129
19865		12.479874	3.881721	8.856641
19866		12.511107	3.930641	8.865618
19867		12.510510	3.979483	8.873762
19868		12.449452	4.029654	8.878045
19869		12.344574	4.085043	8.878354
19870		12.244104	4.141386	8.869631
19871		12.173067	4.201760	8.854266
19872		12.120877	4.264687	8.827468
19873		12.063569	4.331045	8.784882
19874		11.992003	4.394506	8.723501
19875		11.899244	4.460145	8.652929
19876		11.767118	4.515148	8.563600
19877		11.619097	4.575541	8.456677
19878		11.473752	4.633134	8.326123
19879		11.305101	4.700962	8.177631
19880		11.124154	4.769841	8.002908
19881		10.897005	4.837429	7.801314
19882		10.626367	4.896439	7.573548
19883		10.343814	4.937402	7.330007
19884		10.077807	4.966473	7.058544
19885		9.849844	4.982589	6.753222
19886		9.669373	4.997762	6.416837
19887		9.528131	5.017061	6.048838
19888		9.367753	5.028040	5.654886
19889		9.143239	5.041314	5.241390
19890		8.875011	5.046769	4.803254
19891		8.590297	5.049914	4.332861
19892		8.317412	5.040795	3.839125
19893		8.087892	5.016139	3.329810
19894		7.915872	4.984107	2.812366
19895		7.765676	4.953880	2.280826
19896		7.670962	4.928542	1.726126
19897		7.550138	4.897919	1.145855
19898		7.391646	4.852512	0.532868
19899		7.189722	4.813377	-0.097269
19900		6.970042	4.754833	-0.743970
19901		6.748034	4.702883	-1.414374
19902		6.543777	4.645234	-2.096821
19903		6.326893	4.589186	-2.788300
19904		6.100699	4.529187	-3.492287
19905		5.870941	4.477726	-4.216832
19906		5.621612	4.423143	-4.966118
19907		5.373602	4.378284	-5.741880
19908		5.140594	4.344120	-6.540417
19909		4.880161	4.314106	-7.340628
19910		4.604190	4.275171	-8.142122
19911		4.348775	4.239594	-8.952341
19912		4.117639	4.204555	-9.777171
19913		3.915595	4.166284	-10.613237
19914		3.738012	4.121075	-11.464332
19915		3.568921	4.090734	-12.328171
19916		3.394575	4.068691	-13.207622
19917		3.165573	4.058295	-14.101742
19918		2.884303	4.053521	-15.012443
19919		2.537696	4.047250	-15.932696
19920		2.182712	4.041520	-16.868696
19921		1.839842	4.037772	-17.820580
19922		1.541451	4.022120	-18.791270
19923		1.294308	4.014282	-19.778241
19924		1.055134	4.013815	-20.777461
19925		0.789859	4.006075	-21.771751
19926		0.543605	3.992622	-22.769555
19927		0.314080	3.974373	-23.773727
19928		0.157972	3.949283	-24.801872
19929		0.117717	3.931277	-25.843265
19930		0.150653	3.908716	-26.887666
19931		0.195976	3.880510	-27.946935
19932		0.220321	3.849377	-29.025912
19933		0.171345	3.831231	-30.111475
19934		0.073274	3.806929	-31.204814
19935		-0.047654	3.795486	-32.308325
19936		-0.047265	3.797784	-33.417821
19937		0.056573	3.805927	-34.503591
19938		0.189982	3.819526	-35.576317
19939		0.328681	3.840542	-36.641383
19940		0.394286	3.852935	-37.700503
19941		0.420565	3.858006	-38.761892
19942		0.514303	3.857291	-39.816921
19943		0.691874	3.859799	-40.856295
19944		0.968342	3.871393	-41.881385
19945		1.239320	3.878781	-42.895140
19946		1.381587	3.895651	-43.902933
19947		1.365738	3.901101	-44.910064
19948		1.301763	3.899382	-45.935621
19949		1.287174	3.908529	-46.987462
19950		1.443735	3.936319	-48.062452
19951		1.793657	3.991162	-49.135002
19952		2.260498	4.045433	-50.161167
19953		2.571856	4.084915	-51.182919
19954		2.701370	4.115355	-52.204753
19955		2.763584	4.108589	-53.232833
19956		2.924306	4.073774	-54.301252
19957		3.260057	4.077924	-55.401412
19958		3.781563	4.131149	-56.514984
19959		4.438363	4.205198	-57.550631
19960		4.802663	4.237728	-58.531239
19961		4.646876	4.304903	-59.524317
19962		4.233112	4.373896	-60.511032
19963		3.665117	4.397663	-61.504167
19964		3.088778	4.425787	-62.511613
19965		2.676021	4.472131	-63.520235
19966		2.461937	4.553610	-64.529010
19967		2.547843	4.628152	-65.508534
19968		2.777321	4.668204	-66.450907
19969		3.025208	4.713968	-67.387670
19970		3.282382	4.754781	-68.307794
19971		3.538389	4.760621	-69.228648
19972		3.805159	4.755220	-70.152363
19973		4.060251	4.764515	-71.070124
19974		4.370485	4.777935	-71.977654
19975		4.742387	4.776932	-72.857843
19976		5.087197	4.751585	-73.707745
19977		5.356371	4.710259	-74.535409
19978		5.527349	4.643940	-75.355707
19979		5.606523	4.564652	-76.192740
19980		5.625410	4.486504	-77.038206
19981		5.646168	4.412540	-77.889380
19982		5.739275	4.350118	-78.741125
19983		5.958112	4.284709	-79.578150
19984		6.261109	4.191212	-80.372895
19985		6.518726	4.074684	-81.133260
19986		6.711565	3.935240	-81.895106
19987		6.847942	3.780973	-82.674825
19988		6.922941	3.632648	-83.467881
19989		6.968137	3.488648	-84.260705
19990		7.052542	3.363236	-85.051194
19991		7.216466	3.264563	-85.822423
19992		7.418151	3.158399	-86.533126
19993		7.599124	3.036946	-87.218311
19994		7.781616	2.911031	-87.887087
19995		7.927885	2.774276	-88.546568
19996		8.030907	2.649278	-89.198749
19997		8.124971	2.534016	-89.842617
19998		8.223772	2.444795	-90.461438
19999		8.338507	2.378319	-91.060710
20000		8.521783	2.292051	-91.637213
20001		8.700415	2.211762	-92.178156
20002		8.866127	2.133987	-92.695269
20003		8.981586	2.073964	-93.191728
20004		9.006430	2.037519	-93.669917
20005		8.976120	1.999959	-94.129509
20006		8.965359	1.979580	-94.553443
20007		8.989667	1.970337	-94.941323
20008		9.034785	1.954203	-95.296958
20009		9.077611	1.944435	-95.637185
20010		9.108234	1.951732	-95.968067
20011		9.084430	1.965308	-96.273723
20012		9.073740	1.986493	-96.560136
20013		9.084908	2.031850	-96.811781
20014		9.144861	2.075066	-97.027417
20015		9.217529	2.105323	-97.214748
20016		9.287975	2.140337	-97.381859
20017		9.349602	2.177036	-97.534575
20018		9.378492	2.217010	-97.669090
20019		9.404929	2.256222	-97.780425
20020		9.440675	2.284071	-97.871974
20021		9.507215	2.316783	-97.945232
20022		9.596931	2.346984	-97.994581
20023		9.689744	2.371310	-98.024658
20024		9.726582	2.400595	-98.048372
20025		9.680044	2.433611	-98.075659
20026		9.587264	2.485791	-98.098992
20027		9.485452	2.532013	-98.101961
20028		9.426943	2.562733	-98.091433
20029		9.456828	2.582642	-98.066358
20030		9.556518	2.593837	-98.029153
20031		9.677671	2.597802	-97.986445
20032		9.749248	2.615780	-97.942311
20033		9.748371	2.650449	-97.892278
20034		9.711529	2.685250	-97.826715
20035		9.683223	2.708231	-97.745319
20036		9.672825	2.725470	-97.656165
20037		9.703991	2.736389	-97.564708
20038		9.756462	2.733717	-97.469085
20039		9.824347	2.720966	-97.368684
20040		9.881575	2.711174	-97.258801
20041		9.893656	2.710106	-97.137454
20042		9.868852	2.720723	-97.010635
20043		9.824512	2.747373	-96.885095
20044		9.787757	2.772773	-96.760479
20045		9.749065	2.790995	-96.623556
20046		9.715681	2.805979	-96.479369
20047		9.681785	2.811526	-96.332741
20048		9.636657	2.815529	-96.190199
20049		9.579621	2.827616	-96.048253
20050		9.540228	2.842571	-95.911274
20051		9.532587	2.857640	-95.774215
20052		9.551704	2.880873	-95.640079
20053		9.581868	2.903928	-95.500396
20054		9.598933	2.915400	-95.357964
20055		9.582799	2.919006	-95.217899
20056		9.531993	2.928987	-95.072096
20057		9.474541	2.933951	-94.928203
20058		9.423103	2.938962	-94.783946
20059		9.371879	2.955722	-94.632196
20060		9.336745	2.963937	-94.475504
20061		9.316047	2.963870	-94.322745
20062		9.310591	2.960988	-94.164936
20063		9.311914	2.954326	-94.006003
20064		9.324713	2.942525	-93.849830
20065		9.331143	2.928525	-93.690483
20066		9.317329	2.917999	-93.520739
20067		9.269469	2.912703	-93.338937
20068		9.221482	2.903021	-93.148399
20069		9.174341	2.888434	-92.946131
20070		9.136637	2.877892	-92.740831
20071		9.127714	2.864935	-92.534880
20072		9.106881	2.847749	-92.334102
20073		9.049132	2.846788	-92.122186
20074		8.985917	2.846906	-91.896472
20075		8.917912	2.848878	-91.657019
20076		8.859076	2.854189	-91.394540
20077		8.849001	2.851796	-91.110978
20078		8.919421	2.835874	-90.825780
20079		9.021102	2.828497	-90.540408
20080		9.096487	2.841874	-90.243393
20081		9.115551	2.843708	-89.946020
20082		9.063222	2.854202	-89.647232
20083		8.969844	2.876071	-89.338929
20084		8.903549	2.895857	-89.011985
20085		8.891977	2.917725	-88.662407
20086		8.950460	2.943890	-88.281873
20087		9.104857	2.972553	-87.873431
20088		9.323329	3.002277	-87.444712
20089		9.565664	3.014497	-87.032414
20090		9.764879	3.034395	-86.647938
20091		9.823437	3.100088	-86.276099
20092		9.759306	3.178805	-85.882312
20093		9.650254	3.234888	-85.468728
20094		9.556893	3.298652	-85.034185
20095		9.523353	3.356596	-84.564334
20096		9.595284	3.391536	-84.075528
20097		9.763615	3.416324	-83.581393
20098		10.022698	3.398438	-83.120049
20099		10.266251	3.397306	-82.683400
20100		10.397882	3.417324	-82.251235
20101		10.366983	3.440551	-81.807384
20102		10.230060	3.465820	-81.359267
20103		10.053948	3.483882	-80.902157
20104		9.902616	3.496803	-80.432705
20105		9.823232	3.501178	-79.948819
20106		9.861712	3.482837	-79.465375
20107		9.991950	3.442789	-78.990885
20108		10.124025	3.409303	-78.518395
20109		10.221097	3.377942	-78.030519
20110		10.271822	3.346515	-77.522482
20111		10.272927	3.325212	-76.987278
20112		10.281172	3.307761	-76.428364
20113		10.314320	3.266351	-75.871315
20114		10.384134	3.213677	-75.340179
20115		10.466948	3.169981	-74.811241
20116		10.565209	3.124084	-74.269742
20117		10.615898	3.062904	-73.714689
20118		10.570019	3.010656	-73.148871
20119		10.470856	2.964531	-72.566785
20120		10.350772	2.924474	-71.958244
20121		10.273270	2.889635	-71.322240
20122		10.326364	2.821551	-70.696709
20123		10.476464	2.760159	-70.080518
20124		10.668326	2.704820	-69.460531
20125		10.872539	2.635466	-68.823550
20126		11.024431	2.566423	-68.172773
20127		11.088039	2.508669	-67.505872
20128		11.085047	2.478030	-66.817168
20129		11.083444	2.448613	-66.111976
20130		11.131705	2.422530	-65.397494
20131		11.263393	2.398867	-64.687294
20132		11.456085	2.370811	-63.980769
20133		11.667245	2.333374	-63.287861
20134		11.839805	2.296432	-62.596893
20135		11.955656	2.260212	-61.892039
20136		11.975827	2.214511	-61.166534
20137		11.931612	2.179616	-60.419248
20138		11.899852	2.155498	-59.646690
20139		11.922066	2.136933	-58.855477
20140		12.046880	2.111833	-58.056951
20141		12.296413	2.065938	-57.267584
20142		12.569302	2.027820	-56.475583
20143		12.828101	1.987751	-55.681511
20144		13.006526	1.948743	-54.883005
20145		13.071803	1.924940	-54.081391
20146		13.036400	1.904433	-53.273721
20147		12.940902	1.892919	-52.454816
20148		12.845756	1.884666	-51.618623
20149		12.832648	1.856047	-50.787882
20150		12.897326	1.828464	-49.955497
20151		13.045235	1.790242	-49.118603
20152		13.208456	1.754821	-48.267169
20153		13.333726	1.723148	-47.401615
20154		13.382563	1.695162	-46.527771
20155		13.379900	1.673368	-45.645692
20156		13.369458	1.650329	-44.756571
20157		13.395212	1.615711	-43.865054
20158		13.553545	1.567458	-42.984932
20159		13.799916	1.535790	-42.097509
20160		14.012377	1.487719	-41.196481
20161		14.138111	1.435911	-40.282530
20162		14.149651	1.397831	-39.357326
20163		14.066450	1.361958	-38.430353
20164		13.948395	1.344763	-37.496977
20165		13.909717	1.346706	-36.546019
20166		13.966781	1.342484	-35.581745
20167		14.155148	1.347040	-34.620219
20168		14.413351	1.362372	-33.671419
20169		14.688145	1.375293	-32.723314
20170		14.916304	1.386945	-31.768029
20171		15.050948	1.393292	-30.815051
20172		15.081049	1.398006	-29.864534
20173		15.078128	1.414453	-28.917104
20174		15.059554	1.440852	-27.978773
20175		15.054897	1.470671	-27.051674
20176		15.047287	1.512217	-26.126698
20177		15.049200	1.563020	-25.209628
20178		15.001132	1.607205	-24.302966
20179		14.917186	1.659480	-23.404871
20180		14.831145	1.708211	-22.508096
20181		14.748643	1.744451	-21.622527
20182		14.706739	1.779309	-20.746734
20183		14.710397	1.815406	-19.865891
20184		14.733720	1.851508	-18.990272
20185		14.780353	1.894144	-18.127362
20186		14.803806	1.930597	-17.274401
20187		14.823304	1.960712	-16.428157
20188		14.896168	1.984450	-15.583792
20189		15.035694	2.014049	-14.747629
20190		15.225727	2.046504	-13.917032
20191		15.462344	2.096244	-13.087604
20192		15.662186	2.144719	-12.268432
20193		15.795291	2.189053	-11.467951
20194		15.846859	2.225437	-10.683170
20195		15.811538	2.249114	-9.915904
20196		15.749721	2.265990	-9.155295
20197		15.708335	2.285696	-8.390520
20198		15.721566	2.312617	-7.629783
20199		15.759181	2.356850	-6.863922
20200		15.774663	2.405557	-6.105705
20201		15.773328	2.450635	-5.362316
20202		15.771835	2.494047	-4.637633
20203		15.759247	2.525513	-3.925943
20204		15.744760	2.552099	-3.223420
20205		15.738362	2.579981	-2.513681
20206		15.722573	2.614132	-1.803365
20207		15.706563	2.658496	-1.090296
20208		15.696143	2.697146	-0.394881
20209		15.709797	2.742577	0.277865
20210		15.736113	2.787019	0.933081
20211		15.720131	2.829320	1.582243
20212		15.626916	2.877567	2.233314
20213		15.466147	2.926308	2.877772
20214		15.222410	2.972790	3.500035
20215		14.968162	3.022061	4.101872
20216		14.740326	3.074036	4.684141
20217		14.551472	3.141945	5.249699
20218		14.445667	3.212284	5.793405
20219		14.407681	3.289664	6.315331
20220		14.353011	3.365763	6.822414
20221		14.257913	3.436986	7.322739
20222		14.082655	3.491776	7.804328
20223		13.856552	3.533604	8.260817
20224		13.644904	3.572172	8.696537
20225		13.470027	3.608364	9.115619
20226		13.380706	3.659422	9.521739
20227		13.382621	3.704839	9.910129
20228		13.396123	3.747044	10.273584
20229		13.391415	3.784801	10.611480
20230		13.378669	3.812209	10.926563
20231		13.364378	3.831793	11.217824
20232		13.368997	3.846242	11.488564
20233		13.438527	3.858969	11.735096
20234		13.555164	3.870698	11.955384
20235		13.695712	3.883954	12.160261
20236		13.839334	3.895653	12.354228
20237		13.961943	3.906754	12.527335
20238		14.061786	3.916964	12.670046
20239		14.140953	3.926950	12.785791
20240		14.196973	3.938247	12.877852
20241		14.238689	3.959149	12.956611
20242		14.292004	3.974306	13.026627
20243		14.357482	3.990329	13.089203
20244		14.420376	3.996252	13.147577
20245		14.479039	4.000425	13.198779
20246		14.561350	4.005102	13.240332
20247		14.671281	4.014753	13.269881
20248		14.803128	4.021169	13.287888
20249		14.960489	4.029306	13.296129
20250		15.114123	4.037608	13.302375
20251		15.219309	4.056529	13.308238
20252		15.271550	4.078520	13.318801
20253		15.246716	4.108147	13.325761
20254		15.184965	4.125514	13.328512
20255		15.093340	4.143306	13.322499
20256		15.015602	4.162888	13.307212
20257		14.969486	4.177218	13.288407
20258		14.962483	4.179972	13.268922
20259		14.956248	4.187387	13.250632
20260		14.954142	4.196774	13.235716
20261		14.960942	4.202636	13.209483
20262		14.954978	4.202199	13.170958
20263		14.949218	4.203378	13.120859
20264		14.950685	4.200842	13.066509
20265		14.950256	4.203363	13.018351
20266		14.949210	4.198299	12.975847
20267		14.938739	4.188164	12.931846
20268		14.903149	4.179756	12.887256
20269		14.854338	4.170247	12.842205
20270		14.792810	4.157419	12.785895
20271		14.739253	4.145478	12.720066
20272		14.711886	4.135783	12.644874
20273		14.717499	4.125263	12.572263
20274		14.702441	4.109266	12.508650
20275		14.658721	4.110688	12.445598
20276		14.618220	4.109407	12.374448
20277		14.540603	4.104248	12.286332
20278		14.439195	4.087642	12.184070
20279		14.318601	4.062730	12.076306
20280		14.207452	4.036556	11.967829
20281		14.115215	4.012793	11.855505
20282		14.051659	3.989676	11.738073
20283		14.013863	3.978325	11.610664
20284		14.018709	3.966870	11.465484
20285		14.049022	3.956936	11.310138
20286		14.053924	3.942100	11.145099
20287		14.032430	3.923685	10.971655
20288		13.964656	3.902272	10.789259
20289		13.868582	3.887564	10.591739
20290		13.772618	3.871094	10.373033
20291		13.678387	3.853766	10.133145
20292		13.607903	3.838379	9.873292
20293		13.548837	3.824145	9.603018
20294		13.496991	3.802573	9.317203
20295		13.453690	3.787104	9.018795
20296		13.400701	3.774169	8.709521
20297		13.325413	3.769822	8.387330
20298		13.229480	3.761742	8.043828
20299		13.100443	3.752143	7.691371
20300		12.971698	3.743857	7.325990
20301		12.857380	3.736621	6.948751
20302		12.782313	3.731927	6.563654
20303		12.766193	3.733405	6.167233
20304		12.760442	3.733709	5.759187
20305		12.722014	3.751083	5.340116
20306		12.625120	3.753713	4.910916
20307		12.427276	3.750959	4.467479
20308		12.120811	3.739687	4.030405
20309		11.727775	3.727493	3.604228
20310		11.325209	3.717148	3.185830
20311		11.016445	3.703647	2.768325
20312		10.818613	3.687026	2.338070
20313		10.733061	3.674981	1.887755
20314		10.661690	3.660071	1.429962
20315		10.561713	3.644865	0.958004
20316		10.403430	3.612950	0.477953
20317		10.161871	3.579345	-0.001460
20318		9.943427	3.544596	-0.488429
20319		9.745234	3.503274	-0.986571
20320		9.579096	3.465682	-1.499026
20321		9.471382	3.426334	-2.031888
20322		9.381268	3.388019	-2.586721
20323		9.253218	3.343511	-3.137696
20324		9.095846	3.290083	-3.692591
20325		8.903823	3.241838	-4.257722
20326		8.709998	3.202483	-4.837936
20327		8.505587	3.174356	-5.442583
20328		8.310843	3.161557	-6.078120
20329		8.142478	3.155671	-6.740334
20330		8.000033	3.153838	-7.423508
20331		7.832526	3.170433	-8.120995
20332		7.621164	3.188158	-8.830843
20333		7.360879	3.198594	-9.539385
20334		7.055941	3.200796	-10.242399
20335		6.765068	3.202025	-10.943538
20336		6.524690	3.208306	-11.656409
20337		6.332462	3.216849	-12.371990
20338		6.205845	3.224318	-13.098190
20339		6.127257	3.248096	-13.838953
20340		6.068911	3.277996	-14.591898
20341		6.006873	3.313455	-15.362180
20342		5.914678	3.348343	-16.141774
20343		5.772864	3.378997	-16.904064
20344		5.601511	3.407606	-17.647782
20345		5.427367	3.444783	-18.384998
20346		5.289555	3.483058	-19.127906
20347		5.213409	3.519399	-19.893015
20348		5.226807	3.566468	-20.682783
20349		5.322644	3.612576	-21.488931
20350		5.430850	3.659580	-22.310071
20351		5.488152	3.707415	-23.142728
20352		5.448037	3.756715	-23.974587
20353		5.320714	3.816832	-24.803983
20354		5.099736	3.867760	-25.635885
20355		4.825663	3.915970	-26.482688
20356		4.548444	3.970562	-27.342837
20357		4.264728	4.027923	-28.207435
20358		3.954485	4.079023	-29.071004
20359		3.623334	4.132850	-29.928043
20360		3.283969	4.193605	-30.784575
20361		2.940471	4.258657	-31.644746
20362		2.672799	4.310245	-32.518197
20363		2.481604	4.366763	-33.397912
20364		2.376136	4.406783	-34.270134
20365		2.323836	4.441878	-35.143680
20366		2.296897	4.470773	-36.010397
20367		2.269385	4.477814	-36.873435
20368		2.247802	4.486838	-37.748019
20369		2.261883	4.516899	-38.637516
20370		2.339219	4.554699	-39.545072
20371		2.505461	4.596176	-40.461744
20372		2.777911	4.634029	-41.382027
20373		3.135597	4.662733	-42.294067
20374		3.474753	4.667872	-43.169976
20375		3.683353	4.641425	-44.023247
20376		3.748251	4.622776	-44.871161
20377		3.697937	4.618831	-45.720899
20378		3.617687	4.624209	-46.576028
20379		3.575830	4.640837	-47.431319
20380		3.627175	4.668373	-48.257677
20381		3.736410	4.680544	-49.056386
20382		3.866015	4.696667	-49.861313
20383		3.991297	4.702556	-50.674185
20384		4.090128	4.695746	-51.506560
20385		4.165340	4.699061	-52.341521
20386		4.299168	4.704451	-53.168879
20387		4.518247	4.725597	-53.997374
20388		4.841322	4.740030	-54.802860
20389		5.161547	4.714492	-55.591280
20390		5.385352	4.682642	-56.381982
20391		5.490005	4.676502	-57.175426
20392		5.510302	4.656678	-57.986951
20393		5.464209	4.642459	-58.823470
20394		5.436475	4.642022	-59.674649
20395		5.457662	4.656918	-60.530659
20396		5.579161	4.679536	-61.389995
20397		5.820051	4.681515	-62.248730
20398		6.040761	4.670164	-63.066782
20399		6.154209	4.655026	-63.859545
20400		6.153676	4.623031	-64.659577
20401		6.027304	4.614548	-65.463912
20402		5.882881	4.603568	-66.269914
20403		5.738973	4.591181	-67.079771
20404		5.665904	4.594287	-67.887787
20405		5.703217	4.615769	-68.697640
20406		5.796590	4.652105	-69.487377
20407		5.911141	4.671277	-70.250122
20408		6.001056	4.669587	-71.008118
20409		6.037643	4.675202	-71.770879
20410		6.041659	4.686383	-72.529410
20411		6.053577	4.702499	-73.273814
20412		6.113054	4.719461	-74.008123
20413		6.239133	4.738473	-74.731163
20414		6.417922	4.757697	-75.440877
20415		6.603018	4.773443	-76.133355
20416		6.723010	4.791436	-76.825856
20417		6.750279	4.811780	-77.522671
20418		6.728953	4.834313	-78.213143
20419		6.704195	4.878110	-78.890982
20420		6.762099	4.916464	-79.544617
20421		6.954747	4.936016	-80.188596
20422		7.217265	4.951760	-80.825599
20423		7.565008	4.964289	-81.457111
20424		7.936707	4.969469	-82.083460
20425		8.260874	4.983425	-82.708334
20426		8.524886	5.003515	-83.334043
20427		8.738434	5.027576	-83.964727
20428		8.923339	5.059727	-84.585048
20429		9.163835	5.083125	-85.191452
20430		9.462578	5.106690	-85.783285
20431		9.816435	5.125790	-86.367306
20432		10.225920	5.147968	-86.962572
20433		10.676334	5.181611	-87.565422
20434		11.181783	5.204754	-88.165569
20435		11.714531	5.230473	-88.752239
20436		12.221503	5.266822	-89.312967
20437		12.698240	5.299521	-89.849988
20438		13.009476	5.344581	-90.361629
20439		13.188118	5.393569	-90.858808
20440		13.273882	5.431774	-91.348245
20441		13.288804	5.464406	-91.834086
20442		13.296416	5.505908	-92.306901
20443		13.328942	5.553848	-92.760250
20444		13.404945	5.607196	-93.190643
20445		13.500693	5.658306	-93.599081
20446		13.644528	5.733878	-93.979380
20447		13.839954	5.809974	-94.328145
20448		14.069701	5.863929	-94.646665
20449		14.308985	5.919887	-94.939738
20450		14.524992	5.984683	-95.207041
20451		14.702832	6.037854	-95.459709
20452		14.822952	6.104522	-95.685918
20453		14.884617	6.171213	-95.885327
20454		14.906775	6.230351	-96.065893
20455		14.906245	6.298333	-96.225309
20456		14.914655	6.372815	-96.363269
20457		14.950278	6.450849	-96.475546
20458		15.031661	6.529372	-96.556984
20459		15.158738	6.593682	-96.621139
20460		15.242129	6.648632	-96.667945
20461		15.238232	6.709907	-96.694480
20462		15.161448	6.771425	-96.704944
20463		15.032186	6.832818	-96.705601
20464		14.890637	6.893650	-96.694172
20465		14.792404	6.948773	-96.671605
20466		14.755722	6.993689	-96.626132
20467		14.769292	7.023058	-96.557439
20468		14.813862	7.057292	-96.468175
20469		14.839735	7.082435	-96.360768
20470		14.834454	7.105463	-96.238235
20471		14.813827	7.129486	-96.103262
20472		14.778104	7.153263	-95.957225
20473		14.765343	7.169104	-95.799008
20474		14.790940	7.168814	-95.629429
20475		14.842512	7.159734	-95.449641
20476		14.866735	7.151697	-95.250807
20477		14.889787	7.133817	-95.039838
20478		14.880240	7.113171	-94.820178
20479		14.849703	7.102172	-94.584247
20480		14.845258	7.095117	-94.332990
20481		14.891956	7.083970	-94.064380
20482		15.013149	7.068403	-93.768042
20483		15.227238	7.039761	-93.445515
20484		15.480201	7.006837	-93.102554
20485		15.712684	6.974188	-92.737322
20486		15.890402	6.943875	-92.351544
20487		16.008840	6.921783	-91.943126
20488		16.109797	6.894977	-91.517629
20489		16.225972	6.865361	-91.077915
20490		16.365571	6.829230	-90.627887
20491		16.558576	6.782119	-90.173656
20492		16.777544	6.723407	-89.723517
20493		16.961995	6.670851	-89.264125
20494		17.098787	6.616318	-88.789042
20495		17.185634	6.554737	-88.300230
20496		17.292568	6.481203	-87.796724
20497		17.455475	6.385376	-87.279399
20498		17.684256	6.281914	-86.763236
20499		17.959364	6.172078	-86.249675
20500		18.224321	6.058462	-85.733530
20501		18.398329	5.948119	-85.210331
20502		18.465674	5.849785	-84.673144
20503		18.440553	5.760625	-84.116975
20504		18.377561	5.686490	-83.527584
20505		18.359154	5.615121	-82.898525
20506		18.432762	5.512633	-82.264098
20507		18.571460	5.413141	-81.630052
20508		18.737200	5.310193	-81.002097
20509		18.848737	5.215542	-80.355124
20510		18.874194	5.123676	-79.692697
20511		18.817094	5.033581	-79.023997
20512		18.688920	4.967185	-78.341061
20513		18.568444	4.916239	-77.647118
20514		18.506418	4.864803	-76.949984
20515		18.571197	4.798287	-76.271301
20516		18.769994	4.728010	-75.605618
20517		19.021818	4.658423	-74.948765
20518		19.235383	4.580480	-74.297922
20519		19.351503	4.508066	-73.649536
20520		19.346951	4.444415	-73.003782
20521		19.287422	4.380121	-72.358471
20522		19.201674	4.331386	-71.702972
20523		19.170840	4.301305	-71.033661
20524		19.190053	4.262947	-70.359971
20525		19.195753	4.213958	-69.668430
20526		19.168021	4.155986	-68.968066
20527		19.077539	4.091304	-68.263158
20528		18.931876	4.025149	-67.557657
20529		18.776037	3.961266	-66.851622
20530		18.654101	3.898037	-66.138674
20531		18.591778	3.842850	-65.402014
20532		18.560868	3.811229	-64.635774
20533		18.593551	3.774858	-63.853345
20534		18.641744	3.727967	-63.053832
20535		18.656298	3.683590	-62.236221
20536		18.646816	3.631899	-61.418776
20537		18.612857	3.583967	-60.596141
20538		18.535777	3.536584	-59.769404
20539		18.432042	3.489008	-58.945707
20540		18.342167	3.442920	-58.122298
20541		18.226327	3.392762	-57.305397
20542		18.083575	3.335817	-56.491251
20543		17.907534	3.288468	-55.670367
20544		17.705592	3.245207	-54.843567
20545		17.461336	3.211965	-54.010824
20546		17.205121	3.175187	-53.190014
20547		16.942612	3.137328	-52.378450
20548		16.640558	3.102550	-51.567224
20549		16.332594	3.048093	-50.761681
20550		16.030003	2.993377	-49.953095
20551		15.773434	2.943504	-49.137420
20552		15.584037	2.900342	-48.317731
20553		15.468840	2.862053	-47.494544
20554		15.515568	2.815940	-46.687452
20555		15.620838	2.791136	-45.876678
20556		15.692215	2.755425	-45.052590
20557		15.732218	2.709788	-44.210139
20558		15.713037	2.659956	-43.348388
20559		15.658771	2.601002	-42.482855
20560		15.651189	2.546886	-41.625541
20561		15.730276	2.502844	-40.764207
20562		15.899168	2.452931	-39.911006
20563		16.126021	2.406319	-39.057112
20564		16.280196	2.371842	-38.194272
20565		16.308633	2.337114	-37.323874
20566		16.231195	2.309412	-36.445947
20567		16.060889	2.275889	-35.561787
20568		15.876834	2.237163	-34.678149
20569		15.787978	2.200319	-33.805989
20570		15.777592	2.175462	-32.929207
20571		15.784579	2.163911	-32.043424
20572		15.707342	2.161590	-31.141735
20573		15.482441	2.162251	-30.224341
20574		15.213638	2.160132	-29.304076
20575		14.990470	2.144882	-28.399031
20576		14.899738	2.135118	-27.512495
20577		14.986720	2.140835	-26.623295
20578		15.156605	2.168903	-25.719419
20579		15.311432	2.206592	-24.812332
20580		15.383725	2.231640	-23.907865
20581		15.379532	2.248946	-23.020270
20582		15.378368	2.262950	-22.152570
20583		15.422908	2.276075	-21.298957
20584		15.516238	2.293758	-20.446113
20585		15.650747	2.320336	-19.581865
20586		15.745140	2.341004	-18.716048
20587		15.799210	2.362578	-17.857795
20588		15.818512	2.370694	-17.019154
20589		15.839988	2.377009	-16.207549
20590		15.875776	2.373417	-15.415971
20591		15.918142	2.369559	-14.632757
20592		15.978531	2.370201	-13.853628
20593		15.990661	2.367375	-13.079526
20594		15.950460	2.368922	-12.311252
20595		15.889967	2.366808	-11.552029
20596		15.814313	2.362061	-10.806317
20597		15.775167	2.345700	-10.085657
20598		15.805950	2.331730	-9.382021
20599		15.892441	2.315930	-8.685664
20600		15.983876	2.298438	-7.991397
20601		16.070718	2.291729	-7.288221
20602		16.129897	2.292360	-6.583447
20603		16.132325	2.280584	-5.879755
20604		16.140512	2.254429	-5.191706
20605		16.215900	2.235567	-4.524723
20606		16.333803	2.209667	-3.864424
20607		16.433171	2.201020	-3.198637
20608		16.448916	2.218679	-2.530897
20609		16.287590	2.259797	-1.859590
20610		15.948854	2.298512	-1.201277
20611		15.520772	2.330701	-0.567080
20612		15.088239	2.368236	0.056806
20613		14.710958	2.412403	0.678821
20614		14.360145	2.483228	1.308898
20615		14.061301	2.569358	1.936044
20616		13.737521	2.638207	2.544508
20617		13.384709	2.690481	3.127562
20618		13.043610	2.719400	3.691314
20619		12.832356	2.730514	4.233910
20620		12.766530	2.733931	4.759706
20621		12.792314	2.735493	5.275592
20622		12.818537	2.729100	5.788274
20623		12.813379	2.723296	6.286963
20624		12.737423	2.724196	6.763075
20625		12.644635	2.716154	7.200690
20626		12.551543	2.695065	7.596704
20627		12.518032	2.689561	7.968068
20628		12.491894	2.691289	8.329630
20629		12.421463	2.690416	8.677289
20630		12.293255	2.685967	9.005491
20631		12.126283	2.674652	9.310392
20632		11.971467	2.648035	9.589451
20633		11.878634	2.614472	9.838635
20634		11.894450	2.583134	10.056814
20635		11.981101	2.564326	10.251490
20636		12.065584	2.532778	10.415005
20637		12.079417	2.488626	10.562962
20638		12.044070	2.442886	10.707771
20639		11.992382	2.397778	10.843277
20640		11.988668	2.357716	10.968445
20641		12.062183	2.332635	11.074648
20642		12.188921	2.314879	11.170574
20643		12.304969	2.301113	11.256817
20644		12.384712	2.273919	11.334623
20645		12.378538	2.241788	11.412920
20646		12.311896	2.207935	11.495283
20647		12.233439	2.177003	11.572079
20648		12.183375	2.162161	11.638571
20649		12.183946	2.157297	11.695258
20650		12.190931	2.147836	11.742453
20651		12.178288	2.142163	11.784933
20652		12.137921	2.134690	11.824811
20653		12.087186	2.127502	11.863992
20654		12.045958	2.117281	11.891423
20655		12.027045	2.111531	11.917458
20656		12.033086	2.103051	11.947221
20657		12.081088	2.098034	11.976737
20658		12.132221	2.086582	11.997405
20659		12.171906	2.074086	12.006077
20660		12.211478	2.056915	12.005360
20661		12.234853	2.039175	11.992247
20662		12.251125	2.029149	11.975083
20663		12.279320	2.022052	11.951238
20664		12.296613	2.014600	11.923255
20665		12.311564	2.013589	11.886336
20666		12.330739	2.004590	11.831810
20667		12.338780	1.990868	11.763912
20668		12.325250	1.981689	11.680976
20669		12.315965	1.968825	11.583939
20670		12.290042	1.955282	11.470093
20671		12.275305	1.950663	11.349811
20672		12.278342	1.948141	11.227711
20673		12.287986	1.944539	11.102642
20674		12.305814	1.939351	10.968958
20675		12.333829	1.941560	10.818309
20676		12.361432	1.928942	10.650464
20677		12.368033	1.915505	10.479438
20678		12.361640	1.904341	10.314953
20679		12.347081	1.901635	10.153571
20680		12.314019	1.900194	9.990786
20681		12.275656	1.904180	9.817638
20682		12.251272	1.906284	9.621980
20683		12.236048	1.899797	9.408821
20684		12.232271	1.894474	9.185230
20685		12.222286	1.885196	8.960966
20686		12.219987	1.876031	8.740560
20687		12.203548	1.875164	8.522330
20688		12.212440	1.877690	8.302327
20689		12.211008	1.877716	8.070325
20690		12.197599	1.876461	7.821292
20691		12.178840	1.873295	7.561328
20692		12.163226	1.871990	7.284623
20693		12.136528	1.873146	7.002145
20694		12.134023	1.875759	6.714416
20695		12.113218	1.869508	6.420660
20696		12.052852	1.859043	6.125273
20697		11.968153	1.838888	5.816006
20698		11.872494	1.810154	5.485434
20699		11.789954	1.788940	5.133128
20700		11.736262	1.783400	4.761029
20701		11.717178	1.778985	4.370976
20702		11.677847	1.771165	3.983422
20703		11.602400	1.756477	3.605552
20704		11.524183	1.739408	3.222434
20705		11.462704	1.723387	2.827048
20706		11.455657	1.699015	2.407065
20707		11.486199	1.672196	1.959630
20708		11.514131	1.651759	1.493464
20709		11.484471	1.640386	1.019688
20710		11.363273	1.624609	0.550800
20711		11.163157	1.607294	0.085937
20712		10.960458	1.580818	-0.382572
20713		10.778575	1.550452	-0.863348
20714		10.669847	1.521588	-1.365274
20715		10.633251	1.488106	-1.886594
20716		10.639972	1.462800	-2.419499
20717		10.652669	1.450667	-2.964243
20718		10.624420	1.431316	-3.517148
20719		10.552994	1.419311	-4.079938
20720		10.428483	1.396368	-4.643921
20721		10.290914	1.362425	-5.224360
20722		10.153598	1.331568	-5.818468
20723		10.044026	1.306891	-6.421551
20724		9.968716	1.284152	-7.033783
20725		9.911452	1.267717	-7.650482
20726		9.861861	1.249918	-8.282683
20727		9.787736	1.239009	-8.928601
20728		9.666375	1.224879	-9.580468
20729		9.521895	1.208853	-10.244046
20730		9.397395	1.198701	-10.911361
20731		9.299662	1.191796	-11.590596
20732		9.262270	1.200608	-12.277609
20733		9.229745	1.207314	-12.962778
20734		9.189226	1.215539	-13.657328
20735		9.133539	1.226334	-14.361176
20736		9.052009	1.233932	-15.076066
20737		8.958153	1.240330	-15.808709
20738		8.904332	1.258838	-16.552156
20739		8.886397	1.290005	-17.300599
20740		8.910368	1.315752	-18.046756
20741		8.939384	1.334671	-18.770954
20742		8.961559	1.339428	-19.477288
20743		8.962839	1.331103	-20.181119
20744		8.965944	1.327252	-20.887694
20745		9.034793	1.324869	-21.613310
20746		9.206763	1.330230	-22.360826
20747		9.445635	1.346235	-23.132883
20748		9.668612	1.366616	-23.903212
20749		9.770973	1.375254	-24.671011
20750		9.741889	1.391456	-25.444898
20751		9.571968	1.411196	-26.223970
20752		9.336015	1.420346	-27.014984
20753		9.125433	1.438080	-27.822200
20754		9.010272	1.466162	-28.645518
20755		8.996400	1.495782	-29.470327
20756		9.014746	1.517842	-30.293519
20757		9.023853	1.540704	-31.122001
20758		8.982062	1.552853	-31.953307
20759		8.868800	1.544966	-32.798223
20760		8.752320	1.528298	-33.662760
20761		8.702960	1.523347	-34.544535
20762		8.759923	1.531422	-35.438630
20763		8.944370	1.557062	-36.324481
20764		9.202367	1.596330	-37.187830
20765		9.457311	1.636818	-38.047859
20766		9.629459	1.675340	-38.919348
20767		9.701777	1.706489	-39.796642
20768		9.725512	1.727139	-40.677676
20769		9.762849	1.742166	-41.566563
20770		9.871262	1.773078	-42.458279
20771		9.980775	1.820819	-43.333360
20772		9.983101	1.866638	-44.191663
20773		9.786829	1.917149	-45.051894
20774		9.446961	1.962374	-45.901744
20775		9.018147	1.986801	-46.751777
20776		8.616629	2.010304	-47.605336
20777		8.323643	2.039181	-48.453340
20778		8.188635	2.073772	-49.299293
20779		8.204189	2.128919	-50.128334
20780		8.272393	2.167910	-50.933946
20781		8.288426	2.188671	-51.729045
20782		8.253269	2.197373	-52.519668
20783		8.200973	2.192923	-53.314868
20784		8.209358	2.178653	-54.118456
20785		8.341652	2.170652	-54.925516
20786		8.663264	2.166810	-55.733268
20787		9.175045	2.167129	-56.535992
20788		9.808643	2.169642	-57.313728
20789		10.429138	2.171169	-58.053053
20790		10.846078	2.160958	-58.778120
20791		11.033542	2.151662	-59.501749
20792		11.086449	2.138916	-60.237012
20793		11.103887	2.122679	-60.985732
20794		11.206081	2.099542	-61.739951
20795		11.437512	2.093382	-62.489826
20796		11.799042	2.100116	-63.226275
20797		12.193170	2.109937	-63.934083
20798		12.425667	2.115898	-64.628678
20799		12.461033	2.123164	-65.321505
20800		12.372223	2.122168	-66.019610
20801		12.278335	2.114814	-66.729586
20802		12.243366	2.110729	-67.439265
20803		12.325655	2.111987	-68.141519
20804		12.524198	2.113966	-68.839970
20805		12.800898	2.121661	-69.523680
20806		13.124400	2.129649	-70.196020
20807		13.332544	2.142976	-70.868283
20808		13.396118	2.170267	-71.553441
20809		13.339976	2.197479	-72.245976
20810		13.200235	2.228887	-72.940510
20811		13.083354	2.257458	-73.625424
20812		13.090784	2.278507	-74.308177
20813		13.216315	2.299112	-74.974868
20814		13.450443	2.323763	-75.623277
20815		13.710479	2.338466	-76.268186
20816		13.860500	2.364851	-76.920729
20817		13.866862	2.392633	-77.579638
20818		13.726242	2.423900	-78.234951
20819		13.582223	2.457271	-78.875350
20820		13.541305	2.469012	-79.502807
20821		13.636583	2.467438	-80.112859
20822		13.875600	2.457019	-80.694923
20823		14.153930	2.443461	-81.254086
20824		14.393858	2.428613	-81.807701
20825		14.528706	2.422765	-82.356665
20826		14.537496	2.427636	-82.897700
20827		14.423160	2.438765	-83.427015
20828		14.313016	2.449898	-83.939740
20829		14.302514	2.437401	-84.438180
20830		14.397949	2.429707	-84.909602
20831		14.597897	2.416230	-85.352966
20832		14.846808	2.391617	-85.773719
20833		15.026247	2.386215	-86.173889
20834		15.151667	2.389364	-86.559654
20835		15.219736	2.402224	-86.931671
20836		15.261799	2.418873	-87.286581
20837		15.365867	2.431501	-87.623833
20838		15.547455	2.448125	-87.931481
20839		15.770010	2.455061	-88.205624
20840		15.972047	2.458659	-88.456355
20841		16.103973	2.473606	-88.689728
20842		16.160378	2.489670	-88.913810
20843		16.153040	2.518846	-89.124325
20844		16.139807	2.543262	-89.315509
20845		16.164960	2.560782	-89.489914
20846		16.249577	2.578433	-89.653474
20847		16.380132	2.602121	-89.797824
20848		16.531727	2.618594	-89.917463
20849		16.612813	2.641617	-90.011595
20850		16.594743	2.685130	-90.087254
20851		16.504146	2.733046	-90.154825
20852		16.374370	2.784501	-90.216632
20853		16.270421	2.843621	-90.257405
20854		16.253486	2.877335	-90.285294
20855		16.292783	2.888992	-90.312687
20856		16.331529	2.910169	-90.332408
20857		16.315973	2.933374	-90.336292
20858		16.226910	2.947513	-90.326596
20859		16.090434	2.984049	-90.305114
20860		15.946088	3.029281	-90.267478
20861		15.854194	3.067278	-90.213035
20862		15.839151	3.088971	-90.153380
20863		15.896682	3.106643	-90.098449
20864		16.000484	3.128882	-90.043579
20865		16.104516	3.142403	-89.980706
20866		16.139843	3.160715	-89.903058
20867		16.096128	3.192490	-89.812039
20868		16.006387	3.224381	-89.730851
20869		15.882997	3.260384	-89.643739
20870		15.800010	3.291913	-89.544759
20871		15.757091	3.310702	-89.437841
20872		15.760954	3.329002	-89.324826
20873		15.790353	3.344788	-89.211188
20874		15.808868	3.358290	-89.097316
20875		15.820360	3.382227	-88.981623
20876		15.806795	3.412060	-88.853511
20877		15.784053	3.434606	-88.716744
20878		15.773334	3.453062	-88.569887
20879		15.797976	3.472866	-88.409056
20880		15.872478	3.480125	-88.238985
20881		15.981716	3.477897	-88.055441
20882		16.089965	3.479224	-87.855816
20883		16.192129	3.485189	-87.642315
20884		16.257115	3.493726	-87.418183
20885		16.318484	3.506010	-87.185770
20886		16.360061	3.509414	-86.955910
20887		16.372634	3.524322	-86.718557
20888		16.413016	3.530610	-86.475762
20889		16.447365	3.526231	-86.222217
20890		16.496724	3.523420	-85.946806
20891		16.568425	3.518709	-85.639338
20892		16.651389	3.522964	-85.304385
20893		16.758252	3.526331	-84.955480
20894		16.922567	3.501312	-84.629297
20895		17.061774	3.491170	-84.317679
20896		17.167598	3.493731	-84.005496
20897		17.206445	3.494843	-83.677495
20898		17.170215	3.498753	-83.332922
20899		17.082863	3.512663	-82.971577
20900		16.987771	3.527973	-82.603753
20901		16.938510	3.533408	-82.224535
20902		16.955266	3.538738	-81.837947
20903		17.047391	3.520002	-81.455333
20904		17.173010	3.501382	-81.079308
20905		17.283950	3.493118	-80.701574
20906		17.329431	3.487726	-80.306822
20907		17.279459	3.481582	-79.894590
20908		17.140679	3.485317	-79.472208
20909		16.989789	3.488444	-79.045857
20910		16.862159	3.497888	-78.601700
20911		16.850909	3.502319	-78.135767
20912		16.953945	3.483025	-77.671066
20913		17.084273	3.465149	-77.217294
20914		17.152407	3.461357	-76.770724
20915		17.119852	3.456982	-76.314954
20916		16.977893	3.455026	-75.843876
20917		16.802263	3.455348	-75.356254
20918		16.655716	3.467621	-74.848147
20919		16.585098	3.485550	-74.319534
20920		16.660387	3.477430	-73.791158
20921		16.920831	3.440349	-73.298405
20922		17.235675	3.412835	-72.823188
20923		17.518778	3.396835	-72.340718
20924		17.707637	3.388376	-71.841822
20925		17.765156	3.382769	-71.309160
20926		17.764552	3.390994	-70.744502
20927		17.737562	3.388583	-70.158229
20928		17.741704	3.360821	-69.574661
20929		17.814714	3.339521	-68.984278
20930		17.972736	3.296194	-68.399692
20931		18.188680	3.244537	-67.813854
20932		18.409990	3.194552	-67.218216
20933		18.589479	3.156203	-66.619362
20934		18.711108	3.137242	-65.999965
20935		18.747130	3.120982	-65.349857
20936		18.754623	3.101347	-64.688663
20937		18.742170	3.070423	-64.031594
20938		18.738152	3.028679	-63.384664
20939		18.750670	2.982403	-62.728191
20940		18.782187	2.932713	-62.055735
20941		18.827786	2.877530	-61.368644
20942		18.847672	2.826008	-60.671286
20943		18.849864	2.774698	-59.972544
20944		18.818588	2.732036	-59.273359
20945		18.783005	2.682725	-58.570131
20946		18.744789	2.618345	-57.860210
20947		18.760165	2.555447	-57.135082
20948		18.882453	2.482887	-56.401635
20949		19.107502	2.398094	-55.679649
20950		19.365829	2.324250	-54.961149
20951		19.620082	2.263235	-54.238838
20952		19.811601	2.197302	-53.514151
20953		19.909972	2.137636	-52.780403
20954		19.964927	2.072298	-52.038847
20955		20.022762	2.005184	-51.284065
20956		20.160518	1.933820	-50.520076
20957		20.427224	1.850873	-49.757215
20958		20.758112	1.781515	-48.988266
20959		21.128500	1.716958	-48.196834
20960		21.447790	1.652466	-47.387289
20961		21.693810	1.593020	-46.565367
20962		21.912066	1.517404	-45.741468
20963		22.188558	1.446228	-44.919693
20964		22.559784	1.371613	-44.110346
20965		23.004610	1.303268	-43.295498
20966		23.464327	1.243942	-42.464461
20967		23.855569	1.195610	-41.632452
20968		24.089684	1.145018	-40.804101
20969		24.180746	1.099852	-39.978028
20970		24.185385	1.067922	-39.158146
20971		24.156135	1.036157	-38.345033
20972		24.105566	1.014208	-37.519343
20973		24.080862	0.978798	-36.688617
20974		24.080846	0.942785	-35.862292
20975		24.082460	0.906002	-35.038915
20976		24.106067	0.881333	-34.211747
20977		24.122123	0.868546	-33.375141
20978		24.130999	0.861764	-32.529337
20979		24.151754	0.860509	-31.672728
20980		24.222878	0.843039	-30.813736
20981		24.371921	0.803166	-29.972541
20982		24.559650	0.773411	-29.147088
20983		24.717348	0.728618	-28.342970
20984		24.773195	0.687083	-27.545796
20985		24.692191	0.649477	-26.752062
20986		24.517611	0.621975	-25.960850
20987		24.315914	0.605325	-25.173275
20988		24.099141	0.601237	-24.392402
20989		23.954360	0.589349	-23.627494
20990		23.851897	0.571658	-22.866275
20991		23.797734	0.544065	-22.117201
20992		23.779719	0.511706	-21.381484
20993		23.770336	0.483128	-20.659423
20994		23.728872	0.451725	-19.962334
20995		23.630667	0.426191	-19.279316
20996		23.528480	0.404248	-18.612818
20997		23.430395	0.380595	-17.961632
20998		23.344408	0.365072	-17.312775
20999		23.260367	0.350734	-16.667121
21000		23.175559	0.332829	-16.031341
21001		23.086004	0.314812	-15.413479
21002		22.998487	0.300639	-14.813265
21003		22.946256	0.286073	-14.237584
21004		22.937297	0.274060	-13.673731
21005		22.962565	0.264045	-13.118127
21006		22.989879	0.253126	-12.569454
21007		22.991000	0.237399	-12.016020
21008		22.941406	0.213900	-11.457430
21009		22.824258	0.188575	-10.898485
21010		22.694225	0.161115	-10.348789
21011		22.567613	0.136670	-9.807352
21012		22.496828	0.120807	-9.271589
21013		22.488541	0.104748	-8.736359
21014		22.516799	0.088560	-8.203619
21015		22.538810	0.080981	-7.670237
21016		22.520045	0.073681	-7.139034
21017		22.433382	0.059671	-6.619560
21018		22.294799	0.050833	-6.104087
21019		22.128584	0.041592	-5.592370
21020		21.946738	0.036687	-5.073474
21021		21.786109	0.032670	-4.548308
21022		21.648759	0.031488	-4.029362
21023		21.523869	0.037940	-3.519771
21024		21.409650	0.044581	-3.020557
21025		21.280930	0.051646	-2.529821
21026		21.131755	0.059217	-2.041555
21027		20.969267	0.074530	-1.559706
21028		20.813808	0.087819	-1.085257
21029		20.638869	0.109294	-0.621248
21030		20.466493	0.135802	-0.154779
21031		20.280095	0.164257	0.299649
21032		20.026022	0.194384	0.747342
21033		19.679864	0.223726	1.184892
21034		19.277166	0.253184	1.611928
21035		18.843856	0.278139	2.022629
21036		18.450391	0.319567	2.434384
21037		18.159748	0.366509	2.842035
21038		17.966057	0.411367	3.249151
21039		17.824531	0.453240	3.660141
21040		17.708363	0.486880	4.068461
21041		17.618751	0.508737	4.467319
21042		17.561003	0.528358	4.851600
21043		17.531175	0.547046	5.229562
21044		17.509163	0.567754	5.605655
21045		17.496419	0.595873	5.974739
21046		17.484101	0.624138	6.335951
21047		17.450829	0.648034	6.696408
21048		17.403867	0.668354	7.051739
21049		17.340906	0.689423	7.401009
21050		17.284689	0.718490	7.746560
21051		17.247715	0.756063	8.084327
21052		17.206682	0.784777	8.412156
21053		17.162057	0.806092	8.733910
21054		17.122261	0.826923	9.046655
21055		17.092077	0.846197	9.348578
21056		17.071844	0.865732	9.637461
21057		17.071072	0.890284	9.912659
21058		17.113056	0.915252	10.178531
21059		17.173148	0.938718	10.441933
21060		17.229171	0.966103	10.710474
21061		17.253813	0.990583	10.971750
21062		17.230840	1.017350	11.225448
21063		17.187358	1.046460	11.462200
21064		17.135705	1.076846	11.677304
21065		17.088497	1.107848	11.870261
21066		17.064401	1.134729	12.050329
21067		17.038720	1.160207	12.226111
21068		17.012114	1.190690	12.390927
21069		16.976042	1.228796	12.547086
21070		16.929590	1.261698	12.693745
21071		16.884106	1.299505	12.824291
21072		16.863410	1.338626	12.936332
21073		16.836046	1.384430	13.035495
21074		16.808458	1.426223	13.122233
21075		16.772380	1.458879	13.205971
21076		16.724317	1.488473	13.285728
21077		16.708827	1.517752	13.354838
21078		16.730890	1.551103	13.409601
21079		16.783449	1.581989	13.449370
21080		16.855722	1.611617	13.475029
21081		16.922919	1.635372	13.488997
21082		16.968577	1.655702	13.502828
21083		16.980230	1.676086	13.516275
21084		16.943179	1.702152	13.543555
21085		16.877790	1.739494	13.565285
21086		16.811715	1.772176	13.578064
21087		16.762104	1.799107	13.585847
21088		16.744077	1.821578	13.583922
21089		16.764495	1.843722	13.577587
21090		16.825586	1.868111	13.570502
21091		16.889985	1.890114	13.565898
21092		16.933370	1.909041	13.562752
21093		16.925705	1.934565	13.561876
21094		16.879551	1.964878	13.559642
21095		16.817229	1.994412	13.554577
21096		16.771844	2.025864	13.546688
21097		16.752759	2.056470	13.531110
21098		16.757605	2.085152	13.508139
21099		16.779854	2.109373	13.481419
21100		16.802245	2.135246	13.453389
21101		16.786256	2.158889	13.425057
21102		16.737915	2.191236	13.396453
21103		16.680955	2.221964	13.358860
21104		16.610422	2.248769	13.304707
21105		16.552844	2.274982	13.237398
21106		16.531984	2.293228	13.158521
21107		16.551910	2.309813	13.073308
21108		16.589317	2.325327	12.983020
21109		16.616208	2.347744	12.878113
21110		16.628259	2.364978	12.756729
21111		16.584520	2.385808	12.621418
21112		16.496116	2.400019	12.475162
21113		16.373684	2.408036	12.314384
21114		16.231544	2.416851	12.143754
21115		16.126161	2.419782	11.961550
21116		16.070479	2.418338	11.766686
21117		16.085378	2.414865	11.564654
21118		16.153530	2.419490	11.350215
21119		16.252433	2.419508	11.119552
21120		16.346316	2.410770	10.870219
21121		16.387941	2.401329	10.609096
21122		16.379612	2.383206	10.336044
21123		16.328570	2.378221	10.051544
21124		16.254860	2.369008	9.759443
21125		16.164828	2.355878	9.457972
21126		16.087791	2.338493	9.151700
21127		16.042747	2.320268	8.835755
21128		16.039674	2.301189	8.505725
21129		16.077599	2.282306	8.160380
21130		16.135296	2.258733	7.805565
21131		16.156470	2.230695	7.440745
21132		16.133270	2.210298	7.071056
21133		16.064093	2.190359	6.698996
21134		15.962170	2.166590	6.314631
21135		15.841767	2.141832	5.917423
21136		15.728270	2.119187	5.512306
21137		15.620561	2.094659	5.097137
21138		15.514961	2.073411	4.675717
21139		15.416309	2.060470	4.246765
21140		15.328110	2.041586	3.800445
21141		15.228642	2.015868	3.340976
21142		15.171808	1.982079	2.881346
21143		15.154138	1.939434	2.420159
21144		15.183358	1.894570	1.955947
21145		15.244975	1.849626	1.493059
21146		15.335040	1.799288	1.022261
21147		15.414770	1.750743	0.545270
21148		15.445377	1.707329	0.061576
21149		15.429593	1.663733	-0.425456
21150		15.379525	1.624393	-0.926940
21151		15.305744	1.591197	-1.445097
21152		15.233359	1.562059	-1.976179
21153		15.177022	1.530951	-2.504535
21154		15.140075	1.499830	-3.032928
21155		15.075854	1.474115	-3.558272
21156		14.986058	1.447065	-4.084440
21157		14.880007	1.424490	-4.622429
21158		14.772033	1.404964	-5.174764
21159		14.690890	1.388157	-5.739931
21160		14.643786	1.368334	-6.308394
21161		14.622331	1.351745	-6.872138
21162		14.631105	1.337101	-7.438544
21163		14.625555	1.334929	-8.013974
21164		14.590260	1.343319	-8.596997
21165		14.564596	1.346772	-9.192402
21166		14.511871	1.354053	-9.793603
21167		14.488429	1.362844	-10.392628
21168		14.487307	1.369595	-10.980360
21169		14.502173	1.366751	-11.553597
21170		14.539227	1.366189	-12.124812
21171		14.593142	1.372071	-12.701943
21172		14.682600	1.378152	-13.290287
21173		14.797413	1.385249	-13.890311
21174		14.927824	1.393778	-14.499539
21175		15.028865	1.402120	-15.091348
21176		15.099497	1.414052	-15.666325
21177		15.145953	1.429374	-16.223540
21178		15.143033	1.442144	-16.765049
21179		15.102080	1.444660	-17.301549
21180		15.043401	1.441568	-17.830461
21181		14.978766	1.455595	-18.359201
21182		14.919906	1.474275	-18.895825
21183		14.870695	1.497161	-19.440423
21184		14.827731	1.532689	-19.982737
21185		14.794394	1.568719	-20.517266
21186		14.731930	1.594708	-21.035635
21187		14.615650	1.614532	-21.555110
21188		14.479725	1.630449	-22.075896
21189		14.327326	1.645688	-22.603144
21190		14.181659	1.671134	-23.139001
21191		14.065176	1.706619	-23.678188
21192		13.956159	1.745702	-24.216484
21193		13.847550	1.776608	-24.743952
21194		13.744513	1.797205	-25.270523
21195		13.661565	1.819737	-25.794840
21196		13.631416	1.828172	-26.318538
21197		13.645509	1.841497	-26.853181
21198		13.707150	1.865368	-27.400508
21199		13.756495	1.902304	-27.950884
21200		13.778503	1.944499	-28.501016
21201		13.717647	1.985280	-29.054287
21202		13.595720	2.023580	-29.615235
21203		13.428880	2.052414	-30.185639
21204		13.277494	2.071997	-30.759511
21205		13.201166	2.091045	-31.332760
21206		13.197669	2.119625	-31.907795
21207		13.219222	2.159723	-32.492816
21208		13.218369	2.205975	-33.082200
21209		13.154761	2.246801	-33.670419
21210		13.038841	2.282645	-34.258694
21211		12.913070	2.316784	-34.854859
21212		12.809173	2.351424	-35.445181
21213		12.771008	2.383222	-36.045820
21214		12.799381	2.415862	-36.650848
21215		12.842681	2.448534	-37.251665
21216		12.859031	2.482967	-37.843649
21217		12.830169	2.517724	-38.429888
21218		12.739653	2.549183	-39.014965
21219		12.614980	2.568088	-39.610442
21220		12.486164	2.595659	-40.218797
21221		12.377025	2.632803	-40.829133
21222		12.324636	2.664915	-41.437482
21223		12.279179	2.693867	-42.034898
21224		12.219039	2.723492	-42.630806
21225		12.163747	2.747163	-43.226053
21226		12.056482	2.764696	-43.819157
21227		11.935206	2.778658	-44.414653
21228		11.821110	2.791314	-45.016702
21229		11.756563	2.804242	-45.629768
21230		11.773481	2.814178	-46.242525
21231		11.867622	2.829039	-46.850741
21232		12.026577	2.843321	-47.445397
21233		12.187642	2.859897	-48.026996
21234		12.289785	2.884439	-48.608405
21235		12.316313	2.919244	-49.190905
21236		12.295665	2.963709	-49.776760
21237		12.237157	3.014019	-50.373566
21238		12.158674	3.069087	-50.968130
21239		12.114132	3.133644	-51.544276
21240		12.092033	3.190124	-52.107756
21241		12.027239	3.250081	-52.662308
21242		11.905809	3.308046	-53.215662
21243		11.717137	3.360060	-53.772522
21244		11.477510	3.420998	-54.329779
21245		11.336836	3.483699	-54.885249
21246		11.309550	3.539817	-55.441143
21247		11.379854	3.597190	-55.998650
21248		11.517431	3.668883	-56.552960
21249		11.636275	3.744166	-57.106943
21250		11.663133	3.819603	-57.663369
21251		11.600644	3.894117	-58.213139
21252		11.479744	3.966777	-58.757465
21253		11.361266	4.034365	-59.303539
21254		11.295327	4.087854	-59.860312
21255		11.293944	4.137561	-60.427564
21256		11.368953	4.182017	-61.007239
21257		11.457270	4.229349	-61.588957
21258		11.478215	4.274309	-62.172666
21259		11.388701	4.333103	-62.766575
21260		11.202965	4.396279	-63.367544
21261		10.930936	4.462919	-63.974375
21262		10.678841	4.524019	-64.591511
21263		10.488030	4.581679	-65.207148
21264		10.399648	4.643150	-65.803577
21265		10.441586	4.690523	-66.376315
21266		10.498148	4.726227	-66.948107
21267		10.452807	4.766859	-67.527698
21268		10.329874	4.808870	-68.110221
21269		10.103436	4.848419	-68.681459
21270		9.921362	4.899456	-69.234713
21271		9.865625	4.944077	-69.775984
21272		9.899853	4.978322	-70.293592
21273		10.002069	5.005291	-70.783237
21274		10.100103	5.030442	-71.266134
21275		10.142773	5.046991	-71.759896
21276		10.084324	5.058566	-72.256257
21277		9.920520	5.077457	-72.742192
21278		9.720423	5.105810	-73.213205
21279		9.570480	5.123063	-73.670879
21280		9.496711	5.137270	-74.112036
21281		9.518278	5.150491	-74.535635
21282		9.644196	5.160121	-74.958495
21283		9.830862	5.150613	-75.403753
21284		10.019274	5.150056	-75.849827
21285		10.113418	5.147618	-76.278372
21286		10.092579	5.157276	-76.684787
21287		9.968053	5.187055	-77.065956
21288		9.885285	5.225318	-77.424462
21289		9.869540	5.239867	-77.771350
21290		9.924895	5.260140	-78.102522
21291		10.086662	5.281977	-78.427041
21292		10.290511	5.288981	-78.748710
21293		10.425925	5.297906	-79.057937
21294		10.414501	5.323108	-79.343387
21295		10.292436	5.359783	-79.608726
21296		10.136541	5.408800	-79.851970
21297		10.010174	5.443618	-80.075061
21298		9.950807	5.464600	-80.286459
21299		9.994505	5.468096	-80.501024
21300		10.075178	5.476095	-80.719254
21301		10.131154	5.501054	-80.928151
21302		10.128564	5.547708	-81.116725
21303		10.069281	5.600719	-81.286670
21304		9.949646	5.657466	-81.441572
21305		9.839716	5.717427	-81.584705
21306		9.794722	5.757523	-81.716317
21307		9.825069	5.770300	-81.849609
21308		9.919907	5.780713	-81.992036
21309		10.039724	5.804451	-82.131456
21310		10.136416	5.832501	-82.255993
21311		10.168156	5.876554	-82.355249
21312		10.145817	5.936993	-82.428920
21313		10.113774	5.983388	-82.490973
21314		10.109961	6.014710	-82.554895
21315		10.138016	6.031690	-82.622465
21316		10.184223	6.043608	-82.686499
21317		10.235864	6.060728	-82.740077
21318		10.214114	6.077322	-82.781613
21319		10.118569	6.111083	-82.796920
21320		10.018952	6.151298	-82.786339
21321		9.917005	6.190353	-82.758588
21322		9.862503	6.212070	-82.728620
21323		9.849971	6.215852	-82.703361
21324		9.853920	6.237527	-82.668238
21325		9.909049	6.245172	-82.619991
21326		9.945565	6.246247	-82.560473
21327		9.949060	6.257382	-82.472911
21328		9.916129	6.277937	-82.355848
21329		9.873220	6.294329	-82.225105
21330		9.823567	6.305016	-82.084667
21331		9.817581	6.315270	-81.941860
21332		9.855966	6.314712	-81.797675
21333		9.904515	6.316747	-81.654046
21334		9.956615	6.324087	-81.502059
21335		9.969812	6.337778	-81.335942
21336		9.935383	6.350466	-81.148657
21337		9.861334	6.366141	-80.940475
21338		9.773544	6.379395	-80.715498
21339		9.692080	6.383439	-80.486921
21340		9.636632	6.389195	-80.262773
21341		9.600362	6.387851	-80.043061
21342		9.586795	6.388215	-79.816699
21343		9.595454	6.390426	-79.579214
21344		9.611022	6.397796	-79.322673
21345		9.634238	6.408826	-79.045778
21346		9.654496	6.417896	-78.752164
21347		9.721547	6.424994	-78.443099
21348		9.814997	6.424498	-78.127645
21349		9.952206	6.411986	-77.821381
21350		10.122229	6.398288	-77.524961
21351		10.314094	6.389916	-77.229621
21352		10.476312	6.393166	-76.920064
21353		10.561858	6.409642	-76.585289
21354		10.594570	6.431407	-76.233679
21355		10.598169	6.448443	-75.872589
21356		10.598668	6.465770	-75.497822
21357		10.661269	6.464467	-75.123559
21358		10.820834	6.438272	-74.767028
21359		11.037995	6.407540	-74.435107
21360		11.251323	6.385847	-74.111247
21361		11.386008	6.370853	-73.767551
21362		11.361915	6.374339	-73.397902
21363		11.249822	6.378866	-73.018957
21364		11.039712	6.384504	-72.639277
21365		10.859394	6.392268	-72.245602
21366		10.824369	6.380896	-71.844826
21367		10.968758	6.342176	-71.457154
21368		11.233502	6.293716	-71.087392
21369		11.486244	6.249019	-70.724782
21370		11.641194	6.211362	-70.354037
21371		11.670039	6.195681	-69.964705
21372		11.629340	6.187417	-69.554503
21373		11.558482	6.176958	-69.138409
21374		11.546153	6.157149	-68.718351
21375		11.648731	6.117564	-68.300044
21376		11.855189	6.060043	-67.892269
21377		12.109555	6.001866	-67.490159
21378		12.337704	5.946522	-67.085852
21379		12.482419	5.898396	-66.658777
21380		12.573808	5.868210	-66.206018
21381		12.638798	5.834413	-65.746720
21382		12.688587	5.799746	-65.284841
21383		12.781921	5.762671	-64.830694
21384		12.900508	5.715037	-64.391605
21385		12.991044	5.665838	-63.956708
21386		13.048863	5.611016	-63.517381
21387		13.059988	5.552459	-63.070666
21388		13.030721	5.495698	-62.619568
21389		12.952195	5.447973	-62.158159
21390		12.904274	5.414126	-61.678512
21391		12.929056	5.375437	-61.191695
21392		12.999493	5.323519	-60.719963
21393		13.122542	5.264537	-60.265123
21394		13.246809	5.203936	-59.821456
21395		13.316188	5.138194	-59.379303
21396		13.298456	5.084903	-58.930237
21397		13.180756	5.033048	-58.467145
21398		13.029463	4.993005	-57.990399
21399		12.882689	4.964514	-57.505634
21400		12.831195	4.931692	-57.016188
21401		12.922886	4.873861	-56.541574
21402		13.100104	4.807122	-56.081713
21403		13.309133	4.741246	-55.635115
21404		13.468481	4.671568	-55.190174
21405		13.526613	4.614208	-54.739897
21406		13.448360	4.570981	-54.277805
21407		13.298394	4.540262	-53.807231
21408		13.106453	4.522369	-53.329146
21409		12.977957	4.502320	-52.850786
21410		12.948929	4.483027	-52.375075
21411		12.992413	4.463852	-51.905311
21412		13.059783	4.440827	-51.442427
21413		13.101532	4.424954	-50.978838
21414		13.094482	4.417583	-50.508923
21415		13.031520	4.416118	-50.026305
21416		12.977540	4.415503	-49.534228
21417		12.997408	4.413924	-49.049729
21418		13.083435	4.416611	-48.581333
21419		13.216140	4.418559	-48.117480
21420		13.324311	4.411240	-47.645121
21421		13.380409	4.398855	-47.164067
21422		13.387344	4.388297	-46.682966
21423		13.379982	4.364026	-46.203368
21424		13.402767	4.339243	-45.727860
21425		13.480323	4.318275	-45.259182
21426		13.635953	4.288595	-44.797311
21427		13.832956	4.254250	-44.325962
21428		14.033866	4.222554	-43.842489
21429		14.199718	4.189688	-43.348755
21430		14.314266	4.169799	-42.843251
21431		14.397390	4.154250	-42.328516
21432		14.452156	4.142389	-41.813670
21433		14.517284	4.119167	-41.313501
21434		14.575186	4.089538	-40.829020
21435		14.583583	4.057157	-40.352578
21436		14.549899	4.008246	-39.869686
21437		14.482658	3.956408	-39.384003
21438		14.378879	3.907458	-38.898139
21439		14.279349	3.861669	-38.404241
21440		14.244177	3.817845	-37.906779
21441		14.289209	3.777260	-37.405964
21442		14.440985	3.738033	-36.902470
21443		14.694609	3.697189	-36.399871
21444		14.990869	3.657682	-35.894684
21445		15.279196	3.610118	-35.389201
21446		15.541240	3.564062	-34.891214
21447		15.754713	3.522499	-34.390641
21448		15.955757	3.488587	-33.879001
21449		16.155456	3.463954	-33.344761
21450		16.378386	3.463563	-32.788371
21451		16.626380	3.447547	-32.227269
21452		16.843339	3.424118	-31.664393
21453		17.042629	3.393265	-31.098845
21454		17.240136	3.352399	-30.536000
21455		17.437942	3.307419	-29.969962
21456		17.653101	3.267294	-29.397497
21457		17.890421	3.231324	-28.815747
21458		18.111366	3.206003	-28.226445
21459		18.297564	3.183701	-27.632066
21460		18.431643	3.153967	-27.043820
21461		18.505923	3.125065	-26.462978
21462		18.534075	3.089923	-25.884057
21463		18.549586	3.056684	-25.302239
21464		18.569968	3.025460	-24.708431
21465		18.611073	2.996069	-24.098359
21466		18.674180	2.968407	-23.482462
21467		18.739247	2.935790	-22.867522
21468		18.764758	2.901671	-22.257798
21469		18.763087	2.872949	-21.656174
21470		18.745309	2.846405	-21.054885
21471		18.722571	2.815087	-20.451578
21472		18.683321	2.794843	-19.838764
21473		18.672096	2.780071	-19.226546
21474		18.675287	2.765793	-18.621380
21475		18.691977	2.745484	-18.022962
21476		18.714884	2.726947	-17.421061
21477		18.727918	2.705233	-16.810387
21478		18.694806	2.690510	-16.189689
21479		18.649030	2.681417	-15.574860
21480		18.613080	2.679337	-14.971183
21481		18.613218	2.680686	-14.380028
21482		18.650844	2.683566	-13.797405
21483		18.682559	2.683362	-13.217096
21484		18.665790	2.686777	-12.629141
21485		18.568878	2.690475	-12.031385
21486		18.397240	2.703374	-11.432114
21487		18.203014	2.725915	-10.835814
21488		18.062352	2.755606	-10.264013
21489		18.003395	2.789769	-9.707973
21490		18.038014	2.827961	-9.156269
21491		18.130079	2.864432	-8.599144
21492		18.204235	2.903571	-8.038894
21493		18.223237	2.939669	-7.487925
21494		18.180567	2.977610	-6.946835
21495		18.116459	3.011335	-6.418087
21496		18.058997	3.051392	-5.895704
21497		18.036358	3.091365	-5.371650
21498		18.037598	3.138059	-4.843852
21499		18.032261	3.187130	-4.320599
21500		17.985337	3.237064	-3.806349
21501		17.887135	3.284271	-3.301922
21502		17.736061	3.331452	-2.814551
21503		17.562487	3.376696	-2.342934
21504		17.399326	3.418585	-1.875357
21505		17.261535	3.464392	-1.402167
21506		17.153605	3.514501	-0.923841
21507		17.067515	3.569540	-0.445892
21508		16.981170	3.631473	0.035672
21509		16.898658	3.692515	0.510031
21510		16.813432	3.753174	0.971913
21511		16.755489	3.814104	1.414940
21512		16.727977	3.870611	1.840799
21513		16.740281	3.923725	2.261148
21514		16.790195	3.974131	2.692838
21515		16.813258	4.029210	3.133932
21516		16.787768	4.092751	3.585673
21517		16.729927	4.158220	4.026348
21518		16.629320	4.219082	4.443048
21519		16.517188	4.270771	4.838628
21520		16.416677	4.315104	5.220055
21521		16.336951	4.355472	5.596256
21522		16.278826	4.401511	5.968571
21523		16.234121	4.440411	6.335773
21524		16.186815	4.476842	6.697624
21525		16.158429	4.515259	7.051233
21526		16.149880	4.547809	7.388873
21527		16.156532	4.580345	7.719560
21528		16.188928	4.608383	8.048698
21529		16.235449	4.639988	8.368382
21530		16.257107	4.670509	8.673847
21531		16.266062	4.700655	8.973169
21532		16.240444	4.734545	9.261832
21533		16.189187	4.769558	9.536934
21534		16.140726	4.805229	9.790352
21535		16.087850	4.836225	10.026110
21536		16.039171	4.863809	10.241667
21537		16.006176	4.879087	10.439629
21538		15.975061	4.892435	10.627743
21539		15.945425	4.913103	10.814758
21540		15.952391	4.934239	10.993362
21541		15.965738	4.958983	11.155837
21542		15.990801	4.981198	11.297914
21543		16.041199	4.994171	11.424027
21544		16.082594	5.002695	11.536070
21545		16.114709	5.014750	11.635164
21546		16.135024	5.028728	11.719137
21547		16.152434	5.040426	11.789533
21548		16.168274	5.052677	11.849255
21549		16.193249	5.066845	11.894942
21550		16.220137	5.079317	11.931494
21551		16.243938	5.092684	11.955444
21552		16.270300	5.106460	11.966626
21553		16.285767	5.116530	11.972559
21554		16.261796	5.129743	11.986477
21555		16.244125	5.143369	12.001921
21556		16.226587	5.162301	12.015619
21557		16.227153	5.177409	12.012486
21558		16.236993	5.190306	11.990456
21559		16.262034	5.198597	11.961089
21560		16.306269	5.200892	11.929888
21561		16.364528	5.204997	11.897050
21562		16.436793	5.212232	11.853684
21563		16.502898	5.217696	11.803091
21564		16.557897	5.225979	11.743328
21565		16.579859	5.229637	11.682265
21566		16.564161	5.221686	11.630767
21567		16.521072	5.216352	11.581482
21568		16.461184	5.201743	11.533322
21569		16.395021	5.180988	11.481410
21570		16.343642	5.158945	11.418562
21571		16.325586	5.134585	11.347201
21572		16.316334	5.107772	11.269746
21573		16.305845	5.085376	11.194235
21574		16.304807	5.063353	11.121337
21575		16.322753	5.034984	11.049367
21576		16.338455	5.001067	10.964755
21577		16.344035	4.968344	10.866534
21578		16.361306	4.938835	10.753354
21579		16.361566	4.908074	10.623787
21580		16.329155	4.877091	10.487902
21581		16.273545	4.857732	10.337647
21582		16.209755	4.834299	10.171003
21583		16.137503	4.807094	9.982011
21584		16.063889	4.781942	9.777985
21585		15.999413	4.748405	9.558456
21586		15.900151	4.712563	9.326923
21587		15.769363	4.681124	9.085306
21588		15.615633	4.654460	8.837199
21589		15.456216	4.637531	8.574245
21590		15.282753	4.617695	8.298940
21591		15.103053	4.602290	8.006109
21592		14.952889	4.577228	7.694710
21593		14.828339	4.549385	7.372387
21594		14.730453	4.523315	7.044569
21595		14.673428	4.496337	6.711412
21596		14.624757	4.474190	6.366951
21597		14.573136	4.456343	6.011262
21598		14.553999	4.430109	5.639766
21599		14.546321	4.404495	5.258345
21600		14.548211	4.384656	4.862946
21601		14.555643	4.367489	4.455336
21602		14.559511	4.349769	4.039651
21603		14.526205	4.331798	3.618807
21604		14.482893	4.322326	3.196176
21605		14.429070	4.314162	2.765566
21606		14.374478	4.302239	2.323403
21607		14.322167	4.293245	1.862939
21608		14.294376	4.285290	1.385263
21609		14.283682	4.278640	0.894377
21610		14.284232	4.280558	0.397227
21611		14.291832	4.284030	-0.101500
21612		14.283539	4.281132	-0.593268
21613		14.258292	4.280216	-1.086510
21614		14.201208	4.280013	-1.580996
21615		14.142556	4.277134	-2.085094
21616		14.093894	4.272714	-2.603769
21617		14.059655	4.267187	-3.137456
21618		14.035235	4.261864	-3.679209
21619		14.018163	4.253292	-4.203275
21620		14.013866	4.253002	-4.715447
21621		13.954856	4.254156	-5.214744
21622		13.897067	4.267463	-5.709536
21623		13.861180	4.277561	-6.213733
21624		13.826500	4.277299	-6.736715
21625		13.822615	4.279864	-7.262143
21626		13.863017	4.278397	-7.781064
21627		13.927591	4.268604	-8.281012
21628		13.992544	4.268304	-8.761506
21629		14.069847	4.264895	-9.233981
21630		14.131471	4.260058	-9.712715
21631		14.199847	4.252240	-10.202625
21632		14.279705	4.244541	-10.703546
21633		14.339122	4.250587	-11.213729
21634		14.379311	4.256765	-11.736984
21635		14.341456	4.260420	-12.261004
21636		14.246725	4.270673	-12.777463
21637		14.125812	4.272541	-13.298396
21638		13.985202	4.269575	-13.812981
21639		13.848688	4.267319	-14.326255
21640		13.751179	4.264934	-14.841002
21641		13.693146	4.261183	-15.364376
21642		13.674613	4.257041	-15.900504
21643		13.684298	4.257679	-16.455505
21644		13.714092	4.245752	-17.023766
21645		13.720840	4.240913	-17.592764
21646		13.719006	4.237543	-18.157975
21647		13.704838	4.242713	-18.732688
21648		13.652062	4.245954	-19.313963
21649		13.570349	4.256340	-19.906971
21650		13.473200	4.267182	-20.504187
21651		13.355910	4.271138	-21.094631
21652		13.225513	4.272522	-21.673373
21653		13.099667	4.269181	-22.238064
21654		13.015845	4.266883	-22.794823
21655		12.983948	4.260267	-23.355560
21656		13.032306	4.255565	-23.925496
21657		13.145950	4.256140	-24.504207
21658		13.283357	4.258491	-25.090956
21659		13.415012	4.259379	-25.684399
21660		13.485089	4.269946	-26.277266
21661		13.495785	4.271948	-26.872205
21662		13.433299	4.280965	-27.467616
21663		13.321846	4.294574	-28.058092
21664		13.219421	4.307792	-28.652359
21665		13.131773	4.324956	-29.245114
21666		13.089910	4.341825	-29.830326
21667		13.086235	4.358756	-30.413786
21668		13.101361	4.371721	-30.995652
21669		13.084274	4.383182	-31.573151
21670		13.037103	4.375645	-32.160100
21671		12.932421	4.381633	-32.748912
21672		12.818055	4.391820	-33.342983
21673		12.704377	4.406722	-33.938586
21674		12.648969	4.438276	-34.526418
21675		12.659416	4.461677	-35.111306
21676		12.693357	4.477104	-35.697284
21677		12.753688	4.496323	-36.288730
21678		12.813560	4.503392	-36.887885
21679		12.866364	4.514234	-37.496740
21680		12.905780	4.531170	-38.110233
21681		12.941007	4.558776	-38.714985
21682		12.972571	4.595720	-39.312861
21683		12.998032	4.621502	-39.895450
21684		12.988369	4.634794	-40.476146
21685		12.957680	4.647870	-41.060835
21686		12.915455	4.662616	-41.654942
21687		12.880483	4.666678	-42.259298
21688		12.885531	4.677410	-42.878302
21689		12.886318	4.691122	-43.493854
21690		12.859295	4.707058	-44.095240
21691		12.793917	4.723150	-44.681114
21692		12.685181	4.722495	-45.257307
21693		12.537178	4.720690	-45.833915
21694		12.427052	4.724300	-46.416903
21695		12.382606	4.723812	-47.000830
21696		12.410748	4.728827	-47.575850
21697		12.544272	4.732466	-48.141732
21698		12.699933	4.733715	-48.701325
21699		12.820838	4.728087	-49.256162
21700		12.927529	4.714360	-49.820687
21701		12.977848	4.703956	-50.399792
21702		12.995053	4.701223	-50.993911
21703		13.017232	4.706782	-51.586541
21704		13.077357	4.710744	-52.167903
21705		13.163164	4.728836	-52.736282
21706		13.281613	4.737443	-53.293647
21707		13.385457	4.728240	-53.856988
21708		13.456173	4.718263	-54.417881
21709		13.518126	4.689693	-54.985974
21710		13.543235	4.664115	-55.557321
21711		13.577875	4.646593	-56.118837
21712		13.649276	4.635692	-56.667755
21713		13.761539	4.631916	-57.215514
21714		13.892601	4.638461	-57.760063
21715		14.013843	4.639592	-58.293664
21716		14.107087	4.629097	-58.825233
21717		14.188158	4.606768	-59.351187
21718		14.238501	4.575190	-59.880170
21719		14.275022	4.562705	-60.401774
21720		14.320539	4.560128	-60.911515
21721		14.365763	4.556824	-61.416361
21722		14.422369	4.559552	-61.917564
21723		14.508452	4.567090	-62.417467
21724		14.636922	4.572310	-62.919715
21725		14.817267	4.569454	-63.431234
21726		15.008243	4.558004	-63.950724
21727		15.182531	4.544288	-64.476081
21728		15.329083	4.532130	-64.987626
21729		15.475708	4.524397	-65.482435
21730		15.638377	4.530285	-65.965451
21731		15.865752	4.530818	-66.450341
21732		16.124816	4.540680	-66.956315
21733		16.411509	4.556502	-67.465912
21734		16.719213	4.576772	-67.963309
21735		17.017037	4.595943	-68.439127
21736		17.259972	4.607094	-68.900383
21737		17.429086	4.628126	-69.344508
21738		17.589071	4.660527	-69.777706
21739		17.721982	4.687368	-70.207255
21740		17.835602	4.716269	-70.634164
21741		17.952775	4.761576	-71.056045
21742		18.068036	4.817294	-71.476899
21743		18.177876	4.869982	-71.886371
21744		18.229508	4.917665	-72.280244
21745		18.215224	4.974889	-72.658862
21746		18.165148	5.038333	-73.024550
21747		18.075867	5.104185	-73.385799
21748		17.977261	5.175417	-73.740937
21749		17.897895	5.239122	-74.088929
21750		17.837070	5.311561	-74.418292
21751		17.794423	5.377851	-74.725327
21752		17.746738	5.422366	-75.026286
21753		17.704433	5.459345	-75.325781
21754		17.644261	5.494374	-75.623900
21755		17.582463	5.532784	-75.923253
21756		17.513401	5.588618	-76.216770
21757		17.460140	5.644689	-76.496083
21758		17.415552	5.682900	-76.765326
21759		17.342161	5.723888	-77.018387
21760		17.263476	5.762265	-77.262844
21761		17.169396	5.779008	-77.502817
21762		17.055936	5.790432	-77.733979
21763		16.929429	5.810097	-77.954736
21764		16.826961	5.829521	-78.166519
21765		16.757327	5.856570	-78.365444
21766		16.736215	5.886012	-78.546498
21767		16.755153	5.913875	-78.696231
21768		16.811852	5.922517	-78.825229
21769		16.902013	5.907814	-78.965521
21770		16.969482	5.901842	-79.116081
21771		17.000675	5.914477	-79.248658
21772		17.020211	5.921398	-79.360530
21773		16.989280	5.929179	-79.449657
21774		16.927591	5.961661	-79.510020
21775		16.888424	5.998225	-79.553657
21776		16.869580	6.023205	-79.586597
21777		16.900667	6.033518	-79.624065
21778		16.983962	6.040835	-79.670100
21779		17.092920	6.052529	-79.717024
21780		17.194746	6.060651	-79.740138
21781		17.259690	6.068995	-79.737399
21782		17.258555	6.094647	-79.707096
21783		17.221519	6.132525	-79.665460
21784		17.173803	6.165542	-79.616462
21785		17.150261	6.186754	-79.561090
21786		17.185023	6.183161	-79.513474
21787		17.224127	6.189166	-79.477075
21788		17.262502	6.201621	-79.445092
21789		17.257021	6.211648	-79.407170
21790		17.153675	6.239624	-79.343622
21791		17.021911	6.280254	-79.256626
21792		16.878692	6.311739	-79.160903
21793		16.743519	6.326070	-79.060677
21794		16.652533	6.325301	-78.961827
21795		16.622913	6.324552	-78.863980
21796		16.636826	6.325727	-78.764186
21797		16.652271	6.323810	-78.661286
21798		16.630339	6.337457	-78.550621
21799		16.582590	6.354058	-78.443316
21800		16.478471	6.367433	-78.332588
21801		16.356416	6.368015	-78.214410
21802		16.258496	6.359279	-78.096835
21803		16.207025	6.348516	-77.979902
21804		16.191216	6.337155	-77.864100
21805		16.191931	6.325062	-77.733783
21806		16.190901	6.318765	-77.580121
21807		16.189324	6.318905	-77.412192
21808		16.172668	6.320949	-77.236691
21809		16.162790	6.329562	-77.050386
21810		16.186604	6.338243	-76.855703
21811		16.234125	6.338565	-76.662323
21812		16.295056	6.329371	-76.482623
21813		16.357763	6.332629	-76.301435
21814		16.400143	6.339321	-76.103986
21815		16.393924	6.362317	-75.870801
21816		16.356628	6.398354	-75.615901
21817		16.314547	6.437830	-75.349720
21818		16.290920	6.462065	-75.081990
21819		16.293519	6.479296	-74.809460
21820		16.358184	6.483942	-74.535940
21821		16.456240	6.483590	-74.265215
21822		16.556419	6.479301	-73.996599
21823		16.623643	6.474524	-73.727574
21824		16.609494	6.473996	-73.443577
21825		16.512196	6.488350	-73.131982
21826		16.395240	6.508167	-72.800134
21827		16.287235	6.524035	-72.465333
21828		16.255172	6.526285	-72.140405
21829		16.284302	6.521787	-71.818005
21830		16.381532	6.510015	-71.490086
21831		16.499191	6.495866	-71.154542
21832		16.582235	6.490422	-70.813357
21833		16.601258	6.490187	-70.462692
21834		16.540038	6.500100	-70.093161
21835		16.455433	6.515701	-69.713314
21836		16.384803	6.523596	-69.341632
21837		16.324184	6.535234	-68.969386
21838		16.314470	6.543907	-68.597523
21839		16.337087	6.551527	-68.219058
21840		16.348370	6.561638	-67.828802
21841		16.331398	6.574238	-67.425257
21842		16.277410	6.589682	-67.005789
21843		16.194990	6.609007	-66.575910
21844		16.122599	6.614805	-66.149750
21845		16.097373	6.612987	-65.737204
21846		16.117402	6.614879	-65.329042
21847		16.174056	6.610886	-64.926823
21848		16.219486	6.603851	-64.528958
21849		16.214329	6.592929	-64.132082
21850		16.161283	6.583331	-63.725246
21851		16.059025	6.570761	-63.302477
21852		15.961221	6.570139	-62.862985
21853		15.925133	6.566094	-62.416036
21854		15.947369	6.559342	-61.963995
21855		16.063071	6.538393	-61.515307
21856		16.268960	6.516074	-61.071106
21857		16.523948	6.497062	-60.628074
21858		16.785103	6.481051	-60.185173
21859		16.999587	6.469657	-59.738035
21860		17.130151	6.469807	-59.283582
21861		17.195283	6.478223	-58.825138
21862		17.247368	6.478837	-58.373547
21863		17.300188	6.484912	-57.934049
21864		17.345909	6.501855	-57.501718
21865		17.377958	6.518301	-57.068151
21866		17.345770	6.545899	-56.613547
21867		17.261539	6.571222	-56.143642
21868		17.126289	6.597683	-55.659930
21869		17.018855	6.622923	-55.170122
21870		16.986385	6.646005	-54.685935
21871		17.039578	6.663367	-54.206904
21872		17.112481	6.679367	-53.730736
21873		17.181569	6.687649	-53.257267
21874		17.172743	6.685794	-52.784910
21875		17.097754	6.684342	-52.318079
21876		17.007639	6.676548	-51.850137
21877		16.955599	6.673398	-51.368997
21878		16.977717	6.674233	-50.860842
21879		17.099187	6.670208	-50.333052
21880		17.255366	6.656121	-49.799329
21881		17.366750	6.631399	-49.275651
21882		17.417337	6.603969	-48.771891
21883		17.427362	6.569348	-48.275484
21884		17.417894	6.521802	-47.777022
21885		17.429185	6.470692	-47.265699
21886		17.485500	6.420856	-46.728902
21887		17.588979	6.378579	-46.172778
21888		17.697286	6.343516	-45.599798
21889		17.820284	6.294293	-45.028579
21890		17.985661	6.228820	-44.481265
21891		18.148708	6.163465	-43.949817
21892		18.295352	6.089843	-43.422547
21893		18.400311	6.014406	-42.882242
21894		18.457795	5.937230	-42.334552
21895		18.452137	5.856064	-41.783363
21896		18.421592	5.782105	-41.227755
21897		18.397472	5.710476	-40.669027
21898		18.409405	5.643275	-40.106395
21899		18.497966	5.574409	-39.541715
21900		18.646061	5.500921	-38.985648
21901		18.813366	5.424336	-38.437797
21902		18.951923	5.339606	-37.903944
21903		19.038059	5.253952	-37.383986
21904		19.046265	5.173346	-36.866021
21905		19.004357	5.093135	-36.347973
21906		18.952529	5.021195	-35.826357
21907		18.933611	4.942301	-35.289656
21908		18.962046	4.863640	-34.732208
21909		19.063776	4.793332	-34.159302
21910		19.178235	4.724270	-33.586770
21911		19.293518	4.659914	-33.016056
21912		19.433205	4.596616	-32.446844
21913		19.579882	4.529103	-31.878785
21914		19.729703	4.461629	-31.308423
21915		19.896714	4.401434	-30.736440
21916		20.085766	4.348265	-30.163488
21917		20.262865	4.295868	-29.592267
21918		20.376473	4.240637	-29.022894
21919		20.435039	4.182901	-28.461311
21920		20.440119	4.129393	-27.900962
21921		20.413325	4.079153	-27.336491
21922		20.391382	4.024965	-26.771135
21923		20.400834	3.978877	-26.202273
21924		20.449696	3.938804	-25.629858
21925		20.501443	3.894658	-25.050730
21926		20.536225	3.859504	-24.471943
21927		20.572252	3.829858	-23.906670
21928		20.608358	3.802790	-23.360102
21929		20.657371	3.773591	-22.828999
21930		20.721204	3.743717	-22.311430
21931		20.817941	3.718287	-21.798873
21932		20.875058	3.689512	-21.283030
21933		20.852602	3.670802	-20.756690
21934		20.749058	3.656645	-20.235546
21935		20.604566	3.643039	-19.719829
21936		20.471033	3.630481	-19.213458
21937		20.414248	3.618021	-18.715308
21938		20.440370	3.611314	-18.217517
21939		20.552978	3.602549	-17.714518
21940		20.663008	3.591473	-17.210631
21941		20.726144	3.586502	-16.704432
21942		20.727676	3.583782	-16.211426
21943		20.703606	3.577036	-15.729589
21944		20.667290	3.576419	-15.249993
21945		20.664787	3.573994	-14.769746
21946		20.689166	3.575821	-14.282566
21947		20.696966	3.577071	-13.784538
21948		20.669504	3.588172	-13.286877
21949		20.612300	3.602752	-12.794091
21950		20.534983	3.624756	-12.311686
21951		20.460029	3.649845	-11.846976
21952		20.403202	3.678505	-11.384960
21953		20.406392	3.702801	-10.919347
21954		20.490728	3.728757	-10.445911
21955		20.621244	3.754622	-9.958053
21956		20.772482	3.777693	-9.465374
21957		20.886362	3.808855	-8.971200
21958		20.955398	3.852010	-8.488831
21959		20.965407	3.885776	-8.031866
21960		20.904343	3.917321	-7.607497
21961		20.802166	3.947298	-7.202085
21962		20.710856	3.972952	-6.802786
21963		20.653429	4.005668	-6.397041
21964		20.636050	4.042947	-5.980333
21965		20.642022	4.077160	-5.550971
21966		20.663631	4.108359	-5.124098
21967		20.708801	4.141025	-4.703875
21968		20.781944	4.168002	-4.297648
21969		20.871404	4.190442	-3.899451
21970		20.960409	4.206317	-3.499365
21971		21.034348	4.209679	-3.088837
21972		21.063558	4.213683	-2.677620
21973		21.070907	4.225055	-2.271461
21974		21.090973	4.234149	-1.880252
21975		21.153724	4.240974	-1.493311
21976		21.257109	4.243484	-1.105635
21977		21.384953	4.242043	-0.715501
21978		21.488501	4.241693	-0.322966
21979		21.517497	4.241898	0.070597
21980		21.458589	4.242750	0.455699
21981		21.329367	4.238190	0.830792
21982		21.152645	4.234607	1.183502
21983		20.979726	4.226778	1.530850
21984		20.862270	4.213165	1.882431
21985		20.808360	4.199439	2.241972
21986		20.802757	4.198869	2.609225
21987		20.812695	4.206349	2.981506
21988		20.810782	4.217329	3.351614
21989		20.790365	4.231560	3.703929
21990		20.755413	4.257974	4.034982
21991		20.704383	4.287547	4.349751
21992		20.648247	4.327350	4.659493
21993		20.584702	4.372480	4.963767
21994		20.498975	4.425556	5.268651
21995		20.376062	4.482896	5.569380
21996		20.197095	4.529672	5.871442
21997		19.987336	4.559704	6.170554
21998		19.791813	4.586034	6.459574
21999		19.601611	4.623643	6.736714
22000		19.443944	4.665236	7.000586
22001		19.340896	4.698472	7.247705
22002		19.268088	4.733331	7.487531
22003		19.212956	4.768066	7.725700
22004		19.153814	4.795435	7.952550
22005		19.079235	4.821680	8.164427
22006		18.994514	4.840505	8.371321
22007		18.890609	4.853949	8.585698
22008		18.782828	4.876667	8.805421
22009		18.690091	4.900059	9.021342
22010		18.610257	4.923921	9.224144
22011		18.519332	4.943182	9.418050
22012		18.430650	4.944131	9.602910
22013		18.343230	4.939116	9.769833
22014		18.262154	4.930867	9.913926
22015		18.226821	4.916404	10.050626
22016		18.255012	4.887297	10.179169
22017		18.326862	4.855557	10.301635
22018		18.416472	4.827660	10.417746
22019		18.470776	4.801424	10.528659
22020		18.486833	4.780036	10.635643
22021		18.472040	4.766077	10.727356
22022		18.431374	4.752425	10.806466
22023		18.363003	4.734569	10.863374
22024		18.282449	4.709967	10.900080
22025		18.194744	4.679777	10.922704
22026		18.117348	4.646666	10.938704
22027		18.061218	4.608303	10.953650
22028		18.004266	4.576012	10.963279
22029		17.935206	4.550489	10.971347
22030		17.886909	4.536856	10.967554
22031		17.858298	4.526945	10.953083
22032		17.831558	4.515564	10.925453
22033		17.778961	4.494810	10.890875
22034		17.711093	4.473041	10.860127
22035		17.634962	4.447607	10.836708
22036		17.526575	4.431378	10.810482
22037		17.417846	4.417495	10.779523
22038		17.315319	4.404627	10.733718
22039		17.209739	4.401482	10.677546
22040		17.141081	4.389275	10.608315
22041		17.083951	4.362852	10.533193
22042		17.028832	4.337545	10.460150
22043		16.974334	4.319763	10.395605
22044		16.938369	4.306144	10.341329
22045		16.916168	4.289319	10.273345
22046		16.880313	4.277282	10.181501
22047		16.836970	4.252471	10.063757
22048		16.791527	4.219194	9.936640
22049		16.752112	4.189069	9.799345
22050		16.702952	4.172150	9.648699
22051		16.647344	4.168820	9.479165
22052		16.566043	4.175270	9.290536
22053		16.448636	4.192497	9.082834
22054		16.327926	4.208141	8.858384
22055		16.187784	4.216674	8.617235
22056		16.049750	4.221343	8.352857
22057		15.931212	4.220222	8.074455
22058		15.821675	4.208638	7.794310
22059		15.692383	4.196788	7.510393
22060		15.567137	4.192231	7.228929
22061		15.478249	4.199766	6.939863
22062		15.442909	4.211336	6.634361
22063		15.426391	4.215919	6.313170
22064		15.425155	4.228054	5.977474
22065		15.430084	4.249033	5.627645
22066		15.421607	4.268098	5.275063
22067		15.364298	4.288336	4.923296
22068		15.293048	4.313921	4.575696
22069		15.196441	4.331985	4.227949
22070		15.084080	4.348374	3.868118
22071		14.973765	4.365441	3.500235
22072		14.891800	4.383778	3.127875
22073		14.826476	4.398936	2.756898
22074		14.787260	4.421371	2.392430
22075		14.755388	4.448565	2.025780
22076		14.731634	4.475790	1.654234
22077		14.721078	4.500466	1.271120
22078		14.746353	4.510671	0.875631
22079		14.792873	4.518726	0.471814
22080		14.855570	4.527337	0.054542
22081		14.894501	4.534968	-0.374144
22082		14.885406	4.536755	-0.810007
22083		14.810098	4.545694	-1.253540
22084		14.720040	4.568678	-1.713801
22085		14.645896	4.587145	-2.193797
22086		14.588559	4.602690	-2.684583
22087		14.565142	4.610405	-3.179510
22088		14.583962	4.606635	-3.669052
22089		14.592053	4.603601	-4.154699
22090		14.575140	4.604077	-4.647598
22091		14.545498	4.606885	-5.150108
22092		14.493606	4.614802	-5.670501
22093		14.410292	4.624757	-6.211610
22094		14.302249	4.639907	-6.759437
22095		14.177654	4.654993	-7.299826
22096		14.036041	4.662234	-7.829351
22097		13.865318	4.669201	-8.341389
22098		13.709299	4.672592	-8.851132
22099		13.562124	4.671087	-9.369571
22100		13.448281	4.674539	-9.901929
22101		13.371165	4.673816	-10.435884
22102		13.284524	4.668494	-10.971292
22103		13.180683	4.658879	-11.508263
22104		13.072897	4.639524	-12.040990
22105		12.955663	4.617516	-12.575553
22106		12.805980	4.606871	-13.108353
22107		12.640381	4.603022	-13.645332
22108		12.472370	4.603830	-14.188507
22109		12.324608	4.612792	-14.748716
22110		12.210548	4.620676	-15.319182
22111		12.096970	4.612416	-15.880783
22112		12.031284	4.601741	-16.435359
22113		12.005039	4.586714	-16.986926
22114		12.003103	4.568334	-17.541284
22115		12.042153	4.549399	-18.105576
22116		12.108623	4.529867	-18.689608
22117		12.176880	4.512867	-19.289533
22118		12.234904	4.498432	-19.899564
22119		12.281994	4.475781	-20.514236
22120		12.294803	4.449344	-21.127355
22121		12.267293	4.418202	-21.741376
22122		12.217385	4.392320	-22.361651
22123		12.133995	4.377481	-22.990462
22124		12.025522	4.364722	-23.622065
22125		11.913560	4.349856	-24.250057
22126		11.794127	4.335159	-24.880607
22127		11.638592	4.303144	-25.499764
22128		11.481998	4.251478	-26.109249
22129		11.344520	4.206166	-26.719140
22130		11.233177	4.185500	-27.323476
22131		11.201158	4.162537	-27.921896
22132		11.205073	4.154755	-28.522328
22133		11.237297	4.143506	-29.127146
22134		11.278037	4.121663	-29.735426
22135		11.315738	4.088615	-30.346477
22136		11.330209	4.043563	-30.959498
22137		11.337751	3.993052	-31.574987
22138		11.315844	3.960733	-32.194187
22139		11.280978	3.938040	-32.810419
22140		11.224080	3.916434	-33.423081
22141		11.131642	3.898237	-34.035989
22142		11.020269	3.870125	-34.656730
22143		10.906798	3.829034	-35.283513
22144		10.825120	3.783241	-35.914938
22145		10.771882	3.735070	-36.550246
22146		10.734021	3.712960	-37.186266
22147		10.768649	3.700572	-37.828133
22148		10.812862	3.680466	-38.462183
22149		10.861494	3.658894	-39.088829
22150		10.896426	3.618710	-39.722534
22151		10.878477	3.572565	-40.363654
22152		10.812657	3.509451	-41.012928
22153		10.696206	3.433544	-41.679052
22154		10.518769	3.380417	-42.351373
22155		10.315237	3.345553	-43.018924
22156		10.072114	3.318171	-43.676959
22157		9.836980	3.292996	-44.330777
22158		9.649965	3.267076	-44.979158
22159		9.534669	3.224042	-45.631297
22160		9.509335	3.168721	-46.291144
22161		9.535749	3.112603	-46.954358
22162		9.611640	3.052001	-47.627859
22163		9.705162	2.992340	-48.302806
22164		9.806615	2.947117	-48.972188
22165		9.914326	2.906439	-49.625749
22166		9.992178	2.863094	-50.273914
22167		10.044819	2.821131	-50.924448
22168		10.096065	2.766438	-51.581641
22169		10.132554	2.706351	-52.237217
22170		10.179322	2.642869	-52.893880
22171		10.280257	2.580386	-53.550932
22172		10.404740	2.530422	-54.197284
22173		10.520180	2.478679	-54.831255
22174		10.569620	2.431339	-55.448346
22175		10.567588	2.375115	-56.070261
22176		10.539775	2.313650	-56.700987
22177		10.511076	2.249382	-57.335907
22178		10.532769	2.190933	-57.968563
22179		10.607421	2.136053	-58.602487
22180		10.715027	2.089994	-59.225236
22181		10.859904	2.025041	-59.837379
22182		10.961278	1.953081	-60.445027
22183		10.995351	1.886159	-61.054255
22184		10.963506	1.826584	-61.665311
22185		10.868734	1.780572	-62.272005
22186		10.758762	1.740470	-62.879245
22187		10.673232	1.708014	-63.481659
22188		10.648297	1.668943	-64.052502
22189		10.632629	1.623994	-64.597201
22190		10.634781	1.583745	-65.126493
22191		10.601529	1.532221	-65.669732
22192		10.496172	1.491547	-66.224823
22193		10.347916	1.470866	-66.784513
22194		10.250320	1.449793	-67.342982
22195		10.148480	1.449930	-67.887572
22196		10.149766	1.470851	-68.405523
22197		10.278391	1.442703	-68.921615
22198		10.374700	1.406968	-69.420579
22199		10.423667	1.367812	-69.912515
22200		10.372820	1.332586	-70.402381
22201		10.186095	1.317793	-70.890768
22202		9.912205	1.316284	-71.387864
22203		9.604810	1.329684	-71.892762
22204		9.383362	1.363346	-72.389484
22205		9.365653	1.383711	-72.863451
22206		9.519588	1.364514	-73.310106
22207		9.763020	1.343693	-73.751573
22208		10.041949	1.348015	-74.206539
22209		10.321150	1.353570	-74.670658
22210		10.594807	1.360545	-75.124266
22211		10.841240	1.372393	-75.541957
22212		11.048317	1.381691	-75.934986
22213		11.240065	1.391169	-76.323520
22214		11.463400	1.400139	-76.712222
22215		11.700996	1.403952	-77.106377
22216		11.962186	1.417603	-77.501275
22217		12.229667	1.442663	-77.883520
22218		12.442160	1.475129	-78.248832
22219		12.581511	1.508094	-78.599395
22220		12.684353	1.532300	-78.941019
22221		12.746576	1.551243	-79.282833
22222		12.802421	1.573709	-79.628206
22223		12.880508	1.602443	-79.979249
22224		12.983019	1.641582	-80.327793
22225		13.136176	1.687722	-80.646718
22226		13.299450	1.721324	-80.931017
22227		13.423154	1.747353	-81.192914
22228		13.504446	1.768500	-81.446314
22229		13.580837	1.790266	-81.703349
22230		13.653110	1.810278	-81.954991
22231		13.762931	1.831228	-82.199272
22232		13.896282	1.859215	-82.421394
22233		14.042880	1.884688	-82.621144
22234		14.131732	1.911628	-82.802732
22235		14.167260	1.930831	-82.966691
22236		14.182592	1.946279	-83.118412
22237		14.207984	1.972580	-83.259144
22238		14.261981	2.009716	-83.390502
22239		14.382521	2.041984	-83.517805
22240		14.553456	2.063324	-83.638013
22241		14.700680	2.078308	-83.741108
22242		14.802833	2.085240	-83.834065
22243		14.813283	2.101557	-83.919814
22244		14.759657	2.143201	-83.994106
22245		14.710302	2.190848	-84.056791
22246		14.681051	2.226036	-84.110951
22247		14.705327	2.266369	-84.142640
22248		14.801254	2.285347	-84.157948
22249		14.892296	2.290546	-84.167196
22250		14.947143	2.298430	-84.178199
22251		14.944281	2.316768	-84.190719
22252		14.826217	2.350760	-84.196633
22253		14.634039	2.401512	-84.186343
22254		14.478731	2.443636	-84.163452
22255		14.383937	2.467554	-84.129987
22256		14.370309	2.485209	-84.077102
22257		14.445299	2.485110	-84.018971
22258		14.554747	2.484181	-83.969778
22259		14.668833	2.492185	-83.929193
22260		14.728953	2.497010	-83.876038
22261		14.697525	2.525565	-83.786615
22262		14.672223	2.554198	-83.674093
22263		14.610047	2.580090	-83.542829
22264		14.543641	2.600787	-83.391048
22265		14.552824	2.601557	-83.241435
22266		14.615437	2.597086	-83.108244
22267		14.687936	2.601664	-82.983550
22268		14.731008	2.608685	-82.853703
22269		14.728951	2.630296	-82.703419
22270		14.685114	2.660795	-82.527767
22271		14.631369	2.685283	-82.328416
22272		14.604187	2.703726	-82.108065
22273		14.624267	2.703186	-81.882630
22274		14.690357	2.689926	-81.666668
22275		14.770572	2.682129	-81.456549
22276		14.842592	2.680249	-81.240580
22277		14.896833	2.684258	-81.002683
22278		14.912482	2.691736	-80.744905
22279		14.887255	2.715134	-80.459300
22280		14.857738	2.739058	-80.147722
22281		14.835859	2.752180	-79.822063
22282		14.864945	2.746211	-79.506427
22283		14.904376	2.751623	-79.198276
22284		14.936695	2.758709	-78.890053
22285		14.912673	2.761254	-78.569997
22286		14.820775	2.770735	-78.230056
22287		14.668963	2.790005	-77.869939
22288		14.490846	2.814559	-77.483612
22289		14.342367	2.839663	-77.068499
22290		14.282994	2.849994	-76.634253
22291		14.338877	2.828946	-76.209405
22292		14.463243	2.810179	-75.796653
22293		14.585972	2.802812	-75.380113
22294		14.676646	2.785250	-74.952754
22295		14.708088	2.765478	-74.516230
22296		14.659783	2.760033	-74.070797
22297		14.562751	2.762131	-73.611503
22298		14.463151	2.770742	-73.131404
22299		14.389138	2.768042	-72.645429
22300		14.367223	2.750693	-72.165735
22301		14.395891	2.737732	-71.686286
22302		14.416484	2.728891	-71.201358
22303		14.407353	2.711770	-70.703934
22304		14.350659	2.691079	-70.197686
22305		14.248756	2.692779	-69.677881
22306		14.112180	2.704592	-69.135672
22307		14.059311	2.712070	-68.581066
22308		14.055228	2.716413	-68.025075
22309		14.152525	2.704907	-67.473891
22310		14.321507	2.688502	-66.921182
22311		14.517414	2.661822	-66.360305
22312		14.685096	2.629787	-65.797685
22313		14.814237	2.596900	-65.231003
22314		14.879723	2.570632	-64.657144
22315		14.889099	2.552578	-64.069436
22316		14.902407	2.548892	-63.461366
22317		15.012698	2.535961	-62.842718
22318		15.177812	2.520967	-62.222813
22319		15.378477	2.505510	-61.600717
22320		15.545326	2.486340	-60.976341
22321		15.632252	2.467417	-60.361581
22322		15.600258	2.450186	-59.753089
22323		15.490815	2.433443	-59.144105
22324		15.345428	2.415789	-58.527951
22325		15.216794	2.405962	-57.903919
22326		15.176340	2.389457	-57.280417
22327		15.231394	2.373104	-56.655539
22328		15.328184	2.362274	-56.028005
22329		15.418751	2.345490	-55.397175
22330		15.448394	2.326960	-54.771603
22331		15.399733	2.304945	-54.151224
22332		15.311925	2.277337	-53.539732
22333		15.225662	2.248817	-52.932922
22334		15.165451	2.215763	-52.333011
22335		15.166433	2.189586	-51.722082
22336		15.238999	2.171515	-51.094235
22337		15.328798	2.148352	-50.457831
22338		15.396792	2.128532	-49.823208
22339		15.421895	2.104238	-49.198566
22340		15.405723	2.072207	-48.584252
22341		15.354993	2.040315	-47.977941
22342		15.281564	2.015215	-47.371909
22343		15.223349	2.000552	-46.760738
22344		15.150329	1.991723	-46.137172
22345		15.088503	1.963019	-45.508645
22346		15.017286	1.930569	-44.875695
22347		14.923767	1.900273	-44.238502
22348		14.830776	1.866038	-43.605101
22349		14.771945	1.839835	-42.975211
22350		14.765137	1.821581	-42.342724
22351		14.813210	1.806965	-41.705418
22352		14.903983	1.791193	-41.052416
22353		14.985909	1.766553	-40.390531
22354		15.069022	1.733687	-39.737153
22355		15.116430	1.707331	-39.089520
22356		15.141191	1.672506	-38.443945
22357		15.165015	1.634847	-37.792315
22358		15.170015	1.609029	-37.123715
22359		15.204570	1.599290	-36.438681
22360		15.282991	1.594609	-35.746581
22361		15.367043	1.586764	-35.049379
22362		15.449622	1.572029	-34.360367
22363		15.512339	1.555818	-33.687695
22364		15.525040	1.536352	-33.030584
22365		15.499494	1.514239	-32.379267
22366		15.452573	1.499888	-31.726427
22367		15.420066	1.502980	-31.063023
22368		15.423383	1.516040	-30.387840
22369		15.445530	1.539705	-29.703168
22370		15.437752	1.559298	-29.017719
22371		15.402835	1.568389	-28.341464
22372		15.369819	1.573671	-27.685323
22373		15.347826	1.569177	-27.038981
22374		15.358926	1.560703	-26.401064
22375		15.427717	1.559862	-25.759102
22376		15.593761	1.579745	-25.105655
22377		15.813075	1.608959	-24.437708
22378		16.001480	1.638084	-23.773306
22379		16.146306	1.661785	-23.128290
22380		16.259684	1.674336	-22.509720
22381		16.353733	1.678050	-21.902399
22382		16.445878	1.684593	-21.304863
22383		16.545142	1.698827	-20.699366
22384		16.622883	1.720108	-20.089361
22385		16.654888	1.743384	-19.477440
22386		16.622912	1.769825	-18.871690
22387		16.577762	1.797367	-18.273794
22388		16.527071	1.830970	-17.694998
22389		16.510376	1.872296	-17.124913
22390		16.545803	1.908709	-16.565540
22391		16.624588	1.951630	-16.011591
22392		16.704050	1.996665	-15.461555
22393		16.710700	2.041025	-14.919418
22394		16.617058	2.089644	-14.388890
22395		16.457618	2.130837	-13.871659
22396		16.274024	2.183832	-13.370245
22397		16.135794	2.242881	-12.880994
22398		16.087813	2.304780	-12.392401
22399		16.146956	2.364034	-11.901393
22400		16.272396	2.407675	-11.402806
22401		16.396595	2.428036	-10.893240
22402		16.451982	2.447423	-10.374866
22403		16.434074	2.460700	-9.851414
22404		16.365553	2.460830	-9.325673
22405		16.268116	2.461713	-8.798488
22406		16.219846	2.457479	-8.282486
22407		16.277344	2.457247	-7.783381
22408		16.437121	2.457476	-7.290653
22409		16.652806	2.454648	-6.805762
22410		16.856038	2.451610	-6.323809
22411		16.991615	2.440494	-5.849037
22412		17.040586	2.429420	-5.375000
22413		17.008454	2.414250	-4.902298
22414		16.960818	2.407473	-4.433249
22415		16.913389	2.403021	-3.964387
22416		16.863666	2.409220	-3.492891
22417		16.848175	2.418699	-3.024987
22418		16.835659	2.425977	-2.564516
22419		16.786859	2.440399	-2.111061
22420		16.681088	2.455072	-1.656994
22421		16.526296	2.468603	-1.210458
22422		16.328446	2.471092	-0.786315
22423		16.130822	2.473698	-0.370741
22424		15.947468	2.475115	0.052511
22425		15.802544	2.479538	0.481506
22426		15.714320	2.493501	0.911663
22427		15.667057	2.512189	1.338541
22428		15.651668	2.536437	1.759084
22429		15.656900	2.557104	2.161254
22430		15.692929	2.576181	2.549609
22431		15.737869	2.594840	2.930415
22432		15.777846	2.618733	3.306365
22433		15.800073	2.634969	3.674782
22434		15.765207	2.648141	4.039643
22435		15.713244	2.664357	4.404567
22436		15.673997	2.677203	4.757829
22437		15.627920	2.690322	5.102978
22438		15.584944	2.706720	5.429851
22439		15.535587	2.728199	5.741304
22440		15.450976	2.755896	6.032248
22441		15.325389	2.778474	6.308288
22442		15.196458	2.800922	6.571384
22443		15.097317	2.821456	6.820193
22444		15.044031	2.844784	7.057833
22445		15.040096	2.874635	7.293842
22446		15.099255	2.906095	7.522913
22447		15.206351	2.936951	7.743003
22448		15.323382	2.962353	7.948972
22449		15.434299	2.978531	8.138653
22450		15.495338	2.995020	8.325736
22451		15.524469	3.015360	8.519187
22452		15.537415	3.035691	8.713042
22453		15.536585	3.060715	8.890118
22454		15.559587	3.090275	9.048247
22455		15.610715	3.111078	9.187452
22456		15.670538	3.128324	9.308638
22457		15.701477	3.135417	9.414611
22458		15.689837	3.142298	9.503384
22459		15.637079	3.148739	9.574362
22460		15.545274	3.154614	9.629484
22461		15.421474	3.163433	9.680659
22462		15.327374	3.172056	9.727777
22463		15.261488	3.180996	9.774571
22464		15.238748	3.195070	9.817435
22465		15.274501	3.205733	9.851725
22466		15.354602	3.211338	9.879231
22467		15.452193	3.221216	9.909394
22468		15.545370	3.230154	9.939323
22469		15.617823	3.237802	9.965036
22470		15.687033	3.244464	9.981348
22471		15.760501	3.252201	9.988611
22472		15.843014	3.259277	9.992040
22473		15.933239	3.266742	10.002237
22474		16.022036	3.279008	10.020555
22475		16.086050	3.293502	10.049997
22476		16.103346	3.307038	10.086559
22477		16.103548	3.316276	10.118531
22478		16.066837	3.329699	10.145002
22479		16.012126	3.345158	10.175138
22480		15.962669	3.358322	10.202554
22481		15.891468	3.374606	10.231278
22482		15.796449	3.394365	10.255277
22483		15.702755	3.414160	10.266418
22484		15.579008	3.432113	10.267007
22485		15.450581	3.442015	10.251099
22486		15.336680	3.441116	10.215770
22487		15.224829	3.435755	10.172623
22488		15.113984	3.431317	10.120586
22489		15.018535	3.428892	10.057559
22490		14.961305	3.424268	9.976080
22491		14.948775	3.412900	9.875819
22492		14.964851	3.394033	9.756158
22493		15.007845	3.365925	9.617571
22494		15.031300	3.332408	9.460419
22495		15.045017	3.306319	9.283407
22496		15.047429	3.268877	9.091286
22497		14.988251	3.231293	8.898860
22498		14.907406	3.198422	8.712145
22499		14.819724	3.169995	8.525295
22500		14.720178	3.143409	8.331307
22501		14.651266	3.118703	8.126106
22502		14.623701	3.090915	7.903974
22503		14.616991	3.060385	7.663291
22504		14.625891	3.027664	7.403101
22505		14.625699	2.997520	7.128601
22506		14.582672	2.967177	6.844639
22507		14.515068	2.940316	6.546899
22508		14.454989	2.915214	6.229952
22509		14.374562	2.888888	5.885365
22510		14.281822	2.867917	5.521914
22511		14.191004	2.844201	5.135753
22512		14.117661	2.813429	4.732635
22513		14.052563	2.786183	4.314150
22514		13.991701	2.765359	3.878383
22515		13.911195	2.747483	3.428166
22516		13.804949	2.730526	2.960908
22517		13.693998	2.710768	2.474857
22518		13.595697	2.694951	1.972630
22519		13.529218	2.684818	1.453061
22520		13.487865	2.674092	0.924063
22521		13.499014	2.652889	0.394736
22522		13.537945	2.634214	-0.125318
22523		13.585491	2.611973	-0.639993
22524		13.612418	2.598620	-1.149535
22525		13.637854	2.585471	-1.668677
22526		13.684062	2.574671	-2.207024
22527		13.754889	2.572261	-2.768702
22528		13.853101	2.570582	-3.342976
22529		13.952314	2.572392	-3.917019
22530		14.037182	2.574654	-4.486641
22531		14.054425	2.577583	-5.050988
22532		14.007606	2.590233	-5.613360
22533		13.883161	2.612306	-6.184702
22534		13.726883	2.643614	-6.760567
22535		13.577181	2.682415	-7.357568
22536		13.442384	2.713401	-7.964993
22537		13.325899	2.736072	-8.572179
22538		13.259473	2.763071	-9.176478
22539		13.219164	2.783345	-9.768283
22540		13.178532	2.796710	-10.358093
22541		13.113595	2.806847	-10.944085
22542		13.056519	2.829297	-11.536504
22543		13.014875	2.859135	-12.142301
22544		12.987146	2.891856	-12.754226
22545		12.957767	2.925970	-13.357609
22546		12.950378	2.950782	-13.964655
22547		12.957690	2.971758	-14.578182
22548		12.944049	2.993958	-15.195019
22549		12.915352	3.007290	-15.810801
22550		12.868846	3.020906	-16.413925
22551		12.835580	3.034920	-17.018139
22552		12.830344	3.059779	-17.627148
22553		12.833733	3.086226	-18.241199
22554		12.860955	3.105949	-18.861620
22555		12.870147	3.125750	-19.475518
22556		12.869632	3.147012	-20.089111
22557		12.851110	3.173086	-20.708791
22558		12.805582	3.202161	-21.322670
22559		12.725378	3.223959	-21.937336
22560		12.670961	3.257715	-22.561822
22561		12.636090	3.309340	-23.195713
22562		12.609075	3.358418	-23.837705
22563		12.569461	3.406686	-24.482945
22564		12.522976	3.461327	-25.121317
22565		12.474973	3.505561	-25.759823
22566		12.393522	3.540565	-26.403491
22567		12.250282	3.571082	-27.055235
22568		12.043686	3.595418	-27.723838
22569		11.809621	3.617960	-28.415161
22570		11.574738	3.637151	-29.120123
22571		11.329415	3.651420	-29.822887
22572		11.103314	3.683499	-30.508760
22573		10.940598	3.736891	-31.178427
22574		10.793823	3.776759	-31.837700
22575		10.654382	3.796857	-32.500171
22576		10.526241	3.806645	-33.163322
22577		10.411404	3.803467	-33.827880
22578		10.346429	3.797473	-34.504194
22579		10.317193	3.794009	-35.195461
22580		10.317064	3.792078	-35.890403
22581		10.347384	3.778765	-36.581549
22582		10.366150	3.754306	-37.269076
22583		10.359402	3.722438	-37.949870
22584		10.349550	3.688658	-38.639645
22585		10.327357	3.651346	-39.350586
22586		10.309567	3.629990	-40.077622
22587		10.339050	3.608972	-40.816554
22588		10.397532	3.584936	-41.554879
22589		10.441490	3.546561	-42.286882
22590		10.455091	3.492790	-43.020136
22591		10.421596	3.434312	-43.766015
22592		10.341998	3.366991	-44.535632
22593		10.221178	3.294392	-45.325950
22594		10.062321	3.229420	-46.119822
22595		9.933880	3.177759	-46.915472
22596		9.808264	3.134956	-47.702310
22597		9.679259	3.094630	-48.473808
22598		9.561254	3.032491	-49.230364
22599		9.439753	2.958033	-49.987400
22600		9.321492	2.881365	-50.752829
22601		9.217730	2.808190	-51.522716
22602		9.137365	2.739283	-52.283595
22603		9.108716	2.663800	-53.018263
22604		9.119184	2.590461	-53.728346
22605		9.145210	2.541441	-54.405692
22606		9.174566	2.500117	-55.059031
22607		9.175526	2.447942	-55.714672
22608		9.135280	2.407116	-56.381262
22609		9.097383	2.380675	-57.062846
22610		9.126730	2.361760	-57.748469
22611		9.247005	2.345556	-58.425997
22612		9.471221	2.336477	-59.096057
22613		9.756292	2.325155	-59.759837
22614		10.047834	2.310723	-60.419111
22615		10.286808	2.295737	-61.078413
22616		10.470916	2.285819	-61.751358
22617		10.590059	2.280057	-62.434695
22618		10.656100	2.273362	-63.121485
22619		10.706837	2.278913	-63.787955
22620		10.807208	2.300350	-64.435230
22621		10.959026	2.316900	-65.075639
22622		11.112254	2.348227	-65.706918
22623		11.259855	2.388258	-66.331677
22624		11.389919	2.429982	-66.960359
22625		11.451016	2.475184	-67.586932
22626		11.485458	2.521975	-68.205476
22627		11.535953	2.569576	-68.806171
22628		11.584701	2.628639	-69.382518
22629		11.660647	2.702936	-69.934302
22630		11.707915	2.774981	-70.450408
22631		11.715019	2.825148	-70.951398
22632		11.667754	2.867713	-71.449936
22633		11.563177	2.906349	-71.950320
22634		11.418807	2.926588	-72.441513
22635		11.195528	2.956561	-72.880048
22636		10.991308	3.001717	-73.280883
22637		10.817890	3.055454	-73.685851
22638		10.631342	3.128501	-74.104807
22639		10.476438	3.202488	-74.529738
22640		10.363927	3.261417	-74.958412
22641		10.320566	3.318049	-75.392674
22642		10.383565	3.368613	-75.835707
22643		10.476039	3.414120	-76.276208
22644		10.629667	3.461542	-76.711364
22645		10.819425	3.506705	-77.140602
22646		11.000029	3.550027	-77.560105
22647		11.187968	3.588609	-77.974746
22648		11.356576	3.616682	-78.389873
22649		11.523219	3.647223	-78.809919
22650		11.720673	3.684002	-79.236953
22651		11.938883	3.720083	-79.656408
22652		12.164739	3.753925	-80.041409
22653		12.370442	3.799145	-80.381582
22654		12.578201	3.877854	-80.692002
22655		12.767034	3.945139	-81.001343
22656		12.814058	3.984590	-81.317017
22657		12.826543	4.023704	-81.638814
22658		12.866872	4.056245	-81.966797
22659		12.983343	4.084268	-82.296336
22660		13.187993	4.079706	-82.624655
22661		13.386927	4.073325	-82.938160
22662		13.628103	4.100672	-83.234909
22663		13.865386	4.139635	-83.520293
22664		14.028383	4.177641	-83.786017
22665		14.152572	4.224571	-84.028498
22666		14.290234	4.257999	-84.258314
22667		14.445969	4.289278	-84.483246
22668		14.622340	4.346415	-84.704482
22669		14.792572	4.400220	-84.913530
22670		14.909877	4.455178	-85.102158
22671		15.006230	4.519066	-85.257472
22672		15.078181	4.577514	-85.384426
22673		15.100366	4.634653	-85.481228
22674		15.128573	4.669505	-85.568253
22675		15.158680	4.701616	-85.654486
22676		15.185429	4.731794	-85.744504
22677		15.147046	4.765775	-85.817866
22678		15.082272	4.819921	-85.866178
22679		15.051604	4.878861	-85.914319
22680		15.020928	4.939401	-85.962938
22681		15.004190	4.993069	-85.999111
22682		15.055261	5.013295	-86.039213
22683		15.158569	5.022267	-86.097112
22684		15.289035	5.040110	-86.169525
22685		15.394891	5.062947	-86.237725
22686		15.452222	5.095861	-86.286318
22687		15.490591	5.141055	-86.322558
22688		15.477118	5.188702	-86.346288
22689		15.464903	5.228340	-86.353319
22690		15.461967	5.257762	-86.334435
22691		15.492369	5.283773	-86.303766
22692		15.585295	5.281008	-86.298403
22693		15.673727	5.286046	-86.307940
22694		15.763394	5.308931	-86.308891
22695		15.848908	5.317961	-86.278605
22696		15.816512	5.332554	-86.199610
22697		15.793620	5.370434	-86.077990
22698		15.720901	5.404425	-85.943340
22699		15.594392	5.438003	-85.794645
22700		15.499345	5.461267	-85.629160
22701		15.483450	5.469882	-85.445623
22702		15.590438	5.468831	-85.280500
22703		15.752597	5.469922	-85.134671
22704		15.921476	5.484070	-84.994138
22705		16.060006	5.493863	-84.825852
22706		16.103563	5.489219	-84.619991
22707		16.055965	5.489551	-84.374952
22708		15.901613	5.504335	-84.096796
22709		15.669366	5.514141	-83.796290
22710		15.472522	5.519266	-83.483436
22711		15.334454	5.523152	-83.167574
22712		15.255641	5.527074	-82.851256
22713		15.248438	5.534246	-82.523024
22714		15.274377	5.534162	-82.175928
22715		15.305206	5.525975	-81.806194
22716		15.321757	5.514822	-81.419714
22717		15.340303	5.500177	-81.015611
22718		15.405599	5.485450	-80.593645
22719		15.536625	5.459523	-80.154323
22720		15.726908	5.434391	-79.702295
22721		15.957764	5.406928	-79.249220
22722		16.160244	5.380056	-78.794206
22723		16.293602	5.358845	-78.325571
22724		16.351232	5.342329	-77.828902
22725		16.351411	5.327857	-77.303706
22726		16.326842	5.317319	-76.756357
22727		16.334798	5.284465	-76.219880
22728		16.335854	5.260397	-75.686566
22729		16.354130	5.240412	-75.152037
22730		16.350734	5.204964	-74.598806
22731		16.306370	5.163030	-74.021899
22732		16.199890	5.126488	-73.416912
22733		16.084736	5.103562	-72.794069
22734		15.985094	5.084311	-72.155163
22735		15.950630	5.048830	-71.514849
22736		15.997983	5.013582	-70.878927
22737		16.125226	4.975567	-70.255801
22738		16.302076	4.928934	-69.644801
22739		16.477196	4.877630	-69.039721
22740		16.614375	4.825561	-68.438760
22741		16.694745	4.771908	-67.831825
22742		16.730022	4.719287	-67.199019
22743		16.787100	4.688596	-66.533449
22744		16.892158	4.660339	-65.863467
22745		17.084572	4.602956	-65.238890
22746		17.268762	4.551220	-64.644214
22747		17.426724	4.493932	-64.059946
22748		17.565798	4.431822	-63.466645
22749		17.691728	4.365185	-62.847634
22750		17.800116	4.294439	-62.214984
22751		17.912095	4.230199	-61.565777
22752		18.066001	4.175756	-60.894746
22753		18.277897	4.118940	-60.206086
22754		18.574775	4.040889	-59.526819
22755		18.893658	3.948856	-58.854150
22756		19.161915	3.861233	-58.193614
22757		19.386603	3.779411	-57.539883
22758		19.528846	3.702185	-56.890137
22759		19.588316	3.624321	-56.241990
22760		19.610049	3.559309	-55.581386
22761		19.656120	3.500191	-54.896359
22762		19.743452	3.434179	-54.183197
22763		19.891619	3.354774	-53.452640
22764		20.075606	3.264470	-52.712503
22765		20.267546	3.174683	-51.978874
22766		20.436198	3.098618	-51.248097
22767		20.582285	3.028026	-50.523720
22768		20.710552	2.966260	-49.795154
22769		20.828624	2.911848	-49.055304
22770		20.934568	2.857184	-48.301568
22771		21.042553	2.798658	-47.541908
22772		21.139136	2.739158	-46.785192
22773		21.216438	2.678256	-46.042871
22774		21.240009	2.622267	-45.316068
22775		21.201283	2.568295	-44.598583
22776		21.118620	2.521927	-43.879859
22777		21.016874	2.483333	-43.145992
22778		20.946811	2.443466	-42.393516
22779		20.934471	2.390735	-41.619987
22780		20.992999	2.344985	-40.822228
22781		21.107597	2.302578	-40.006189
22782		21.248075	2.264261	-39.189956
22783		21.390464	2.218846	-38.391954
22784		21.527572	2.177216	-37.617212
22785		21.648163	2.130816	-36.856245
22786		21.734161	2.084076	-36.094696
22787		21.810388	2.041338	-35.325012
22788		21.866308	2.003265	-34.546883
22789		21.902610	1.965567	-33.777426
22790		21.917078	1.930815	-33.018201
22791		21.902229	1.887368	-32.268316
22792		21.857941	1.840965	-31.522778
22793		21.791886	1.791768	-30.779489
22794		21.727785	1.755868	-30.040030
22795		21.688353	1.723060	-29.299580
22796		21.679256	1.693995	-28.559299
22797		21.683875	1.661086	-27.823219
22798		21.678371	1.621374	-27.085734
22799		21.638982	1.570765	-26.361691
22800		21.539700	1.522729	-25.656476
22801		21.423710	1.484411	-24.968395
22802		21.292543	1.450394	-24.289129
22803		21.150532	1.426571	-23.612875
22804		21.014741	1.395666	-22.939663
22805		20.885787	1.370364	-22.273774
22806		20.771149	1.349401	-21.612715
22807		20.660706	1.324813	-20.956586
22808		20.521700	1.303152	-20.303436
22809		20.362581	1.278008	-19.650621
22810		20.201965	1.254458	-19.000778
22811		20.052305	1.242675	-18.356253
22812		19.941252	1.230907	-17.724874
22813		19.890114	1.226601	-17.100956
22814		19.897625	1.230608	-16.489977
22815		19.943632	1.227454	-15.887621
22816		19.989332	1.216270	-15.284886
22817		20.002980	1.201772	-14.679247
22818		19.978057	1.192399	-14.076073
22819		19.924413	1.186476	-13.479872
22820		19.853203	1.183843	-12.881275
22821		19.790668	1.166849	-12.289216
22822		19.747401	1.155177	-11.704003
22823		19.755918	1.152322	-11.123672
22824		19.795120	1.145241	-10.553444
22825		19.845394	1.134188	-9.994553
22826		19.895010	1.127247	-9.446467
22827		19.925409	1.121285	-8.913381
22828		19.929845	1.117040	-8.388451
22829		19.924974	1.110972	-7.873269
22830		19.903680	1.112154	-7.356776
22831		19.883725	1.111207	-6.834558
22832		19.856015	1.109405	-6.312939
22833		19.814637	1.110293	-5.798988
22834		19.742552	1.103134	-5.301703
22835		19.635692	1.091967	-4.830801
22836		19.487855	1.086503	-4.378709
22837		19.336636	1.078496	-3.926882
22838		19.179618	1.072426	-3.478561
22839		19.009397	1.074616	-3.025872
22840		18.775363	1.073302	-2.564990
22841		18.492126	1.031366	-2.087782
22842		18.225181	0.991510	-1.611225
22843		17.939168	0.991092	-1.148748
22844		17.651192	0.998576	-0.716077
22845		17.424148	1.014659	-0.299270
22846		17.261578	1.031183	0.116411
22847		17.149536	1.046662	0.532491
22848		17.087929	1.075970	0.944639
22849		17.050605	1.113160	1.345876
22850		17.025723	1.153095	1.723094
22851		16.984633	1.181494	2.074029
22852		16.897048	1.184700	2.405425
22853		16.808131	1.175583	2.730510
22854		16.694647	1.176676	3.066355
22855		16.621769	1.195115	3.404310
22856		16.602321	1.218051	3.722390
22857		16.596316	1.247822	4.017400
22858		16.605050	1.273467	4.292156
22859		16.606853	1.290752	4.540430
22860		16.597777	1.307658	4.759112
22861		16.575986	1.331757	4.952993
22862		16.546846	1.359718	5.123590
22863		16.535756	1.387539	5.270029
22864		16.541530	1.419421	5.400503
22865		16.588758	1.447598	5.518326
22866		16.676790	1.474899	5.620950
22867		16.765169	1.498203	5.718137
22868		16.810063	1.512371	5.807181
22869		16.808425	1.523946	5.884857
22870		16.726922	1.530851	5.958136
22871		16.585477	1.544855	6.046731
22872		16.449463	1.559197	6.147649
22873		16.355820	1.575342	6.242802
22874		16.291161	1.598946	6.320035
22875		16.284452	1.620746	6.380901
22876		16.322971	1.634192	6.420501
22877		16.397655	1.646760	6.444260
22878		16.477619	1.660052	6.448043
22879		16.550570	1.673512	6.439276
22880		16.615357	1.683617	6.420394
22881		16.667986	1.694180	6.398467
22882		16.713677	1.704738	6.374450
22883		16.745180	1.716546	6.343719
22884		16.768366	1.736188	6.315147
22885		16.780286	1.758384	6.278257
22886		16.767121	1.777663	6.235995
22887		16.713151	1.785403	6.191188
22888		16.621169	1.786310	6.156629
22889		16.510285	1.786806	6.133140
22890		16.378785	1.791967	6.118214
22891		16.275408	1.803699	6.094916
22892		16.199072	1.824566	6.052170
22893		16.146552	1.850497	5.990127
22894		16.126354	1.871527	5.908553
22895		16.111669	1.888927	5.808399
22896		16.072611	1.904895	5.699677
22897		16.015761	1.915399	5.584621
22898		15.932560	1.927155	5.460028
22899		15.822495	1.944163	5.321654
22900		15.705285	1.966944	5.166499
22901		15.584169	1.988856	4.985659
22902		15.459717	2.015142	4.782316
22903		15.342624	2.049392	4.554699
22904		15.239334	2.087119	4.300754
22905		15.113678	2.112294	4.019442
22906		14.936846	2.128452	3.721901
22907		14.754099	2.154056	3.415194
22908		14.581478	2.189199	3.088654
22909		14.430549	2.237664	2.744725
22910		14.339688	2.285223	2.383487
22911		14.299780	2.330347	2.002001
22912		14.302889	2.371360	1.607511
22913		14.335621	2.405900	1.196106
22914		14.356652	2.435899	0.765899
22915		14.379522	2.466928	0.319124
22916		14.403380	2.495956	-0.147154
22917		14.413053	2.523186	-0.631948
22918		14.442479	2.545511	-1.124910
22919		14.480414	2.570313	-1.620966
22920		14.543831	2.596635	-2.119246
22921		14.605617	2.622105	-2.628365
22922		14.638399	2.651015	-3.143518
22923		14.656570	2.682523	-3.685246
22924		14.648055	2.715468	-4.261017
22925		14.585135	2.743193	-4.871153
22926		14.474930	2.755369	-5.483752
22927		14.354008	2.756229	-6.077016
22928		14.274802	2.757794	-6.656176
22929		14.226272	2.770278	-7.226040
22930		14.240476	2.790010	-7.799350
22931		14.317507	2.804933	-8.387309
22932		14.421096	2.815394	-8.996197
22933		14.539101	2.814154	-9.625010
22934		14.668216	2.816863	-10.266648
22935		14.815587	2.831745	-10.918161
22936		14.988358	2.854254	-11.577127
22937		15.135968	2.879593	-12.233694
22938		15.263051	2.906635	-12.892535
22939		15.363078	2.936948	-13.565898
22940		15.413363	2.966936	-14.257373
22941		15.402962	2.983272	-14.954185
22942		15.340739	3.006128	-15.647389
22943		15.249119	3.036496	-16.330048
22944		15.147380	3.074358	-17.008826
22945		15.053745	3.120999	-17.693587
22946		14.974790	3.167485	-18.387715
22947		14.907547	3.211475	-19.088104
22948		14.841554	3.249086	-19.792266
22949		14.756226	3.276476	-20.500034
22950		14.658123	3.307926	-21.193942
22951		14.558127	3.356524	-21.884616
22952		14.453340	3.414546	-22.580985
22953		14.330353	3.478413	-23.285297
22954		14.218417	3.538993	-24.008556
22955		14.112454	3.592084	-24.738837
22956		14.019052	3.639660	-25.487366
22957		13.930799	3.682135	-26.237293
22958		13.843875	3.719316	-26.985652
22959		13.771447	3.758136	-27.730023
22960		13.716815	3.797816	-28.472862
22961		13.660314	3.838746	-29.214461
22962		13.623172	3.881923	-29.965459
22963		13.593513	3.926322	-30.719133
22964		13.578477	3.968735	-31.469509
22965		13.578721	4.012226	-32.210293
22966		13.587360	4.048936	-32.939281
22967		13.592477	4.077354	-33.659203
22968		13.574829	4.095682	-34.373872
22969		13.535956	4.112037	-35.096128
22970		13.487277	4.130231	-35.827604
22971		13.434819	4.147226	-36.563357
22972		13.395047	4.175671	-37.297204
22973		13.363333	4.205522	-38.012484
22974		13.338411	4.229017	-38.719417
22975		13.303811	4.254208	-39.420773
22976		13.260499	4.274828	-40.128261
22977		13.213001	4.285041	-40.856904
22978		13.154245	4.296441	-41.607002
22979		13.101069	4.302000	-42.368328
22980		13.072772	4.309988	-43.126090
22981		13.063408	4.322337	-43.864376
22982		13.094239	4.342673	-44.588964
22983		13.126160	4.367073	-45.306821
22984		13.112599	4.384462	-46.023518
22985		13.060286	4.387571	-46.748247
22986		12.981558	4.376058	-47.486409
22987		12.880687	4.355173	-48.243113
22988		12.808580	4.339949	-49.010206
22989		12.796793	4.334837	-49.771306
22990		12.801108	4.332396	-50.503591
22991		12.785155	4.329551	-51.207556
22992		12.732858	4.331205	-51.906960
22993		12.592369	4.337000	-52.619701
22994		12.400025	4.335317	-53.348104
22995		12.192030	4.326984	-54.088736
22996		12.041818	4.320925	-54.846759
22997		11.948352	4.321508	-55.607547
22998		11.904369	4.323656	-56.364725
22999		11.878906	4.336252	-57.108057
23000		11.872109	4.350671	-57.850943
23001		11.786295	4.353051	-58.594439
23002		11.661070	4.341463	-59.345663
23003		11.525648	4.318723	-60.098894
23004		11.377778	4.299222	-60.834510
23005		11.275628	4.270582	-61.545490
23006		11.261211	4.256358	-62.245400
23007		11.303604	4.261371	-62.940140
23008		11.406816	4.262592	-63.642866
23009		11.569077	4.255466	-64.346685
23010		11.762985	4.239094	-65.035114
23011		11.997555	4.204384	-65.710045
23012		12.286931	4.149243	-66.387291
23013		12.582715	4.097038	-67.062912
23014		12.879383	4.054170	-67.743076
23015		13.151728	4.021981	-68.418926
23016		13.377188	4.013725	-69.080300
23017		13.552573	4.026606	-69.715368
23018		13.649435	4.019006	-70.312131
23019		13.608365	3.979633	-70.889485
23020		13.459037	3.945849	-71.464546
23021		13.266024	3.919977	-72.034852
23022		13.057375	3.876419	-72.610723
23023		12.828661	3.832390	-73.177041
23024		12.590503	3.793666	-73.724811
23025		12.355056	3.780708	-74.264465
23026		12.133665	3.791759	-74.793086
23027		11.959854	3.797296	-75.329817
23028		11.859706	3.796562	-75.885062
23029		11.847519	3.799739	-76.466398
23030		11.967698	3.796483	-77.066794
23031		12.219482	3.782580	-77.682978
23032		12.550040	3.777688	-78.308063
23033		12.942682	3.786374	-78.929338
23034		13.227483	3.766231	-79.530609
23035		13.279626	3.741591	-80.119888
23036		13.138224	3.728328	-80.714786
