// General information: 
//  MT Manager version: 2022.2.0 
//  XDA version: 2022.2.0 build 7381 rev 124627 built on 2023-07-19
// Device information: 
//  DeviceId: 00B44876
//  ProductCode: MTW2-3A7G6
//  Firmware Version: 4.3.5
//  Hardware Version: 2.0.0
// Device settings: 
//  Filter Profile: human(46.1)
//  Option Flags: Orientation Smoother Disabled, Position/Velocity Smoother Disabled, Continuous Zero Rotation Update Disabled, AHS Disabled, ICC Disabled
// Coordinate system: ENU
PacketCounter	SampleTimeFine	Roll	Pitch	Yaw
19749		-8.487937	-8.367979	1.140268
19750		-8.526574	-8.329430	1.180592
19751		-8.595870	-8.275990	1.198260
19752		-8.707299	-8.219754	1.192879
19753		-8.847671	-8.177771	1.171143
19754		-8.961581	-8.178486	1.127246
19755		-9.015415	-8.232068	1.067428
19756		-8.987114	-8.336147	1.017190
19757		-8.864596	-8.497917	0.983073
19758		-8.663898	-8.696760	0.959541
19759		-8.435367	-8.895494	0.945794
19760		-8.208750	-9.074307	0.934215
19761		-8.011761	-9.221465	0.929369
19762		-7.833432	-9.339366	0.938342
19763		-7.664791	-9.429535	0.973161
19764		-7.490362	-9.504955	1.026634
19765		-7.314913	-9.585403	1.104465
19766		-7.125270	-9.692818	1.200222
19767		-6.952153	-9.817901	1.306920
19768		-6.813506	-9.942282	1.430947
19769		-6.722566	-10.048504	1.572743
19770		-6.667963	-10.122747	1.737740
19771		-6.652171	-10.162317	1.915108
19772		-6.667239	-10.181302	2.088551
19773		-6.700037	-10.190441	2.238560
19774		-6.747414	-10.209988	2.344667
19775		-6.814911	-10.249408	2.405321
19776		-6.896269	-10.317361	2.415020
19777		-7.000063	-10.387517	2.379309
19778		-7.109829	-10.444950	2.307056
19779		-7.200283	-10.492088	2.209653
19780		-7.228481	-10.524733	2.096344
19781		-7.169541	-10.557602	1.950641
19782		-7.012717	-10.607667	1.771881
19783		-6.768077	-10.669773	1.556109
19784		-6.479675	-10.733209	1.312046
19785		-6.216483	-10.791975	1.064487
19786		-6.016667	-10.854818	0.828606
19787		-5.893580	-10.906528	0.621308
19788		-5.800332	-10.949608	0.437104
19789		-5.735006	-10.959965	0.279665
19790		-5.683085	-10.925960	0.139696
19791		-5.657457	-10.859750	0.008782
19792		-5.661326	-10.791462	-0.110910
19793		-5.667959	-10.760472	-0.203649
19794		-5.635147	-10.798268	-0.279768
19795		-5.548015	-10.915160	-0.352126
19796		-5.378794	-11.102811	-0.439552
19797		-5.143595	-11.318509	-0.549649
19798		-4.840745	-11.533494	-0.679474
19799		-4.508119	-11.727290	-0.819720
19800		-4.175236	-11.899798	-0.966228
19801		-3.867755	-12.029560	-1.109183
19802		-3.588262	-12.108025	-1.231811
19803		-3.356429	-12.127520	-1.325760
19804		-3.181679	-12.089620	-1.395360
19805		-3.062291	-12.003179	-1.437007
19806		-3.000005	-11.894991	-1.454160
19807		-3.021835	-11.786660	-1.439341
19808		-3.125311	-11.689359	-1.388564
19809		-3.311006	-11.576791	-1.307375
19810		-3.579826	-11.443117	-1.199145
19811		-3.910377	-11.319475	-1.083375
19812		-4.246539	-11.239041	-0.961803
19813		-4.528954	-11.221613	-0.840866
19814		-4.709249	-11.248105	-0.724682
19815		-4.769394	-11.308888	-0.616389
19816		-4.729418	-11.385161	-0.502287
19817		-4.624002	-11.455792	-0.389228
19818		-4.499939	-11.516304	-0.278034
19819		-4.392431	-11.570636	-0.182147
19820		-4.297626	-11.610479	-0.117169
19821		-4.229292	-11.627578	-0.103261
19822		-4.205268	-11.607432	-0.138668
19823		-4.228056	-11.536248	-0.214436
19824		-4.291715	-11.406250	-0.308950
19825		-4.376732	-11.212848	-0.401964
19826		-4.460123	-10.972008	-0.489036
19827		-4.520360	-10.706485	-0.546498
19828		-4.544490	-10.451516	-0.557274
19829		-4.529932	-10.222157	-0.538276
19830		-4.515527	-10.021858	-0.497289
19831		-4.540191	-9.875650	-0.438719
19832		-4.603425	-9.810834	-0.359735
19833		-4.698704	-9.827064	-0.283878
19834		-4.799750	-9.907850	-0.216529
19835		-4.897642	-10.018266	-0.157617
19836		-4.994095	-10.141521	-0.108122
19837		-5.085048	-10.262263	-0.064536
19838		-5.147164	-10.371451	-0.024038
19839		-5.175098	-10.454596	0.008423
19840		-5.178611	-10.502022	0.026670
19841		-5.179272	-10.520798	0.026648
19842		-5.186876	-10.526941	0.010158
19843		-5.211130	-10.530710	-0.018458
19844		-5.244899	-10.530086	-0.057349
19845		-5.278688	-10.533529	-0.104719
19846		-5.285624	-10.544150	-0.144757
19847		-5.243467	-10.574641	-0.180512
19848		-5.130912	-10.631584	-0.204552
19849		-4.947571	-10.706151	-0.214968
19850		-4.715311	-10.788796	-0.214927
19851		-4.474385	-10.866224	-0.207685
19852		-4.265473	-10.925929	-0.188560
19853		-4.111475	-10.968845	-0.156470
19854		-4.001417	-10.989882	-0.104267
19855		-3.929387	-10.993429	-0.030597
19856		-3.855282	-10.985053	0.063697
19857		-3.762823	-10.969913	0.156623
19858		-3.672140	-10.944992	0.240593
19859		-3.633155	-10.917314	0.309507
19860		-3.646755	-10.913092	0.358802
19861		-3.678026	-10.928618	0.383680
19862		-3.670652	-10.965904	0.398475
19863		-3.603302	-11.014053	0.421130
19864		-3.461796	-11.056956	0.453804
19865		-3.286631	-11.065455	0.504273
19866		-3.113816	-11.026729	0.571690
19867		-2.950131	-10.945785	0.648045
19868		-2.833881	-10.827483	0.721221
19869		-2.792677	-10.675889	0.771082
19870		-2.809152	-10.506284	0.793818
19871		-2.833160	-10.333710	0.774473
19872		-2.836963	-10.176345	0.723130
19873		-2.838123	-10.022526	0.671984
19874		-2.844026	-9.866734	0.646410
19875		-2.858468	-9.705718	0.647971
19876		-2.869954	-9.547605	0.677436
19877		-2.853095	-9.420043	0.715389
19878		-2.795807	-9.329035	0.729428
19879		-2.698898	-9.261769	0.694479
19880		-2.571485	-9.223827	0.602021
19881		-2.447412	-9.214262	0.481432
19882		-2.327346	-9.206264	0.358746
19883		-2.261500	-9.182734	0.265235
19884		-2.285640	-9.132669	0.188479
19885		-2.406082	-9.065735	0.115000
19886		-2.580052	-8.994079	0.005769
19887		-2.791470	-8.909114	-0.147816
19888		-2.975618	-8.814632	-0.365955
19889		-3.132909	-8.714934	-0.645924
19890		-3.264212	-8.620505	-0.986249
19891		-3.405779	-8.528153	-1.361972
19892		-3.539556	-8.446337	-1.771873
19893		-3.700793	-8.376403	-2.207605
19894		-3.888137	-8.324776	-2.681378
19895		-4.091570	-8.299220	-3.175353
19896		-4.280603	-8.300978	-3.701769
19897		-4.461888	-8.319087	-4.247141
19898		-4.591820	-8.345169	-4.828128
19899		-4.684337	-8.372768	-5.432788
19900		-4.747669	-8.392913	-6.069678
19901		-4.837186	-8.410257	-6.720110
19902		-4.966763	-8.433867	-7.387153
19903		-5.176451	-8.466075	-8.050682
19904		-5.418764	-8.514917	-8.714233
19905		-5.698559	-8.581633	-9.378260
19906		-5.951976	-8.665482	-10.051079
19907		-6.170219	-8.755554	-10.722069
19908		-6.306331	-8.846577	-11.406441
19909		-6.398959	-8.915008	-12.097076
19910		-6.487442	-8.939661	-12.807576
19911		-6.659144	-8.927718	-13.527505
19912		-6.929090	-8.887202	-14.265347
19913		-7.318031	-8.835648	-15.007193
19914		-7.721752	-8.783890	-15.750580
19915		-8.094876	-8.756736	-16.482318
19916		-8.357869	-8.781273	-17.212351
19917		-8.557461	-8.851257	-17.934689
19918		-8.712739	-8.938437	-18.668670
19919		-8.885335	-9.011160	-19.399302
19920		-9.065071	-9.055726	-20.142063
19921		-9.272477	-9.082783	-20.895324
19922		-9.457081	-9.124977	-21.669354
19923		-9.663747	-9.173747	-22.463087
19924		-9.872962	-9.197849	-23.285754
19925		-10.138833	-9.189618	-24.120868
19926		-10.442790	-9.162105	-24.967258
19927		-10.769382	-9.128224	-25.808459
19928		-11.001208	-9.119421	-26.678554
19929		-11.118196	-9.147785	-27.593748
19930		-11.116703	-9.180574	-28.572741
19931		-11.109325	-9.202024	-29.577060
19932		-11.115223	-9.200299	-30.577444
19933		-11.165362	-9.193216	-31.545393
19934		-11.172896	-9.202804	-32.490148
19935		-11.049543	-9.253524	-33.424302
19936		-10.684272	-9.371163	-34.397956
19937		-10.181683	-9.491498	-35.441683
19938		-9.659508	-9.542615	-36.577288
19939		-9.299624	-9.502608	-37.770945
19940		-9.142695	-9.375761	-38.974029
19941		-9.160621	-9.228627	-40.135930
19942		-9.165364	-9.108000	-41.259133
19943		-9.053923	-9.049437	-42.364582
19944		-8.813064	-9.031465	-43.496329
19945		-8.620314	-8.988362	-44.645688
19946		-8.536554	-8.891985	-45.781336
19947		-8.619349	-8.786527	-46.843301
19948		-8.715337	-8.700291	-47.826052
19949		-8.649513	-8.674017	-48.747426
19950		-8.193304	-8.744343	-49.672983
19951		-7.343349	-8.927050	-50.684395
19952		-6.324577	-9.050860	-51.787353
19953		-5.471153	-9.042955	-52.952658
19954		-5.048030	-9.004890	-54.087784
19955		-5.254533	-9.016404	-55.120168
19956		-5.881085	-9.085991	-56.006839
19957		-6.594473	-9.227293	-56.777275
19958		-6.930185	-9.494712	-57.539013
19959		-6.923673	-9.795911	-58.397720
19960		-6.865972	-9.890029	-59.358640
19961		-7.053236	-9.754012	-60.392786
19962		-7.611831	-9.452115	-61.429654
19963		-8.482515	-9.068742	-62.417019
19964		-9.370081	-8.653112	-63.334427
19965		-9.995182	-8.265616	-64.186862
19966		-10.100787	-8.014509	-64.994478
19967		-9.672662	-7.957938	-65.822973
19968		-8.919744	-7.996997	-66.708769
19969		-8.100787	-8.100135	-67.667645
19970		-7.395198	-8.247684	-68.649686
19971		-6.900742	-8.417153	-69.620673
19972		-6.555392	-8.577378	-70.538557
19973		-6.230047	-8.685395	-71.435934
19974		-5.770225	-8.757299	-72.342838
19975		-5.205907	-8.785811	-73.322005
19976		-4.646426	-8.711499	-74.390992
19977		-4.274849	-8.510098	-75.527585
19978		-4.229523	-8.217010	-76.650255
19979		-4.472324	-7.933281	-77.714633
19980		-4.772597	-7.736265	-78.686184
19981		-4.909306	-7.636520	-79.580969
19982		-4.669800	-7.620399	-80.445469
19983		-4.046329	-7.692196	-81.370509
19984		-3.229868	-7.781168	-82.385110
19985		-2.467213	-7.801584	-83.474370
19986		-1.932123	-7.760773	-84.552404
19987		-1.691416	-7.705594	-85.585586
19988		-1.606274	-7.660643	-86.526868
19989		-1.493087	-7.667556	-87.385283
19990		-1.175350	-7.746309	-88.179402
19991		-0.644876	-7.945465	-89.006610
19992		-0.043052	-8.181188	-89.873935
19993		0.443840	-8.388596	-90.773006
19994		0.698895	-8.561581	-91.647129
19995		0.751751	-8.725589	-92.464074
19996		0.790451	-8.901121	-93.200720
19997		0.971934	-9.095976	-93.892774
19998		1.409865	-9.283413	-94.549392
19999		2.086148	-9.465989	-95.223091
20000		2.807053	-9.650407	-95.910840
20001		3.322913	-9.823502	-96.599549
20002		3.513446	-9.991687	-97.253835
20003		3.442937	-10.156450	-97.838448
20004		3.312803	-10.302567	-98.347944
20005		3.310735	-10.392552	-98.817554
20006		3.500893	-10.417163	-99.287701
20007		3.805461	-10.391673	-99.781093
20008		4.054517	-10.363923	-100.265121
20009		4.150805	-10.355509	-100.711396
20010		4.074333	-10.409773	-101.097885
20011		3.918689	-10.510482	-101.415878
20012		3.795397	-10.629949	-101.671732
20013		3.794299	-10.716867	-101.896466
20014		3.904941	-10.748230	-102.120103
20015		4.049886	-10.706096	-102.355375
20016		4.170473	-10.618335	-102.580127
20017		4.235216	-10.511623	-102.776955
20018		4.277272	-10.422562	-102.938210
20019		4.329545	-10.351133	-103.079993
20020		4.380558	-10.310002	-103.207105
20021		4.403927	-10.286105	-103.326269
20022		4.393253	-10.293649	-103.431079
20023		4.375702	-10.314045	-103.517121
20024		4.359966	-10.333076	-103.561760
20025		4.371937	-10.330372	-103.557372
20026		4.412624	-10.312720	-103.502832
20027		4.473501	-10.273553	-103.430072
20028		4.510056	-10.226055	-103.356520
20029		4.494555	-10.170236	-103.305696
20030		4.429967	-10.126859	-103.276103
20031		4.379612	-10.098506	-103.259776
20032		4.377604	-10.095803	-103.236123
20033		4.449767	-10.116927	-103.200684
20034		4.573126	-10.147746	-103.155187
20035		4.721264	-10.170757	-103.108841
20036		4.824401	-10.179571	-103.050940
20037		4.824160	-10.167268	-102.978104
20038		4.681150	-10.143364	-102.872172
20039		4.383881	-10.113415	-102.738017
20040		4.000594	-10.087504	-102.591025
20041		3.675508	-10.063192	-102.451359
20042		3.506600	-10.041673	-102.333207
20043		3.539177	-10.025211	-102.232308
20044		3.664725	-10.018289	-102.121295
20045		3.745726	-10.004563	-101.993880
20046		3.700567	-9.991969	-101.858138
20047		3.566845	-9.972873	-101.722368
20048		3.415682	-9.954054	-101.587301
20049		3.349207	-9.940792	-101.455660
20050		3.403894	-9.933915	-101.321744
20051		3.582661	-9.919117	-101.194597
20052		3.811606	-9.891094	-101.067043
20053		4.004468	-9.855101	-100.940066
20054		4.059524	-9.807998	-100.803115
20055		3.967790	-9.756406	-100.656953
20056		3.783010	-9.716268	-100.498582
20057		3.601353	-9.685126	-100.333371
20058		3.437798	-9.671095	-100.175183
20059		3.329023	-9.669622	-100.031733
20060		3.275379	-9.675784	-99.895541
20061		3.296008	-9.661819	-99.766984
20062		3.340886	-9.631745	-99.632642
20063		3.390997	-9.599805	-99.479382
20064		3.382688	-9.596809	-99.298439
20065		3.310529	-9.624019	-99.106637
20066		3.196607	-9.677009	-98.910148
20067		3.103397	-9.730138	-98.720579
20068		3.042965	-9.759644	-98.536940
20069		3.008391	-9.753839	-98.356114
20070		2.966564	-9.724474	-98.164359
20071		2.915751	-9.683456	-97.957629
20072		2.836403	-9.658657	-97.715921
20073		2.760719	-9.663493	-97.441594
20074		2.674307	-9.691563	-97.146384
20075		2.595321	-9.727217	-96.861420
20076		2.510125	-9.758473	-96.600802
20077		2.448510	-9.775922	-96.359161
20078		2.405139	-9.773976	-96.103807
20079		2.399746	-9.753370	-95.824393
20080		2.407779	-9.725081	-95.513784
20081		2.424413	-9.696492	-95.192581
20082		2.415052	-9.664929	-94.848914
20083		2.405920	-9.650382	-94.519150
20084		2.391067	-9.645462	-94.196027
20085		2.408063	-9.658453	-93.905233
20086		2.462466	-9.675256	-93.621619
20087		2.587830	-9.697031	-93.362267
20088		2.750429	-9.703084	-93.080026
20089		2.952093	-9.695056	-92.762863
20090		3.157915	-9.642606	-92.369523
20091		3.391135	-9.557292	-91.940222
20092		3.544886	-9.456028	-91.475506
20093		3.551771	-9.365729	-91.026792
20094		3.393566	-9.286213	-90.589284
20095		3.177178	-9.220436	-90.187813
20096		2.997319	-9.139537	-89.792750
20097		2.929083	-9.036328	-89.407738
20098		2.958608	-8.897183	-88.995016
20099		3.069157	-8.757227	-88.583947
20100		3.173422	-8.633178	-88.147852
20101		3.258252	-8.556353	-87.709502
20102		3.267934	-8.536798	-87.244265
20103		3.213523	-8.583818	-86.793822
20104		3.111800	-8.661945	-86.337701
20105		3.027325	-8.740790	-85.896572
20106		2.950453	-8.773384	-85.433938
20107		2.896418	-8.758565	-84.970063
20108		2.838330	-8.710806	-84.477851
20109		2.794562	-8.668317	-83.993488
20110		2.739164	-8.646163	-83.497504
20111		2.704164	-8.668488	-83.024210
20112		2.670694	-8.731256	-82.538512
20113		2.647662	-8.826656	-82.046782
20114		2.609649	-8.915388	-81.508377
20115		2.587905	-9.004257	-80.956836
20116		2.545078	-9.069821	-80.386373
20117		2.460910	-9.123125	-79.824665
20118		2.294710	-9.173213	-79.244993
20119		2.089613	-9.255639	-78.676028
20120		1.903747	-9.376606	-78.097862
20121		1.805592	-9.524566	-77.529220
20122		1.773313	-9.654693	-76.930986
20123		1.797640	-9.742849	-76.337949
20124		1.834025	-9.783936	-75.735273
20125		1.877552	-9.805151	-75.149222
20126		1.863903	-9.823994	-74.544292
20127		1.825635	-9.882049	-73.941011
20128		1.790138	-9.985124	-73.308332
20129		1.833020	-10.126974	-72.671124
20130		1.958855	-10.274292	-72.010208
20131		2.161870	-10.391905	-71.362431
20132		2.387823	-10.452695	-70.699759
20133		2.610355	-10.458134	-70.039585
20134		2.760856	-10.421375	-69.355125
20135		2.798460	-10.371735	-68.677627
20136		2.675723	-10.324643	-67.967028
20137		2.441744	-10.314730	-67.251510
20138		2.123790	-10.349908	-66.513355
20139		1.858587	-10.439938	-65.789122
20140		1.672166	-10.540537	-65.054601
20141		1.598253	-10.621073	-64.336416
20142		1.601985	-10.654380	-63.609547
20143		1.664115	-10.647980	-62.891513
20144		1.726278	-10.608208	-62.137589
20145		1.776747	-10.578428	-61.374862
20146		1.782834	-10.586122	-60.577576
20147		1.795511	-10.652774	-59.780933
20148		1.808107	-10.765413	-58.957372
20149		1.854464	-10.907139	-58.140961
20150		1.883894	-11.021796	-57.311758
20151		1.890343	-11.088657	-56.515129
20152		1.834104	-11.103008	-55.725393
20153		1.737572	-11.088870	-54.956401
20154		1.602596	-11.071718	-54.169389
20155		1.495536	-11.085363	-53.388209
20156		1.436678	-11.140323	-52.570220
20157		1.476666	-11.226866	-51.734941
20158		1.565230	-11.309879	-50.851211
20159		1.660046	-11.365051	-49.979750
20160		1.659647	-11.359711	-49.090712
20161		1.550304	-11.320717	-48.196581
20162		1.319205	-11.299495	-47.263254
20163		1.068759	-11.341784	-46.318688
20164		0.889638	-11.457886	-45.334436
20165		0.905166	-11.651955	-44.357794
20166		1.095075	-11.866846	-43.364088
20167		1.400663	-12.023099	-42.388035
20168		1.686537	-12.078560	-41.403534
20169		1.909829	-12.051466	-40.455403
20170		2.044885	-11.987270	-39.520700
20171		2.150103	-11.927298	-38.611910
20172		2.222394	-11.881258	-37.686222
20173		2.288371	-11.855272	-36.770283
20174		2.303633	-11.837154	-35.831808
20175		2.295033	-11.833043	-34.906253
20176		2.228422	-11.824233	-33.970569
20177		2.120145	-11.806353	-33.056398
20178		1.968414	-11.779483	-32.124101
20179		1.826073	-11.748182	-31.207810
20180		1.699193	-11.714790	-30.276059
20181		1.621568	-11.671506	-29.370419
20182		1.544168	-11.614869	-28.472701
20183		1.472182	-11.554448	-27.615931
20184		1.360290	-11.482820	-26.774248
20185		1.227308	-11.413436	-25.959146
20186		1.082795	-11.351822	-25.128915
20187		1.002346	-11.314188	-24.301797
20188		1.011174	-11.289771	-23.469699
20189		1.145051	-11.278919	-22.671950
20190		1.346768	-11.252668	-21.896209
20191		1.557798	-11.199290	-21.172566
20192		1.675593	-11.124235	-20.452843
20193		1.670840	-11.038930	-19.734906
20194		1.533388	-10.956104	-18.982220
20195		1.332905	-10.888107	-18.197663
20196		1.092858	-10.843127	-17.367970
20197		0.893448	-10.824230	-16.546183
20198		0.755622	-10.837116	-15.746164
20199		0.691367	-10.847092	-15.010194
20200		0.652259	-10.839112	-14.307337
20201		0.626913	-10.813578	-13.626987
20202		0.567347	-10.779820	-12.919248
20203		0.500952	-10.744579	-12.188718
20204		0.415310	-10.705610	-11.428655
20205		0.333859	-10.681789	-10.688923
20206		0.249984	-10.680842	-9.972730
20207		0.169583	-10.693476	-9.298832
20208		0.074411	-10.701404	-8.627528
20209		-0.010698	-10.702912	-7.964582
20210		-0.093880	-10.704109	-7.272766
20211		-0.149118	-10.707198	-6.557339
20212		-0.212290	-10.711813	-5.816064
20213		-0.309132	-10.711591	-5.086589
20214		-0.494143	-10.705786	-4.352095
20215		-0.739403	-10.703988	-3.625541
20216		-1.000220	-10.706531	-2.886512
20217		-1.173752	-10.716643	-2.155598
20218		-1.230021	-10.725957	-1.439517
20219		-1.180534	-10.745235	-0.772031
20220		-1.116006	-10.751910	-0.139769
20221		-1.126187	-10.728715	0.447261
20222		-1.277316	-10.683863	1.028601
20223		-1.549848	-10.646544	1.611815
20224		-1.886021	-10.634275	2.203923
20225		-2.172258	-10.650117	2.776016
20226		-2.344868	-10.692875	3.306883
20227		-2.383541	-10.736007	3.756918
20228		-2.350229	-10.752357	4.137490
20229		-2.281400	-10.736982	4.463373
20230		-2.231460	-10.692055	4.764582
20231		-2.201955	-10.641474	5.060464
20232		-2.172551	-10.603734	5.350870
20233		-2.120476	-10.581630	5.614641
20234		-2.035250	-10.575595	5.843269
20235		-1.920810	-10.578147	6.026835
20236		-1.800459	-10.573744	6.181067
20237		-1.699786	-10.548942	6.325590
20238		-1.639222	-10.504986	6.473180
20239		-1.607935	-10.453043	6.629469
20240		-1.573982	-10.407525	6.790560
20241		-1.505781	-10.378577	6.940113
20242		-1.400989	-10.372156	7.057024
20243		-1.311094	-10.388405	7.140242
20244		-1.268978	-10.416450	7.185576
20245		-1.289876	-10.437725	7.198445
20246		-1.334022	-10.454861	7.181762
20247		-1.359846	-10.458741	7.151876
20248		-1.331021	-10.446162	7.115923
20249		-1.266205	-10.408039	7.086833
20250		-1.210644	-10.343393	7.074310
20251		-1.209912	-10.268324	7.080429
20252		-1.278992	-10.198728	7.105177
20253		-1.390446	-10.150376	7.135158
20254		-1.516275	-10.124216	7.163036
20255		-1.647426	-10.107683	7.182289
20256		-1.763483	-10.099960	7.191488
20257		-1.859243	-10.096689	7.190369
20258		-1.929768	-10.095149	7.182675
20259		-1.955568	-10.103159	7.165411
20260		-1.954570	-10.119787	7.136310
20261		-1.952112	-10.132498	7.100809
20262		-1.962323	-10.140829	7.063161
20263		-1.980029	-10.151975	7.027341
20264		-1.963621	-10.173490	6.988098
20265		-1.907822	-10.207563	6.937097
20266		-1.841906	-10.245010	6.867069
20267		-1.820102	-10.273384	6.787850
20268		-1.868688	-10.288695	6.705765
20269		-1.988102	-10.283059	6.635117
20270		-2.128442	-10.259061	6.577446
20271		-2.243305	-10.228450	6.543020
20272		-2.286462	-10.210886	6.519866
20273		-2.274192	-10.209759	6.504214
20274		-2.222162	-10.233732	6.483278
20275		-2.163727	-10.279803	6.464118
20276		-2.094558	-10.347249	6.425009
20277		-2.037081	-10.428966	6.369881
20278		-2.008615	-10.495979	6.286855
20279		-2.044817	-10.533627	6.183046
20280		-2.158995	-10.545838	6.070202
20281		-2.321643	-10.547612	5.962867
20282		-2.472899	-10.550094	5.862588
20283		-2.546004	-10.551659	5.758758
20284		-2.510634	-10.552700	5.626543
20285		-2.403279	-10.550963	5.462565
20286		-2.272718	-10.552546	5.271209
20287		-2.196686	-10.564440	5.077591
20288		-2.199614	-10.598396	4.892777
20289		-2.291501	-10.640951	4.729957
20290		-2.418722	-10.686874	4.572880
20291		-2.529900	-10.729545	4.423859
20292		-2.575044	-10.778735	4.250789
20293		-2.566459	-10.823556	4.053572
20294		-2.508386	-10.876213	3.819522
20295		-2.452812	-10.943238	3.569839
20296		-2.428710	-11.009832	3.304614
20297		-2.475330	-11.058759	3.038164
20298		-2.565296	-11.094509	2.758222
20299		-2.680037	-11.116038	2.467002
20300		-2.765316	-11.127842	2.139534
20301		-2.818087	-11.126397	1.787618
20302		-2.837813	-11.110585	1.404482
20303		-2.872952	-11.085905	0.997353
20304		-2.930051	-11.053769	0.574230
20305		-3.036840	-11.017277	0.153760
20306		-3.141037	-10.969360	-0.276065
20307		-3.188259	-10.909336	-0.724529
20308		-3.202415	-10.832707	-1.201281
20309		-3.230353	-10.758493	-1.684722
20310		-3.291803	-10.701855	-2.166027
20311		-3.396231	-10.683369	-2.638538
20312		-3.490156	-10.705169	-3.123336
20313		-3.561954	-10.733424	-3.619653
20314		-3.586412	-10.756310	-4.129484
20315		-3.587513	-10.773993	-4.630493
20316		-3.555440	-10.809027	-5.110591
20317		-3.499307	-10.840112	-5.554398
20318		-3.429477	-10.875291	-5.994089
20319		-3.388052	-10.899115	-6.433418
20320		-3.376634	-10.933077	-6.896045
20321		-3.413385	-10.987980	-7.378831
20322		-3.467247	-11.061656	-7.894160
20323		-3.567165	-11.136852	-8.411974
20324		-3.716379	-11.199730	-8.928166
20325		-3.920674	-11.236247	-9.420263
20326		-4.099380	-11.273468	-9.914269
20327		-4.232922	-11.315726	-10.410310
20328		-4.270135	-11.370469	-10.931306
20329		-4.232841	-11.435271	-11.471817
20330		-4.134591	-11.513457	-12.039635
20331		-4.032353	-11.602269	-12.614177
20332		-3.958716	-11.702924	-13.192833
20333		-3.975241	-11.796100	-13.758159
20334		-4.097159	-11.868661	-14.328497
20335		-4.380516	-11.878376	-14.906127
20336		-4.766400	-11.843244	-15.525720
20337		-5.216753	-11.767588	-16.190278
20338		-5.618280	-11.669019	-16.905860
20339		-5.914497	-11.562518	-17.644887
20340		-6.064884	-11.461995	-18.399795
20341		-6.121091	-11.382521	-19.140702
20342		-6.118724	-11.331115	-19.868879
20343		-6.163568	-11.285664	-20.569871
20344		-6.268447	-11.236169	-21.270681
20345		-6.457770	-11.178650	-21.971060
20346		-6.656619	-11.108291	-22.688192
20347		-6.818867	-11.036408	-23.409898
20348		-6.853359	-10.969627	-24.161280
20349		-6.779673	-10.915356	-24.924623
20350		-6.620261	-10.875726	-25.683762
20351		-6.470805	-10.852298	-26.393524
20352		-6.362540	-10.850572	-27.052965
20353		-6.360811	-10.867353	-27.658486
20354		-6.470133	-10.891185	-28.241386
20355		-6.699647	-10.928520	-28.816592
20356		-7.001525	-10.967591	-29.420276
20357		-7.361664	-10.997347	-30.061414
20358		-7.712469	-10.986021	-30.741164
20359		-8.029516	-10.903557	-31.437398
20360		-8.248405	-10.787042	-32.147432
20361		-8.387706	-10.662787	-32.864815
20362		-8.429783	-10.572269	-33.608457
20363		-8.421541	-10.507560	-34.383276
20364		-8.413313	-10.440439	-35.194835
20365		-8.468864	-10.369852	-36.010616
20366		-8.607660	-10.289584	-36.816883
20367		-8.845359	-10.202295	-37.588426
20368		-9.082212	-10.108827	-38.331775
20369		-9.224464	-10.018066	-39.053759
20370		-9.091674	-9.951031	-39.775491
20371		-8.633558	-9.915595	-40.507640
20372		-7.896235	-9.920745	-41.289801
20373		-7.052121	-9.980748	-42.146371
20374		-6.315790	-9.995844	-43.073457
20375		-5.884758	-9.931049	-44.013857
20376		-5.773641	-9.817727	-44.909368
20377		-5.923145	-9.682991	-45.724427
20378		-6.105265	-9.574863	-46.478372
20379		-6.158058	-9.535981	-47.222480
20380		-6.028977	-9.532190	-48.037986
20381		-5.801409	-9.511565	-48.925907
20382		-5.562677	-9.459289	-49.851623
20383		-5.416049	-9.387421	-50.759315
20384		-5.308509	-9.334696	-51.623797
20385		-5.157996	-9.313545	-52.453231
20386		-4.853502	-9.329072	-53.286117
20387		-4.360359	-9.419970	-54.179739
20388		-3.777606	-9.539091	-55.159169
20389		-3.317989	-9.584525	-56.182796
20390		-3.060878	-9.551096	-57.203417
20391		-3.094351	-9.474617	-58.185374
20392		-3.334927	-9.415104	-59.100931
20393		-3.633193	-9.383303	-59.950474
20394		-3.870149	-9.368345	-60.750655
20395		-3.972409	-9.361491	-61.537422
20396		-3.911414	-9.370387	-62.333557
20397		-3.727075	-9.415909	-63.180822
20398		-3.561621	-9.441068	-64.071193
20399		-3.592139	-9.403231	-64.962633
20400		-3.859634	-9.306361	-65.813932
20401		-4.286382	-9.204970	-66.618173
20402		-4.718222	-9.131831	-67.388085
20403		-5.040994	-9.093208	-68.143948
20404		-5.147051	-9.075704	-68.902264
20405		-5.023310	-9.087563	-69.694863
20406		-4.693926	-9.118503	-70.531819
20407		-4.329668	-9.139373	-71.401813
20408		-4.067780	-9.147294	-72.258961
20409		-3.992678	-9.142287	-73.088438
20410		-4.053658	-9.134869	-73.875662
20411		-4.133744	-9.133613	-74.654543
20412		-4.103967	-9.129662	-75.446023
20413		-3.932809	-9.108682	-76.280557
20414		-3.667202	-9.069070	-77.147194
20415		-3.432606	-8.997278	-78.024353
20416		-3.275989	-8.895206	-78.871736
20417		-3.227205	-8.788350	-79.688270
20418		-3.242669	-8.691693	-80.451867
20419		-3.225328	-8.613921	-81.203793
20420		-3.098619	-8.551964	-81.955911
20421		-2.839047	-8.483071	-82.754951
20422		-2.434254	-8.407092	-83.587696
20423		-1.959813	-8.334350	-84.450813
20424		-1.490577	-8.267014	-85.310232
20425		-1.128312	-8.227063	-86.142115
20426		-0.933398	-8.221252	-86.900789
20427		-0.905757	-8.232241	-87.600027
20428		-0.972940	-8.228089	-88.249904
20429		-1.057929	-8.188881	-88.891455
20430		-1.021911	-8.101599	-89.550322
20431		-0.817423	-7.971554	-90.248116
20432		-0.436672	-7.820188	-90.973342
20433		0.084151	-7.695980	-91.734821
20434		0.716961	-7.633384	-92.513851
20435		1.408050	-7.634555	-93.314329
20436		2.066360	-7.690638	-94.103614
20437		2.525353	-7.767534	-94.899782
20438		2.785913	-7.809371	-95.653317
20439		2.849355	-7.766591	-96.381234
20440		2.832250	-7.622614	-97.071539
20441		2.813385	-7.392532	-97.745133
20442		2.857957	-7.119018	-98.388552
20443		2.996354	-6.849631	-99.027490
20444		3.242439	-6.630760	-99.634779
20445		3.527545	-6.495660	-100.207352
20446		3.788552	-6.443172	-100.723855
20447		4.004043	-6.446351	-101.202632
20448		4.196831	-6.469438	-101.635912
20449		4.381440	-6.478056	-102.051294
20450		4.575396	-6.455320	-102.431298
20451		4.748836	-6.392549	-102.792347
20452		4.872972	-6.298130	-103.108177
20453		4.936410	-6.191469	-103.394770
20454		4.955799	-6.093537	-103.623438
20455		4.956428	-6.003865	-103.812129
20456		4.976294	-5.918081	-103.954811
20457		5.025472	-5.846638	-104.078962
20458		5.057845	-5.802153	-104.177940
20459		5.044619	-5.775646	-104.278080
20460		4.992827	-5.750957	-104.357242
20461		4.929683	-5.706748	-104.416868
20462		4.869087	-5.633524	-104.439492
20463		4.804046	-5.540113	-104.432217
20464		4.748296	-5.441988	-104.392623
20465		4.709401	-5.359022	-104.342627
20466		4.714466	-5.299663	-104.266690
20467		4.738136	-5.268497	-104.185198
20468		4.746698	-5.250389	-104.094162
20469		4.730620	-5.238475	-104.005490
20470		4.701884	-5.222642	-103.894963
20471		4.688488	-5.210982	-103.774751
20472		4.703099	-5.206023	-103.624391
20473		4.770375	-5.210865	-103.460438
20474		4.871317	-5.223716	-103.277202
20475		4.988753	-5.250697	-103.095920
20476		5.072007	-5.290173	-102.897002
20477		5.075812	-5.342457	-102.698921
20478		4.995631	-5.407804	-102.473227
20479		4.909775	-5.479742	-102.245192
20480		4.879596	-5.545762	-102.005146
20481		4.956919	-5.597143	-101.777975
20482		5.116933	-5.631787	-101.548598
20483		5.319716	-5.638917	-101.327692
20484		5.514350	-5.618161	-101.095920
20485		5.693922	-5.579446	-100.856634
20486		5.831218	-5.539081	-100.587644
20487		5.942292	-5.521259	-100.295529
20488		6.015065	-5.535068	-99.959852
20489		6.094911	-5.561234	-99.600513
20490		6.201503	-5.577090	-99.200731
20491		6.364271	-5.574406	-98.781449
20492		6.549943	-5.558191	-98.326372
20493		6.731271	-5.539516	-97.866321
20494		6.833611	-5.516812	-97.383368
20495		6.893449	-5.497072	-96.902700
20496		6.937921	-5.492915	-96.419033
20497		7.030752	-5.513872	-95.958724
20498		7.168896	-5.553020	-95.500990
20499		7.297736	-5.619406	-95.061641
20500		7.361964	-5.710722	-94.604903
20501		7.363329	-5.827597	-94.149202
20502		7.321590	-5.963777	-93.671160
20503		7.296136	-6.121994	-93.193969
20504		7.313719	-6.297766	-92.707995
20505		7.416051	-6.475699	-92.234227
20506		7.549883	-6.621695	-91.728947
20507		7.678223	-6.716333	-91.190264
20508		7.759922	-6.763235	-90.594110
20509		7.778736	-6.787660	-89.972194
20510		7.704816	-6.820894	-89.314915
20511		7.566544	-6.897566	-88.638082
20512		7.399037	-7.021897	-87.935555
20513		7.306786	-7.194291	-87.242104
20514		7.338418	-7.391809	-86.528512
20515		7.492925	-7.569330	-85.811053
20516		7.694859	-7.698728	-85.077972
20517		7.892923	-7.770906	-84.353182
20518		8.016156	-7.799609	-83.604215
20519		8.059858	-7.811204	-82.852724
20520		8.036330	-7.823582	-82.081058
20521		8.010936	-7.854109	-81.314338
20522		8.027713	-7.902915	-80.546038
20523		8.110667	-7.961615	-79.834034
20524		8.201492	-8.021865	-79.171467
20525		8.206586	-8.067947	-78.565322
20526		8.046723	-8.079939	-77.952703
20527		7.753629	-8.058947	-77.326949
20528		7.382356	-8.019974	-76.647888
20529		7.037099	-8.003468	-75.937415
20530		6.747095	-8.024815	-75.178433
20531		6.563226	-8.089399	-74.403690
20532		6.483132	-8.178443	-73.615494
20533		6.505115	-8.273228	-72.848890
20534		6.561064	-8.353707	-72.090126
20535		6.615377	-8.413332	-71.353731
20536		6.619284	-8.460534	-70.597757
20537		6.579280	-8.506252	-69.826118
20538		6.499019	-8.548225	-69.009965
20539		6.367922	-8.588909	-68.168987
20540		6.149167	-8.624873	-67.297829
20541		5.836275	-8.671623	-66.420419
20542		5.438038	-8.739548	-65.518797
20543		5.030870	-8.838567	-64.628361
20544		4.670930	-8.969621	-63.733653
20545		4.424678	-9.122281	-62.862818
20546		4.269250	-9.277448	-61.989154
20547		4.145843	-9.412470	-61.133292
20548		3.974587	-9.507450	-60.268837
20549		3.742336	-9.568493	-59.403730
20550		3.463941	-9.610836	-58.518625
20551		3.225606	-9.660403	-57.643414
20552		3.096961	-9.741175	-56.767510
20553		3.127742	-9.856964	-55.916195
20554		3.232759	-9.973443	-55.069630
20555		3.358157	-10.074590	-54.247149
20556		3.435672	-10.157078	-53.433022
20557		3.456483	-10.217213	-52.651629
20558		3.403823	-10.255613	-51.867779
20559		3.330487	-10.277581	-51.079834
20560		3.258913	-10.294606	-50.261426
20561		3.243255	-10.321742	-49.442546
20562		3.282578	-10.362422	-48.604079
20563		3.368248	-10.411513	-47.774438
20564		3.420070	-10.459965	-46.919658
20565		3.409644	-10.510214	-46.057361
20566		3.315608	-10.573528	-45.173236
20567		3.196286	-10.648088	-44.291923
20568		3.085286	-10.736535	-43.402799
20569		3.022301	-10.840475	-42.525993
20570		2.997634	-10.948437	-41.658003
20571		2.949709	-11.039382	-40.813291
20572		2.796619	-11.093752	-39.942545
20573		2.532991	-11.113584	-39.031644
20574		2.208891	-11.113899	-38.059163
20575		1.937914	-11.117566	-37.065470
20576		1.771360	-11.137832	-36.077111
20577		1.766769	-11.170912	-35.165549
20578		1.884028	-11.201604	-34.304696
20579		2.052084	-11.202921	-33.491475
20580		2.169545	-11.175405	-32.652583
20581		2.242151	-11.139958	-31.795299
20582		2.287056	-11.104945	-30.915128
20583		2.342974	-11.074052	-30.063389
20584		2.407821	-11.056328	-29.246999
20585		2.472251	-11.037700	-28.484581
20586		2.502423	-11.003486	-27.730285
20587		2.495993	-10.955201	-26.974218
20588		2.431523	-10.894113	-26.183581
20589		2.320498	-10.838488	-25.379140
20590		2.168245	-10.789698	-24.563668
20591		2.010720	-10.754456	-23.768747
20592		1.844142	-10.730537	-22.983944
20593		1.681789	-10.724429	-22.220292
20594		1.523350	-10.753678	-21.466584
20595		1.406297	-10.814363	-20.726894
20596		1.315451	-10.882517	-19.976197
20597		1.248383	-10.928715	-19.222515
20598		1.169979	-10.950318	-18.463502
20599		1.090237	-10.956949	-17.719108
20600		1.020898	-10.970605	-16.985811
20601		1.002414	-11.006687	-16.287837
20602		1.026770	-11.065736	-15.611749
20603		1.096162	-11.123316	-14.947737
20604		1.172417	-11.163025	-14.265831
20605		1.234057	-11.190844	-13.594167
20606		1.255900	-11.220490	-12.934586
20607		1.232888	-11.256869	-12.288925
20608		1.119916	-11.303852	-11.627217
20609		0.910711	-11.353929	-10.938554
20610		0.613107	-11.411318	-10.188226
20611		0.277499	-11.476698	-9.395845
20612		-0.080762	-11.550264	-8.593505
20613		-0.433565	-11.605556	-7.819745
20614		-0.785359	-11.630057	-7.072606
20615		-1.155589	-11.612635	-6.364490
20616		-1.555601	-11.558115	-5.676947
20617		-1.921070	-11.492116	-4.993498
20618		-2.209058	-11.436900	-4.294848
20619		-2.390259	-11.396393	-3.615122
20620		-2.510250	-11.374384	-2.994622
20621		-2.608079	-11.383986	-2.448379
20622		-2.719387	-11.409750	-1.960323
20623		-2.821158	-11.462423	-1.478542
20624		-2.887395	-11.541222	-0.964833
20625		-2.881684	-11.626430	-0.433247
20626		-2.783066	-11.721725	0.100460
20627		-2.581546	-11.841938	0.589054
20628		-2.319444	-11.979642	1.011218
20629		-2.069706	-12.103606	1.368389
20630		-1.927372	-12.201531	1.691779
20631		-1.918783	-12.283823	2.009802
20632		-2.026945	-12.362183	2.345327
20633		-2.168175	-12.432680	2.683153
20634		-2.285055	-12.500550	3.000757
20635		-2.357733	-12.545794	3.260201
20636		-2.431070	-12.557665	3.456508
20637		-2.529880	-12.558318	3.596101
20638		-2.650616	-12.571849	3.701489
20639		-2.739796	-12.618416	3.786467
20640		-2.762314	-12.683816	3.854393
20641		-2.717752	-12.745519	3.897751
20642		-2.658506	-12.775175	3.921135
20643		-2.646289	-12.755672	3.934612
20644		-2.700327	-12.701408	3.949901
20645		-2.801818	-12.639198	3.977634
20646		-2.901603	-12.593922	4.023333
20647		-2.972987	-12.571675	4.084985
20648		-3.006810	-12.577383	4.155609
20649		-3.022913	-12.600846	4.224134
20650		-3.045459	-12.635270	4.284726
20651		-3.078235	-12.676013	4.348707
20652		-3.101501	-12.726274	4.417318
20653		-3.095577	-12.776719	4.482503
20654		-3.045649	-12.829527	4.544391
20655		-2.979568	-12.883673	4.595750
20656		-2.929586	-12.927066	4.628155
20657		-2.936523	-12.938934	4.641436
20658		-3.004353	-12.905466	4.641736
20659		-3.113936	-12.837345	4.641778
20660		-3.211029	-12.762564	4.639571
20661		-3.253884	-12.702752	4.628422
20662		-3.213576	-12.684838	4.602764
20663		-3.100313	-12.710959	4.554972
20664		-2.966604	-12.760859	4.495861
20665		-2.860780	-12.820324	4.437497
20666		-2.824399	-12.868345	4.384976
20667		-2.848797	-12.892532	4.334801
20668		-2.885845	-12.894488	4.278664
20669		-2.893996	-12.896897	4.203439
20670		-2.839641	-12.911162	4.097251
20671		-2.750514	-12.943695	3.961626
20672		-2.664392	-12.985078	3.795394
20673		-2.626342	-13.017157	3.620350
20674		-2.649329	-13.021801	3.447754
20675		-2.737338	-12.976782	3.281084
20676		-2.851727	-12.893571	3.095489
20677		-2.948304	-12.792072	2.891952
20678		-2.983607	-12.703931	2.658344
20679		-2.953632	-12.653432	2.396035
20680		-2.887387	-12.644649	2.118300
20681		-2.844017	-12.656449	1.850193
20682		-2.848477	-12.669989	1.607485
20683		-2.900932	-12.670042	1.400895
20684		-2.952482	-12.665665	1.212712
20685		-2.984532	-12.661235	1.020754
20686		-2.983248	-12.663552	0.807273
20687		-2.956199	-12.679655	0.574995
20688		-2.930305	-12.700422	0.325297
20689		-2.925583	-12.712145	0.073431
20690		-2.928261	-12.712217	-0.169218
20691		-2.917642	-12.701235	-0.395594
20692		-2.872412	-12.696948	-0.611669
20693		-2.816979	-12.695809	-0.825603
20694		-2.788149	-12.701251	-1.062808
20695		-2.839096	-12.705228	-1.319479
20696		-2.964756	-12.706897	-1.602364
20697		-3.139291	-12.705514	-1.897019
20698		-3.305986	-12.705281	-2.199739
20699		-3.410892	-12.721474	-2.498986
20700		-3.416382	-12.759921	-2.807750
20701		-3.360975	-12.820981	-3.140670
20702		-3.282389	-12.887327	-3.509510
20703		-3.247444	-12.939290	-3.905125
20704		-3.277327	-12.964624	-4.321189
20705		-3.378327	-12.949207	-4.737199
20706		-3.515471	-12.900030	-5.161119
20707		-3.671185	-12.828012	-5.577085
20708		-3.786956	-12.765464	-6.002199
20709		-3.873906	-12.745579	-6.428361
20710		-3.941275	-12.778292	-6.864164
20711		-4.022649	-12.851811	-7.314301
20712		-4.128377	-12.938677	-7.782221
20713		-4.250390	-13.005361	-8.257916
20714		-4.365232	-13.035540	-8.748512
20715		-4.457540	-13.035216	-9.239254
20716		-4.495220	-13.031502	-9.738655
20717		-4.496958	-13.042156	-10.238063
20718		-4.470335	-13.072700	-10.745753
20719		-4.465444	-13.121358	-11.259320
20720		-4.501033	-13.168758	-11.789698
20721		-4.609474	-13.204734	-12.319170
20722		-4.754570	-13.232323	-12.857603
20723		-4.902909	-13.259092	-13.401999
20724		-5.006414	-13.289346	-13.977077
20725		-5.074347	-13.321369	-14.570176
20726		-5.117858	-13.351050	-15.183812
20727		-5.180085	-13.374334	-15.800864
20728		-5.263017	-13.389210	-16.421073
20729		-5.359844	-13.403153	-17.033851
20730		-5.434195	-13.416014	-17.658055
20731		-5.480399	-13.423238	-18.290814
20732		-5.505987	-13.422930	-18.952422
20733		-5.560568	-13.405958	-19.633900
20734		-5.653300	-13.377471	-20.328737
20735		-5.802808	-13.344238	-21.011628
20736		-5.957497	-13.317049	-21.684074
20737		-6.061171	-13.294727	-22.341293
20738		-6.056672	-13.297454	-23.001142
20739		-5.958970	-13.315633	-23.682082
20740		-5.796441	-13.334055	-24.405937
20741		-5.674362	-13.315196	-25.165364
20742		-5.646555	-13.253389	-25.955149
20743		-5.737320	-13.155097	-26.753424
20744		-5.856096	-13.047811	-27.560277
20745		-5.927354	-12.954767	-28.366400
20746		-5.857661	-12.886573	-29.185793
20747		-5.665411	-12.855100	-30.016610
20748		-5.440282	-12.835753	-30.843246
20749		-5.312151	-12.802222	-31.624925
20750		-5.339134	-12.761509	-32.351572
20751		-5.509849	-12.725764	-33.034587
20752		-5.721634	-12.704185	-33.701015
20753		-5.862615	-12.703419	-34.362930
20754		-5.835560	-12.730395	-35.065685
20755		-5.702130	-12.764163	-35.833644
20756		-5.535705	-12.769396	-36.665082
20757		-5.466087	-12.730463	-37.510291
20758		-5.518433	-12.653863	-38.349958
20759		-5.696953	-12.576731	-39.156302
20760		-5.891030	-12.519986	-39.933794
20761		-5.997240	-12.504520	-40.703877
20762		-5.901195	-12.545217	-41.501725
20763		-5.611819	-12.620319	-42.351731
20764		-5.189455	-12.680705	-43.272954
20765		-4.757268	-12.693291	-44.246500
20766		-4.368490	-12.640379	-45.242347
20767		-4.083029	-12.542929	-46.224826
20768		-3.887457	-12.422065	-47.184124
20769		-3.784335	-12.298090	-48.100187
20770		-3.709131	-12.206492	-48.992216
20771		-3.694012	-12.124691	-49.882833
20772		-3.772549	-12.023952	-50.760529
20773		-3.996278	-11.900548	-51.608878
20774		-4.353004	-11.773951	-52.416455
20775		-4.785695	-11.663908	-53.181195
20776		-5.156804	-11.584904	-53.917182
20777		-5.365074	-11.538865	-54.651946
20778		-5.332411	-11.527679	-55.411348
20779		-5.129622	-11.525965	-56.229663
20780		-4.850607	-11.493880	-57.099047
20781		-4.616764	-11.412209	-57.979774
20782		-4.465551	-11.314476	-58.834683
20783		-4.393841	-11.228136	-59.651331
20784		-4.308448	-11.181194	-60.425696
20785		-4.088483	-11.174517	-61.190318
20786		-3.617298	-11.199097	-61.976028
20787		-2.869869	-11.255207	-62.828335
20788		-1.931427	-11.299115	-63.773743
20789		-0.954772	-11.277933	-64.794860
20790		-0.088710	-11.164494	-65.822368
20791		0.583501	-10.999128	-66.810838
20792		1.069251	-10.842254	-67.712271
20793		1.381071	-10.741015	-68.518791
20794		1.636343	-10.693453	-69.261265
20795		1.928518	-10.683732	-69.987756
20796		2.328865	-10.715627	-70.758017
20797		2.735246	-10.733956	-71.583120
20798		3.059107	-10.701940	-72.414180
20799		3.212271	-10.631261	-73.219728
20800		3.201696	-10.551882	-73.967447
20801		3.082322	-10.510041	-74.661824
20802		2.916821	-10.512040	-75.314912
20803		2.776412	-10.546206	-75.964608
20804		2.746033	-10.582944	-76.628086
20805		2.885727	-10.600880	-77.338982
20806		3.115789	-10.576270	-78.088537
20807		3.283442	-10.504805	-78.843517
20808		3.278388	-10.427941	-79.563220
20809		3.086262	-10.381087	-80.242424
20810		2.861049	-10.365150	-80.883738
20811		2.714202	-10.355410	-81.518961
20812		2.725897	-10.328878	-82.166550
20813		2.888635	-10.275241	-82.857171
20814		3.152453	-10.198500	-83.579645
20815		3.390557	-10.101446	-84.324111
20816		3.523111	-10.000611	-85.051244
20817		3.492556	-9.924530	-85.746215
20818		3.368021	-9.878924	-86.395689
20819		3.254219	-9.858339	-87.035098
20820		3.242993	-9.833932	-87.685197
20821		3.362313	-9.792600	-88.371737
20822		3.558805	-9.742941	-89.081595
20823		3.725547	-9.682517	-89.797669
20824		3.830015	-9.617118	-90.482998
20825		3.874651	-9.558476	-91.132689
20826		3.914776	-9.520539	-91.721658
20827		3.971352	-9.508625	-92.261412
20828		4.068498	-9.524007	-92.759686
20829		4.198734	-9.550593	-93.258053
20830		4.377265	-9.574998	-93.757585
20831		4.575196	-9.590697	-94.269002
20832		4.760872	-9.603380	-94.774458
20833		4.935518	-9.615463	-95.268358
20834		5.130237	-9.631986	-95.735183
20835		5.361211	-9.649668	-96.185139
20836		5.622439	-9.674606	-96.599252
20837		5.893890	-9.684751	-96.991726
20838		6.158800	-9.667450	-97.373480
20839		6.366776	-9.625694	-97.758098
20840		6.472869	-9.565624	-98.123952
20841		6.457343	-9.511891	-98.465550
20842		6.366068	-9.462772	-98.761377
20843		6.267764	-9.414320	-99.025677
20844		6.233313	-9.358956	-99.245766
20845		6.292273	-9.296795	-99.429920
20846		6.409333	-9.232549	-99.582736
20847		6.545053	-9.181497	-99.734329
20848		6.618534	-9.156918	-99.884080
20849		6.605279	-9.158897	-100.029279
20850		6.523072	-9.186403	-100.129770
20851		6.397434	-9.224783	-100.186223
20852		6.247957	-9.245514	-100.194009
20853		6.074579	-9.223577	-100.178901
20854		5.870396	-9.153944	-100.140521
20855		5.638130	-9.041904	-100.088185
20856		5.400320	-8.913839	-100.012081
20857		5.193434	-8.805561	-99.931518
20858		4.999392	-8.755830	-99.844219
20859		4.806792	-8.775483	-99.781725
20860		4.626607	-8.854568	-99.727983
20861		4.503981	-8.952649	-99.690570
20862		4.468635	-9.024202	-99.640060
20863		4.525722	-9.040804	-99.582676
20864		4.635534	-9.005453	-99.511431
20865		4.752465	-8.940438	-99.446175
20866		4.837656	-8.873301	-99.372412
20867		4.883782	-8.824559	-99.292536
20868		4.853894	-8.801366	-99.188879
20869		4.749652	-8.798325	-99.085914
20870		4.614208	-8.798204	-98.981049
20871		4.514402	-8.788679	-98.881914
20872		4.472860	-8.762795	-98.770788
20873		4.491246	-8.731069	-98.651719
20874		4.541720	-8.707287	-98.502818
20875		4.613752	-8.696519	-98.356484
20876		4.708098	-8.691239	-98.210300
20877		4.825616	-8.689248	-98.086914
20878		4.937586	-8.686208	-97.961888
20879		5.015597	-8.682944	-97.847536
20880		5.051806	-8.673595	-97.724554
20881		5.064719	-8.652423	-97.596422
20882		5.072303	-8.617516	-97.443449
20883		5.093923	-8.574228	-97.281895
20884		5.124167	-8.537131	-97.100238
20885		5.173577	-8.517553	-96.919927
20886		5.248896	-8.511318	-96.718868
20887		5.367315	-8.514333	-96.508548
20888		5.483925	-8.519005	-96.274058
20889		5.547323	-8.524314	-96.024294
20890		5.549943	-8.535832	-95.756003
20891		5.531352	-8.552543	-95.490457
20892		5.525323	-8.564686	-95.221559
20893		5.569538	-8.573366	-94.950493
20894		5.645554	-8.564686	-94.637905
20895		5.762698	-8.537287	-94.307724
20896		5.905342	-8.509578	-93.968346
20897		6.062974	-8.503601	-93.643492
20898		6.173544	-8.522509	-93.311809
20899		6.208408	-8.566515	-92.979787
20900		6.179247	-8.618392	-92.622621
20901		6.144719	-8.663520	-92.259692
20902		6.140904	-8.696052	-91.880786
20903		6.148041	-8.714186	-91.487112
20904		6.121787	-8.713679	-91.070165
20905		6.068437	-8.707823	-90.661100
20906		5.981663	-8.705219	-90.251047
20907		5.852664	-8.705890	-89.852774
20908		5.677787	-8.722385	-89.446559
20909		5.496193	-8.752274	-89.037723
20910		5.362282	-8.799913	-88.624700
20911		5.316250	-8.844844	-88.215991
20912		5.328565	-8.868864	-87.778422
20913		5.356625	-8.858790	-87.318783
20914		5.346582	-8.831582	-86.832887
20915		5.269993	-8.813030	-86.343105
20916		5.114081	-8.825081	-85.842599
20917		4.922915	-8.889129	-85.351064
20918		4.723220	-8.989269	-84.857640
20919		4.562973	-9.112281	-84.370482
20920		4.452516	-9.215322	-83.849947
20921		4.396039	-9.252677	-83.298556
20922		4.371470	-9.224165	-82.716749
20923		4.359153	-9.181181	-82.131929
20924		4.306330	-9.159968	-81.532236
20925		4.216309	-9.200483	-80.950072
20926		4.108469	-9.284656	-80.398613
20927		4.030451	-9.373000	-79.898833
20928		3.970000	-9.429125	-79.410707
20929		3.936236	-9.438858	-78.926834
20930		3.924680	-9.404882	-78.413933
20931		3.954411	-9.350388	-77.881274
20932		4.006196	-9.296187	-77.308916
20933		4.072723	-9.278291	-76.718533
20934		4.135896	-9.319263	-76.108326
20935		4.198519	-9.410168	-75.488021
20936		4.220017	-9.515834	-74.848851
20937		4.179456	-9.616377	-74.205703
20938		4.070585	-9.699593	-73.539555
20939		3.941250	-9.760508	-72.875738
20940		3.818049	-9.803560	-72.202341
20941		3.722700	-9.837765	-71.532663
20942		3.639575	-9.874982	-70.834140
20943		3.581334	-9.928008	-70.117506
20944		3.522597	-10.003800	-69.378112
20945		3.471070	-10.094825	-68.648931
20946		3.420916	-10.195842	-67.913595
20947		3.405614	-10.302019	-67.202325
20948		3.403382	-10.409590	-66.500577
20949		3.436228	-10.523310	-65.823162
20950		3.500111	-10.652189	-65.145314
20951		3.622459	-10.794698	-64.476196
20952		3.776776	-10.935951	-63.792890
20953		3.945684	-11.066136	-63.109134
20954		4.091775	-11.178080	-62.406469
20955		4.236944	-11.267790	-61.700460
20956		4.368802	-11.355085	-60.980386
20957		4.506933	-11.446701	-60.264656
20958		4.675841	-11.541687	-59.555815
20959		4.879068	-11.629875	-58.872588
20960		5.082506	-11.699029	-58.187416
20961		5.280851	-11.737416	-57.491734
20962		5.456069	-11.748140	-56.763149
20963		5.638884	-11.755024	-56.035603
20964		5.845702	-11.768001	-55.314342
20965		6.066596	-11.778140	-54.605759
20966		6.207350	-11.777030	-53.873007
20967		6.253810	-11.770511	-53.115398
20968		6.201721	-11.771413	-52.315318
20969		6.112541	-11.796115	-51.506189
20970		6.004617	-11.833419	-50.693268
20971		5.936506	-11.889717	-49.896338
20972		5.882813	-11.934258	-49.101888
20973		5.832989	-11.965308	-48.299634
20974		5.745945	-11.981843	-47.467746
20975		5.646262	-12.000372	-46.620561
20976		5.555222	-12.030225	-45.761688
20977		5.531509	-12.075089	-44.919210
20978		5.586738	-12.142367	-44.083721
20979		5.743154	-12.217555	-43.277867
20980		5.942602	-12.294517	-42.478232
20981		6.069009	-12.331245	-41.668411
20982		6.014229	-12.314832	-40.826627
20983		5.770447	-12.272429	-39.970808
20984		5.410159	-12.246511	-39.087234
20985		5.054956	-12.271588	-38.198873
20986		4.781752	-12.350424	-37.314801
20987		4.641356	-12.471198	-36.455739
20988		4.616850	-12.600001	-35.617778
20989		4.683608	-12.710664	-34.821502
20990		4.772363	-12.791369	-34.061933
20991		4.823289	-12.845908	-33.339379
20992		4.765104	-12.885421	-32.611939
20993		4.610816	-12.920461	-31.872371
20994		4.398617	-12.953471	-31.101767
20995		4.202898	-12.993519	-30.323252
20996		4.048009	-13.046985	-29.551601
20997		3.968155	-13.120965	-28.814547
20998		3.943375	-13.203117	-28.106256
20999		3.978121	-13.274986	-27.445926
21000		4.054170	-13.322695	-26.812253
21001		4.190103	-13.346223	-26.196137
21002		4.376080	-13.363168	-25.578573
21003		4.602326	-13.389732	-24.960574
21004		4.835034	-13.425921	-24.342091
21005		5.021054	-13.466185	-23.733498
21006		5.049439	-13.504975	-23.117724
21007		4.872980	-13.553060	-22.495261
21008		4.536972	-13.612519	-21.849766
21009		4.152656	-13.666819	-21.201690
21010		3.835578	-13.713388	-20.557334
21011		3.664986	-13.748819	-19.941941
21012		3.655652	-13.779481	-19.358394
21013		3.779954	-13.803585	-18.817691
21014		3.955361	-13.826272	-18.292273
21015		4.118891	-13.838301	-17.778511
21016		4.184044	-13.839887	-17.250971
21017		4.079591	-13.850138	-16.693336
21018		3.805435	-13.895335	-16.092699
21019		3.470442	-13.967916	-15.473113
21020		3.177310	-14.045120	-14.856629
21021		2.988271	-14.102648	-14.274998
21022		2.881221	-14.124266	-13.718651
21023		2.826799	-14.123159	-13.191560
21024		2.751098	-14.110130	-12.669903
21025		2.642276	-14.100859	-12.143222
21026		2.474858	-14.112085	-11.595150
21027		2.261666	-14.140144	-11.035618
21028		2.023054	-14.177728	-10.471696
21029		1.793357	-14.226047	-9.914415
21030		1.555302	-14.268892	-9.371038
21031		1.266245	-14.297230	-8.845196
21032		0.878881	-14.295405	-8.304627
21033		0.394154	-14.274119	-7.731316
21034		-0.137296	-14.246011	-7.123477
21035		-0.610913	-14.241368	-6.517319
21036		-0.974225	-14.271751	-5.933067
21037		-1.192837	-14.326922	-5.407513
21038		-1.311095	-14.394510	-4.926513
21039		-1.365035	-14.451835	-4.488477
21040		-1.390955	-14.498214	-4.071955
21041		-1.408796	-14.518773	-3.667639
21042		-1.428522	-14.527454	-3.264043
21043		-1.439105	-14.529388	-2.873109
21044		-1.441427	-14.522490	-2.487403
21045		-1.433817	-14.510439	-2.114868
21046		-1.428313	-14.499962	-1.757556
21047		-1.440371	-14.485381	-1.408733
21048		-1.488746	-14.471325	-1.054928
21049		-1.549406	-14.458731	-0.691073
21050		-1.584912	-14.449941	-0.330710
21051		-1.574660	-14.433779	0.015548
21052		-1.539314	-14.410466	0.334211
21053		-1.495992	-14.388746	0.623855
21054		-1.454858	-14.375924	0.904301
21055		-1.417618	-14.373342	1.188687
21056		-1.381079	-14.379370	1.484490
21057		-1.332794	-14.392257	1.783685
21058		-1.278282	-14.402190	2.081852
21059		-1.218753	-14.403966	2.368142
21060		-1.185827	-14.384942	2.631143
21061		-1.188061	-14.353766	2.857486
21062		-1.213999	-14.318668	3.071305
21063		-1.226837	-14.290389	3.283516
21064		-1.198242	-14.270079	3.503111
21065		-1.142023	-14.255992	3.721883
21066		-1.110120	-14.242403	3.938513
21067		-1.136698	-14.227660	4.153859
21068		-1.235826	-14.216122	4.376256
21069		-1.384394	-14.203972	4.597414
21070		-1.524803	-14.198176	4.805725
21071		-1.609739	-14.191150	4.997340
21072		-1.624041	-14.179094	5.166187
21073		-1.575594	-14.161050	5.307781
21074		-1.507696	-14.139648	5.417950
21075		-1.455329	-14.122281	5.497819
21076		-1.439514	-14.101094	5.559029
21077		-1.466145	-14.074676	5.613430
21078		-1.526026	-14.034232	5.661982
21079		-1.598078	-13.978568	5.704902
21080		-1.659619	-13.916526	5.745811
21081		-1.700049	-13.855367	5.779766
21082		-1.725720	-13.806132	5.799310
21083		-1.752240	-13.777191	5.808657
21084		-1.788600	-13.763821	5.804413
21085		-1.837876	-13.752604	5.797508
21086		-1.882569	-13.730076	5.782875
21087		-1.915615	-13.688593	5.768514
21088		-1.924766	-13.631636	5.756676
21089		-1.912399	-13.568601	5.747845
21090		-1.903318	-13.512068	5.741278
21091		-1.921953	-13.463764	5.738859
21092		-1.952635	-13.438080	5.738393
21093		-1.978985	-13.425842	5.743510
21094		-1.978640	-13.425965	5.743223
21095		-1.957380	-13.416446	5.741160
21096		-1.929905	-13.389491	5.739897
21097		-1.906906	-13.350543	5.741009
21098		-1.886347	-13.309401	5.744518
21099		-1.859779	-13.278998	5.742706
21100		-1.843594	-13.261124	5.737777
21101		-1.834333	-13.256614	5.723414
21102		-1.837540	-13.257004	5.701995
21103		-1.844381	-13.252112	5.674783
21104		-1.849886	-13.231296	5.637610
21105		-1.845369	-13.198446	5.586574
21106		-1.821636	-13.164993	5.520507
21107		-1.775723	-13.137936	5.442690
21108		-1.715055	-13.119864	5.357927
21109		-1.676014	-13.108755	5.271964
21110		-1.682299	-13.097991	5.187752
21111		-1.742578	-13.080487	5.101829
21112		-1.839418	-13.061769	4.997833
21113		-1.931331	-13.046960	4.869370
21114		-1.993784	-13.034785	4.708094
21115		-2.023458	-13.029163	4.510853
21116		-2.019476	-13.028413	4.281842
21117		-1.983259	-13.028103	4.032655
21118		-1.923204	-13.018599	3.780773
21119		-1.878900	-12.993600	3.537374
21120		-1.876157	-12.959397	3.297659
21121		-1.925650	-12.927779	3.067462
21122		-1.988452	-12.908613	2.841424
21123		-2.036843	-12.914078	2.606420
21124		-2.046415	-12.949620	2.337416
21125		-2.021382	-13.003706	2.034061
21126		-1.969682	-13.064328	1.704919
21127		-1.922273	-13.110388	1.366302
21128		-1.889062	-13.134234	1.022777
21129		-1.898471	-13.131908	0.689538
21130		-1.944011	-13.117166	0.363078
21131		-2.015969	-13.105674	0.037811
21132		-2.085908	-13.108830	-0.292725
21133		-2.154029	-13.120523	-0.638319
21134		-2.211141	-13.144091	-1.007854
21135		-2.273963	-13.175484	-1.393411
21136		-2.350943	-13.209618	-1.797065
21137		-2.430569	-13.246619	-2.206715
21138		-2.490038	-13.287491	-2.621029
21139		-2.542167	-13.317796	-3.040056
21140		-2.584322	-13.339234	-3.464137
21141		-2.632290	-13.350581	-3.881489
21142		-2.657836	-13.365579	-4.315558
21143		-2.660587	-13.378334	-4.773093
21144		-2.629393	-13.389091	-5.260969
21145		-2.588288	-13.401896	-5.768717
21146		-2.560400	-13.415659	-6.295501
21147		-2.565559	-13.430468	-6.820074
21148		-2.590619	-13.442444	-7.344034
21149		-2.619278	-13.461486	-7.856060
21150		-2.614645	-13.488758	-8.366703
21151		-2.584814	-13.531885	-8.866906
21152		-2.533905	-13.589155	-9.367777
21153		-2.502144	-13.637781	-9.871479
21154		-2.508806	-13.670140	-10.385191
21155		-2.577503	-13.676414	-10.897595
21156		-2.697012	-13.669586	-11.414767
21157		-2.838472	-13.658876	-11.931741
21158		-2.939496	-13.658794	-12.459033
21159		-2.975412	-13.674592	-12.996912
21160		-2.951082	-13.703694	-13.554150
21161		-2.930424	-13.728072	-14.118307
21162		-2.938745	-13.745108	-14.689616
21163		-2.986002	-13.749341	-15.245424
21164		-3.040204	-13.746536	-15.796260
21165		-3.081955	-13.747945	-16.343660
21166		-3.081622	-13.747587	-16.903922
21167		-3.052945	-13.737453	-17.479765
21168		-3.006869	-13.713963	-18.089008
21169		-2.993448	-13.665418	-18.719540
21170		-3.012937	-13.597880	-19.365438
21171		-3.051808	-13.522614	-20.010578
21172		-3.048991	-13.453300	-20.654482
21173		-2.991707	-13.393809	-21.283620
21174		-2.893172	-13.353565	-21.894364
21175		-2.790912	-13.329265	-22.487813
21176		-2.711203	-13.310444	-23.082337
21177		-2.687415	-13.273950	-23.674910
21178		-2.731827	-13.211101	-24.273849
21179		-2.842601	-13.123341	-24.871540
21180		-2.970757	-13.026518	-25.465588
21181		-3.055318	-12.927107	-26.046513
21182		-3.058298	-12.861053	-26.618887
21183		-2.998081	-12.835362	-27.163831
21184		-2.899558	-12.845568	-27.685935
21185		-2.818518	-12.859801	-28.189906
21186		-2.782956	-12.851523	-28.682880
21187		-2.853853	-12.808541	-29.152275
21188		-3.019397	-12.758995	-29.615511
21189		-3.227337	-12.718322	-30.072091
21190		-3.382443	-12.701108	-30.536952
21191		-3.451482	-12.704830	-31.009598
21192		-3.437741	-12.721587	-31.498384
21193		-3.394945	-12.720596	-31.998312
21194		-3.348180	-12.691349	-32.504592
21195		-3.349704	-12.634352	-33.009026
21196		-3.406645	-12.560269	-33.516510
21197		-3.498821	-12.479439	-34.018780
21198		-3.559271	-12.415475	-34.529504
21199		-3.572396	-12.378978	-35.052495
21200		-3.532800	-12.366214	-35.591351
21201		-3.477068	-12.350127	-36.129657
21202		-3.430229	-12.323067	-36.658783
21203		-3.434562	-12.276987	-37.173561
21204		-3.480985	-12.235790	-37.683007
21205		-3.550850	-12.198039	-38.205189
21206		-3.604367	-12.163149	-38.747236
21207		-3.631173	-12.128653	-39.306689
21208		-3.624591	-12.090165	-39.886231
21209		-3.615786	-12.039054	-40.465364
21210		-3.629002	-11.979322	-41.031419
21211		-3.683696	-11.923228	-41.576731
21212		-3.744581	-11.876460	-42.111496
21213		-3.778676	-11.834588	-42.658324
21214		-3.765788	-11.795705	-43.222993
21215		-3.738921	-11.748933	-43.807558
21216		-3.724208	-11.684763	-44.405257
21217		-3.758922	-11.607237	-45.002111
21218		-3.840919	-11.525588	-45.586110
21219		-3.966534	-11.456874	-46.149845
21220		-4.067418	-11.410818	-46.705541
21221		-4.089160	-11.389055	-47.266607
21222		-4.041287	-11.366207	-47.843825
21223		-3.972861	-11.320118	-48.428940
21224		-3.939050	-11.252452	-49.018583
21225		-3.973407	-11.181981	-49.605403
21226		-4.057122	-11.129743	-50.185040
21227		-4.165963	-11.093626	-50.743328
21228		-4.244534	-11.067443	-51.295791
21229		-4.240150	-11.050328	-51.849563
21230		-4.111120	-11.046141	-52.424671
21231		-3.866998	-11.057015	-53.031349
21232		-3.543984	-11.059022	-53.669291
21233		-3.197118	-11.026440	-54.327526
21234		-2.861822	-10.965691	-54.987244
21235		-2.547973	-10.905993	-55.639933
21236		-2.237733	-10.868737	-56.284766
21237		-1.924321	-10.845679	-56.910008
21238		-1.574544	-10.829457	-57.527685
21239		-1.235744	-10.804080	-58.148423
21240		-0.958373	-10.742801	-58.771654
21241		-0.817985	-10.635316	-59.378018
21242		-0.856517	-10.489441	-59.949937
21243		-1.080471	-10.326516	-60.466415
21244		-1.377078	-10.175367	-60.940355
21245		-1.618923	-10.063707	-61.410212
21246		-1.704260	-9.992216	-61.894388
21247		-1.594210	-9.951397	-62.416616
21248		-1.346921	-9.922354	-62.975253
21249		-1.041353	-9.878881	-63.556669
21250		-0.750678	-9.807905	-64.132571
21251		-0.528806	-9.710872	-64.688257
21252		-0.400317	-9.606091	-65.221053
21253		-0.397735	-9.499819	-65.744827
21254		-0.498199	-9.410084	-66.258209
21255		-0.628838	-9.338043	-66.772636
21256		-0.710304	-9.290710	-67.300177
21257		-0.730511	-9.244601	-67.842631
21258		-0.710784	-9.190097	-68.374938
21259		-0.696771	-9.127687	-68.890100
21260		-0.684889	-9.074771	-69.384237
21261		-0.679671	-9.027559	-69.870595
21262		-0.706700	-8.995686	-70.359320
21263		-0.727115	-8.980107	-70.872763
21264		-0.697822	-8.971264	-71.426817
21265		-0.659817	-8.918642	-72.013836
21266		-0.646650	-8.807074	-72.597749
21267		-0.690965	-8.655217	-73.170992
21268		-0.763003	-8.499495	-73.724914
21269		-0.835099	-8.354712	-74.255598
21270		-0.859281	-8.236461	-74.782542
21271		-0.837807	-8.163908	-75.329720
21272		-0.748773	-8.138688	-75.904480
21273		-0.656956	-8.122865	-76.496249
21274		-0.573168	-8.093331	-77.069880
21275		-0.515234	-8.037741	-77.618911
21276		-0.467705	-7.971061	-78.141290
21277		-0.440708	-7.899546	-78.631279
21278		-0.436559	-7.845090	-79.088905
21279		-0.445639	-7.819371	-79.535517
21280		-0.399231	-7.822521	-79.980542
21281		-0.275606	-7.838228	-80.441251
21282		-0.106368	-7.854372	-80.896206
21283		0.046835	-7.866836	-81.343558
21284		0.130795	-7.866788	-81.782067
21285		0.137109	-7.839971	-82.206553
21286		0.111634	-7.799333	-82.598215
21287		0.127591	-7.750130	-82.985147
21288		0.254320	-7.720915	-83.390327
21289		0.517386	-7.689372	-83.826744
21290		0.891443	-7.655773	-84.282737
21291		1.307335	-7.615343	-84.766708
21292		1.701830	-7.563232	-85.250008
21293		2.017100	-7.504879	-85.698564
21294		2.179006	-7.454297	-86.065328
21295		2.177916	-7.394763	-86.359103
21296		2.029280	-7.361721	-86.606984
21297		1.820008	-7.330696	-86.853385
21298		1.640863	-7.278073	-87.077428
21299		1.523571	-7.185407	-87.267677
21300		1.475757	-7.078442	-87.428063
21301		1.512281	-6.990111	-87.587817
21302		1.612327	-6.957324	-87.746721
21303		1.699629	-6.967305	-87.912441
21304		1.712686	-6.994602	-88.066759
21305		1.652069	-7.012529	-88.222879
21306		1.564840	-7.002310	-88.373321
21307		1.506036	-6.951070	-88.516737
21308		1.506191	-6.871911	-88.653769
21309		1.564349	-6.790967	-88.802790
21310		1.639419	-6.725935	-88.949802
21311		1.714910	-6.688197	-89.090800
21312		1.769464	-6.672168	-89.210749
21313		1.761774	-6.658154	-89.325760
21314		1.673281	-6.630151	-89.424751
21315		1.537706	-6.585965	-89.501598
21316		1.404570	-6.537782	-89.554994
21317		1.288498	-6.487234	-89.608571
21318		1.182844	-6.433522	-89.643943
21319		1.053068	-6.383802	-89.655078
21320		0.892912	-6.346699	-89.648565
21321		0.727678	-6.323867	-89.640318
21322		0.577729	-6.305230	-89.609189
21323		0.459112	-6.288913	-89.556608
21324		0.377246	-6.276931	-89.483603
21325		0.331435	-6.272389	-89.406064
21326		0.301973	-6.279780	-89.314696
21327		0.269354	-6.295601	-89.215294
21328		0.213102	-6.311196	-89.105962
21329		0.151462	-6.323080	-88.995563
21330		0.095103	-6.326055	-88.866126
21331		0.070905	-6.320361	-88.722943
21332		0.076224	-6.315536	-88.552675
21333		0.106761	-6.321813	-88.363690
21334		0.138549	-6.340221	-88.153190
21335		0.151593	-6.367097	-87.932024
21336		0.118462	-6.387123	-87.691248
21337		0.051565	-6.395775	-87.446697
21338		-0.023326	-6.396834	-87.190597
21339		-0.063419	-6.393982	-86.938062
21340		-0.073787	-6.392212	-86.689894
21341		-0.047327	-6.396072	-86.445785
21342		0.006530	-6.408782	-86.191725
21343		0.083103	-6.435125	-85.935941
21344		0.150158	-6.462705	-85.675128
21345		0.183485	-6.488087	-85.414741
21346		0.177778	-6.509050	-85.147877
21347		0.165631	-6.519061	-84.899500
21348		0.171492	-6.512879	-84.653179
21349		0.216899	-6.492582	-84.398218
21350		0.300532	-6.473942	-84.120741
21351		0.420505	-6.475639	-83.840005
21352		0.550839	-6.496539	-83.555101
21353		0.657594	-6.520673	-83.262848
21354		0.700817	-6.529660	-82.961940
21355		0.693385	-6.524195	-82.668164
21356		0.675818	-6.524074	-82.366689
21357		0.669493	-6.526623	-82.048881
21358		0.629909	-6.524730	-81.687067
21359		0.563583	-6.522349	-81.293870
21360		0.478899	-6.541556	-80.884427
21361		0.406220	-6.581387	-80.472468
21362		0.310064	-6.620707	-80.066312
21363		0.176511	-6.659472	-79.675879
21364		0.023623	-6.701191	-79.295390
21365		-0.097727	-6.756337	-78.929538
21366		-0.165780	-6.802612	-78.573742
21367		-0.183985	-6.822272	-78.221816
21368		-0.206530	-6.818870	-77.852229
21369		-0.252111	-6.809255	-77.466014
21370		-0.315513	-6.821317	-77.056431
21371		-0.362266	-6.863877	-76.652717
21372		-0.380018	-6.932347	-76.261971
21373		-0.348518	-7.022497	-75.886726
21374		-0.288501	-7.109394	-75.519714
21375		-0.225906	-7.178979	-75.157746
21376		-0.186647	-7.223603	-74.787420
21377		-0.165126	-7.248339	-74.407330
21378		-0.156954	-7.274839	-73.997189
21379		-0.138759	-7.326262	-73.577955
21380		-0.121470	-7.401442	-73.159622
21381		-0.107198	-7.486027	-72.741046
21382		-0.085937	-7.568931	-72.315926
21383		-0.042889	-7.641555	-71.905067
21384		0.017546	-7.696468	-71.504474
21385		0.079495	-7.730690	-71.108900
21386		0.077098	-7.745050	-70.694759
21387		-0.025991	-7.752756	-70.251875
21388		-0.212698	-7.783186	-69.764946
21389		-0.405792	-7.860585	-69.264021
21390		-0.572891	-7.984807	-68.766520
21391		-0.673063	-8.129931	-68.289243
21392		-0.717600	-8.262606	-67.810524
21393		-0.720753	-8.369984	-67.342154
21394		-0.725649	-8.439711	-66.877393
21395		-0.737534	-8.490408	-66.406480
21396		-0.777692	-8.546622	-65.918416
21397		-0.827922	-8.624531	-65.429089
21398		-0.853340	-8.718572	-64.949718
21399		-0.807738	-8.823443	-64.496436
21400		-0.698584	-8.930386	-64.056106
21401		-0.557207	-9.021580	-63.627648
21402		-0.440401	-9.092259	-63.201077
21403		-0.388109	-9.148581	-62.773730
21404		-0.428301	-9.201420	-62.319504
21405		-0.522240	-9.266481	-61.832734
21406		-0.635563	-9.342658	-61.316590
21407		-0.718150	-9.424606	-60.808401
21408		-0.748057	-9.509745	-60.309717
21409		-0.719708	-9.594799	-59.828950
21410		-0.661792	-9.672720	-59.361884
21411		-0.611469	-9.734836	-58.907237
21412		-0.610159	-9.783138	-58.444523
21413		-0.661043	-9.825295	-57.964677
21414		-0.750570	-9.856866	-57.448285
21415		-0.818875	-9.875662	-56.901943
21416		-0.849561	-9.882343	-56.329492
21417		-0.834532	-9.883736	-55.762820
21418		-0.799303	-9.874121	-55.214754
21419		-0.709097	-9.852809	-54.716562
21420		-0.588207	-9.822714	-54.274969
21421		-0.480458	-9.793265	-53.871993
21422		-0.435117	-9.784235	-53.469420
21423		-0.423241	-9.790328	-53.047913
21424		-0.409402	-9.803624	-52.608301
21425		-0.373163	-9.812514	-52.165374
21426		-0.327659	-9.816158	-51.718465
21427		-0.274288	-9.813094	-51.286836
21428		-0.238769	-9.805028	-50.860046
21429		-0.209712	-9.799850	-50.433650
21430		-0.187105	-9.798353	-50.005835
21431		-0.150394	-9.801701	-49.578978
21432		-0.124475	-9.816522	-49.136351
21433		-0.131874	-9.831698	-48.675863
21434		-0.217195	-9.836051	-48.190200
21435		-0.383444	-9.842512	-47.690779
21436		-0.642562	-9.856515	-47.165003
21437		-0.956436	-9.889783	-46.624297
21438		-1.279163	-9.952458	-46.066944
21439		-1.533482	-10.044185	-45.519981
21440		-1.674934	-10.155310	-44.991373
21441		-1.650474	-10.273799	-44.494194
21442		-1.459922	-10.380236	-44.018264
21443		-1.152987	-10.467859	-43.566803
21444		-0.845687	-10.524048	-43.116326
21445		-0.614786	-10.545800	-42.644584
21446		-0.486785	-10.556565	-42.137914
21447		-0.402928	-10.576322	-41.602455
21448		-0.301491	-10.624660	-41.061095
21449		-0.109129	-10.697533	-40.557440
21450		0.161484	-10.775616	-40.101837
21451		0.451979	-10.817467	-39.671820
21452		0.671724	-10.811081	-39.234060
21453		0.807723	-10.771566	-38.783488
21454		0.875123	-10.721440	-38.310040
21455		0.902861	-10.681065	-37.830023
21456		0.913352	-10.668423	-37.341745
21457		0.952859	-10.684629	-36.857590
21458		1.043882	-10.715879	-36.369811
21459		1.175572	-10.744141	-35.874117
21460		1.289164	-10.755921	-35.347634
21461		1.336521	-10.756629	-34.789374
21462		1.296511	-10.763319	-34.204243
21463		1.197138	-10.791455	-33.607367
21464		1.096629	-10.849923	-33.012972
21465		1.052382	-10.921935	-32.434017
21466		1.077079	-10.986952	-31.864614
21467		1.144979	-11.023555	-31.298278
21468		1.188691	-11.038202	-30.707895
21469		1.179799	-11.050470	-30.097708
21470		1.133509	-11.087370	-29.470391
21471		1.107194	-11.149598	-28.829744
21472		1.127321	-11.228969	-28.184216
21473		1.204733	-11.307686	-27.548143
21474		1.305039	-11.374195	-26.915405
21475		1.386838	-11.433601	-26.298090
21476		1.412961	-11.489165	-25.687377
21477		1.387952	-11.536925	-25.075849
21478		1.329576	-11.573801	-24.456838
21479		1.290411	-11.603148	-23.836564
21480		1.276335	-11.629282	-23.209622
21481		1.289333	-11.657289	-22.581988
21482		1.278451	-11.686371	-21.953420
21483		1.208921	-11.718851	-21.321157
21484		1.063335	-11.756213	-20.671705
21485		0.892569	-11.798925	-20.003399
21486		0.752855	-11.845632	-19.322090
21487		0.684857	-11.886351	-18.648499
21488		0.661984	-11.915049	-17.982227
21489		0.673071	-11.931155	-17.338651
21490		0.684407	-11.938161	-16.721252
21491		0.675275	-11.926735	-16.125668
21492		0.608117	-11.897162	-15.529165
21493		0.495187	-11.849740	-14.923007
21494		0.348252	-11.796101	-14.306485
21495		0.196322	-11.751868	-13.695915
21496		0.051978	-11.726490	-13.097234
21497		-0.043123	-11.716243	-12.522399
21498		-0.085007	-11.707527	-11.977084
21499		-0.102827	-11.686244	-11.467032
21500		-0.174836	-11.648500	-10.966029
21501		-0.330422	-11.594822	-10.450649
21502		-0.584640	-11.531280	-9.898094
21503		-0.870849	-11.470866	-9.328341
21504		-1.127410	-11.432867	-8.759802
21505		-1.308850	-11.414593	-8.217016
21506		-1.420427	-11.405190	-7.705779
21507		-1.486714	-11.384116	-7.228459
21508		-1.548964	-11.350353	-6.779216
21509		-1.624593	-11.300314	-6.335195
21510		-1.719115	-11.240241	-5.875390
21511		-1.810715	-11.172206	-5.399083
21512		-1.882145	-11.106324	-4.911664
21513		-1.921404	-11.050324	-4.433090
21514		-1.960875	-11.001085	-3.962059
21515		-2.004260	-10.970914	-3.501064
21516		-2.067126	-10.947324	-3.044932
21517		-2.129998	-10.921136	-2.591658
21518		-2.194374	-10.888657	-2.137333
21519		-2.239004	-10.859947	-1.693884
21520		-2.285037	-10.831163	-1.254206
21521		-2.342668	-10.802478	-0.818456
21522		-2.437360	-10.781389	-0.386624
21523		-2.546929	-10.764163	0.039514
21524		-2.640255	-10.747736	0.464683
21525		-2.689205	-10.728282	0.873714
21526		-2.690328	-10.712327	1.257058
21527		-2.654732	-10.699350	1.613915
21528		-2.617783	-10.685908	1.950688
21529		-2.598651	-10.676128	2.279325
21530		-2.598981	-10.671341	2.603350
21531		-2.589736	-10.676172	2.918574
21532		-2.553030	-10.687064	3.218547
21533		-2.503963	-10.693464	3.506091
21534		-2.487885	-10.690461	3.785002
21535		-2.529405	-10.673288	4.058606
21536		-2.623834	-10.649233	4.328179
21537		-2.731938	-10.626961	4.588829
21538		-2.796763	-10.629218	4.835385
21539		-2.786386	-10.652928	5.043936
21540		-2.721310	-10.685714	5.224276
21541		-2.632380	-10.712069	5.385485
21542		-2.555381	-10.736100	5.527869
21543		-2.508487	-10.746287	5.648598
21544		-2.494766	-10.743475	5.759688
21545		-2.503533	-10.733197	5.870371
21546		-2.521908	-10.724194	5.977138
21547		-2.549195	-10.714034	6.073364
21548		-2.585558	-10.697364	6.155732
21549		-2.638416	-10.674864	6.233261
21550		-2.694927	-10.650559	6.295668
21551		-2.746178	-10.626444	6.349730
21552		-2.775780	-10.614129	6.394872
21553		-2.758122	-10.627359	6.435719
21554		-2.682885	-10.664863	6.456853
21555		-2.571381	-10.706516	6.460985
21556		-2.461505	-10.739708	6.447276
21557		-2.401972	-10.746882	6.425097
21558		-2.418403	-10.721871	6.392690
21559		-2.500349	-10.675536	6.351628
21560		-2.599512	-10.621942	6.302464
21561		-2.661618	-10.570856	6.251016
21562		-2.665514	-10.529761	6.199660
21563		-2.620705	-10.504509	6.153157
21564		-2.540208	-10.509259	6.105886
21565		-2.465219	-10.525645	6.063899
21566		-2.424495	-10.541708	6.019923
21567		-2.439436	-10.550134	5.969519
21568		-2.509308	-10.554837	5.910182
21569		-2.599670	-10.560809	5.843283
21570		-2.662628	-10.569713	5.772617
21571		-2.655058	-10.592490	5.690474
21572		-2.578204	-10.622648	5.599632
21573		-2.446879	-10.665691	5.499822
21574		-2.305682	-10.718903	5.379846
21575		-2.201995	-10.762595	5.241070
21576		-2.158493	-10.787801	5.093682
21577		-2.165101	-10.794961	4.947839
21578		-2.181239	-10.799586	4.792825
21579		-2.175969	-10.807718	4.633508
21580		-2.137042	-10.829349	4.474140
21581		-2.100707	-10.863506	4.322262
21582		-2.100767	-10.904955	4.166119
21583		-2.155163	-10.942614	4.009065
21584		-2.246972	-10.981174	3.854921
21585		-2.353261	-11.029274	3.716482
21586		-2.441086	-11.086287	3.577339
21587		-2.485073	-11.149595	3.435295
21588		-2.484401	-11.215104	3.277222
21589		-2.462788	-11.277257	3.106300
21590		-2.449326	-11.341923	2.930257
21591		-2.496360	-11.401901	2.741938
21592		-2.611341	-11.458337	2.523513
21593		-2.756268	-11.514859	2.275693
21594		-2.869521	-11.569523	1.996043
21595		-2.934920	-11.609074	1.689054
21596		-2.955799	-11.638469	1.350345
21597		-2.960741	-11.657183	0.978961
21598		-2.969840	-11.660758	0.584739
21599		-2.992400	-11.652681	0.185761
21600		-3.016615	-11.638351	-0.211584
21601		-3.036821	-11.636391	-0.605868
21602		-3.041669	-11.653186	-1.012615
21603		-3.037769	-11.678470	-1.428887
21604		-3.020527	-11.705443	-1.866066
21605		-3.019016	-11.723748	-2.311022
21606		-3.038018	-11.727704	-2.764222
21607		-3.093813	-11.720953	-3.211053
21608		-3.152734	-11.714410	-3.658245
21609		-3.186893	-11.714068	-4.096160
21610		-3.154902	-11.734720	-4.540528
21611		-3.081953	-11.770728	-5.004357
21612		-3.020597	-11.798465	-5.494490
21613		-3.014899	-11.799312	-5.998301
21614		-3.083347	-11.762926	-6.509117
21615		-3.241074	-11.699481	-7.013721
21616		-3.442011	-11.631069	-7.514274
21617		-3.633140	-11.577478	-8.000615
21618		-3.766707	-11.551900	-8.482987
21619		-3.839969	-11.553856	-8.969867
21620		-3.878163	-11.567715	-9.459063
21621		-3.914398	-11.574059	-9.941929
21622		-3.971224	-11.573160	-10.434556
21623		-4.032683	-11.554976	-10.926284
21624		-4.071316	-11.536336	-11.419636
21625		-4.061350	-11.531866	-11.915064
21626		-3.987307	-11.552887	-12.428708
21627		-3.866814	-11.581116	-12.955173
21628		-3.730508	-11.604411	-13.500075
21629		-3.619466	-11.596799	-14.052402
21630		-3.544650	-11.560800	-14.611888
21631		-3.506810	-11.509679	-15.163293
21632		-3.475216	-11.460146	-15.707458
21633		-3.444451	-11.428363	-16.230133
21634		-3.417988	-11.421615	-16.725847
21635		-3.422758	-11.431701	-17.189068
21636		-3.459988	-11.455262	-17.655550
21637		-3.537775	-11.483826	-18.133129
21638		-3.640980	-11.501305	-18.631330
21639		-3.757574	-11.501939	-19.144779
21640		-3.850203	-11.489852	-19.683604
21641		-3.902505	-11.471811	-20.235560
21642		-3.903926	-11.449109	-20.788613
21643		-3.888552	-11.424305	-21.323320
21644		-3.874090	-11.403226	-21.851514
21645		-3.889512	-11.378880	-22.365655
21646		-3.932895	-11.359939	-22.868654
21647		-4.007604	-11.344796	-23.359813
21648		-4.075460	-11.341684	-23.852350
21649		-4.115950	-11.349279	-24.353092
21650		-4.106660	-11.367248	-24.873712
21651		-4.057688	-11.384911	-25.410330
21652		-3.983209	-11.387508	-25.963173
21653		-3.933404	-11.364003	-26.529039
21654		-3.941371	-11.315143	-27.097221
21655		-3.996430	-11.254756	-27.670181
21656		-4.043320	-11.205041	-28.256570
21657		-4.031920	-11.170494	-28.851524
21658		-3.956058	-11.158579	-29.448730
21659		-3.872330	-11.167175	-30.026268
21660		-3.811923	-11.180386	-30.586842
21661		-3.812519	-11.196738	-31.123283
21662		-3.856012	-11.216195	-31.645253
21663		-3.926832	-11.237612	-32.166879
21664		-3.973079	-11.251725	-32.702326
21665		-3.961974	-11.262282	-33.257883
21666		-3.887780	-11.261842	-33.844130
21667		-3.822074	-11.245144	-34.446543
21668		-3.804246	-11.200215	-35.052296
21669		-3.892274	-11.122893	-35.636331
21670		-4.082776	-11.041762	-36.183542
21671		-4.332186	-10.969847	-36.703985
21672		-4.544796	-10.928080	-37.211507
21673		-4.639551	-10.928760	-37.728859
21674		-4.593510	-10.963046	-38.281600
21675		-4.468933	-10.994135	-38.866424
21676		-4.339193	-10.995321	-39.462655
21677		-4.273542	-10.959548	-40.051872
21678		-4.272387	-10.905936	-40.625644
21679		-4.310898	-10.859295	-41.176254
21680		-4.301658	-10.834879	-41.716748
21681		-4.201610	-10.837165	-42.271880
21682		-4.035202	-10.851420	-42.861886
21683		-3.878117	-10.836487	-43.472106
21684		-3.787446	-10.778043	-44.087514
21685		-3.826213	-10.679708	-44.690537
21686		-3.980013	-10.576878	-45.274961
21687		-4.172733	-10.489126	-45.839291
21688		-4.304789	-10.434316	-46.394660
21689		-4.339750	-10.408285	-46.955955
21690		-4.319344	-10.405866	-47.538194
21691		-4.326231	-10.406801	-48.129754
21692		-4.415221	-10.392998	-48.711438
21693		-4.571593	-10.364273	-49.283762
21694		-4.701602	-10.343848	-49.855793
21695		-4.711950	-10.341249	-50.437035
21696		-4.548782	-10.362341	-51.047718
21697		-4.286355	-10.386785	-51.687821
21698		-4.006907	-10.385508	-52.338808
21699		-3.789078	-10.345399	-52.979745
21700		-3.674036	-10.282462	-53.588987
21701		-3.678117	-10.228528	-54.165797
21702		-3.743113	-10.213742	-54.712310
21703		-3.747241	-10.239959	-55.249284
21704		-3.607278	-10.295486	-55.803330
21705		-3.353992	-10.363406	-56.396733
21706		-3.084963	-10.413006	-57.010529
21707		-2.884210	-10.421228	-57.623962
21708		-2.769380	-10.385910	-58.232250
21709		-2.748811	-10.331698	-58.813491
21710		-2.755755	-10.281785	-59.371268
21711		-2.707143	-10.256895	-59.929086
21712		-2.538082	-10.273108	-60.510662
21713		-2.290402	-10.322227	-61.124667
21714		-2.022086	-10.371208	-61.758384
21715		-1.779172	-10.389768	-62.399343
21716		-1.602513	-10.370357	-63.027007
21717		-1.543748	-10.323237	-63.618843
21718		-1.584569	-10.272841	-64.175938
21719		-1.644036	-10.236408	-64.728383
21720		-1.644365	-10.209845	-65.285614
21721		-1.549344	-10.191473	-65.859992
21722		-1.368706	-10.182784	-66.448693
21723		-1.152184	-10.173652	-67.045468
21724		-0.928988	-10.163845	-67.634196
21725		-0.747748	-10.146779	-68.202428
21726		-0.615444	-10.118128	-68.734568
21727		-0.516909	-10.089090	-69.241715
21728		-0.394347	-10.065158	-69.736266
21729		-0.189459	-10.050297	-70.244400
21730		0.137535	-10.044477	-70.775350
21731		0.575298	-10.044343	-71.335113
21732		1.138061	-10.047087	-71.923703
21733		1.843001	-10.039263	-72.550757
21734		2.676848	-10.001305	-73.213044
21735		3.558137	-9.915849	-73.898009
21736		4.376228	-9.786029	-74.564277
21737		5.014553	-9.650970	-75.191783
21738		5.464898	-9.537951	-75.784090
21739		5.768450	-9.457976	-76.346588
21740		6.010678	-9.394173	-76.884486
21741		6.240844	-9.332959	-77.402564
21742		6.495757	-9.270695	-77.912536
21743		6.746384	-9.192975	-78.412678
21744		6.938760	-9.093762	-78.879845
21745		7.030895	-8.971027	-79.302686
21746		7.006466	-8.838109	-79.682594
21747		6.906593	-8.712243	-80.031906
21748		6.799847	-8.597452	-80.371064
21749		6.731992	-8.494899	-80.718011
21750		6.725689	-8.403880	-81.091961
21751		6.710694	-8.308613	-81.475910
21752		6.628976	-8.186508	-81.833419
21753		6.453628	-8.046681	-82.157482
21754		6.219384	-7.898184	-82.451009
21755		5.960178	-7.768800	-82.726025
21756		5.740846	-7.691883	-82.997324
21757		5.618252	-7.672960	-83.285436
21758		5.604675	-7.677159	-83.582871
21759		5.615255	-7.670902	-83.877193
21760		5.571245	-7.632960	-84.141458
21761		5.434859	-7.574844	-84.376412
21762		5.251539	-7.514638	-84.583737
21763		5.091079	-7.466883	-84.781598
21764		4.974024	-7.446069	-84.972298
21765		4.924744	-7.454482	-85.170112
21766		4.942326	-7.488671	-85.379220
21767		5.011433	-7.530718	-85.605548
21768		5.078819	-7.556044	-85.813227
21769		5.102191	-7.542571	-85.986788
21770		5.076630	-7.504519	-86.121722
21771		5.039151	-7.468183	-86.242792
21772		5.010565	-7.458822	-86.357053
21773		5.003476	-7.483370	-86.475289
21774		5.029595	-7.519144	-86.600660
21775		5.083970	-7.543594	-86.741811
21776		5.141816	-7.548958	-86.873671
21777		5.176245	-7.523901	-86.980058
21778		5.174682	-7.467733	-87.049594
21779		5.168224	-7.399810	-87.090865
21780		5.185323	-7.349100	-87.103587
21781		5.225975	-7.322133	-87.103827
21782		5.250049	-7.311203	-87.100609
21783		5.225361	-7.299836	-87.104975
21784		5.168147	-7.279550	-87.109154
21785		5.111872	-7.252142	-87.105604
21786		5.060563	-7.217327	-87.075372
21787		5.015548	-7.181080	-87.021851
21788		4.986592	-7.156811	-86.926857
21789		4.994591	-7.154726	-86.799444
21790		5.014090	-7.168573	-86.659904
21791		5.002852	-7.187296	-86.535871
21792		4.941489	-7.193779	-86.427002
21793		4.846758	-7.181689	-86.333271
21794		4.732468	-7.155330	-86.241100
21795		4.620498	-7.124797	-86.148941
21796		4.524953	-7.107085	-86.030027
21797		4.488174	-7.105306	-85.888457
21798		4.491476	-7.107647	-85.747566
21799		4.506402	-7.105382	-85.631144
21800		4.486517	-7.108071	-85.520374
21801		4.427563	-7.120431	-85.402924
21802		4.327530	-7.140953	-85.276946
21803		4.214721	-7.156647	-85.140117
21804		4.110211	-7.164419	-84.975491
21805		4.050839	-7.167953	-84.796069
21806		4.035984	-7.173127	-84.625835
21807		4.054169	-7.186553	-84.480734
21808		4.086426	-7.204864	-84.343062
21809		4.150128	-7.219368	-84.211748
21810		4.243964	-7.217923	-84.067410
21811		4.350387	-7.194073	-83.893857
21812		4.396524	-7.165207	-83.668463
21813		4.378231	-7.144721	-83.420418
21814		4.347253	-7.143244	-83.161395
21815		4.346332	-7.153134	-82.923828
21816		4.374285	-7.164104	-82.701601
21817		4.406123	-7.160869	-82.489017
21818		4.410712	-7.136624	-82.263174
21819		4.386759	-7.091336	-82.024396
21820		4.337898	-7.037788	-81.765686
21821		4.292324	-6.992367	-81.487594
21822		4.250959	-6.974097	-81.194071
21823		4.188847	-6.986342	-80.888033
21824		4.098849	-7.029688	-80.565457
21825		4.002052	-7.092311	-80.244466
21826		3.939992	-7.157115	-79.924318
21827		3.925844	-7.216723	-79.612721
21828		3.944703	-7.252837	-79.300289
21829		3.990363	-7.266178	-78.993971
21830		4.029545	-7.257868	-78.683172
21831		4.039320	-7.241173	-78.355254
21832		3.999313	-7.231510	-77.998390
21833		3.934489	-7.246749	-77.624362
21834		3.869242	-7.285833	-77.236665
21835		3.819865	-7.333223	-76.844817
21836		3.775493	-7.376092	-76.443730
21837		3.738766	-7.402633	-76.047014
21838		3.699742	-7.412465	-75.644987
21839		3.661313	-7.409785	-75.243395
21840		3.602006	-7.398728	-74.829133
21841		3.509248	-7.382143	-74.404406
21842		3.386320	-7.360266	-73.968173
21843		3.268859	-7.342945	-73.524939
21844		3.146969	-7.337519	-73.066268
21845		3.026883	-7.357554	-72.613026
21846		2.905899	-7.392948	-72.165558
21847		2.812822	-7.430924	-71.725108
21848		2.735127	-7.461184	-71.275373
21849		2.673683	-7.487641	-70.826723
21850		2.603691	-7.517552	-70.375966
21851		2.542103	-7.558541	-69.927220
21852		2.499553	-7.607723	-69.486926
21853		2.499242	-7.651612	-69.066273
21854		2.529327	-7.686104	-68.645698
21855		2.579397	-7.707899	-68.232251
21856		2.634712	-7.719887	-67.822113
21857		2.715919	-7.730396	-67.423538
21858		2.814417	-7.745482	-67.020337
21859		2.918258	-7.774147	-66.609356
21860		3.018227	-7.825215	-66.182635
21861		3.124171	-7.898076	-65.741299
21862		3.208226	-7.970908	-65.265577
21863		3.256404	-8.023025	-64.770455
21864		3.243472	-8.046650	-64.259607
21865		3.172632	-8.051562	-63.739948
21866		3.042499	-8.038804	-63.207331
21867		2.894905	-8.013565	-62.665680
21868		2.759635	-7.983708	-62.117989
21869		2.650757	-7.965622	-61.578394
21870		2.542722	-7.960165	-61.048029
21871		2.440459	-7.957828	-60.532425
21872		2.328625	-7.946938	-60.020961
21873		2.193708	-7.920097	-59.502235
21874		1.996036	-7.886246	-58.956447
21875		1.730647	-7.872863	-58.391260
21876		1.417559	-7.894420	-57.817232
21877		1.150518	-7.973239	-57.263809
21878		1.013993	-8.102405	-56.756740
21879		1.061572	-8.239015	-56.311695
21880		1.223302	-8.326475	-55.906488
21881		1.364705	-8.346589	-55.511655
21882		1.371046	-8.313382	-55.082341
21883		1.251178	-8.269375	-54.615773
21884		1.071224	-8.256749	-54.125542
21885		0.918570	-8.294374	-53.651572
21886		0.817205	-8.362940	-53.206350
21887		0.801399	-8.431682	-52.794051
21888		0.871659	-8.480096	-52.402543
21889		1.001962	-8.498389	-52.014589
21890		1.125904	-8.488128	-51.612502
21891		1.196907	-8.468315	-51.203226
21892		1.190374	-8.456315	-50.772843
21893		1.122726	-8.465187	-50.320818
21894		1.001223	-8.502788	-49.838756
21895		0.862895	-8.571645	-49.337121
21896		0.738922	-8.668499	-48.823615
21897		0.686322	-8.792084	-48.311757
21898		0.730767	-8.931019	-47.806373
21899		0.881359	-9.062888	-47.313640
21900		1.071084	-9.167171	-46.817660
21901		1.218006	-9.250568	-46.304329
21902		1.253953	-9.323014	-45.754805
21903		1.197109	-9.403137	-45.168599
21904		1.095368	-9.498246	-44.552561
21905		1.009207	-9.615808	-43.931669
21906		0.967363	-9.770252	-43.315887
21907		1.023089	-9.954491	-42.722121
21908		1.191566	-10.150558	-42.164204
21909		1.414604	-10.324371	-41.633367
21910		1.602956	-10.449675	-41.102378
21911		1.719592	-10.523704	-40.571112
21912		1.782490	-10.567317	-40.027618
21913		1.850907	-10.602560	-39.474689
21914		1.942688	-10.643334	-38.920299
21915		2.079970	-10.693671	-38.383102
21916		2.229039	-10.746527	-37.851271
21917		2.346571	-10.794224	-37.314319
21918		2.384528	-10.843822	-36.757474
21919		2.363024	-10.906404	-36.184406
21920		2.303701	-10.985901	-35.593466
21921		2.240896	-11.076885	-34.997008
21922		2.190192	-11.166354	-34.404135
21923		2.191504	-11.255088	-33.838557
21924		2.261624	-11.331220	-33.309022
21925		2.380312	-11.387178	-32.805678
21926		2.490300	-11.423660	-32.304733
21927		2.573007	-11.453322	-31.795512
21928		2.619261	-11.474638	-31.262706
21929		2.662520	-11.481992	-30.718011
21930		2.689731	-11.488408	-30.179334
21931		2.695536	-11.498358	-29.661265
21932		2.639035	-11.516844	-29.144658
21933		2.523913	-11.548649	-28.627035
21934		2.378784	-11.592962	-28.099821
21935		2.273563	-11.639863	-27.570485
21936		2.226728	-11.683919	-27.039690
21937		2.243661	-11.710686	-26.521975
21938		2.310339	-11.729192	-26.027169
21939		2.386340	-11.740224	-25.549046
21940		2.404315	-11.734428	-25.062705
21941		2.351620	-11.713814	-24.554015
21942		2.260439	-11.695986	-24.022084
21943		2.197080	-11.697722	-23.490359
21944		2.184634	-11.725141	-22.977365
21945		2.218696	-11.775661	-22.496722
21946		2.257105	-11.824577	-22.042198
21947		2.270208	-11.855723	-21.599779
21948		2.245181	-11.863477	-21.153281
21949		2.194938	-11.856742	-20.688557
21950		2.114102	-11.833645	-20.190519
21951		2.021816	-11.799666	-19.656654
21952		1.955074	-11.762346	-19.104121
21953		1.957617	-11.737022	-18.563279
21954		2.045222	-11.734644	-18.058756
21955		2.208582	-11.748678	-17.606311
21956		2.382571	-11.754841	-17.180756
21957		2.541214	-11.759486	-16.769391
21958		2.644741	-11.764072	-16.338445
21959		2.670841	-11.755614	-15.868892
21960		2.574137	-11.729093	-15.347257
21961		2.382578	-11.694498	-14.803234
21962		2.146482	-11.661875	-14.256315
21963		1.945747	-11.653170	-13.728648
21964		1.822480	-11.666683	-13.228141
21965		1.797766	-11.683027	-12.761521
21966		1.859639	-11.689913	-12.323500
21967		1.980639	-11.680072	-11.899101
21968		2.113179	-11.661999	-11.479606
21969		2.212486	-11.647571	-11.076648
21970		2.236684	-11.633834	-10.695558
21971		2.162536	-11.618950	-10.346714
21972		1.995604	-11.582336	-10.024910
21973		1.801868	-11.534962	-9.715227
21974		1.676946	-11.470113	-9.405236
21975		1.655472	-11.429746	-9.093711
21976		1.760372	-11.427571	-8.805264
21977		1.949958	-11.449572	-8.521080
21978		2.141111	-11.494301	-8.232402
21979		2.296873	-11.554942	-7.928283
21980		2.391348	-11.636751	-7.594014
21981		2.388924	-11.729640	-7.205013
21982		2.282511	-11.825807	-6.773021
21983		2.141931	-11.924870	-6.325661
21984		2.037161	-12.023999	-5.892284
21985		2.019643	-12.126216	-5.486997
21986		2.067943	-12.223174	-5.103880
21987		2.152798	-12.313035	-4.731003
21988		2.241333	-12.379454	-4.353643
21989		2.320232	-12.423392	-3.962105
21990		2.380448	-12.450580	-3.549514
21991		2.423283	-12.470233	-3.122171
21992		2.440486	-12.488505	-2.691358
21993		2.425409	-12.517704	-2.265641
21994		2.346376	-12.546457	-1.839581
21995		2.199802	-12.567685	-1.410487
21996		1.991402	-12.575941	-0.989608
21997		1.746409	-12.569901	-0.584993
21998		1.481464	-12.542266	-0.192374
21999		1.227757	-12.506901	0.176660
22000		1.016519	-12.466931	0.511121
22001		0.875624	-12.416455	0.803445
22002		0.769605	-12.353421	1.067876
22003		0.653037	-12.276992	1.327621
22004		0.479042	-12.191233	1.602798
22005		0.275409	-12.103819	1.884271
22006		0.107892	-12.038829	2.155802
22007		0.049387	-12.007800	2.397896
22008		0.110267	-12.017391	2.605489
22009		0.231422	-12.042281	2.776271
22010		0.351401	-12.053358	2.926139
22011		0.411144	-12.033511	3.061514
22012		0.380580	-11.993887	3.196386
22013		0.262123	-11.948097	3.337186
22014		0.106040	-11.922627	3.487154
22015		-0.045682	-11.915217	3.636821
22016		-0.177138	-11.918113	3.774413
22017		-0.278339	-11.933696	3.900257
22018		-0.324021	-11.971384	4.017968
22019		-0.294632	-12.040277	4.116479
22020		-0.203230	-12.130096	4.193698
22021		-0.074869	-12.233351	4.255801
22022		0.056559	-12.334630	4.325517
22023		0.157145	-12.429295	4.408232
22024		0.177529	-12.510680	4.502614
22025		0.081278	-12.579538	4.611113
22026		-0.118971	-12.627331	4.726264
22027		-0.362249	-12.664711	4.837646
22028		-0.591339	-12.694606	4.933883
22029		-0.747480	-12.719503	5.000758
22030		-0.795354	-12.747085	5.030789
22031		-0.735793	-12.776996	5.030221
22032		-0.627662	-12.805558	5.011565
22033		-0.542061	-12.819754	4.980716
22034		-0.538992	-12.810060	4.939737
22035		-0.638553	-12.773062	4.890709
22036		-0.808457	-12.717070	4.826815
22037		-0.977264	-12.643425	4.744382
22038		-1.080063	-12.562487	4.631535
22039		-1.089103	-12.492212	4.488573
22040		-1.037865	-12.440123	4.320558
22041		-0.999204	-12.399052	4.146743
22042		-1.013123	-12.359409	3.977692
22043		-1.070489	-12.323094	3.806329
22044		-1.124871	-12.284832	3.617443
22045		-1.148459	-12.255103	3.394679
22046		-1.106819	-12.220796	3.144942
22047		-1.056793	-12.196177	2.878232
22048		-1.018129	-12.171212	2.604439
22049		-1.024555	-12.145136	2.340066
22050		-1.080761	-12.110316	2.102165
22051		-1.194814	-12.076857	1.896821
22052		-1.329246	-12.043541	1.709055
22053		-1.463181	-12.004989	1.529464
22054		-1.569793	-11.972097	1.344378
22055		-1.641678	-11.948843	1.160555
22056		-1.695707	-11.942371	0.975224
22057		-1.787369	-11.947149	0.779306
22058		-1.937732	-11.955921	0.553006
22059		-2.145329	-11.961803	0.310710
22060		-2.352524	-11.970835	0.061041
22061		-2.518389	-11.977925	-0.199452
22062		-2.610042	-11.980724	-0.479745
22063		-2.618762	-11.966693	-0.772170
22064		-2.572219	-11.933010	-1.075707
22065		-2.526493	-11.894123	-1.378252
22066		-2.527026	-11.863444	-1.687756
22067		-2.597042	-11.844845	-2.005238
22068		-2.714047	-11.833818	-2.340257
22069		-2.859138	-11.818303	-2.688684
22070		-3.014846	-11.789998	-3.048832
22071		-3.179825	-11.761031	-3.410836
22072		-3.322982	-11.745659	-3.788208
22073		-3.386627	-11.746995	-4.186845
22074		-3.327665	-11.751925	-4.623268
22075		-3.195821	-11.745707	-5.088098
22076		-3.061914	-11.720220	-5.573853
22077		-2.988798	-11.674355	-6.072305
22078		-2.994448	-11.619235	-6.568706
22079		-3.090724	-11.538625	-7.045360
22080		-3.249706	-11.432596	-7.499953
22081		-3.451907	-11.319397	-7.943561
22082		-3.655713	-11.218244	-8.386110
22083		-3.810138	-11.149483	-8.817825
22084		-3.870855	-11.125914	-9.258421
22085		-3.820365	-11.155603	-9.714770
22086		-3.675508	-11.232729	-10.188541
22087		-3.499981	-11.340848	-10.665775
22088		-3.347378	-11.438706	-11.138195
22089		-3.289341	-11.490791	-11.586870
22090		-3.343837	-11.499715	-12.009904
22091		-3.505196	-11.458787	-12.415283
22092		-3.675207	-11.426963	-12.816157
22093		-3.789222	-11.419603	-13.211605
22094		-3.809096	-11.447984	-13.624613
22095		-3.795094	-11.498576	-14.054092
22096		-3.798115	-11.558772	-14.503216
22097		-3.862025	-11.609708	-14.962122
22098		-4.003367	-11.633521	-15.432191
22099		-4.195786	-11.627900	-15.904800
22100		-4.379033	-11.602829	-16.382967
22101		-4.526381	-11.572866	-16.858635
22102		-4.640955	-11.539787	-17.316733
22103		-4.760131	-11.505008	-17.761404
22104		-4.921274	-11.472499	-18.214370
22105		-5.143843	-11.444668	-18.670433
22106		-5.398988	-11.423709	-19.132085
22107		-5.627343	-11.415504	-19.595832
22108		-5.768168	-11.413125	-20.073782
22109		-5.813561	-11.427351	-20.570772
22110		-5.774564	-11.449953	-21.093624
22111		-5.697212	-11.465394	-21.631390
22112		-5.621516	-11.459749	-22.193249
22113		-5.594007	-11.425412	-22.771977
22114		-5.612883	-11.382181	-23.360699
22115		-5.673525	-11.340084	-23.950360
22116		-5.730477	-11.298008	-24.538121
22117		-5.763366	-11.276817	-25.110947
22118		-5.763865	-11.283992	-25.672344
22119		-5.763957	-11.316807	-26.219923
22120		-5.792621	-11.360079	-26.760224
22121		-5.875150	-11.393564	-27.294262
22122		-5.995642	-11.428136	-27.830914
22123		-6.115117	-11.476418	-28.371879
22124		-6.179845	-11.532441	-28.924521
22125		-6.206440	-11.578706	-29.494182
22126		-6.228129	-11.599459	-30.079537
22127		-6.331013	-11.575335	-30.660249
22128		-6.576985	-11.513196	-31.222006
22129		-6.928431	-11.436583	-31.768320
22130		-7.278216	-11.383845	-32.332892
22131		-7.522274	-11.373261	-32.925661
22132		-7.578930	-11.407397	-33.557425
22133		-7.467959	-11.460624	-34.219663
22134		-7.289470	-11.501486	-34.891001
22135		-7.165781	-11.517682	-35.541456
22136		-7.157712	-11.517154	-36.153805
22137		-7.273479	-11.520383	-36.729934
22138		-7.429014	-11.547001	-37.290871
22139		-7.535655	-11.595505	-37.857353
22140		-7.563812	-11.649025	-38.440254
22141		-7.567536	-11.696869	-39.030827
22142		-7.585151	-11.738418	-39.622535
22143		-7.642645	-11.767643	-40.202347
22144		-7.727710	-11.787712	-40.770332
22145		-7.814061	-11.798372	-41.328444
22146		-7.854282	-11.813480	-41.896173
22147		-7.833473	-11.844336	-42.487133
22148		-7.752042	-11.893213	-43.120289
22149		-7.664570	-11.936720	-43.792541
22150		-7.599835	-11.953303	-44.480760
22151		-7.622475	-11.937179	-45.146776
22152		-7.762459	-11.907244	-45.767200
22153		-8.013996	-11.886056	-46.328328
22154		-8.293673	-11.887588	-46.861670
22155		-8.512453	-11.916402	-47.400463
22156		-8.606494	-11.973416	-47.961822
22157		-8.591962	-12.060815	-48.559105
22158		-8.499337	-12.147454	-49.205564
22159		-8.359156	-12.194213	-49.886975
22160		-8.228544	-12.180186	-50.570204
22161		-8.156056	-12.126955	-51.232535
22162		-8.139124	-12.057020	-51.872885
22163		-8.125836	-11.996995	-52.506587
22164		-8.050827	-11.966805	-53.153241
22165		-7.903287	-11.968122	-53.835232
22166		-7.683262	-11.994154	-54.555292
22167		-7.463403	-12.024813	-55.283600
22168		-7.286419	-12.047674	-55.992351
22169		-7.171347	-12.070283	-56.670825
22170		-7.075429	-12.109287	-57.329346
22171		-6.941159	-12.171748	-57.995739
22172		-6.735573	-12.245417	-58.690974
22173		-6.503748	-12.304579	-59.407065
22174		-6.310920	-12.334316	-60.119965
22175		-6.216281	-12.345934	-60.807552
22176		-6.209810	-12.368396	-61.460022
22177		-6.239376	-12.393477	-62.090253
22178		-6.203936	-12.432139	-62.711630
22179		-6.069158	-12.482599	-63.342692
22180		-5.872685	-12.548815	-64.000336
22181		-5.704334	-12.603268	-64.671396
22182		-5.613565	-12.623834	-65.323310
22183		-5.628978	-12.617512	-65.938170
22184		-5.704235	-12.605393	-66.513530
22185		-5.851248	-12.593251	-67.044619
22186		-6.003115	-12.571021	-67.543387
22187		-6.138268	-12.550404	-68.040413
22188		-6.215063	-12.519859	-68.559209
22189		-6.230803	-12.484151	-69.113456
22190		-6.204598	-12.442368	-69.686362
22191		-6.169821	-12.409710	-70.276076
22192		-6.124000	-12.405674	-70.849615
22193		-6.005270	-12.427354	-71.405145
22194		-5.793879	-12.484144	-71.927264
22195		-5.489448	-12.561839	-72.445476
22196		-5.180997	-12.652387	-72.983568
22197		-4.997480	-12.731281	-73.545780
22198		-5.021603	-12.770800	-74.124256
22199		-5.217650	-12.729987	-74.677760
22200		-5.488004	-12.653756	-75.206070
22201		-5.740583	-12.576314	-75.721865
22202		-5.924046	-12.510298	-76.204999
22203		-6.028847	-12.452022	-76.656609
22204		-6.038927	-12.423541	-77.111097
22205		-5.942081	-12.431248	-77.593368
22206		-5.746307	-12.454366	-78.089423
22207		-5.491482	-12.482671	-78.595197
22208		-5.172107	-12.520144	-79.113195
22209		-4.774093	-12.578224	-79.646444
22210		-4.310264	-12.647675	-80.195654
22211		-3.854715	-12.687088	-80.763748
22212		-3.478850	-12.674511	-81.317382
22213		-3.215641	-12.621573	-81.859030
22214		-3.011324	-12.548586	-82.392579
22215		-2.777166	-12.477670	-82.918822
22216		-2.487788	-12.424010	-83.447426
22217		-2.221700	-12.373605	-83.972726
22218		-2.040616	-12.328654	-84.453457
22219		-1.980498	-12.277853	-84.885911
22220		-1.986215	-12.212615	-85.293549
22221		-1.987664	-12.137965	-85.685294
22222		-1.922696	-12.055831	-86.059236
22223		-1.748937	-11.973604	-86.438083
22224		-1.439529	-11.911668	-86.831702
22225		-1.063929	-11.878931	-87.258076
22226		-0.705819	-11.850895	-87.691191
22227		-0.456327	-11.805743	-88.105593
22228		-0.342952	-11.742384	-88.492399
22229		-0.323416	-11.677878	-88.854581
22230		-0.299520	-11.611043	-89.192149
22231		-0.223958	-11.555541	-89.509570
22232		-0.109166	-11.506178	-89.804151
22233		0.004308	-11.442896	-90.098877
22234		0.085696	-11.358324	-90.391940
22235		0.141686	-11.271101	-90.677676
22236		0.187592	-11.195196	-90.946318
22237		0.264630	-11.140068	-91.203630
22238		0.396380	-11.112963	-91.425230
22239		0.571711	-11.098477	-91.623947
22240		0.738892	-11.080301	-91.794671
22241		0.856622	-11.038674	-91.952297
22242		0.915794	-10.978091	-92.085766
22243		0.934766	-10.923844	-92.195330
22244		0.926894	-10.888749	-92.284368
22245		0.936604	-10.880697	-92.373119
22246		0.991291	-10.872356	-92.460098
22247		1.084607	-10.850715	-92.555914
22248		1.150543	-10.805769	-92.633665
22249		1.138085	-10.752534	-92.664444
22250		1.049058	-10.698167	-92.646566
22251		0.940731	-10.643712	-92.610159
22252		0.858858	-10.603553	-92.548007
22253		0.817696	-10.594728	-92.480239
22254		0.803338	-10.602693	-92.434402
22255		0.829062	-10.613335	-92.425562
22256		0.880010	-10.615646	-92.426620
22257		0.921910	-10.602984	-92.409590
22258		0.922225	-10.574259	-92.351376
22259		0.885494	-10.548252	-92.266541
22260		0.857651	-10.543351	-92.156604
22261		0.867292	-10.553027	-92.052515
22262		0.883361	-10.560835	-91.979821
22263		0.888920	-10.552073	-91.925533
22264		0.870407	-10.525655	-91.849554
22265		0.838418	-10.481987	-91.755695
22266		0.814578	-10.427348	-91.625984
22267		0.816897	-10.384310	-91.463986
22268		0.846215	-10.370657	-91.265380
22269		0.890634	-10.391836	-91.059152
22270		0.934178	-10.424999	-90.848380
22271		0.944355	-10.445991	-90.651875
22272		0.904319	-10.435902	-90.463437
22273		0.844044	-10.399156	-90.275360
22274		0.795719	-10.349019	-90.058977
22275		0.800111	-10.307619	-89.827935
22276		0.868788	-10.296520	-89.580233
22277		0.966180	-10.320874	-89.331513
22278		1.036646	-10.361345	-89.065695
22279		1.073410	-10.398392	-88.799188
22280		1.083744	-10.415199	-88.534297
22281		1.075206	-10.405592	-88.263379
22282		1.034233	-10.369967	-87.952140
22283		0.980448	-10.317303	-87.618284
22284		0.918265	-10.272171	-87.265901
22285		0.847914	-10.249149	-86.900098
22286		0.733385	-10.245939	-86.506410
22287		0.595296	-10.257044	-86.106678
22288		0.471927	-10.279464	-85.702917
22289		0.414753	-10.305195	-85.317858
22290		0.426546	-10.320934	-84.923742
22291		0.469203	-10.321612	-84.519694
22292		0.500823	-10.305643	-84.100401
22293		0.511838	-10.299235	-83.666111
22294		0.487409	-10.312021	-83.201504
22295		0.431592	-10.351220	-82.718673
22296		0.366009	-10.417094	-82.215701
22297		0.322662	-10.497492	-81.719282
22298		0.294641	-10.578120	-81.231334
22299		0.294841	-10.652798	-80.749665
22300		0.302635	-10.703902	-80.252817
22301		0.317720	-10.734299	-79.759922
22302		0.318100	-10.762773	-79.257039
22303		0.289966	-10.790265	-78.730515
22304		0.212861	-10.809822	-78.161131
22305		0.127852	-10.832729	-77.573337
22306		0.073788	-10.853823	-76.981462
22307		0.089264	-10.874406	-76.421675
22308		0.193222	-10.891975	-75.884889
22309		0.382047	-10.918528	-75.377749
22310		0.591081	-10.944452	-74.888792
22311		0.738998	-10.968597	-74.401766
22312		0.761825	-10.988425	-73.881187
22313		0.673078	-11.013490	-73.330093
22314		0.519643	-11.044975	-72.746280
22315		0.364061	-11.092655	-72.143853
22316		0.253352	-11.153927	-71.536061
22317		0.217449	-11.221655	-70.952011
22318		0.255741	-11.278329	-70.386770
22319		0.368097	-11.313428	-69.837924
22320		0.463034	-11.321697	-69.283529
22321		0.473554	-11.317856	-68.719716
22322		0.359854	-11.321758	-68.126538
22323		0.143737	-11.348656	-67.500317
22324		-0.135587	-11.403474	-66.833936
22325		-0.392428	-11.470618	-66.153133
22326		-0.584968	-11.534725	-65.469503
22327		-0.682688	-11.588291	-64.810548
22328		-0.689404	-11.625399	-64.184074
22329		-0.627151	-11.642928	-63.600477
22330		-0.589374	-11.654204	-63.028747
22331		-0.612392	-11.672024	-62.439483
22332		-0.697159	-11.697608	-61.820765
22333		-0.796051	-11.742286	-61.185312
22334		-0.876794	-11.802115	-60.530701
22335		-0.901657	-11.876376	-59.892377
22336		-0.854066	-11.947668	-59.286189
22337		-0.750988	-11.996241	-58.705640
22338		-0.672644	-12.010746	-58.125655
22339		-0.643482	-11.999849	-57.541175
22340		-0.667808	-11.985692	-56.934511
22341		-0.707658	-11.978192	-56.304076
22342		-0.726194	-11.996282	-55.660453
22343		-0.697404	-12.037966	-55.018851
22344		-0.653370	-12.089565	-54.386670
22345		-0.656265	-12.128934	-53.761303
22346		-0.752703	-12.141789	-53.126820
22347		-0.909512	-12.143866	-52.490987
22348		-1.086988	-12.156751	-51.840684
22349		-1.211920	-12.197471	-51.194002
22350		-1.249894	-12.267492	-50.551311
22351		-1.170650	-12.347991	-49.921680
22352		-1.030142	-12.416975	-49.295254
22353		-0.915062	-12.455923	-48.658913
22354		-0.909653	-12.464934	-47.989294
22355		-0.986638	-12.466148	-47.303928
22356		-1.093196	-12.481247	-46.609633
22357		-1.176373	-12.522413	-45.911756
22358		-1.203090	-12.594768	-45.229079
22359		-1.120051	-12.685818	-44.589107
22360		-0.940088	-12.766753	-43.986731
22361		-0.745348	-12.815522	-43.400398
22362		-0.660379	-12.811155	-42.789021
22363		-0.720312	-12.779127	-42.133826
22364		-0.882150	-12.738571	-41.432034
22365		-1.060962	-12.724279	-40.702030
22366		-1.199259	-12.753446	-39.956279
22367		-1.231208	-12.828768	-39.229307
22368		-1.130835	-12.933024	-38.545472
22369		-0.956020	-13.012188	-37.908304
22370		-0.841796	-13.035861	-37.277927
22371		-0.867310	-13.003950	-36.638277
22372		-1.012320	-12.938764	-35.970431
22373		-1.179792	-12.883807	-35.289557
22374		-1.318330	-12.858570	-34.596860
22375		-1.382669	-12.870503	-33.921759
22376		-1.328706	-12.909783	-33.285522
22377		-1.151258	-12.932736	-32.694002
22378		-0.947156	-12.917681	-32.109930
22379		-0.783961	-12.879114	-31.516727
22380		-0.682840	-12.840876	-30.904619
22381		-0.588956	-12.811285	-30.290004
22382		-0.462002	-12.807595	-29.683653
22383		-0.312498	-12.825996	-29.092531
22384		-0.215394	-12.852594	-28.497878
22385		-0.206747	-12.872402	-27.894269
22386		-0.267253	-12.884628	-27.279830
22387		-0.332263	-12.882958	-26.656661
22388		-0.384217	-12.864516	-26.026045
22389		-0.401516	-12.840127	-25.400993
22390		-0.400993	-12.824501	-24.781979
22391		-0.373257	-12.819395	-24.180662
22392		-0.391989	-12.799400	-23.574378
22393		-0.517033	-12.756246	-22.952398
22394		-0.771387	-12.700777	-22.307168
22395		-1.103238	-12.654977	-21.640648
22396		-1.481447	-12.641276	-20.957168
22397		-1.834788	-12.655835	-20.272162
22398		-2.104374	-12.688495	-19.604140
22399		-2.240576	-12.717530	-18.967471
22400		-2.258219	-12.741762	-18.353007
22401		-2.229948	-12.727974	-17.765746
22402		-2.244468	-12.679652	-17.205181
22403		-2.310538	-12.610323	-16.664439
22404		-2.415732	-12.579571	-16.132587
22405		-2.482032	-12.590074	-15.612395
22406		-2.477620	-12.642877	-15.106286
22407		-2.377343	-12.710177	-14.620566
22408		-2.203934	-12.772222	-14.151457
22409		-2.018134	-12.821519	-13.692565
22410		-1.885817	-12.858438	-13.227877
22411		-1.832555	-12.888117	-12.733416
22412		-1.859307	-12.912699	-12.209608
22413		-1.931394	-12.936964	-11.671916
22414		-1.996483	-12.967654	-11.139431
22415		-2.014148	-13.011141	-10.625053
22416		-1.979142	-13.061042	-10.135165
22417		-1.899656	-13.097353	-9.674539
22418		-1.816080	-13.117850	-9.234607
22419		-1.741680	-13.124663	-8.813429
22420		-1.721876	-13.125838	-8.386437
22421		-1.786530	-13.115685	-7.928987
22422		-1.973925	-13.106802	-7.419908
22423		-2.225174	-13.122287	-6.888607
22424		-2.461638	-13.159796	-6.371692
22425		-2.596647	-13.200117	-5.898534
22426		-2.629772	-13.225221	-5.467007
22427		-2.572504	-13.237146	-5.076179
22428		-2.430608	-13.236008	-4.707824
22429		-2.207280	-13.228486	-4.349678
22430		-1.924562	-13.220140	-3.991928
22431		-1.618639	-13.215813	-3.624393
22432		-1.355167	-13.211346	-3.240362
22433		-1.188565	-13.206200	-2.832777
22434		-1.163809	-13.206913	-2.407118
22435		-1.265092	-13.213637	-1.981436
22436		-1.418631	-13.230051	-1.562588
22437		-1.572904	-13.254152	-1.152737
22438		-1.693878	-13.288105	-0.757352
22439		-1.767391	-13.323158	-0.376755
22440		-1.809014	-13.341246	-0.000998
22441		-1.845154	-13.348228	0.365699
22442		-1.905429	-13.356700	0.709569
22443		-1.979241	-13.374423	1.024377
22444		-2.052691	-13.400961	1.310437
22445		-2.103156	-13.429472	1.557579
22446		-2.127044	-13.453816	1.768192
22447		-2.132941	-13.456999	1.956198
22448		-2.139689	-13.425394	2.135638
22449		-2.163588	-13.357144	2.319109
22450		-2.189834	-13.276483	2.495041
22451		-2.183661	-13.203141	2.649884
22452		-2.122047	-13.147058	2.795719
22453		-2.015818	-13.118787	2.937270
22454		-1.913570	-13.104502	3.071087
22455		-1.851028	-13.106333	3.205934
22456		-1.856667	-13.105776	3.351220
22457		-1.931431	-13.095514	3.513545
22458		-2.065378	-13.084397	3.685773
22459		-2.237465	-13.085957	3.858763
22460		-2.427189	-13.118399	4.030506
22461		-2.587258	-13.184106	4.183861
22462		-2.652650	-13.257644	4.303214
22463		-2.583049	-13.322939	4.380024
22464		-2.435661	-13.364549	4.414111
22465		-2.285140	-13.374038	4.410093
22466		-2.191092	-13.356399	4.379316
22467		-2.170068	-13.314774	4.334150
22468		-2.203198	-13.259629	4.283900
22469		-2.243249	-13.201143	4.234111
22470		-2.267197	-13.139856	4.187175
22471		-2.262350	-13.084028	4.137295
22472		-2.240897	-13.040153	4.085784
22473		-2.226922	-13.007710	4.035883
22474		-2.214622	-12.974684	3.989924
22475		-2.188499	-12.939257	3.941724
22476		-2.137287	-12.923860	3.893015
22477		-2.071325	-12.900979	3.854306
22478		-1.994504	-12.874402	3.825515
22479		-1.932462	-12.845394	3.809777
22480		-1.898029	-12.819942	3.811959
22481		-1.905783	-12.794471	3.832287
22482		-1.952142	-12.768181	3.863176
22483		-2.024596	-12.742508	3.897039
22484		-2.136276	-12.709663	3.930316
22485		-2.286099	-12.681751	3.961495
22486		-2.460296	-12.666642	3.977163
22487		-2.622049	-12.674908	3.973175
22488		-2.720192	-12.695997	3.932384
22489		-2.738166	-12.714824	3.858961
22490		-2.699548	-12.747900	3.743358
22491		-2.674179	-12.771788	3.607964
22492		-2.694649	-12.785569	3.465336
22493		-2.792505	-12.788677	3.327883
22494		-2.916934	-12.764986	3.191523
22495		-3.034966	-12.754279	3.064680
22496		-3.141477	-12.767973	2.914055
22497		-3.195301	-12.816069	2.750736
22498		-3.210298	-12.887172	2.546491
22499		-3.213940	-12.966110	2.315948
22500		-3.214797	-13.044673	2.064931
22501		-3.244673	-13.104373	1.802786
22502		-3.253320	-13.136695	1.519897
22503		-3.234493	-13.140753	1.207677
22504		-3.173739	-13.146069	0.879571
22505		-3.115696	-13.154157	0.544773
22506		-3.070304	-13.163038	0.210300
22507		-3.074011	-13.177028	-0.114021
22508		-3.118032	-13.196979	-0.433548
22509		-3.168443	-13.223160	-0.758579
22510		-3.189654	-13.256495	-1.093615
22511		-3.163372	-13.299569	-1.441782
22512		-3.095069	-13.355616	-1.817288
22513		-3.013083	-13.402408	-2.214633
22514		-2.951450	-13.433312	-2.634696
22515		-2.972951	-13.425311	-3.061457
22516		-3.095276	-13.382871	-3.490976
22517		-3.281726	-13.323741	-3.915802
22518		-3.459725	-13.247846	-4.348148
22519		-3.586094	-13.165289	-4.793574
22520		-3.632736	-13.100163	-5.269657
22521		-3.625256	-13.050041	-5.788719
22522		-3.607248	-13.017530	-6.348017
22523		-3.648720	-12.996205	-6.929919
22524		-3.743771	-12.964651	-7.530152
22525		-3.831587	-12.916498	-8.131569
22526		-3.884235	-12.852578	-8.742506
22527		-3.886591	-12.789360	-9.341547
22528		-3.839751	-12.740143	-9.938915
22529		-3.812945	-12.698853	-10.517166
22530		-3.824251	-12.653620	-11.067653
22531		-3.945507	-12.617091	-11.590046
22532		-4.133633	-12.587281	-12.087958
22533		-4.322593	-12.556165	-12.573113
22534		-4.473438	-12.527961	-13.063557
22535		-4.545465	-12.514593	-13.556245
22536		-4.521935	-12.521642	-14.069387
22537		-4.481100	-12.538597	-14.590712
22538		-4.450353	-12.546379	-15.125722
22539		-4.489065	-12.525651	-15.640802
22540		-4.585536	-12.498044	-16.141538
22541		-4.755629	-12.470984	-16.628917
22542		-4.922398	-12.450448	-17.125176
22543		-5.013491	-12.439791	-17.628923
22544		-4.999622	-12.455242	-18.150783
22545		-4.934969	-12.468142	-18.678876
22546		-4.860832	-12.469955	-19.212786
22547		-4.838520	-12.451807	-19.753060
22548		-4.877553	-12.423074	-20.293583
22549		-4.987207	-12.383171	-20.832375
22550		-5.124889	-12.332435	-21.372656
22551		-5.241158	-12.285062	-21.912162
22552		-5.302119	-12.247454	-22.458557
22553		-5.326414	-12.220442	-23.009204
22554		-5.338291	-12.211268	-23.552640
22555		-5.344472	-12.213903	-24.077742
22556		-5.362686	-12.208180	-24.588167
22557		-5.396781	-12.194541	-25.080065
22558		-5.457429	-12.164821	-25.553287
22559		-5.563861	-12.131944	-26.013012
22560		-5.659982	-12.108691	-26.462150
22561		-5.731137	-12.109208	-26.912761
22562		-5.738009	-12.127547	-27.365615
22563		-5.676172	-12.145183	-27.819597
22564		-5.579583	-12.156944	-28.278026
22565		-5.479854	-12.161849	-28.733951
22566		-5.457858	-12.140554	-29.173036
22567		-5.567318	-12.097327	-29.583421
22568		-5.852028	-12.032871	-29.955744
22569		-6.267438	-11.966793	-30.297786
22570		-6.701188	-11.917836	-30.620449
22571		-7.052818	-11.906864	-30.930433
22572		-7.241140	-11.957829	-31.276085
22573		-7.285992	-12.035992	-31.669594
22574		-7.276872	-12.105201	-32.113082
22575		-7.307983	-12.120971	-32.596497
22576		-7.417050	-12.098587	-33.108566
22577		-7.609055	-12.045145	-33.641222
22578		-7.806124	-11.997029	-34.187350
22579		-7.953890	-11.962846	-34.750237
22580		-8.017499	-11.961325	-35.341971
22581		-8.034260	-11.982081	-35.948394
22582		-8.025482	-12.012108	-36.569125
22583		-8.031276	-12.028224	-37.190205
22584		-8.066769	-12.023766	-37.809832
22585		-8.136075	-12.017619	-38.421751
22586		-8.179735	-12.034337	-39.045473
22587		-8.160400	-12.085608	-39.686914
22588		-8.098690	-12.154678	-40.348980
22589		-8.038019	-12.209595	-41.020151
22590		-8.014474	-12.224728	-41.686562
22591		-8.085718	-12.206701	-42.329130
22592		-8.267932	-12.185581	-42.940678
22593		-8.540583	-12.175302	-43.520738
22594		-8.799493	-12.191958	-44.093382
22595		-8.975461	-12.242808	-44.681611
22596		-9.039552	-12.330345	-45.290692
22597		-9.054580	-12.429167	-45.921975
22598		-9.048501	-12.497131	-46.561340
22599		-9.054077	-12.530154	-47.198841
22600		-9.076187	-12.539577	-47.824829
22601		-9.124381	-12.560548	-48.433169
22602		-9.179870	-12.595164	-49.031336
22603		-9.220290	-12.644392	-49.631955
22604		-9.179702	-12.717549	-50.261542
22605		-9.034771	-12.795192	-50.939696
22606		-8.789593	-12.863345	-51.648001
22607		-8.532696	-12.894974	-52.364949
22608		-8.289323	-12.898514	-53.057974
22609		-8.109984	-12.886808	-53.737658
22610		-7.997905	-12.872318	-54.396351
22611		-7.917942	-12.866759	-55.039632
22612		-7.801196	-12.878157	-55.680401
22613		-7.607906	-12.920037	-56.329838
22614		-7.379898	-12.967730	-56.985819
22615		-7.164651	-12.990928	-57.631356
22616		-6.997882	-12.989925	-58.251727
22617		-6.892790	-12.962627	-58.835649
22618		-6.835591	-12.925337	-59.381311
22619		-6.792941	-12.888287	-59.914686
22620		-6.708069	-12.863701	-60.451061
22621		-6.535028	-12.861937	-61.000839
22622		-6.245928	-12.889606	-61.578619
22623		-5.882290	-12.936794	-62.182303
22624		-5.491213	-12.960644	-62.798265
22625		-5.145224	-12.964446	-63.405538
22626		-4.838851	-12.923357	-63.976813
22627		-4.604322	-12.858111	-64.543250
22628		-4.443989	-12.815181	-65.105403
22629		-4.277912	-12.822098	-65.704630
22630		-4.082920	-12.785635	-66.316432
22631		-3.898229	-12.665313	-66.926316
22632		-3.834212	-12.464524	-67.525539
22633		-3.952034	-12.224880	-68.085535
22634		-4.188183	-11.973274	-68.619130
22635		-4.453832	-11.742688	-69.168921
22636		-4.653263	-11.543000	-69.743834
22637		-4.743257	-11.380889	-70.350186
22638		-4.696069	-11.267279	-70.982945
22639		-4.553986	-11.189993	-71.624116
22640		-4.335913	-11.128943	-72.253485
22641		-4.096161	-11.056854	-72.865290
22642		-3.832108	-10.976109	-73.450597
22643		-3.555972	-10.908241	-74.036068
22644		-3.256749	-10.863432	-74.639739
22645		-2.949030	-10.829845	-75.268615
22646		-2.631122	-10.788936	-75.907740
22647		-2.330566	-10.717905	-76.546215
22648		-2.072118	-10.614280	-77.162519
22649		-1.891900	-10.488969	-77.754156
22650		-1.774156	-10.364702	-78.317689
22651		-1.626485	-10.261326	-78.851671
22652		-1.332529	-10.196043	-79.377428
22653		-0.845639	-10.177908	-79.940218
22654		-0.201354	-10.217447	-80.564048
22655		0.498857	-10.247150	-81.209187
22656		1.095985	-10.220420	-81.828166
22657		1.426621	-10.116486	-82.395234
22658		1.463511	-9.979316	-82.886859
22659		1.332163	-9.849515	-83.321962
22660		1.179520	-9.748190	-83.708685
22661		1.145812	-9.683265	-84.088616
22662		1.289915	-9.676997	-84.488722
22663		1.575088	-9.684651	-84.908344
22664		1.911195	-9.678832	-85.328504
22665		2.216368	-9.645587	-85.739692
22666		2.475631	-9.600516	-86.118425
22667		2.719289	-9.561806	-86.474235
22668		2.998176	-9.547944	-86.806642
22669		3.312104	-9.561284	-87.115840
22670		3.625083	-9.588918	-87.397469
22671		3.882941	-9.611266	-87.665984
22672		4.027208	-9.601908	-87.921624
22673		4.059835	-9.515994	-88.154769
22674		3.999173	-9.354540	-88.354982
22675		3.891028	-9.181323	-88.540424
22676		3.775826	-9.010123	-88.698524
22677		3.729968	-8.882191	-88.842451
22678		3.778149	-8.793953	-89.001129
22679		3.926468	-8.735354	-89.185142
22680		4.111597	-8.679811	-89.374523
22681		4.274678	-8.611199	-89.554565
22682		4.351862	-8.530146	-89.704547
22683		4.331669	-8.450427	-89.812775
22684		4.262873	-8.396354	-89.872798
22685		4.231612	-8.372807	-89.891697
22686		4.280599	-8.370222	-89.898286
22687		4.422260	-8.373368	-89.919914
22688		4.604997	-8.373572	-89.950999
22689		4.763900	-8.364864	-89.987378
22690		4.865069	-8.337945	-90.024455
22691		4.902955	-8.293434	-90.039651
22692		4.844645	-8.255146	-89.994500
22693		4.706977	-8.220450	-89.896019
22694		4.520866	-8.201103	-89.757357
22695		4.372032	-8.210655	-89.604354
22696		4.317235	-8.246095	-89.473284
22697		4.351930	-8.272540	-89.378617
22698		4.399291	-8.268556	-89.306148
22699		4.424347	-8.234621	-89.239938
22700		4.402875	-8.173045	-89.159166
22701		4.345022	-8.098604	-89.048702
22702		4.271021	-8.025874	-88.899231
22703		4.211587	-7.971725	-88.713111
22704		4.161889	-7.958270	-88.492905
22705		4.093464	-7.982632	-88.253336
22706		3.942930	-8.018939	-87.987944
22707		3.705249	-8.035407	-87.698117
22708		3.423800	-8.022413	-87.377015
22709		3.154518	-7.995171	-87.040294
22710		2.938792	-7.956989	-86.689159
22711		2.798056	-7.918390	-86.326462
22712		2.723426	-7.898784	-85.948839
22713		2.704218	-7.904226	-85.571107
22714		2.689866	-7.931979	-85.168242
22715		2.641232	-7.970225	-84.731673
22716		2.544531	-8.013772	-84.262772
22717		2.458306	-8.060110	-83.774618
22718		2.423761	-8.110216	-83.263584
22719		2.481380	-8.174104	-82.755750
22720		2.608351	-8.252034	-82.246897
22721		2.776397	-8.332606	-81.739993
22722		2.907269	-8.407099	-81.211232
22723		2.972539	-8.471345	-80.664871
22724		2.946424	-8.525153	-80.087631
22725		2.867279	-8.576721	-79.494795
22726		2.763419	-8.626652	-78.875214
22727		2.663148	-8.682870	-78.250953
22728		2.562439	-8.737853	-77.621716
22729		2.471396	-8.791884	-76.993534
22730		2.400050	-8.836344	-76.364839
22731		2.354662	-8.867871	-75.743854
22732		2.309242	-8.891418	-75.123475
22733		2.261457	-8.922853	-74.516198
22734		2.196900	-8.967812	-73.898411
22735		2.124102	-9.021549	-73.283781
22736		2.051207	-9.081338	-72.666761
22737		2.020332	-9.142116	-72.052427
22738		2.032095	-9.193507	-71.432631
22739		2.098737	-9.250640	-70.814511
22740		2.176944	-9.304528	-70.182115
22741		2.266753	-9.377885	-69.545256
22742		2.373580	-9.475349	-68.916143
22743		2.554579	-9.598542	-68.323315
22744		2.810823	-9.727008	-67.736527
22745		3.119203	-9.841480	-67.154804
22746		3.412228	-9.930607	-66.574923
22747		3.659799	-10.005642	-66.003102
22748		3.813898	-10.063763	-65.413193
22749		3.868443	-10.104154	-64.803642
22750		3.855157	-10.135515	-64.173965
22751		3.835859	-10.178731	-63.560250
22752		3.820437	-10.247040	-62.961940
22753		3.832944	-10.341533	-62.387712
22754		3.865272	-10.435872	-61.814576
22755		3.924523	-10.499513	-61.248488
22756		3.994837	-10.547342	-60.674369
22757		4.049624	-10.583305	-60.087706
22758		4.048798	-10.629199	-59.458772
22759		4.004997	-10.701462	-58.804489
22760		3.922430	-10.823431	-58.134676
22761		3.868548	-10.995825	-57.483176
22762		3.883631	-11.195374	-56.846792
22763		4.007751	-11.399005	-56.234847
22764		4.213438	-11.569668	-55.628170
22765		4.442185	-11.693258	-55.014465
22766		4.619860	-11.779943	-54.378734
22767		4.733592	-11.849590	-53.721110
22768		4.807256	-11.919915	-53.039749
22769		4.894029	-12.005840	-52.355625
22770		5.012539	-12.104139	-51.668909
22771		5.170677	-12.202287	-50.986822
22772		5.325725	-12.287754	-50.299932
22773		5.424561	-12.357949	-49.594923
22774		5.415216	-12.412352	-48.855689
22775		5.326639	-12.453376	-48.093937
22776		5.208818	-12.485807	-47.308859
22777		5.116678	-12.533632	-46.528227
22778		5.044869	-12.606813	-45.767656
22779		5.018355	-12.698351	-45.048889
22780		5.058377	-12.790858	-44.368626
22781		5.196901	-12.860551	-43.711766
22782		5.389350	-12.908539	-43.050850
22783		5.582548	-12.927494	-42.376063
22784		5.698186	-12.926113	-41.678898
22785		5.731886	-12.914865	-40.971014
22786		5.700642	-12.912937	-40.258869
22787		5.637126	-12.938613	-39.549169
22788		5.528836	-13.000454	-38.831147
22789		5.410541	-13.085775	-38.113349
22790		5.289743	-13.163756	-37.388933
22791		5.189042	-13.219346	-36.659374
22792		5.078176	-13.249539	-35.912636
22793		4.960688	-13.274515	-35.157181
22794		4.836254	-13.319500	-34.398470
22795		4.736062	-13.389348	-33.646434
22796		4.676975	-13.476515	-32.904838
22797		4.676156	-13.559556	-32.182281
22798		4.681144	-13.620929	-31.459791
22799		4.632608	-13.655055	-30.722075
22800		4.496208	-13.686245	-29.959896
22801		4.304865	-13.724523	-29.184308
22802		4.115657	-13.784415	-28.405992
22803		3.961461	-13.871642	-27.640433
22804		3.835854	-13.978053	-26.877986
22805		3.750394	-14.083876	-26.121549
22806		3.672654	-14.181611	-25.368646
22807		3.564375	-14.269277	-24.621018
22808		3.379693	-14.348234	-23.859916
22809		3.140410	-14.410883	-23.093886
22810		2.889272	-14.458399	-22.328844
22811		2.664353	-14.504583	-21.576504
22812		2.464602	-14.564520	-20.829417
22813		2.320903	-14.642459	-20.097539
22814		2.251785	-14.733028	-19.384414
22815		2.283553	-14.831682	-18.699209
22816		2.374007	-14.920272	-18.040812
22817		2.446641	-15.007089	-17.388322
22818		2.464366	-15.077780	-16.740886
22819		2.428019	-15.142371	-16.108368
22820		2.381116	-15.189964	-15.487256
22821		2.341617	-15.226879	-14.882343
22822		2.320077	-15.250330	-14.287295
22823		2.334533	-15.269236	-13.733002
22824		2.356953	-15.278152	-13.193889
22825		2.377581	-15.269152	-12.656607
22826		2.357032	-15.236889	-12.103648
22827		2.311850	-15.203848	-11.553250
22828		2.255254	-15.177242	-11.008158
22829		2.237635	-15.171812	-10.477549
22830		2.258758	-15.184863	-9.966533
22831		2.301261	-15.214989	-9.480584
22832		2.326319	-15.259464	-9.002345
22833		2.288438	-15.298517	-8.518936
22834		2.154993	-15.313946	-8.005934
22835		1.943916	-15.302701	-7.465115
22836		1.684425	-15.288577	-6.913250
22837		1.416217	-15.285910	-6.376017
22838		1.155423	-15.305461	-5.845876
22839		0.927919	-15.342711	-5.329011
22840		0.734781	-15.393560	-4.838499
22841		0.574565	-15.448966	-4.369128
22842		0.419607	-15.464721	-3.892465
22843		0.249814	-15.429101	-3.408335
22844		0.053311	-15.330914	-2.921433
22845		-0.147352	-15.210044	-2.441768
22846		-0.310163	-15.099913	-1.986087
22847		-0.354529	-15.041349	-1.554625
22848		-0.265048	-15.033723	-1.159848
22849		-0.091096	-15.072255	-0.791838
22850		0.115932	-15.099291	-0.437651
22851		0.284869	-15.102941	-0.081432
22852		0.367912	-15.083889	0.278788
22853		0.374589	-15.065144	0.638733
22854		0.335745	-15.059992	0.979704
22855		0.304473	-15.062194	1.283602
22856		0.313693	-15.061932	1.554613
22857		0.361739	-15.049373	1.789459
22858		0.406657	-15.020326	1.999084
22859		0.410352	-14.978822	2.202275
22860		0.344597	-14.937474	2.419388
22861		0.228548	-14.900680	2.655085
22862		0.084662	-14.875049	2.900658
22863		-0.065366	-14.866902	3.151322
22864		-0.209323	-14.880669	3.389643
22865		-0.329108	-14.912148	3.607498
22866		-0.405723	-14.952722	3.806998
22867		-0.437928	-14.984587	3.990782
22868		-0.450394	-15.007513	4.155419
22869		-0.466244	-15.025569	4.310029
22870		-0.481256	-15.061280	4.445698
22871		-0.477535	-15.104573	4.547260
22872		-0.454944	-15.143365	4.604368
22873		-0.434846	-15.155292	4.627670
22874		-0.440417	-15.132304	4.624055
22875		-0.478891	-15.076218	4.602557
22876		-0.531274	-15.004901	4.571568
22877		-0.587856	-14.928356	4.547010
22878		-0.656011	-14.856455	4.536354
22879		-0.738600	-14.794941	4.538451
22880		-0.844708	-14.753796	4.548233
22881		-0.977584	-14.733726	4.558486
22882		-1.113930	-14.731362	4.563975
22883		-1.231441	-14.738093	4.555913
22884		-1.293397	-14.757569	4.528470
22885		-1.292400	-14.778294	4.489435
22886		-1.239325	-14.789541	4.437851
22887		-1.169308	-14.797195	4.386266
22888		-1.117257	-14.801197	4.334128
22889		-1.098799	-14.797141	4.277099
22890		-1.117795	-14.772542	4.205556
22891		-1.180135	-14.720168	4.121351
22892		-1.264445	-14.648651	4.022068
22893		-1.349489	-14.571881	3.905065
22894		-1.418034	-14.507792	3.775043
22895		-1.462426	-14.464921	3.647923
22896		-1.473334	-14.444954	3.517976
22897		-1.474218	-14.436749	3.381678
22898		-1.497483	-14.426116	3.239795
22899		-1.566209	-14.407453	3.095762
22900		-1.658505	-14.389391	2.935708
22901		-1.762414	-14.370835	2.762927
22902		-1.858832	-14.356557	2.581123
22903		-1.952872	-14.348626	2.401368
22904		-2.050023	-14.343853	2.227163
22905		-2.170164	-14.341754	2.058044
22906		-2.327236	-14.337262	1.878516
