// General information: 
//  MT Manager version: 2022.2.0 
//  XDA version: 2022.2.0 build 7381 rev 124627 built on 2023-07-19
// Device information: 
//  DeviceId: 00B44805
//  ProductCode: MTW2-3A7G6
//  Firmware Version: 4.3.5
//  Hardware Version: 2.0.0
// Device settings: 
//  Filter Profile: human(46.1)
//  Option Flags: Orientation Smoother Disabled, Position/Velocity Smoother Disabled, Continuous Zero Rotation Update Disabled, AHS Disabled, ICC Disabled
// Coordinate system: ENU
PacketCounter	SampleTimeFine	Roll	Pitch	Yaw
19749		-1.546790	-1.842829	3.338292
19750		-1.610585	-1.827881	3.326068
19751		-1.675069	-1.815358	3.308348
19752		-1.777795	-1.819192	3.282127
19753		-1.895290	-1.845395	3.249628
19754		-1.984468	-1.882795	3.219902
19755		-2.005024	-1.928050	3.199279
19756		-1.949369	-1.971122	3.190134
19757		-1.815915	-2.011540	3.194317
19758		-1.634611	-2.048068	3.211271
19759		-1.425330	-2.082510	3.234576
19760		-1.202025	-2.116063	3.269310
19761		-1.014840	-2.162916	3.319820
19762		-0.858750	-2.208773	3.386684
19763		-0.675587	-2.246095	3.467466
19764		-0.482651	-2.272875	3.565085
19765		-0.275948	-2.298360	3.672147
19766		-0.078834	-2.309715	3.789643
19767		0.092162	-2.316205	3.916222
19768		0.205756	-2.325938	4.044809
19769		0.278472	-2.341777	4.178035
19770		0.311933	-2.353651	4.313564
19771		0.349547	-2.365950	4.440244
19772		0.355580	-2.372551	4.550036
19773		0.334112	-2.384373	4.636174
19774		0.282338	-2.397397	4.690567
19775		0.210813	-2.410903	4.710186
19776		0.105726	-2.430478	4.697437
19777		-0.012196	-2.464140	4.654340
19778		-0.113577	-2.495193	4.583866
19779		-0.172816	-2.530572	4.496528
19780		-0.171855	-2.559143	4.398191
19781		-0.072016	-2.591259	4.288530
19782		0.108413	-2.615071	4.161520
19783		0.369647	-2.632415	4.031913
19784		0.656154	-2.640317	3.894034
19785		0.923486	-2.659460	3.748150
19786		1.126707	-2.689121	3.604296
19787		1.251505	-2.740398	3.470274
19788		1.348664	-2.795587	3.350381
19789		1.418777	-2.869112	3.250866
19790		1.464298	-2.950754	3.167302
19791		1.475463	-3.054518	3.091548
19792		1.442220	-3.173541	3.021156
19793		1.410536	-3.311353	2.957428
19794		1.427053	-3.447444	2.899327
19795		1.493728	-3.587483	2.836726
19796		1.609532	-3.724269	2.772732
19797		1.786515	-3.852108	2.703921
19798		2.011692	-3.974689	2.631569
19799		2.266508	-4.097502	2.552167
19800		2.521302	-4.197289	2.466093
19801		2.746245	-4.275978	2.382080
19802		2.933128	-4.332434	2.305953
19803		3.103902	-4.357456	2.242002
19804		3.232483	-4.353948	2.190680
19805		3.292095	-4.335338	2.155954
19806		3.326434	-4.291936	2.130043
19807		3.302310	-4.231276	2.116654
19808		3.171269	-4.169960	2.107884
19809		2.950457	-4.114088	2.113546
19810		2.679081	-4.062883	2.121796
19811		2.363208	-4.026838	2.140442
19812		2.023156	-4.010534	2.164967
19813		1.744215	-3.995933	2.202754
19814		1.561822	-3.974007	2.256145
19815		1.471001	-3.949281	2.323821
19816		1.463714	-3.912418	2.393158
19817		1.494992	-3.868052	2.465305
19818		1.539700	-3.816166	2.524187
19819		1.576846	-3.762686	2.563543
19820		1.608992	-3.702715	2.580399
19821		1.651593	-3.629481	2.581321
19822		1.683336	-3.539922	2.564888
19823		1.670562	-3.450125	2.539928
19824		1.643560	-3.361907	2.510124
19825		1.636313	-3.268463	2.487257
19826		1.642667	-3.171393	2.472523
19827		1.633952	-3.081782	2.470171
19828		1.668244	-2.993039	2.473620
19829		1.752402	-2.905891	2.499299
19830		1.802892	-2.820690	2.534117
19831		1.807422	-2.754249	2.583467
19832		1.783604	-2.707801	2.639788
19833		1.757009	-2.675421	2.706152
19834		1.709078	-2.656687	2.772842
19835		1.656608	-2.647813	2.840343
19836		1.591802	-2.648811	2.896598
19837		1.508640	-2.657714	2.946025
19838		1.436195	-2.663216	2.984038
19839		1.413710	-2.662078	3.015005
19840		1.412560	-2.655731	3.032469
19841		1.413678	-2.653366	3.039473
19842		1.410576	-2.653875	3.031794
19843		1.391329	-2.658696	3.015038
19844		1.356526	-2.673327	2.990474
19845		1.321146	-2.699932	2.962349
19846		1.312700	-2.734171	2.939994
19847		1.337393	-2.777461	2.929761
19848		1.410772	-2.817982	2.928665
19849		1.565884	-2.850194	2.947321
19850		1.764122	-2.870892	2.980727
19851		1.968906	-2.886278	3.027871
19852		2.133654	-2.897367	3.078628
19853		2.246760	-2.907830	3.133384
19854		2.318296	-2.912042	3.187074
19855		2.353346	-2.916050	3.241588
19856		2.380620	-2.903210	3.285664
19857		2.418461	-2.875894	3.329048
19858		2.463421	-2.842917	3.364502
19859		2.468266	-2.808916	3.396146
19860		2.403829	-2.788758	3.420576
19861		2.313954	-2.774762	3.444788
19862		2.255361	-2.763275	3.471841
19863		2.273842	-2.745453	3.509389
19864		2.347195	-2.719392	3.550559
19865		2.449345	-2.682591	3.598297
19866		2.548215	-2.636680	3.640800
19867		2.621758	-2.583232	3.676139
19868		2.666675	-2.522197	3.695575
19869		2.653653	-2.462662	3.697610
19870		2.606285	-2.402709	3.681356
19871		2.547987	-2.342655	3.653529
19872		2.485850	-2.276934	3.615998
19873		2.428711	-2.205713	3.578133
19874		2.329787	-2.139763	3.536135
19875		2.214602	-2.085438	3.491566
19876		2.104989	-2.025359	3.437204
19877		2.011217	-1.971415	3.368539
19878		1.902310	-1.928375	3.283246
19879		1.798953	-1.893444	3.179314
19880		1.771115	-1.849524	3.061004
19881		1.722155	-1.807817	2.926139
19882		1.630615	-1.766308	2.773186
19883		1.498927	-1.722392	2.595073
19884		1.293043	-1.684504	2.390345
19885		1.011522	-1.662078	2.151929
19886		0.665696	-1.648564	1.875617
19887		0.295698	-1.645941	1.561488
19888		-0.055669	-1.641668	1.217677
19889		-0.355124	-1.642239	0.841981
19890		-0.619736	-1.644079	0.443800
19891		-0.873184	-1.643853	0.015730
19892		-1.131313	-1.646723	-0.442626
19893		-1.359283	-1.647241	-0.938107
19894		-1.613890	-1.662030	-1.456498
19895		-1.859863	-1.691557	-2.005720
19896		-2.076508	-1.723651	-2.578062
19897		-2.269461	-1.771778	-3.168779
19898		-2.430972	-1.827528	-3.771289
19899		-2.542566	-1.880682	-4.391093
19900		-2.651157	-1.937559	-5.023330
19901		-2.760639	-1.999602	-5.674631
19902		-2.913178	-2.063789	-6.334830
19903		-3.109731	-2.138456	-7.013629
19904		-3.350363	-2.219358	-7.698915
19905		-3.585957	-2.301381	-8.395005
19906		-3.837230	-2.383800	-9.092748
19907		-4.041355	-2.461599	-9.802636
19908		-4.202660	-2.530457	-10.513209
19909		-4.294083	-2.572241	-11.243851
19910		-4.381786	-2.602517	-11.979512
19911		-4.520602	-2.636927	-12.735736
19912		-4.787726	-2.675757	-13.504621
19913		-5.116854	-2.721754	-14.288646
19914		-5.510208	-2.779065	-15.075000
19915		-5.847740	-2.824131	-15.874184
19916		-6.145070	-2.867871	-16.672994
19917		-6.348806	-2.888965	-17.481625
19918		-6.559448	-2.903949	-18.292370
19919		-6.767654	-2.928387	-19.113343
19920		-6.996763	-2.954561	-19.939529
19921		-7.241779	-2.981515	-20.781286
19922		-7.470209	-2.999468	-21.636990
19923		-7.685238	-3.005614	-22.507415
19924		-7.955972	-3.007211	-23.388550
19925		-8.232580	-3.012684	-24.290215
19926		-8.565068	-3.028133	-25.204816
19927		-8.906364	-3.056870	-26.139290
19928		-9.192280	-3.085684	-27.092604
19929		-9.295421	-3.100469	-28.071760
19930		-9.300310	-3.100699	-29.059319
19931		-9.278393	-3.111504	-30.051419
19932		-9.341530	-3.140865	-31.033195
19933		-9.387246	-3.166750	-32.019585
19934		-9.454770	-3.203255	-33.007472
19935		-9.450396	-3.236235	-34.010959
19936		-9.244857	-3.236201	-35.038463
19937		-8.673861	-3.149892	-36.112602
19938		-8.001146	-3.036125	-37.212248
19939		-7.500586	-2.960201	-38.321799
19940		-7.424100	-2.946479	-39.430896
19941		-7.466112	-2.946324	-40.545564
19942		-7.489322	-2.948814	-41.653086
19943		-7.326413	-2.917906	-42.772945
19944		-7.028357	-2.853542	-43.885829
19945		-6.757099	-2.781446	-44.987896
19946		-6.705693	-2.753465	-46.057712
19947		-6.790344	-2.758917	-47.101500
19948		-6.960225	-2.785375	-48.110949
19949		-7.019196	-2.813280	-49.105708
19950		-6.802862	-2.842928	-50.087880
19951		-5.995711	-2.809453	-51.075927
19952		-4.669111	-2.623366	-52.068217
19953		-3.492553	-2.482811	-53.079034
19954		-2.991514	-2.474186	-54.078731
19955		-3.187479	-2.492239	-55.095278
19956		-3.920327	-2.535296	-56.121563
19957		-4.928877	-2.621846	-57.150375
19958		-5.775509	-2.729014	-58.193098
19959		-5.669058	-2.607371	-59.231164
19960		-4.857821	-2.254278	-60.307807
19961		-4.611255	-2.108447	-61.361136
19962		-5.400486	-2.094270	-62.380935
19963		-6.483739	-2.086484	-63.384108
19964		-7.482288	-2.078338	-64.362922
19965		-8.289624	-2.093623	-65.296986
19966		-8.785283	-2.100227	-66.190258
19967		-8.520495	-2.027633	-67.082152
19968		-7.444065	-1.837446	-67.992404
19969		-6.209867	-1.719765	-68.891149
19970		-5.563538	-1.705390	-69.781434
19971		-5.240936	-1.719799	-70.683966
19972		-4.962216	-1.746303	-71.588456
19973		-4.686894	-1.777123	-72.494763
19974		-4.316461	-1.777349	-73.416634
19975		-3.718890	-1.730802	-74.354250
19976		-3.059333	-1.654021	-75.308940
19977		-2.554048	-1.590086	-76.270032
19978		-2.419659	-1.585946	-77.226072
19979		-2.659839	-1.659949	-78.152856
19980		-3.005918	-1.752812	-79.060269
19981		-3.219538	-1.862042	-79.940810
19982		-3.093292	-1.959042	-80.804995
19983		-2.387480	-2.015811	-81.676477
19984		-1.340349	-2.029546	-82.549005
19985		-0.420062	-2.060109	-83.430460
19986		0.111903	-2.185624	-84.304748
19987		0.320702	-2.361085	-85.153842
19988		0.381450	-2.538808	-85.993649
19989		0.437722	-2.716642	-86.806682
19990		0.675514	-2.864996	-87.608772
19991		1.307138	-2.961817	-88.393718
19992		2.022226	-2.999279	-89.170885
19993		2.601458	-3.077284	-89.947580
19994		2.892300	-3.215398	-90.699356
19995		2.920930	-3.377825	-91.417684
19996		2.924539	-3.527308	-92.117777
19997		3.065846	-3.682772	-92.776689
19998		3.466208	-3.807351	-93.404496
19999		4.135327	-3.899482	-94.008691
20000		4.928916	-3.968594	-94.599685
20001		5.625218	-4.029301	-95.178041
20002		5.944549	-4.122278	-95.741092
20003		5.776570	-4.228263	-96.283402
20004		5.484639	-4.314249	-96.803528
20005		5.422820	-4.366420	-97.288103
20006		5.677638	-4.372594	-97.744665
20007		6.022231	-4.367833	-98.179332
20008		6.310094	-4.356558	-98.596982
20009		6.422878	-4.373065	-98.982845
20010		6.378638	-4.398472	-99.336659
20011		6.226542	-4.405508	-99.646908
20012		6.099988	-4.394115	-99.928899
20013		6.093198	-4.373316	-100.182364
20014		6.207538	-4.321435	-100.418811
20015		6.335864	-4.267440	-100.632590
20016		6.436002	-4.219336	-100.833448
20017		6.506746	-4.181521	-101.015426
20018		6.562211	-4.141493	-101.177481
20019		6.624096	-4.094730	-101.318522
20020		6.677671	-4.052557	-101.446343
20021		6.706367	-4.026713	-101.555864
20022		6.715221	-3.997681	-101.652473
20023		6.700135	-3.970487	-101.717213
20024		6.674317	-3.946128	-101.749932
20025		6.659777	-3.929691	-101.750222
20026		6.684036	-3.903563	-101.726440
20027		6.727582	-3.870679	-101.688299
20028		6.753709	-3.834295	-101.655333
20029		6.747522	-3.805633	-101.625039
20030		6.711094	-3.784576	-101.602344
20031		6.662742	-3.776948	-101.570138
20032		6.664655	-3.764225	-101.526302
20033		6.727871	-3.747287	-101.471575
20034		6.842188	-3.724656	-101.406323
20035		6.967704	-3.706058	-101.336429
20036		7.060357	-3.686518	-101.269144
20037		7.063512	-3.680148	-101.198240
20038		6.956599	-3.681663	-101.132310
20039		6.714950	-3.701057	-101.061016
20040		6.400949	-3.722512	-100.985513
20041		6.105316	-3.745323	-100.896672
20042		5.928512	-3.755574	-100.790563
20043		5.955121	-3.748135	-100.668768
20044		6.104559	-3.726323	-100.543304
20045		6.212300	-3.712420	-100.416598
20046		6.198627	-3.708499	-100.295341
20047		6.070655	-3.716484	-100.177186
20048		5.923403	-3.727455	-100.055911
20049		5.830193	-3.731158	-99.927286
20050		5.884922	-3.722055	-99.784023
20051		6.038978	-3.702118	-99.629191
20052		6.257812	-3.675132	-99.472572
20053		6.451570	-3.642494	-99.316828
20054		6.529124	-3.610237	-99.171957
20055		6.439978	-3.603339	-99.028918
20056		6.275973	-3.594752	-98.889684
20057		6.113450	-3.586905	-98.752209
20058		5.986493	-3.583034	-98.614884
20059		5.883020	-3.579486	-98.474328
20060		5.847241	-3.572332	-98.335530
20061		5.863657	-3.570728	-98.180613
20062		5.917629	-3.563064	-98.019168
20063		5.954094	-3.564955	-97.850971
20064		5.954971	-3.575229	-97.680129
20065		5.889774	-3.598706	-97.505840
20066		5.793113	-3.625377	-97.329170
20067		5.691562	-3.646720	-97.150095
20068		5.639486	-3.656487	-96.965440
20069		5.601419	-3.665128	-96.768502
20070		5.568902	-3.668734	-96.562423
20071		5.526989	-3.679196	-96.338443
20072		5.466420	-3.689936	-96.099455
20073		5.380425	-3.699523	-95.848418
20074		5.306838	-3.702716	-95.591451
20075		5.223947	-3.712765	-95.334398
20076		5.136699	-3.716530	-95.078309
20077		5.071534	-3.712008	-94.819302
20078		5.051251	-3.708088	-94.549856
20079		5.042808	-3.705097	-94.258551
20080		5.068560	-3.684857	-93.955223
20081		5.079845	-3.671102	-93.636085
20082		5.061986	-3.663991	-93.309979
20083		5.039306	-3.653855	-92.981253
20084		5.041469	-3.644695	-92.660879
20085		5.053561	-3.631976	-92.335711
20086		5.127779	-3.608170	-92.012586
20087		5.257174	-3.576232	-91.673289
20088		5.438904	-3.521797	-91.311547
20089		5.628408	-3.467721	-90.917703
20090		5.833419	-3.428406	-90.496695
20091		6.055683	-3.375652	-90.058469
20092		6.244800	-3.306492	-89.624738
20093		6.249095	-3.249430	-89.199380
20094		6.110348	-3.199204	-88.797216
20095		5.927442	-3.147133	-88.409082
20096		5.764153	-3.095848	-88.024700
20097		5.696143	-3.024240	-87.621822
20098		5.771554	-2.976820	-87.204829
20099		5.893938	-2.949906	-86.761863
20100		6.016788	-2.927059	-86.305490
20101		6.083482	-2.917891	-85.843606
20102		6.103361	-2.924773	-85.379594
20103		6.041081	-2.935507	-84.919335
20104		5.954502	-2.946406	-84.465596
20105		5.880538	-2.950699	-84.009157
20106		5.830303	-2.953687	-83.547263
20107		5.790035	-2.967083	-83.070799
20108		5.770294	-2.985948	-82.588936
20109		5.736312	-3.000700	-82.095758
20110		5.701812	-3.021018	-81.603045
20111		5.668019	-3.046391	-81.107527
20112		5.646594	-3.068222	-80.606441
20113		5.617582	-3.097113	-80.091679
20114		5.608378	-3.144343	-79.565056
20115		5.610719	-3.190569	-79.023644
20116		5.607319	-3.233838	-78.473265
20117		5.521874	-3.289290	-77.916000
20118		5.378024	-3.356969	-77.361482
20119		5.187846	-3.436008	-76.803697
20120		5.016010	-3.510471	-76.243891
20121		4.905983	-3.556395	-75.670233
20122		4.896062	-3.603296	-75.087463
20123		4.924795	-3.647739	-74.491993
20124		5.008840	-3.684452	-73.892006
20125		5.062024	-3.724777	-73.285795
20126		5.075383	-3.771299	-72.672986
20127		5.044597	-3.830741	-72.050566
20128		5.031402	-3.887011	-71.416024
20129		5.070589	-3.927880	-70.762661
20130		5.196063	-3.951118	-70.098629
20131		5.386601	-3.962555	-69.419522
20132		5.616196	-3.966690	-68.733219
20133		5.820455	-3.969272	-68.038865
20134		5.999083	-3.971715	-67.344288
20135		6.072751	-3.969671	-66.643330
20136		5.972285	-3.989470	-65.948873
20137		5.758305	-4.016441	-65.251668
20138		5.499367	-4.046289	-64.562220
20139		5.252796	-4.067526	-63.864315
20140		5.100303	-4.072435	-63.163432
20141		5.060680	-4.076930	-62.445767
20142		5.109513	-4.082068	-61.719010
20143		5.195990	-4.082478	-60.968556
20144		5.278946	-4.095822	-60.203950
20145		5.330189	-4.116074	-59.417559
20146		5.362416	-4.147890	-58.624027
20147		5.368239	-4.179012	-57.818268
20148		5.394844	-4.204154	-57.020003
20149		5.433747	-4.222319	-56.205041
20150		5.483415	-4.236399	-55.411766
20151		5.510355	-4.240921	-54.608433
20152		5.488869	-4.254828	-53.818943
20153		5.404995	-4.272319	-53.026101
20154		5.315801	-4.299036	-52.239668
20155		5.232250	-4.321455	-51.425790
20156		5.197176	-4.343301	-50.605081
20157		5.237200	-4.351998	-49.741250
20158		5.370628	-4.358216	-48.876693
20159		5.490150	-4.354250	-47.983052
20160		5.519360	-4.360015	-47.095219
20161		5.405522	-4.398004	-46.183537
20162		5.220328	-4.459085	-45.268001
20163		5.009389	-4.521728	-44.311468
20164		4.856315	-4.582834	-43.355769
20165		4.817081	-4.618324	-42.362803
20166		5.001545	-4.623608	-41.367814
20167		5.303575	-4.599221	-40.357495
20168		5.599275	-4.581926	-39.375004
20169		5.815420	-4.571298	-38.401288
20170		5.973609	-4.566948	-37.452292
20171		6.085394	-4.551363	-36.497629
20172		6.189219	-4.530975	-35.561042
20173		6.263820	-4.507624	-34.611452
20174		6.311120	-4.483421	-33.676232
20175		6.308450	-4.463761	-32.737550
20176		6.274035	-4.439391	-31.821051
20177		6.171199	-4.411107	-30.902202
20178		6.029238	-4.394546	-30.002796
20179		5.897714	-4.370398	-29.098423
20180		5.799608	-4.334447	-28.212087
20181		5.731797	-4.292638	-27.323345
20182		5.690661	-4.249520	-26.462816
20183		5.630404	-4.204234	-25.609898
20184		5.556716	-4.168687	-24.782496
20185		5.438186	-4.137390	-23.953627
20186		5.314877	-4.116888	-23.144273
20187		5.233314	-4.095250	-22.328363
20188		5.274143	-4.064564	-21.520574
20189		5.413476	-4.015243	-20.709368
20190		5.640780	-3.951331	-19.923457
20191		5.857491	-3.888457	-19.147900
20192		5.976831	-3.845962	-18.395871
20193		5.988559	-3.821068	-17.635818
20194		5.898880	-3.800444	-16.879147
20195		5.722287	-3.790789	-16.108183
20196		5.518169	-3.784997	-15.342659
20197		5.342439	-3.773048	-14.576328
20198		5.245471	-3.755889	-13.833654
20199		5.178411	-3.724037	-13.097408
20200		5.140061	-3.702512	-12.381622
20201		5.104862	-3.691793	-11.659902
20202		5.072639	-3.679186	-10.940106
20203		5.022774	-3.663877	-10.206085
20204		4.971535	-3.647854	-9.483381
20205		4.911179	-3.637836	-8.757047
20206		4.864872	-3.629249	-8.053690
20207		4.784439	-3.613897	-7.351574
20208		4.710441	-3.608084	-6.657845
20209		4.653025	-3.609425	-5.953382
20210		4.592473	-3.610192	-5.246441
20211		4.535536	-3.599834	-4.527089
20212		4.476476	-3.594055	-3.814913
20213		4.364352	-3.592799	-3.093969
20214		4.179845	-3.593162	-2.389818
20215		3.921844	-3.603422	-1.690442
20216		3.633320	-3.626388	-1.004757
20217		3.373642	-3.640907	-0.319243
20218		3.266629	-3.648496	0.349638
20219		3.324225	-3.637116	0.998302
20220		3.384356	-3.606697	1.615835
20221		3.352311	-3.584271	2.211497
20222		3.173402	-3.585678	2.776407
20223		2.898459	-3.595763	3.322669
20224		2.576268	-3.614747	3.841254
20225		2.256563	-3.637565	4.335501
20226		2.034113	-3.647777	4.789878
20227		2.003405	-3.633039	5.217147
20228		2.047609	-3.610447	5.605593
20229		2.074954	-3.596743	5.968881
20230		2.116259	-3.577966	6.304085
20231		2.143448	-3.565681	6.616565
20232		2.177690	-3.554223	6.903615
20233		2.243313	-3.539023	7.169895
20234		2.326260	-3.523488	7.405576
20235		2.424379	-3.510231	7.616283
20236		2.540727	-3.494086	7.805301
20237		2.647176	-3.474861	7.985156
20238		2.708339	-3.466689	8.152594
20239		2.742447	-3.465893	8.316468
20240		2.787374	-3.463157	8.466517
20241		2.866955	-3.456305	8.602466
20242		2.972177	-3.442053	8.711926
20243		3.068779	-3.420434	8.791184
20244		3.119998	-3.396558	8.836462
20245		3.110098	-3.377480	8.853741
20246		3.079625	-3.355489	8.852507
20247		3.072364	-3.328525	8.841785
20248		3.105197	-3.295618	8.832884
20249		3.181200	-3.247154	8.832184
20250		3.264582	-3.194973	8.834120
20251		3.292352	-3.156066	8.843235
20252		3.222738	-3.120497	8.850528
20253		3.117762	-3.090905	8.855650
20254		2.996494	-3.065447	8.851005
20255		2.868486	-3.049201	8.845490
20256		2.759174	-3.036269	8.832643
20257		2.679981	-3.028575	8.818098
20258		2.611584	-3.025204	8.799130
20259		2.582262	-3.019984	8.777254
20260		2.578271	-3.015895	8.747897
20261		2.566506	-3.014567	8.715952
20262		2.553354	-3.014135	8.679000
20263		2.546180	-3.017558	8.638608
20264		2.560633	-3.022986	8.594676
20265		2.615850	-3.020564	8.546855
20266		2.663836	-3.010758	8.488903
20267		2.671738	-3.001732	8.421458
20268		2.610239	-3.002185	8.346283
20269		2.499743	-3.008725	8.273640
20270		2.374097	-3.022131	8.204817
20271		2.275702	-3.039752	8.153538
20272		2.245135	-3.052100	8.110908
20273		2.264138	-3.064325	8.076751
20274		2.292368	-3.086606	8.038818
20275		2.336666	-3.114936	7.992105
20276		2.379214	-3.145973	7.932073
20277		2.422015	-3.169248	7.857097
20278		2.423730	-3.190149	7.768098
20279		2.377542	-3.209834	7.666520
20280		2.253510	-3.231815	7.549549
20281		2.090704	-3.259058	7.425026
20282		1.931995	-3.284194	7.291830
20283		1.843181	-3.302683	7.151769
20284		1.881244	-3.309481	7.002896
20285		1.985656	-3.311979	6.841505
20286		2.092752	-3.316890	6.672465
20287		2.157935	-3.325231	6.494646
20288		2.132348	-3.342830	6.310077
20289		2.044226	-3.365812	6.121879
20290		1.907880	-3.396745	5.927417
20291		1.795670	-3.432433	5.724459
20292		1.746216	-3.457072	5.511127
20293		1.750389	-3.479742	5.286895
20294		1.784031	-3.508223	5.048776
20295		1.822170	-3.533773	4.796177
20296		1.817120	-3.552710	4.523181
20297		1.762448	-3.573176	4.234292
20298		1.658082	-3.593728	3.927437
20299		1.543614	-3.607999	3.598794
20300		1.440309	-3.612204	3.252912
20301		1.388950	-3.606552	2.886858
20302		1.364108	-3.592928	2.501294
20303		1.336724	-3.580812	2.098866
20304		1.270127	-3.569391	1.682027
20305		1.174874	-3.559406	1.255815
20306		1.053625	-3.549609	0.829823
20307		1.006999	-3.526241	0.400316
20308		0.961186	-3.496041	-0.033561
20309		0.888063	-3.484578	-0.481275
20310		0.798842	-3.479651	-0.944016
20311		0.699985	-3.482298	-1.426688
20312		0.600971	-3.498087	-1.922944
20313		0.534652	-3.516904	-2.425832
20314		0.489231	-3.536242	-2.930305
20315		0.475195	-3.571912	-3.417119
20316		0.469393	-3.603891	-3.885493
20317		0.495520	-3.628262	-4.350499
20318		0.527675	-3.653306	-4.812414
20319		0.533265	-3.690421	-5.285436
20320		0.525598	-3.730826	-5.775407
20321		0.495701	-3.782565	-6.278908
20322		0.424083	-3.833305	-6.796093
20323		0.328552	-3.879952	-7.321643
20324		0.164897	-3.932312	-7.849672
20325		-0.039262	-3.992134	-8.380378
20326		-0.239124	-4.051640	-8.911109
20327		-0.388039	-4.107042	-9.446955
20328		-0.483992	-4.161622	-9.990651
20329		-0.460320	-4.203516	-10.540766
20330		-0.389958	-4.230524	-11.100229
20331		-0.325924	-4.253878	-11.669970
20332		-0.303705	-4.264961	-12.252947
20333		-0.347181	-4.258855	-12.858644
20334		-0.501355	-4.243216	-13.491403
20335		-0.777790	-4.226241	-14.156614
20336		-1.174161	-4.211883	-14.854334
20337		-1.589815	-4.193961	-15.579788
20338		-1.990149	-4.181626	-16.320478
20339		-2.281449	-4.165861	-17.063947
20340		-2.419901	-4.132313	-17.798607
20341		-2.483089	-4.100424	-18.520292
20342		-2.513037	-4.051104	-19.237114
20343		-2.548290	-3.992115	-19.954483
20344		-2.684199	-3.949244	-20.679458
20345		-2.876104	-3.911713	-21.414078
20346		-3.089651	-3.880021	-22.160095
20347		-3.236488	-3.850779	-22.912638
20348		-3.261733	-3.814594	-23.658557
20349		-3.177785	-3.767392	-24.394140
20350		-3.061490	-3.716567	-25.111025
20351		-2.953944	-3.663887	-25.808595
20352		-2.892374	-3.604022	-26.499174
20353		-2.927380	-3.544946	-27.188184
20354		-3.101485	-3.497795	-27.884664
20355		-3.355303	-3.458863	-28.595178
20356		-3.683978	-3.421715	-29.322289
20357		-4.052004	-3.382754	-30.065233
20358		-4.444312	-3.336630	-30.809530
20359		-4.781078	-3.284101	-31.556209
20360		-5.067950	-3.233928	-32.305268
20361		-5.226702	-3.166141	-33.060604
20362		-5.294052	-3.102480	-33.828956
20363		-5.293890	-3.032442	-34.608434
20364		-5.299572	-2.955887	-35.403718
20365		-5.371126	-2.900963	-36.210514
20366		-5.523707	-2.847224	-37.015023
20367		-5.756123	-2.804604	-37.812963
20368		-6.018609	-2.788398	-38.595967
20369		-6.196657	-2.782278	-39.359790
20370		-6.252876	-2.791769	-40.106367
20371		-5.976308	-2.779759	-40.837270
20372		-5.230626	-2.713927	-41.594527
20373		-4.250176	-2.620893	-42.363846
20374		-3.348281	-2.487824	-43.161672
20375		-2.903463	-2.404201	-43.980496
20376		-2.933010	-2.401607	-44.800593
20377		-3.130657	-2.416195	-45.618374
20378		-3.391298	-2.447208	-46.437666
20379		-3.499173	-2.474298	-47.261388
20380		-3.325290	-2.417276	-48.102075
20381		-3.069172	-2.355153	-48.955858
20382		-2.864640	-2.330934	-49.810586
20383		-2.730800	-2.323166	-50.659764
20384		-2.644821	-2.342124	-51.506604
20385		-2.504809	-2.374305	-52.344797
20386		-2.221717	-2.397887	-53.192161
20387		-1.718335	-2.409521	-54.051855
20388		-1.092496	-2.358710	-54.934742
20389		-0.575572	-2.291147	-55.840547
20390		-0.364950	-2.288875	-56.763896
20391		-0.357907	-2.314984	-57.683268
20392		-0.578023	-2.359341	-58.585248
20393		-0.889289	-2.408700	-59.463618
20394		-1.100306	-2.427274	-60.329331
20395		-1.185261	-2.438158	-61.175641
20396		-1.102649	-2.438518	-62.018508
20397		-0.879891	-2.444686	-62.853285
20398		-0.660054	-2.383968	-63.696543
20399		-0.646665	-2.330841	-64.553636
20400		-0.942007	-2.354231	-65.413179
20401		-1.339659	-2.377814	-66.256573
20402		-1.756763	-2.400097	-67.093502
20403		-2.131546	-2.430494	-67.907811
20404		-2.294402	-2.444178	-68.708650
20405		-2.130943	-2.445248	-69.505247
20406		-1.796671	-2.419914	-70.302597
20407		-1.383813	-2.363770	-71.098614
20408		-1.106426	-2.330329	-71.900507
20409		-1.045882	-2.336395	-72.702886
20410		-1.087648	-2.354243	-73.510269
20411		-1.164905	-2.360217	-74.309214
20412		-1.145006	-2.348307	-75.114331
20413		-0.950747	-2.312164	-75.920924
20414		-0.670584	-2.250837	-76.727906
20415		-0.421823	-2.180890	-77.529168
20416		-0.286007	-2.127053	-78.317450
20417		-0.218295	-2.094274	-79.095989
20418		-0.223382	-2.077851	-79.859812
20419		-0.191281	-2.049775	-80.614815
20420		-0.028526	-2.000426	-81.383512
20421		0.235337	-1.950667	-82.144166
20422		0.633776	-1.899071	-82.907872
20423		1.144033	-1.852387	-83.666389
20424		1.625804	-1.801494	-84.417561
20425		2.017496	-1.766022	-85.158922
20426		2.247223	-1.740972	-85.887822
20427		2.327434	-1.727651	-86.601936
20428		2.320589	-1.696018	-87.311444
20429		2.271332	-1.674414	-88.017368
20430		2.284867	-1.638803	-88.723017
20431		2.540647	-1.573996	-89.428333
20432		2.942458	-1.516770	-90.133367
20433		3.493611	-1.456674	-90.833832
20434		4.165020	-1.395744	-91.527676
20435		4.872750	-1.324135	-92.212446
20436		5.595739	-1.231930	-92.899554
20437		6.253112	-1.125451	-93.584362
20438		6.521251	-1.021772	-94.266789
20439		6.585320	-0.933561	-94.938771
20440		6.596645	-0.837355	-95.587274
20441		6.640133	-0.740507	-96.204754
20442		6.719615	-0.644562	-96.798924
20443		6.887391	-0.555678	-97.346035
20444		7.153912	-0.463125	-97.856707
20445		7.450583	-0.370557	-98.342522
20446		7.716658	-0.283427	-98.801826
20447		7.954946	-0.197030	-99.234735
20448		8.156171	-0.113169	-99.650450
20449		8.350120	-0.032851	-100.025257
20450		8.549645	0.054031	-100.371022
20451		8.749419	0.137400	-100.679853
20452		8.916781	0.222991	-100.967884
20453		8.999829	0.304631	-101.208936
20454		9.031158	0.385701	-101.413166
20455		9.062945	0.468169	-101.583468
20456		9.099835	0.554729	-101.724858
20457		9.148851	0.635955	-101.848052
20458		9.206383	0.719246	-101.958057
20459		9.210560	0.791001	-102.052248
20460		9.163964	0.855260	-102.129573
20461		9.102579	0.916568	-102.179435
20462		9.043001	0.981168	-102.202912
20463		8.970390	1.031095	-102.196861
20464		8.906722	1.079841	-102.164444
20465		8.876537	1.116878	-102.112818
20466		8.860958	1.154824	-102.046190
20467		8.884284	1.197838	-101.969684
20468		8.892071	1.237094	-101.880182
20469		8.863217	1.268170	-101.784404
20470		8.830563	1.287683	-101.672131
20471		8.808475	1.303788	-101.541584
20472		8.809455	1.312241	-101.389253
20473		8.851683	1.320289	-101.213210
20474		8.941503	1.322498	-101.030391
20475		9.035727	1.313406	-100.828536
20476		9.110585	1.304040	-100.628765
20477		9.115150	1.280694	-100.414460
20478		9.038547	1.241891	-100.193754
20479		8.953075	1.203552	-99.963704
20480		8.931078	1.180127	-99.730211
20481		8.989946	1.170132	-99.474996
20482		9.145578	1.174040	-99.220872
20483		9.344123	1.186800	-98.946847
20484		9.523082	1.200897	-98.661575
20485		9.694313	1.211448	-98.361891
20486		9.846736	1.213450	-98.045286
20487		9.955779	1.207621	-97.707316
20488		10.051896	1.196572	-97.356995
20489		10.142977	1.184682	-96.970295
20490		10.269029	1.175034	-96.567909
20491		10.427726	1.157015	-96.132380
20492		10.626734	1.133404	-95.689479
20493		10.808497	1.099337	-95.225105
20494		10.915937	1.058761	-94.768376
20495		10.981865	1.002281	-94.304379
20496		11.048378	0.942210	-93.842250
20497		11.124369	0.882859	-93.379953
20498		11.270430	0.823245	-92.918523
20499		11.416828	0.749476	-92.457632
20500		11.491070	0.653770	-91.994226
20501		11.510390	0.547563	-91.522162
20502		11.483528	0.428961	-91.036446
20503		11.451289	0.307643	-90.538638
20504		11.473207	0.201851	-90.026383
20505		11.547351	0.123800	-89.491431
20506		11.665668	0.052489	-88.940030
20507		11.776769	-0.019404	-88.364651
20508		11.893303	-0.097413	-87.770169
20509		11.931886	-0.184056	-87.146914
20510		11.869771	-0.272205	-86.502532
20511		11.729797	-0.376634	-85.843102
20512		11.574107	-0.486104	-85.165879
20513		11.454781	-0.592879	-84.468965
20514		11.444724	-0.675239	-83.748517
20515		11.580180	-0.740338	-83.014159
20516		11.788061	-0.801637	-82.269707
20517		11.969462	-0.859873	-81.517615
20518		12.084022	-0.929480	-80.763782
20519		12.108751	-1.003892	-80.010506
20520		12.087717	-1.074931	-79.257217
20521		12.029774	-1.148654	-78.513270
20522		12.026218	-1.213014	-77.787011
20523		12.104868	-1.258967	-77.083837
20524		12.191631	-1.294863	-76.408920
20525		12.193775	-1.320931	-75.756981
20526		12.051019	-1.356264	-75.122941
20527		11.774333	-1.409668	-74.483290
20528		11.459830	-1.478869	-73.822452
20529		11.137447	-1.553540	-73.130025
20530		10.863595	-1.631607	-72.421675
20531		10.675693	-1.697599	-71.675799
20532		10.605977	-1.753714	-70.929722
20533		10.618314	-1.799200	-70.160332
20534		10.671945	-1.835178	-69.395817
20535		10.703899	-1.871822	-68.627207
20536		10.722693	-1.919093	-67.857021
20537		10.677534	-1.971884	-67.069493
20538		10.611461	-2.019375	-66.279263
20539		10.505462	-2.073727	-65.465408
20540		10.301413	-2.139068	-64.650323
20541		9.997052	-2.207955	-63.821554
20542		9.616198	-2.297860	-63.005812
20543		9.210129	-2.394605	-62.175556
20544		8.858476	-2.495251	-61.353197
20545		8.574155	-2.586791	-60.512850
20546		8.409636	-2.669007	-59.679262
20547		8.263267	-2.742356	-58.828590
20548		8.076934	-2.816220	-57.989137
20549		7.833880	-2.896916	-57.138476
20550		7.561140	-2.979716	-56.299199
20551		7.306832	-3.060892	-55.446711
20552		7.130019	-3.132481	-54.604180
20553		7.084110	-3.185590	-53.748397
20554		7.226230	-3.226409	-52.907111
20555		7.339106	-3.264436	-52.070632
20556		7.400551	-3.296406	-51.260292
20557		7.418820	-3.326946	-50.451410
20558		7.372490	-3.357414	-49.660919
20559		7.304794	-3.392557	-48.858104
20560		7.275455	-3.435148	-48.056457
20561		7.271856	-3.473787	-47.232731
20562		7.342858	-3.508979	-46.403650
20563		7.425387	-3.542929	-45.551271
20564		7.471230	-3.575771	-44.700469
20565		7.448560	-3.621094	-43.836727
20566		7.368689	-3.673329	-42.977353
20567		7.247075	-3.727786	-42.106030
20568		7.160660	-3.786435	-41.242306
20569		7.106328	-3.841724	-40.368638
20570		7.104674	-3.883884	-39.501946
20571		7.085193	-3.909091	-38.617522
20572		6.918952	-3.935618	-37.735156
20573		6.640974	-3.963604	-36.835377
20574		6.344610	-3.995895	-35.932255
20575		6.062695	-4.027332	-35.016926
20576		5.918581	-4.047040	-34.120069
20577		5.932557	-4.048998	-33.231570
20578		6.043652	-4.027225	-32.366458
20579		6.170871	-4.004358	-31.501252
20580		6.267861	-3.985782	-30.644880
20581		6.344391	-3.964987	-29.781205
20582		6.419892	-3.936220	-28.932211
20583		6.477832	-3.903104	-28.095274
20584		6.552319	-3.871483	-27.290229
20585		6.607943	-3.840879	-26.498509
20586		6.635452	-3.811994	-25.728917
20587		6.629316	-3.784184	-24.954218
20588		6.588329	-3.761268	-24.186211
20589		6.498206	-3.744582	-23.412879
20590		6.374138	-3.737051	-22.652634
20591		6.242301	-3.740255	-21.890504
20592		6.103295	-3.742960	-21.141212
20593		5.941967	-3.752491	-20.397432
20594		5.797350	-3.777602	-19.664123
20595		5.694761	-3.800423	-18.923920
20596		5.609484	-3.815205	-18.188348
20597		5.537996	-3.834053	-17.448278
20598		5.485260	-3.857619	-16.717603
20599		5.420287	-3.880804	-15.989479
20600		5.372060	-3.912328	-15.281994
20601		5.362673	-3.941169	-14.577434
20602		5.392937	-3.965412	-13.888637
20603		5.442419	-3.991824	-13.193969
20604		5.536111	-4.007803	-12.507694
20605		5.611125	-4.024181	-11.826516
20606		5.647401	-4.048149	-11.156009
20607		5.633139	-4.075863	-10.480344
20608		5.532876	-4.097895	-9.805891
20609		5.296827	-4.133842	-9.112879
20610		4.985246	-4.177485	-8.402945
20611		4.655875	-4.203984	-7.680350
20612		4.315969	-4.225402	-6.966397
20613		3.941844	-4.232498	-6.272313
20614		3.563141	-4.234803	-5.611110
20615		3.175389	-4.233512	-4.968799
20616		2.758110	-4.235644	-4.345674
20617		2.283158	-4.253590	-3.725597
20618		1.839246	-4.277723	-3.123093
20619		1.637600	-4.279670	-2.537262
20620		1.594788	-4.274239	-1.984057
20621		1.499063	-4.289951	-1.454428
20622		1.344657	-4.328997	-0.950665
20623		1.201391	-4.384274	-0.454205
20624		1.128727	-4.437125	0.039493
20625		1.104623	-4.495101	0.537344
20626		1.148177	-4.553601	1.011323
20627		1.318393	-4.608962	1.461812
20628		1.560759	-4.635350	1.871631
20629		1.782731	-4.663655	2.255147
20630		1.896355	-4.703108	2.609001
20631		1.863399	-4.755858	2.939737
20632		1.755095	-4.800683	3.244543
20633		1.612114	-4.841485	3.529372
20634		1.507960	-4.879773	3.780581
20635		1.455084	-4.897844	4.000325
20636		1.395278	-4.915532	4.178832
20637		1.298066	-4.949651	4.325376
20638		1.185221	-4.991063	4.446501
20639		1.109728	-5.027687	4.546400
20640		1.107376	-5.049597	4.629603
20641		1.166096	-5.061796	4.702645
20642		1.243123	-5.057056	4.757823
20643		1.296838	-5.055260	4.804536
20644		1.271166	-5.066708	4.848675
20645		1.187219	-5.084042	4.897466
20646		1.112604	-5.102196	4.954417
20647		1.056302	-5.120101	5.019693
20648		1.027006	-5.137111	5.083129
20649		1.014939	-5.154066	5.146106
20650		0.990996	-5.174894	5.205032
20651		0.956664	-5.202348	5.260795
20652		0.932159	-5.231132	5.318101
20653		0.945203	-5.257080	5.380713
20654		0.988631	-5.275065	5.440270
20655		1.047711	-5.280612	5.489530
20656		1.100496	-5.278310	5.522893
20657		1.104923	-5.268944	5.539550
20658		1.031347	-5.264434	5.539291
20659		0.944469	-5.260850	5.527410
20660		0.862363	-5.268086	5.507280
20661		0.826992	-5.273473	5.486890
20662		0.878360	-5.278036	5.457956
20663		0.993203	-5.276566	5.427701
20664		1.110606	-5.278409	5.388342
20665		1.196278	-5.281818	5.344668
20666		1.236280	-5.289614	5.290683
20667		1.211332	-5.307427	5.229315
20668		1.183759	-5.326992	5.153181
20669		1.180586	-5.347167	5.064635
20670		1.229546	-5.360982	4.963609
20671		1.327582	-5.362895	4.843216
20672		1.407286	-5.361034	4.704607
20673		1.432683	-5.356462	4.548265
20674		1.403273	-5.342747	4.376512
20675		1.336627	-5.319091	4.185781
20676		1.235662	-5.300955	3.979989
20677		1.156889	-5.288295	3.763905
20678		1.142775	-5.272991	3.530936
20679		1.180763	-5.261310	3.290905
20680		1.230916	-5.251443	3.047872
20681		1.271509	-5.239570	2.813620
20682		1.269793	-5.233007	2.585273
20683		1.219298	-5.235367	2.366996
20684		1.178086	-5.234569	2.156506
20685		1.159538	-5.233950	1.942264
20686		1.157468	-5.234212	1.723541
20687		1.180205	-5.236845	1.492813
20688		1.204191	-5.238943	1.253955
20689		1.206326	-5.244122	1.011270
20690		1.203257	-5.251918	0.771274
20691		1.217455	-5.257514	0.536778
20692		1.254800	-5.253640	0.307525
20693		1.308606	-5.244064	0.071688
20694		1.332114	-5.239654	-0.179871
20695		1.282966	-5.243133	-0.453658
20696		1.155148	-5.252703	-0.752487
20697		0.993677	-5.275109	-1.068119
20698		0.825557	-5.304807	-1.389480
20699		0.706537	-5.336929	-1.713790
20700		0.703209	-5.362226	-2.042034
20701		0.762683	-5.380849	-2.380032
20702		0.815301	-5.390506	-2.742519
20703		0.837667	-5.402557	-3.128788
20704		0.798337	-5.412242	-3.535759
20705		0.705475	-5.414913	-3.965213
20706		0.580231	-5.420728	-4.405562
20707		0.449242	-5.434876	-4.848466
20708		0.346451	-5.456007	-5.291279
20709		0.284052	-5.478520	-5.733945
20710		0.203645	-5.503910	-6.183556
20711		0.117142	-5.534024	-6.645105
20712		0.008142	-5.568882	-7.121645
20713		-0.116441	-5.605774	-7.611085
20714		-0.222324	-5.642661	-8.111730
20715		-0.309183	-5.682726	-8.622120
20716		-0.350515	-5.718938	-9.130519
20717		-0.345388	-5.748953	-9.641024
20718		-0.338955	-5.778682	-10.151725
20719		-0.331577	-5.801893	-10.674711
20720		-0.399530	-5.833607	-11.207621
20721		-0.500275	-5.868090	-11.753475
20722		-0.642209	-5.906454	-12.315573
20723		-0.782369	-5.939590	-12.891675
20724		-0.882342	-5.967685	-13.482237
20725		-0.947583	-5.993673	-14.080110
20726		-1.003862	-6.019970	-14.689983
20727		-1.063915	-6.039930	-15.308255
20728		-1.165806	-6.066273	-15.933696
20729		-1.256267	-6.087264	-16.564802
20730		-1.335960	-6.095799	-17.201756
20731		-1.381805	-6.099892	-17.851164
20732		-1.417007	-6.089762	-18.514219
20733		-1.476136	-6.078690	-19.194829
20734		-1.586609	-6.071975	-19.887420
20735		-1.724613	-6.067815	-20.582631
20736		-1.887535	-6.070237	-21.273638
20737		-1.992802	-6.067371	-21.955408
20738		-2.002702	-6.056889	-22.636924
20739		-1.913964	-6.029133	-23.328346
20740		-1.784726	-5.988536	-24.042637
20741		-1.662393	-5.939202	-24.787917
20742		-1.650586	-5.898611	-25.566409
20743		-1.741398	-5.869765	-26.365974
20744		-1.852444	-5.839648	-27.179677
20745		-1.900755	-5.809771	-27.996810
20746		-1.836252	-5.777932	-28.803668
20747		-1.618969	-5.734272	-29.598678
20748		-1.406012	-5.684662	-30.376128
20749		-1.309228	-5.653115	-31.132741
20750		-1.355230	-5.638876	-31.876599
20751		-1.533730	-5.632838	-32.611215
20752		-1.793032	-5.638684	-33.347255
20753		-2.001016	-5.649093	-34.090995
20754		-2.007679	-5.643720	-34.852556
20755		-1.836211	-5.603311	-35.631760
20756		-1.718964	-5.565491	-36.433328
20757		-1.679012	-5.542051	-37.245538
20758		-1.739045	-5.527502	-38.066852
20759		-1.911397	-5.529462	-38.882624
20760		-2.122186	-5.542142	-39.694531
20761		-2.239323	-5.552864	-40.498004
20762		-2.175732	-5.550670	-41.309025
20763		-1.876912	-5.517031	-42.137620
20764		-1.475073	-5.453476	-42.990143
20765		-1.059909	-5.392415	-43.861330
20766		-0.697936	-5.328026	-44.748635
20767		-0.420842	-5.271662	-45.636471
20768		-0.224201	-5.212555	-46.520779
20769		-0.113115	-5.152875	-47.396049
20770		-0.034621	-5.096054	-48.271397
20771		0.017706	-5.017672	-49.131069
20772		-0.032233	-4.941839	-49.989296
20773		-0.281850	-4.903652	-50.835502
20774		-0.640763	-4.878598	-51.666494
20775		-1.076461	-4.870240	-52.476718
20776		-1.480303	-4.870544	-53.275838
20777		-1.724154	-4.863791	-54.058944
20778		-1.714189	-4.841287	-54.850741
20779		-1.477069	-4.792295	-55.641051
20780		-1.222039	-4.738943	-56.447721
20781		-1.015442	-4.701693	-57.248651
20782		-0.888636	-4.684780	-58.046407
20783		-0.814660	-4.676333	-58.829047
20784		-0.742468	-4.677526	-59.605928
20785		-0.567349	-4.684460	-60.371381
20786		-0.153020	-4.678081	-61.144517
20787		0.608312	-4.649607	-61.922316
20788		1.603000	-4.577636	-62.713208
20789		2.630727	-4.483349	-63.513242
20790		3.462434	-4.409149	-64.320189
20791		4.088332	-4.374064	-65.108502
20792		4.553184	-4.356129	-65.881986
20793		4.883969	-4.341240	-66.633522
20794		5.138698	-4.328565	-67.377939
20795		5.417804	-4.317755	-68.117045
20796		5.853609	-4.302964	-68.866920
20797		6.273407	-4.264486	-69.607199
20798		6.552680	-4.222469	-70.355407
20799		6.716481	-4.204867	-71.096598
20800		6.720816	-4.206735	-71.821928
20801		6.625871	-4.214004	-72.537349
20802		6.501833	-4.219150	-73.246603
20803		6.371380	-4.224371	-73.956213
20804		6.322434	-4.226427	-74.674796
20805		6.491556	-4.198482	-75.387047
20806		6.772302	-4.138382	-76.092635
20807		6.953911	-4.086765	-76.803692
20808		6.958079	-4.061405	-77.511885
20809		6.802467	-4.056906	-78.206355
20810		6.582690	-4.040441	-78.883936
20811		6.445206	-4.003620	-79.555483
20812		6.417897	-3.963397	-80.225537
20813		6.601929	-3.908928	-80.899874
20814		6.898967	-3.833320	-81.591047
20815		7.154647	-3.764053	-82.278470
20816		7.284714	-3.708518	-82.964092
20817		7.274914	-3.687113	-83.640610
20818		7.159742	-3.674016	-84.303248
20819		7.078990	-3.639105	-84.959687
20820		7.062251	-3.599076	-85.624375
20821		7.182747	-3.563865	-86.284565
20822		7.431357	-3.523060	-86.942849
20823		7.665555	-3.476766	-87.589009
20824		7.801465	-3.448652	-88.212988
20825		7.864593	-3.448345	-88.798732
20826		7.889260	-3.450524	-89.359327
20827		7.959303	-3.447376	-89.881873
20828		8.055128	-3.433679	-90.380003
20829		8.191305	-3.429164	-90.865614
20830		8.371353	-3.427330	-91.348779
20831		8.595611	-3.423094	-91.827769
20832		8.794381	-3.423700	-92.296078
20833		8.971797	-3.424999	-92.742186
20834		9.172248	-3.419796	-93.160961
20835		9.385733	-3.407532	-93.551298
20836		9.637420	-3.382255	-93.922333
20837		9.924260	-3.345703	-94.277557
20838		10.182095	-3.300533	-94.627151
20839		10.436958	-3.249970	-94.971886
20840		10.635304	-3.206762	-95.309100
20841		10.673892	-3.168868	-95.630141
20842		10.603500	-3.138388	-95.920233
20843		10.527999	-3.107874	-96.171821
20844		10.501933	-3.065824	-96.388588
20845		10.550014	-3.022479	-96.576026
20846		10.682213	-2.983996	-96.736473
20847		10.844078	-2.945913	-96.884265
20848		10.951571	-2.916117	-97.021138
20849		10.924881	-2.897409	-97.142576
20850		10.839843	-2.879054	-97.241123
20851		10.713999	-2.857230	-97.307412
20852		10.571405	-2.822347	-97.348729
20853		10.408081	-2.773634	-97.371564
20854		10.216209	-2.726484	-97.382340
20855		10.005962	-2.696796	-97.376704
20856		9.799008	-2.671101	-97.371212
20857		9.609467	-2.652699	-97.345898
20858		9.439902	-2.647441	-97.318101
20859		9.255508	-2.653079	-97.287647
20860		9.078473	-2.657733	-97.260125
20861		8.923307	-2.657148	-97.223649
20862		8.842065	-2.644923	-97.177840
20863		8.903565	-2.629785	-97.114912
20864		9.018131	-2.599428	-97.041037
20865		9.122523	-2.567383	-96.957335
20866		9.185553	-2.535990	-96.879366
20867		9.211014	-2.506983	-96.787596
20868		9.177630	-2.484943	-96.696139
20869		9.075935	-2.471943	-96.607661
20870		8.960365	-2.454285	-96.515900
20871		8.862504	-2.439987	-96.418004
20872		8.815538	-2.419184	-96.306092
20873		8.823505	-2.400332	-96.176903
20874		8.857797	-2.380037	-96.033888
20875		8.915524	-2.365687	-95.882341
20876		8.986353	-2.346330	-95.736720
20877		9.077634	-2.328001	-95.587137
20878		9.176764	-2.309169	-95.453840
20879		9.263789	-2.292397	-95.315561
20880		9.307120	-2.275808	-95.184561
20881		9.330488	-2.254409	-95.034168
20882		9.344598	-2.228158	-94.874419
20883		9.357406	-2.205830	-94.701952
20884		9.391558	-2.183449	-94.517651
20885		9.431331	-2.166520	-94.317008
20886		9.501391	-2.158738	-94.102017
20887		9.611867	-2.146777	-93.865715
20888		9.732719	-2.139132	-93.614789
20889		9.798480	-2.141269	-93.354999
20890		9.814648	-2.144191	-93.098865
20891		9.806050	-2.148757	-92.830784
20892		9.801618	-2.148046	-92.555195
20893		9.839471	-2.131021	-92.261207
20894		9.922021	-2.126383	-91.951841
20895		10.040675	-2.126404	-91.617784
20896		10.193211	-2.123898	-91.282754
20897		10.318313	-2.127337	-90.927959
20898		10.404029	-2.126206	-90.581439
20899		10.422510	-2.136417	-90.224271
20900		10.385892	-2.149410	-89.860931
20901		10.350056	-2.160251	-89.490364
20902		10.343301	-2.153370	-89.119386
20903		10.353241	-2.152179	-88.733578
20904		10.351637	-2.162773	-88.339222
20905		10.315447	-2.171384	-87.944632
20906		10.227990	-2.185201	-87.552189
20907		10.097272	-2.198245	-87.158248
20908		9.931839	-2.220347	-86.762828
20909		9.752605	-2.243473	-86.365330
20910		9.636126	-2.253369	-85.956152
20911		9.584301	-2.247359	-85.532363
20912		9.587647	-2.239815	-85.092595
20913		9.610089	-2.244374	-84.634732
20914		9.616772	-2.251541	-84.165886
20915		9.535933	-2.273740	-83.691851
20916		9.391140	-2.310081	-83.214522
20917		9.216337	-2.344314	-82.738324
20918		9.035773	-2.380771	-82.273628
20919		8.867953	-2.399466	-81.786284
20920		8.780799	-2.395929	-81.277835
20921		8.745680	-2.401824	-80.746649
20922		8.759173	-2.417950	-80.197989
20923		8.773405	-2.433909	-79.641148
20924		8.735067	-2.461148	-79.102403
20925		8.655526	-2.483103	-78.571744
20926		8.572168	-2.498127	-78.065461
20927		8.472715	-2.499137	-77.557728
20928		8.427255	-2.501256	-77.069887
20929		8.404252	-2.497925	-76.565345
20930		8.435377	-2.491518	-76.054360
20931		8.484065	-2.494057	-75.503221
20932		8.553812	-2.499437	-74.934310
20933		8.630851	-2.518054	-74.334879
20934		8.691903	-2.546910	-73.723576
20935		8.734307	-2.568925	-73.093512
20936		8.753991	-2.604151	-72.466119
20937		8.707411	-2.645590	-71.827167
20938		8.616070	-2.698608	-71.200420
20939		8.512216	-2.747298	-70.553758
20940		8.406189	-2.788723	-69.907238
20941		8.309940	-2.836588	-69.239849
20942		8.229041	-2.886219	-68.560988
20943		8.159889	-2.945384	-67.859893
20944		8.118985	-3.013945	-67.162332
20945		8.067010	-3.084139	-66.451192
20946		8.034559	-3.156514	-65.757423
20947		8.029352	-3.224673	-65.061737
20948		8.058901	-3.296741	-64.379680
20949		8.101217	-3.375378	-63.694448
20950		8.191773	-3.459167	-63.014227
20951		8.317316	-3.527662	-62.313303
20952		8.469798	-3.593072	-61.609728
20953		8.618227	-3.653515	-60.885976
20954		8.757883	-3.708653	-60.166308
20955		8.886940	-3.757861	-59.436279
20956		9.029234	-3.809419	-58.712293
20957		9.187436	-3.860354	-57.988661
20958		9.386821	-3.903490	-57.271110
20959		9.619955	-3.930676	-56.544081
20960		9.826939	-3.947154	-55.822775
20961		10.021432	-3.960744	-55.089365
20962		10.239695	-3.976389	-54.359871
20963		10.460421	-3.990368	-53.619438
20964		10.705334	-3.998356	-52.885149
20965		10.964395	-3.997641	-52.138977
20966		11.174283	-3.998956	-51.396995
20967		11.245191	-4.015966	-50.634709
20968		11.238600	-4.042262	-49.867155
20969		11.164120	-4.070513	-49.083420
20970		11.086022	-4.098005	-48.301789
20971		11.022174	-4.125482	-47.508445
20972		10.984306	-4.154634	-46.721176
20973		10.936986	-4.179725	-45.913872
20974		10.876519	-4.212277	-45.104027
20975		10.788578	-4.247672	-44.277154
20976		10.718994	-4.285272	-43.447604
20977		10.682943	-4.322815	-42.606370
20978		10.732898	-4.352196	-41.774504
20979		10.884660	-4.371699	-40.936910
20980		11.086626	-4.373504	-40.104051
20981		11.240513	-4.372332	-39.275181
20982		11.224704	-4.392593	-38.465197
20983		11.017667	-4.442379	-37.658281
20984		10.682219	-4.515998	-36.855578
20985		10.321753	-4.596975	-36.038634
20986		10.047958	-4.674535	-35.220994
20987		9.864472	-4.742254	-34.396844
20988		9.818361	-4.797020	-33.588457
20989		9.869980	-4.841770	-32.794191
20990		9.945156	-4.875970	-32.027941
20991		9.989192	-4.919850	-31.281324
20992		9.964777	-4.968413	-30.554716
20993		9.819655	-5.023249	-29.827711
20994		9.624780	-5.089662	-29.101630
20995		9.440377	-5.154969	-28.367394
20996		9.294950	-5.217498	-27.639133
20997		9.180483	-5.279559	-26.921541
20998		9.155292	-5.331239	-26.227136
20999		9.160421	-5.375664	-25.548438
21000		9.201939	-5.421243	-24.885997
21001		9.291887	-5.460031	-24.224409
21002		9.445848	-5.492761	-23.568163
21003		9.635124	-5.524413	-22.905596
21004		9.842651	-5.552709	-22.250494
21005		10.018447	-5.574996	-21.603065
21006		10.073241	-5.609272	-20.981699
21007		9.900355	-5.662774	-20.375943
21008		9.570174	-5.730182	-19.785872
21009		9.204382	-5.795469	-19.198066
21010		8.879865	-5.860896	-18.618210
21011		8.672558	-5.917533	-18.034993
21012		8.680965	-5.948175	-17.458993
21013		8.795306	-5.971215	-16.884171
21014		8.951135	-5.982484	-16.316671
21015		9.099620	-5.986137	-15.752021
21016		9.181120	-6.002814	-15.197787
21017		9.088795	-6.048281	-14.646589
21018		8.830114	-6.110597	-14.094034
21019		8.511730	-6.169239	-13.542098
21020		8.241035	-6.221101	-12.993192
21021		8.031434	-6.256243	-12.444735
21022		7.927112	-6.276449	-11.910448
21023		7.860922	-6.293479	-11.379607
21024		7.775559	-6.306761	-10.858789
21025		7.644918	-6.325141	-10.337593
21026		7.491623	-6.345987	-9.821367
21027		7.279801	-6.372906	-9.298482
21028		7.050191	-6.404159	-8.784361
21029		6.834244	-6.429144	-8.268301
21030		6.604115	-6.449673	-7.765749
21031		6.316181	-6.471204	-7.262108
21032		5.912896	-6.492824	-6.760458
21033		5.439562	-6.524713	-6.249877
21034		4.919288	-6.562430	-5.730451
21035		4.418840	-6.600166	-5.207562
21036		4.051617	-6.626375	-4.695836
21037		3.831467	-6.639427	-4.196559
21038		3.722184	-6.645515	-3.728949
21039		3.653590	-6.642752	-3.276836
21040		3.616539	-6.635694	-2.844886
21041		3.589123	-6.624019	-2.423104
21042		3.567637	-6.612502	-2.018828
21043		3.544901	-6.601261	-1.616993
21044		3.537798	-6.585261	-1.229531
21045		3.545067	-6.569089	-0.846205
21046		3.538454	-6.547109	-0.475688
21047		3.519223	-6.528403	-0.109179
21048		3.474083	-6.507126	0.249282
21049		3.407808	-6.492934	0.603243
21050		3.379772	-6.476393	0.947022
21051		3.382454	-6.457088	1.284066
21052		3.412385	-6.436418	1.601461
21053		3.443367	-6.423992	1.909473
21054		3.472453	-6.413570	2.209162
21055		3.504687	-6.403510	2.509503
21056		3.541401	-6.393599	2.811504
21057		3.586554	-6.378694	3.116360
21058		3.632789	-6.359226	3.415013
21059		3.685832	-6.333209	3.697631
21060		3.722106	-6.300824	3.959396
21061		3.707494	-6.280262	4.199025
21062		3.674489	-6.261556	4.418552
21063		3.661324	-6.240700	4.634920
21064		3.685515	-6.219730	4.851801
21065		3.740981	-6.193449	5.072807
21066		3.763024	-6.171405	5.288949
21067		3.723282	-6.153535	5.502946
21068		3.627076	-6.136230	5.702099
21069		3.473692	-6.127074	5.893319
21070		3.327403	-6.115888	6.073571
21071		3.243651	-6.099354	6.243141
21072		3.217900	-6.080571	6.397110
21073		3.262215	-6.056830	6.534526
21074		3.325311	-6.024666	6.649620
21075		3.361446	-5.997170	6.743759
21076		3.370608	-5.965380	6.819952
21077		3.340621	-5.928353	6.879932
21078		3.281231	-5.887294	6.924466
21079		3.209899	-5.846095	6.962185
21080		3.154444	-5.807137	6.991041
21081		3.126702	-5.767833	7.018340
21082		3.103560	-5.731170	7.038977
21083		3.076308	-5.699706	7.047668
21084		3.036063	-5.673650	7.047136
21085		2.982534	-5.646313	7.040505
21086		2.936513	-5.615925	7.027398
21087		2.901796	-5.583608	7.016400
21088		2.897859	-5.547329	7.006066
21089		2.917181	-5.509626	7.001483
21090		2.933007	-5.471754	6.997563
21091		2.914784	-5.440729	6.994182
21092		2.882122	-5.418918	6.992281
21093		2.857124	-5.401673	6.990947
21094		2.851797	-5.377312	6.988663
21095		2.865966	-5.352753	6.988068
21096		2.886256	-5.326452	6.984700
21097		2.908672	-5.299195	6.980982
21098		2.927101	-5.275255	6.976444
21099		2.953174	-5.252332	6.972362
21100		2.968568	-5.227971	6.962362
21101		2.964897	-5.208525	6.942601
21102		2.952475	-5.189966	6.912684
21103		2.939213	-5.168265	6.876661
21104		2.925811	-5.143992	6.827178
21105		2.922665	-5.121602	6.767465
21106		2.943302	-5.097712	6.698558
21107		2.984366	-5.073056	6.623226
21108		3.032971	-5.052405	6.542348
21109		3.068780	-5.035023	6.456201
21110		3.050523	-5.015053	6.359935
21111		2.993519	-5.001776	6.246759
21112		2.895417	-4.994416	6.113453
21113		2.789304	-4.988502	5.960636
21114		2.726124	-4.978229	5.787616
21115		2.694493	-4.968155	5.589076
21116		2.692189	-4.959749	5.370608
21117		2.725185	-4.950466	5.142204
21118		2.780974	-4.934608	4.905207
21119		2.831100	-4.919560	4.665476
21120		2.830848	-4.911204	4.420812
21121		2.781696	-4.910437	4.174916
21122		2.716245	-4.917707	3.923521
21123		2.677971	-4.928566	3.664871
21124		2.655836	-4.941907	3.387860
21125		2.669911	-4.963983	3.092789
21126		2.715032	-4.978155	2.780186
21127		2.757298	-4.991280	2.453895
21128		2.778145	-5.005237	2.120721
21129		2.778556	-5.014257	1.783062
21130		2.731883	-5.024933	1.440554
21131		2.665608	-5.044591	1.093851
21132		2.599964	-5.061959	0.740443
21133		2.528008	-5.076672	0.376317
21134		2.465328	-5.100650	-0.005072
21135		2.411223	-5.124047	-0.401082
21136		2.331273	-5.149943	-0.812424
21137		2.248959	-5.186128	-1.232077
21138		2.193741	-5.216537	-1.654039
21139		2.143135	-5.240102	-2.083949
21140		2.083350	-5.270501	-2.513466
21141		2.048950	-5.295880	-2.952388
21142		2.020522	-5.315062	-3.402003
21143		2.018843	-5.335330	-3.865057
21144		2.048141	-5.353831	-4.346432
21145		2.098311	-5.373922	-4.846132
21146		2.129642	-5.396233	-5.355592
21147		2.124274	-5.421439	-5.876000
21148		2.102941	-5.449489	-6.397284
21149		2.079190	-5.484277	-6.913041
21150		2.078363	-5.523013	-7.420900
21151		2.107829	-5.562032	-7.924072
21152		2.146390	-5.600105	-8.423703
21153		2.178202	-5.625085	-8.924385
21154		2.159630	-5.651977	-9.434409
21155		2.086303	-5.678167	-9.954543
21156		1.970169	-5.702667	-10.487966
21157		1.840288	-5.729071	-11.031807
21158		1.736242	-5.753976	-11.575711
21159		1.707518	-5.776392	-12.123310
21160		1.725862	-5.785823	-12.670362
21161		1.743723	-5.792995	-13.226363
21162		1.716306	-5.804819	-13.785643
21163		1.666624	-5.818499	-14.350086
21164		1.613935	-5.828609	-14.913560
21165		1.571307	-5.833136	-15.474181
21166		1.561851	-5.824623	-16.041368
21167		1.594642	-5.805191	-16.619098
21168		1.629489	-5.773249	-17.212585
21169		1.640897	-5.736623	-17.829732
21170		1.619158	-5.704424	-18.462053
21171		1.605885	-5.676305	-19.099570
21172		1.616065	-5.647431	-19.726360
21173		1.678914	-5.618929	-20.333827
21174		1.773938	-5.584633	-20.926584
21175		1.876105	-5.544646	-21.507098
21176		1.954404	-5.509403	-22.086107
21177		1.983680	-5.464080	-22.670935
21178		1.942038	-5.415245	-23.272089
21179		1.836083	-5.386367	-23.876126
21180		1.719811	-5.360072	-24.478564
21181		1.654204	-5.337229	-25.061767
21182		1.649956	-5.314541	-25.620218
21183		1.700436	-5.294267	-26.152904
21184		1.781921	-5.270127	-26.665648
21185		1.855954	-5.240075	-27.162845
21186		1.861284	-5.208055	-27.652892
21187		1.773678	-5.189551	-28.144587
21188		1.607617	-5.182721	-28.640848
21189		1.406375	-5.186300	-29.137343
21190		1.232292	-5.190051	-29.632183
21191		1.156172	-5.189485	-30.124609
21192		1.150381	-5.171823	-30.616243
21193		1.167131	-5.143197	-31.108537
21194		1.189839	-5.110951	-31.608378
21195		1.179393	-5.076861	-32.117969
21196		1.110624	-5.045751	-32.636976
21197		1.029875	-5.024919	-33.162348
21198		0.968509	-5.005171	-33.690900
21199		0.959439	-4.980443	-34.220393
21200		0.969479	-4.952389	-34.747865
21201		1.006343	-4.922125	-35.267561
21202		1.035190	-4.888899	-35.786276
21203		1.014603	-4.859424	-36.304769
21204		0.963031	-4.831119	-36.835664
21205		0.899971	-4.807156	-37.373368
21206		0.838119	-4.783425	-37.925088
21207		0.810263	-4.757376	-38.484834
21208		0.804832	-4.722287	-39.047808
21209		0.802317	-4.681089	-39.608926
21210		0.765110	-4.642094	-40.167953
21211		0.705475	-4.606205	-40.723860
21212		0.636923	-4.567764	-41.281151
21213		0.603806	-4.533790	-41.841961
21214		0.603297	-4.494080	-42.411017
21215		0.618067	-4.444530	-42.986477
21216		0.620556	-4.393713	-43.571170
21217		0.581720	-4.350958	-44.156016
21218		0.480893	-4.316992	-44.741400
21219		0.360226	-4.293401	-45.318729
21220		0.256336	-4.272202	-45.893606
21221		0.226034	-4.246095	-46.462200
21222		0.258872	-4.204257	-47.028993
21223		0.308410	-4.153956	-47.600708
21224		0.335918	-4.115112	-48.179718
21225		0.290605	-4.090322	-48.756544
21226		0.190991	-4.071982	-49.339930
21227		0.079735	-4.060750	-49.914511
21228		-0.013711	-4.056237	-50.483554
21229		-0.025309	-4.050595	-51.050041
21230		0.090568	-4.035658	-51.616626
21231		0.322132	-4.009781	-52.191696
21232		0.623933	-3.968059	-52.773852
21233		0.956626	-3.916850	-53.359969
21234		1.256290	-3.875028	-53.950312
21235		1.545623	-3.832751	-54.534751
21236		1.827640	-3.783442	-55.112296
21237		2.108875	-3.731626	-55.679560
21238		2.426339	-3.666739	-56.240935
21239		2.767629	-3.573187	-56.793683
21240		3.041119	-3.472173	-57.349540
21241		3.161671	-3.371497	-57.902468
21242		3.108270	-3.284294	-58.451808
21243		2.875537	-3.225725	-58.991629
21244		2.584566	-3.174487	-59.526355
21245		2.349422	-3.116844	-60.051028
21246		2.214655	-3.066473	-60.572161
21247		2.285785	-3.006441	-61.087833
21248		2.556937	-2.924910	-61.609770
21249		2.829851	-2.844688	-62.129041
21250		3.079730	-2.766847	-62.645641
21251		3.288621	-2.677650	-63.156158
21252		3.400321	-2.589145	-63.678324
21253		3.397222	-2.520358	-64.200375
21254		3.291656	-2.474548	-64.739252
21255		3.180229	-2.431559	-65.278282
21256		3.114955	-2.388722	-65.818376
21257		3.083737	-2.333983	-66.346755
21258		3.077781	-2.278707	-66.869934
21259		3.077250	-2.235913	-67.371910
21260		3.057970	-2.199282	-67.873639
21261		3.047647	-2.154841	-68.367909
21262		3.013424	-2.119907	-68.880261
21263		2.984273	-2.098909	-69.406734
21264		3.018715	-2.047863	-69.949550
21265		3.054973	-1.964500	-70.500851
21266		3.043324	-1.889852	-71.064592
21267		3.010779	-1.821496	-71.616843
21268		2.916991	-1.764167	-72.154595
21269		2.859799	-1.700226	-72.688870
21270		2.836772	-1.642176	-73.225550
21271		2.867229	-1.598883	-73.771432
21272		2.947169	-1.563991	-74.326932
21273		3.046176	-1.515551	-74.879637
21274		3.127417	-1.474696	-75.427005
21275		3.196666	-1.447916	-75.943946
21276		3.229906	-1.421361	-76.437295
21277		3.251679	-1.396891	-76.909896
21278		3.253512	-1.376663	-77.372673
21279		3.247048	-1.368992	-77.823421
21280		3.285209	-1.370250	-78.279031
21281		3.415577	-1.368192	-78.724889
21282		3.590730	-1.356292	-79.170267
21283		3.779852	-1.358644	-79.600975
21284		3.904332	-1.354626	-80.016908
21285		3.910796	-1.340917	-80.418808
21286		3.866537	-1.338479	-80.816780
21287		3.874035	-1.330260	-81.196614
21288		3.997027	-1.295093	-81.579096
21289		4.231587	-1.254017	-81.959742
21290		4.609195	-1.214558	-82.349301
21291		5.073624	-1.167929	-82.718270
21292		5.497023	-1.118745	-83.073817
21293		5.797565	-1.080334	-83.397597
21294		5.948114	-1.046564	-83.708283
21295		5.976704	-1.023332	-84.000331
21296		5.855693	-0.995358	-84.279672
21297		5.658172	-0.962910	-84.539193
21298		5.457481	-0.925927	-84.783501
21299		5.354775	-0.888244	-84.994699
21300		5.340466	-0.860051	-85.179674
21301		5.394041	-0.835487	-85.343253
21302		5.474662	-0.808542	-85.502786
21303		5.537810	-0.775450	-85.657210
21304		5.547356	-0.755166	-85.822421
21305		5.486225	-0.731645	-85.980465
21306		5.402334	-0.694865	-86.146330
21307		5.347434	-0.660753	-86.304093
21308		5.368006	-0.626439	-86.455384
21309		5.439087	-0.586495	-86.588440
21310		5.509831	-0.541022	-86.717502
21311		5.566028	-0.496153	-86.835955
21312		5.611216	-0.448794	-86.956789
21313		5.614444	-0.402995	-87.066821
21314		5.532818	-0.367530	-87.180224
21315		5.413798	-0.348234	-87.278097
21316		5.316416	-0.328529	-87.365583
21317		5.223999	-0.297032	-87.424539
21318		5.112215	-0.258765	-87.472125
21319		4.984510	-0.225071	-87.497830
21320		4.835019	-0.194699	-87.518019
21321		4.664577	-0.168715	-87.519030
21322		4.515042	-0.148252	-87.502541
21323		4.412358	-0.144527	-87.471660
21324		4.351992	-0.140415	-87.426904
21325		4.321045	-0.139532	-87.354088
21326		4.294599	-0.137810	-87.273539
21327		4.253562	-0.131688	-87.177994
21328		4.199324	-0.128305	-87.080698
21329		4.128060	-0.126238	-86.969276
21330		4.076322	-0.122567	-86.850217
21331		4.057104	-0.117200	-86.706782
21332		4.068206	-0.119374	-86.550604
21333		4.102653	-0.125789	-86.364334
21334		4.138343	-0.131565	-86.159887
21335		4.134166	-0.134379	-85.936186
21336		4.090453	-0.137966	-85.710175
21337		4.015290	-0.142200	-85.472391
21338		3.931668	-0.145099	-85.231790
21339		3.872705	-0.150682	-84.988364
21340		3.872546	-0.155505	-84.748014
21341		3.891103	-0.165275	-84.494850
21342		3.946722	-0.173898	-84.239291
21343		4.008582	-0.180189	-83.971120
21344		4.065989	-0.180298	-83.706186
21345		4.085878	-0.178578	-83.440887
21346		4.083708	-0.180951	-83.193031
21347		4.081578	-0.175955	-82.939745
21348		4.088779	-0.166696	-82.692977
21349		4.134642	-0.163555	-82.431869
21350		4.241920	-0.164672	-82.161798
21351		4.371288	-0.168118	-81.868585
21352		4.494877	-0.164901	-81.572641
21353		4.587381	-0.145571	-81.268173
21354		4.633833	-0.133919	-80.969656
21355		4.631782	-0.129838	-80.666448
21356		4.620847	-0.122768	-80.361477
21357		4.620100	-0.105301	-80.041600
21358		4.598747	-0.106545	-79.702482
21359		4.559908	-0.128554	-79.337845
21360		4.504040	-0.155545	-78.957951
21361		4.416218	-0.177466	-78.572537
21362		4.323747	-0.192506	-78.199503
21363		4.185904	-0.218734	-77.831970
21364		4.027888	-0.249647	-77.479923
21365		3.894773	-0.272615	-77.133483
21366		3.841516	-0.281720	-76.794942
21367		3.835039	-0.290263	-76.443848
21368		3.839189	-0.313191	-76.085823
21369		3.808461	-0.341544	-75.707939
21370		3.752456	-0.378661	-75.330725
21371		3.708596	-0.415783	-74.943339
21372		3.687213	-0.450825	-74.563847
21373		3.696820	-0.485930	-74.190617
21374		3.764425	-0.514371	-73.823899
21375		3.836610	-0.545376	-73.452365
21376		3.899729	-0.582707	-73.080340
21377		3.935676	-0.622455	-72.686442
21378		3.960273	-0.670226	-72.288852
21379		4.002224	-0.712505	-71.875797
21380		4.027629	-0.751088	-71.464028
21381		4.020734	-0.799386	-71.053254
21382		4.053447	-0.846532	-70.646988
21383		4.106823	-0.890358	-70.236516
21384		4.175760	-0.929934	-69.831124
21385		4.245371	-0.959287	-69.413371
21386		4.259811	-0.987564	-68.991309
21387		4.160251	-1.035780	-68.550507
21388		3.983514	-1.103611	-68.103710
21389		3.789815	-1.174161	-67.644305
21390		3.646957	-1.244606	-67.194295
21391		3.539620	-1.311747	-66.735947
21392		3.512262	-1.372283	-66.283304
21393		3.523485	-1.431493	-65.822706
21394		3.533757	-1.489641	-65.360527
21395		3.506512	-1.558945	-64.886457
21396		3.461775	-1.625971	-64.414422
21397		3.409788	-1.691105	-63.939997
21398		3.377173	-1.759810	-63.472458
21399		3.396895	-1.821056	-63.010707
21400		3.505648	-1.870484	-62.560985
21401		3.652042	-1.919449	-62.111697
21402		3.789639	-1.971965	-61.669223
21403		3.849255	-2.023694	-61.215888
21404		3.810860	-2.086158	-60.759298
21405		3.709244	-2.153227	-60.282377
21406		3.606229	-2.211524	-59.798130
21407		3.509835	-2.266761	-59.303460
21408		3.452682	-2.315276	-58.817589
21409		3.477515	-2.353191	-58.333134
21410		3.540247	-2.383336	-57.859340
21411		3.587285	-2.407135	-57.384616
21412		3.588933	-2.429800	-56.912351
21413		3.532223	-2.448188	-56.419882
21414		3.437021	-2.462116	-55.915685
21415		3.355944	-2.471906	-55.390736
21416		3.339336	-2.485565	-54.859670
21417		3.342618	-2.496638	-54.329429
21418		3.371136	-2.506126	-53.825465
21419		3.464674	-2.509638	-53.343011
21420		3.581756	-2.502766	-52.887341
21421		3.663286	-2.510650	-52.451407
21422		3.711299	-2.524581	-52.024845
21423		3.733152	-2.536095	-51.591335
21424		3.754356	-2.550353	-51.155067
21425		3.784524	-2.564010	-50.708728
21426		3.840244	-2.575326	-50.267331
21427		3.892941	-2.579640	-49.824773
21428		3.941195	-2.579654	-49.391045
21429		3.970147	-2.586524	-48.955922
21430		4.007817	-2.594256	-48.522445
21431		4.042191	-2.606111	-48.085024
21432		4.084329	-2.629258	-47.644389
21433		4.096654	-2.652029	-47.185869
21434		4.042017	-2.675813	-46.723939
21435		3.884185	-2.710066	-46.249901
21436		3.647647	-2.755394	-45.771532
21437		3.351514	-2.817454	-45.280493
21438		3.046329	-2.889221	-44.788575
21439		2.788642	-2.963975	-44.290344
21440		2.650348	-3.035996	-43.793771
21441		2.669842	-3.099937	-43.293478
21442		2.870851	-3.144033	-42.790195
21443		3.182619	-3.170662	-42.281518
21444		3.502587	-3.181938	-41.770140
21445		3.727479	-3.199761	-41.251385
21446		3.860382	-3.223784	-40.726705
21447		3.951433	-3.253444	-40.194617
21448		4.076466	-3.278791	-39.666995
21449		4.268687	-3.297727	-39.148653
21450		4.534979	-3.296730	-38.648583
21451		4.809433	-3.278037	-38.160839
21452		5.045496	-3.263260	-37.683979
21453		5.194116	-3.254190	-37.204937
21454		5.283509	-3.246070	-36.725871
21455		5.329298	-3.241408	-36.242131
21456		5.372065	-3.245765	-35.756403
21457		5.431964	-3.255342	-35.257842
21458		5.533686	-3.260681	-34.749336
21459		5.668086	-3.267879	-34.219581
21460		5.799984	-3.283876	-33.675743
21461		5.865036	-3.304310	-33.116587
21462		5.851407	-3.330079	-32.552719
21463		5.764454	-3.372246	-31.984306
21464		5.687279	-3.420033	-31.418341
21465		5.656886	-3.457274	-30.847318
21466		5.690772	-3.488970	-30.271600
21467		5.752391	-3.512265	-29.682765
21468		5.800077	-3.542748	-29.085728
21469		5.800480	-3.581063	-28.473614
21470		5.759570	-3.624898	-27.856718
21471		5.723208	-3.674613	-27.227564
21472		5.745154	-3.724587	-26.592842
21473		5.808525	-3.768526	-25.951560
21474		5.904638	-3.809296	-25.318314
21475		5.991584	-3.851449	-24.688557
21476		6.015140	-3.889325	-24.067998
21477		5.988352	-3.924940	-23.454075
21478		5.944252	-3.954509	-22.843763
21479		5.897855	-3.986266	-22.224835
21480		5.895164	-4.007168	-21.605511
21481		5.906182	-4.028306	-20.977643
21482		5.903500	-4.050272	-20.351002
21483		5.823716	-4.075151	-19.722273
21484		5.680480	-4.109541	-19.092551
21485		5.499383	-4.147308	-18.453048
21486		5.354372	-4.175743	-17.807215
21487		5.281619	-4.189965	-17.155559
21488		5.259359	-4.196568	-16.514067
21489		5.259081	-4.197981	-15.880411
21490		5.276068	-4.185835	-15.268079
21491		5.248697	-4.170711	-14.666372
21492		5.172144	-4.151795	-14.078176
21493		5.060467	-4.133085	-13.488930
21494		4.928467	-4.111906	-12.908453
21495		4.768693	-4.089478	-12.331777
21496		4.618366	-4.074087	-11.770123
21497		4.520003	-4.054880	-11.219332
21498		4.490190	-4.024740	-10.688711
21499		4.458193	-3.985898	-10.169148
21500		4.377122	-3.951188	-9.663634
21501		4.207063	-3.914527	-9.154559
21502		3.972699	-3.882504	-8.646292
21503		3.694950	-3.859256	-8.129311
21504		3.451069	-3.835435	-7.615299
21505		3.262252	-3.804999	-7.110155
21506		3.141997	-3.772485	-6.619790
21507		3.078037	-3.731113	-6.148161
21508		3.003963	-3.688829	-5.692239
21509		2.912327	-3.648371	-5.242654
21510		2.826635	-3.604218	-4.791400
21511		2.737214	-3.559049	-4.330022
21512		2.681249	-3.512197	-3.860723
21513		2.640274	-3.465242	-3.389071
21514		2.595161	-3.421273	-2.925520
21515		2.540749	-3.382863	-2.471411
21516		2.471321	-3.348545	-2.024820
21517		2.401467	-3.315396	-1.585917
21518		2.343980	-3.286075	-1.148109
21519		2.293129	-3.253507	-0.713184
21520		2.244094	-3.224514	-0.282934
21521		2.182252	-3.194904	0.143400
21522		2.084463	-3.173845	0.562455
21523		1.959180	-3.156796	0.972910
21524		1.867914	-3.143121	1.370975
21525		1.822999	-3.127569	1.763925
21526		1.817639	-3.107657	2.139000
21527		1.852022	-3.087958	2.499505
21528		1.890350	-3.068322	2.841900
21529		1.900433	-3.056870	3.172079
21530		1.902094	-3.047302	3.489676
21531		1.903357	-3.041391	3.801642
21532		1.922376	-3.031399	4.102394
21533		1.964400	-3.012713	4.393528
21534		1.973550	-2.994319	4.668387
21535		1.927810	-2.978333	4.931349
21536		1.845066	-2.966561	5.180673
21537		1.736847	-2.962355	5.418581
21538		1.638249	-2.960890	5.637493
21539		1.615406	-2.961327	5.844674
21540		1.682576	-2.949280	6.029026
21541		1.754424	-2.942093	6.190939
21542		1.828866	-2.931607	6.334592
21543		1.865792	-2.921263	6.463043
21544		1.872167	-2.909289	6.578277
21545		1.860016	-2.899045	6.684691
21546		1.845991	-2.883705	6.784832
21547		1.818921	-2.869345	6.875914
21548		1.783512	-2.852367	6.956439
21549		1.740242	-2.836755	7.024088
21550		1.688840	-2.822276	7.079891
21551		1.648888	-2.817515	7.126914
21552		1.626600	-2.817078	7.171178
21553		1.641558	-2.819197	7.208810
21554		1.712943	-2.819854	7.240403
21555		1.811744	-2.815102	7.257884
21556		1.905737	-2.797301	7.258329
21557		1.969142	-2.772402	7.244619
21558		1.961904	-2.743876	7.211977
21559		1.891030	-2.719270	7.163839
21560		1.797831	-2.696187	7.109637
21561		1.743694	-2.672897	7.056020
21562		1.744872	-2.654215	7.009917
21563		1.790049	-2.638645	6.969714
21564		1.864468	-2.630457	6.932217
21565		1.938162	-2.621430	6.897259
21566		1.972956	-2.613962	6.856205
21567		1.959060	-2.614628	6.800249
21568		1.884786	-2.621838	6.731666
21569		1.796176	-2.637070	6.652768
21570		1.744123	-2.656316	6.568180
21571		1.749581	-2.682594	6.484372
21572		1.818237	-2.701704	6.400343
21573		1.947243	-2.720536	6.308764
21574		2.081471	-2.735922	6.206021
21575		2.172007	-2.747131	6.085609
21576		2.204325	-2.763867	5.948881
21577		2.205306	-2.785329	5.797404
21578		2.204239	-2.807997	5.640737
21579		2.210409	-2.832666	5.481034
21580		2.246855	-2.857299	5.323838
21581		2.290422	-2.880745	5.169742
21582		2.286834	-2.911713	5.012124
21583		2.227596	-2.951353	4.851353
21584		2.130736	-3.000690	4.687369
21585		2.026011	-3.056325	4.524123
21586		1.938739	-3.107798	4.362768
21587		1.873808	-3.161593	4.197289
21588		1.861114	-3.206644	4.020260
21589		1.865118	-3.241671	3.828027
21590		1.847906	-3.269436	3.609837
21591		1.794289	-3.296612	3.370961
21592		1.667661	-3.329126	3.107497
21593		1.509994	-3.365818	2.814272
21594		1.389488	-3.390022	2.499773
21595		1.324646	-3.406877	2.165095
21596		1.303858	-3.420405	1.813626
21597		1.292173	-3.424488	1.440427
21598		1.279308	-3.429847	1.055085
21599		1.259953	-3.434021	0.658186
21600		1.235829	-3.436562	0.257825
21601		1.221444	-3.441009	-0.146231
21602		1.214961	-3.443144	-0.556509
21603		1.218302	-3.444773	-0.978307
21604		1.226882	-3.442899	-1.410581
21605		1.231830	-3.442147	-1.856092
21606		1.205631	-3.443433	-2.306177
21607		1.161605	-3.444822	-2.762206
21608		1.104322	-3.451595	-3.215980
21609		1.071386	-3.460573	-3.666445
21610		1.102890	-3.463374	-4.115889
21611		1.178748	-3.454680	-4.577630
21612		1.219954	-3.434034	-5.054449
21613		1.216202	-3.411613	-5.553000
21614		1.154340	-3.382352	-6.066664
21615		1.011765	-3.362564	-6.590244
21616		0.823737	-3.351688	-7.110914
21617		0.653808	-3.346342	-7.623663
21618		0.537796	-3.337917	-8.127431
21619		0.467997	-3.327373	-8.625593
21620		0.404835	-3.318976	-9.122050
21621		0.368222	-3.313371	-9.624242
21622		0.320695	-3.306451	-10.130809
21623		0.252971	-3.303930	-10.636663
21624		0.217920	-3.303258	-11.145032
21625		0.242115	-3.302271	-11.650831
21626		0.312249	-3.292397	-12.156322
21627		0.419420	-3.279946	-12.669823
21628		0.543848	-3.258111	-13.192233
21629		0.653750	-3.233735	-13.726096
21630		0.722283	-3.210983	-14.267962
21631		0.773199	-3.195739	-14.809910
21632		0.809799	-3.182738	-15.342497
21633		0.843911	-3.176061	-15.857247
21634		0.861771	-3.170922	-16.352184
21635		0.856123	-3.168849	-16.838093
21636		0.816062	-3.165348	-17.322910
21637		0.730808	-3.167623	-17.821649
21638		0.622539	-3.164082	-18.342821
21639		0.516693	-3.164352	-18.881250
21640		0.430061	-3.165559	-19.429862
21641		0.374682	-3.166482	-19.978906
21642		0.370586	-3.157310	-20.521062
21643		0.392435	-3.149818	-21.052432
21644		0.395363	-3.142288	-21.572787
21645		0.375510	-3.134003	-22.085843
21646		0.329500	-3.141343	-22.597759
21647		0.259147	-3.156567	-23.106734
21648		0.187636	-3.169609	-23.615200
21649		0.149012	-3.183853	-24.127224
21650		0.140132	-3.188558	-24.641748
21651		0.183476	-3.180139	-25.165474
21652		0.234636	-3.158645	-25.697527
21653		0.278928	-3.133036	-26.245205
21654		0.268530	-3.104046	-26.808257
21655		0.226893	-3.087038	-27.388803
21656		0.193572	-3.073968	-27.977588
21657		0.214092	-3.068044	-28.564542
21658		0.293980	-3.059487	-29.140261
21659		0.375250	-3.053490	-29.702953
21660		0.422283	-3.046115	-30.250126
21661		0.425911	-3.043748	-30.790029
21662		0.371641	-3.043621	-31.328239
21663		0.296224	-3.042208	-31.871633
21664		0.234868	-3.039487	-32.422142
21665		0.246916	-3.031099	-32.984038
21666		0.311723	-3.009711	-33.556635
21667		0.387341	-2.980814	-34.138347
21668		0.399324	-2.945183	-34.721490
21669		0.324494	-2.908773	-35.307566
21670		0.136214	-2.895231	-35.886660
21671		-0.098814	-2.890573	-36.449010
21672		-0.320382	-2.891308	-37.004926
21673		-0.432644	-2.893244	-37.555262
21674		-0.379226	-2.874493	-38.105775
21675		-0.261457	-2.844331	-38.665157
21676		-0.158550	-2.818199	-39.231870
21677		-0.083091	-2.794533	-39.798905
21678		-0.086101	-2.777217	-40.365658
21679		-0.123713	-2.767661	-40.922883
21680		-0.123552	-2.756773	-41.474742
21681		-0.024349	-2.735154	-42.026323
21682		0.131744	-2.693105	-42.586705
21683		0.269195	-2.629746	-43.163365
21684		0.352334	-2.576093	-43.751839
21685		0.337062	-2.527232	-44.350343
21686		0.185550	-2.494820	-44.952353
21687		0.003162	-2.480310	-45.544027
21688		-0.122557	-2.471171	-46.125851
21689		-0.161035	-2.452205	-46.698883
21690		-0.139556	-2.421437	-47.276283
21691		-0.164137	-2.399464	-47.858215
21692		-0.261002	-2.387933	-48.449804
21693		-0.399821	-2.390236	-49.044422
21694		-0.532718	-2.400532	-49.638621
21695		-0.567296	-2.411024	-50.231343
21696		-0.406655	-2.404001	-50.821817
21697		-0.127184	-2.382283	-51.411088
21698		0.130982	-2.353152	-52.003216
21699		0.347280	-2.328082	-52.594362
21700		0.485260	-2.310918	-53.178764
21701		0.480367	-2.312239	-53.749842
21702		0.418348	-2.325977	-54.312182
21703		0.393780	-2.345470	-54.863465
21704		0.519651	-2.358306	-55.416082
21705		0.783129	-2.366045	-55.970318
21706		1.038716	-2.360989	-56.539894
21707		1.247403	-2.362057	-57.114949
21708		1.377700	-2.357880	-57.691453
21709		1.396664	-2.362044	-58.263575
21710		1.384594	-2.374981	-58.830114
21711		1.435827	-2.380023	-59.389713
21712		1.592423	-2.379406	-59.953249
21713		1.828563	-2.376395	-60.517244
21714		2.088471	-2.360416	-61.091863
21715		2.333597	-2.330792	-61.669961
21716		2.513825	-2.301507	-62.250512
21717		2.568269	-2.285216	-62.818882
21718		2.542629	-2.268109	-63.388676
21719		2.486628	-2.256765	-63.949902
21720		2.477417	-2.243840	-64.511679
21721		2.572613	-2.225458	-65.066727
21722		2.757017	-2.201806	-65.621217
21723		2.973867	-2.178343	-66.168376
21724		3.181497	-2.152460	-66.707607
21725		3.378621	-2.136832	-67.227056
21726		3.505616	-2.125796	-67.734092
21727		3.613461	-2.122354	-68.224913
21728		3.738343	-2.118944	-68.711996
21729		3.933174	-2.114976	-69.193769
21730		4.246598	-2.104854	-69.682427
21731		4.672744	-2.091792	-70.173640
21732		5.219694	-2.078937	-70.670255
21733		5.914566	-2.044049	-71.162247
21734		6.721791	-1.981749	-71.650235
21735		7.584201	-1.897651	-72.122180
21736		8.409068	-1.814773	-72.605448
21737		9.094715	-1.747554	-73.091550
21738		9.539026	-1.693901	-73.582554
21739		9.820598	-1.639990	-74.072566
21740		10.053296	-1.586459	-74.559284
21741		10.291701	-1.531765	-75.030174
21742		10.545142	-1.469487	-75.487527
21743		10.793046	-1.389494	-75.916152
21744		10.967615	-1.296772	-76.334294
21745		11.055828	-1.213379	-76.735733
21746		11.046644	-1.143009	-77.132119
21747		10.962144	-1.080799	-77.518605
21748		10.872950	-1.015908	-77.904020
21749		10.836093	-0.950229	-78.280470
21750		10.837322	-0.875190	-78.656587
21751		10.823362	-0.782484	-79.025622
21752		10.741619	-0.693464	-79.394103
21753		10.591447	-0.622885	-79.748848
21754		10.376512	-0.569167	-80.093257
21755		10.146678	-0.535939	-80.423441
21756		9.956224	-0.510303	-80.750009
21757		9.846107	-0.478188	-81.053638
21758		9.825044	-0.441457	-81.341291
21759		9.843164	-0.389053	-81.611058
21760		9.788847	-0.347752	-81.876796
21761		9.662165	-0.322381	-82.128288
21762		9.493324	-0.307712	-82.371739
21763		9.339004	-0.295603	-82.598273
21764		9.243385	-0.292192	-82.822761
21765		9.205983	-0.293933	-83.029199
21766		9.237074	-0.288845	-83.233585
21767		9.291824	-0.267352	-83.423777
21768		9.348389	-0.234712	-83.608124
21769		9.371551	-0.220725	-83.772549
21770		9.361520	-0.216379	-83.926381
21771		9.337328	-0.212694	-84.062802
21772		9.321634	-0.209780	-84.192492
21773		9.316331	-0.204677	-84.313940
21774		9.346407	-0.189923	-84.436051
21775		9.389970	-0.166400	-84.549760
21776		9.437889	-0.131559	-84.658537
21777		9.478209	-0.091967	-84.743158
21778		9.493865	-0.061267	-84.808810
21779		9.498862	-0.035180	-84.844789
21780		9.516846	-0.001517	-84.868524
21781		9.557085	0.030255	-84.875096
21782		9.580540	0.061336	-84.882690
21783		9.557666	0.082044	-84.888458
21784		9.511799	0.101190	-84.896863
21785		9.469908	0.125693	-84.890636
21786		9.435227	0.141205	-84.867310
21787		9.404105	0.153586	-84.803589
21788		9.376052	0.161979	-84.719057
21789		9.364741	0.159997	-84.607747
21790		9.377431	0.166157	-84.493514
21791		9.346888	0.174814	-84.383505
21792		9.271058	0.180210	-84.292184
21793		9.180228	0.188860	-84.209959
21794		9.084565	0.188353	-84.134544
21795		8.983848	0.191948	-84.044768
21796		8.882803	0.194801	-83.944705
21797		8.825734	0.195923	-83.824546
21798		8.845000	0.199325	-83.700869
21799		8.837089	0.198517	-83.572841
21800		8.800930	0.194887	-83.458858
21801		8.745530	0.185301	-83.343197
21802		8.665517	0.168482	-83.225737
21803		8.548027	0.158405	-83.088634
21804		8.442680	0.144686	-82.945270
21805		8.385516	0.135718	-82.788090
21806		8.377626	0.130721	-82.629746
21807		8.379635	0.128645	-82.469889
21808		8.409245	0.129681	-82.318044
21809		8.468002	0.136746	-82.156619
21810		8.549350	0.150763	-81.981266
21811		8.630723	0.173952	-81.777940
21812		8.686577	0.185551	-81.560559
21813		8.677923	0.183634	-81.328794
21814		8.651531	0.183078	-81.096910
21815		8.650395	0.192125	-80.862666
21816		8.670571	0.210255	-80.636620
21817		8.694240	0.240472	-80.407083
21818		8.703245	0.269354	-80.181721
21819		8.685722	0.302990	-79.942154
21820		8.643551	0.321712	-79.694013
21821		8.606239	0.333199	-79.424707
21822		8.575037	0.338194	-79.145725
21823		8.507888	0.327162	-78.847209
21824		8.420608	0.310826	-78.548035
21825		8.326231	0.291650	-78.237383
21826		8.252821	0.277838	-77.931417
21827		8.229438	0.276796	-77.616053
21828		8.255767	0.275537	-77.306625
21829		8.308483	0.273860	-76.987494
21830		8.350845	0.273913	-76.663475
21831		8.359175	0.273097	-76.324630
21832		8.321353	0.264604	-75.975949
21833		8.246143	0.250864	-75.609799
21834		8.178203	0.240131	-75.238596
21835		8.116989	0.231947	-74.854389
21836		8.072118	0.224962	-74.469007
21837		8.038129	0.222897	-74.074159
21838		8.009253	0.226409	-73.682783
21839		7.967810	0.232485	-73.279775
21840		7.911090	0.247898	-72.876598
21841		7.809466	0.260293	-72.464793
21842		7.687635	0.267317	-72.053451
21843		7.561306	0.273982	-71.632353
21844		7.439290	0.272346	-71.214433
21845		7.321362	0.256990	-70.795674
21846		7.222931	0.240183	-70.377609
21847		7.127311	0.219877	-69.950937
21848		7.055096	0.196360	-69.521898
21849		6.996296	0.172507	-69.081262
21850		6.923934	0.148064	-68.644729
21851		6.845044	0.124020	-68.204596
21852		6.799523	0.103991	-67.775545
21853		6.784514	0.088360	-67.351144
21854		6.817137	0.077649	-66.937449
21855		6.872668	0.068476	-66.520967
21856		6.950567	0.059726	-66.108886
21857		7.038434	0.052024	-65.689287
21858		7.143140	0.045908	-65.268352
21859		7.246832	0.036355	-64.828806
21860		7.348157	0.024053	-64.379172
21861		7.438301	0.016664	-63.901433
21862		7.520784	0.013884	-63.412537
21863		7.565849	0.010411	-62.904898
21864		7.563348	0.011142	-62.395526
21865		7.482160	0.012224	-61.881553
21866		7.357078	0.025712	-61.371165
21867		7.209849	0.041515	-60.859744
21868		7.076915	0.057685	-60.350625
21869		6.970607	0.071005	-59.841672
21870		6.880361	0.077747	-59.342748
21871		6.793745	0.085547	-58.846584
21872		6.696658	0.094023	-58.355406
21873		6.555818	0.095709	-57.854703
21874		6.370440	0.088823	-57.353310
21875		6.116282	0.057177	-56.846349
21876		5.818303	0.004532	-56.353699
21877		5.533723	-0.058337	-55.872626
21878		5.361875	-0.116031	-55.413161
21879		5.412498	-0.139119	-54.959782
21880		5.602153	-0.122365	-54.518932
21881		5.751118	-0.110972	-54.080767
21882		5.749525	-0.124975	-53.646916
21883		5.656101	-0.146622	-53.205598
21884		5.516798	-0.176313	-52.767127
21885		5.370963	-0.214082	-52.330022
21886		5.270617	-0.246838	-51.905790
21887		5.271041	-0.270324	-51.492372
21888		5.344304	-0.290508	-51.084899
21889		5.469673	-0.304787	-50.668704
21890		5.625937	-0.318637	-50.251902
21891		5.724010	-0.339924	-49.824077
21892		5.738717	-0.372899	-49.391557
21893		5.685194	-0.423953	-48.941192
21894		5.584013	-0.483238	-48.480013
21895		5.457935	-0.554969	-48.004208
21896		5.357210	-0.635689	-47.517910
21897		5.301652	-0.723570	-47.020951
21898		5.354651	-0.802878	-46.515706
21899		5.506280	-0.877493	-45.996425
21900		5.696605	-0.944883	-45.466633
21901		5.855354	-1.021108	-44.922489
21902		5.905630	-1.109815	-44.368103
21903		5.851863	-1.211223	-43.796175
21904		5.765976	-1.321436	-43.212300
21905		5.692678	-1.441427	-42.616985
21906		5.645743	-1.567243	-42.023163
21907		5.674323	-1.687828	-41.430427
21908		5.850884	-1.784464	-40.846437
21909		6.055920	-1.858085	-40.269292
21910		6.229096	-1.927984	-39.708268
21911		6.351375	-2.000435	-39.152530
21912		6.423621	-2.071566	-38.600593
21913		6.500624	-2.133866	-38.044825
21914		6.625073	-2.190974	-37.490365
21915		6.765993	-2.245766	-36.927864
21916		6.915887	-2.293974	-36.368498
21917		7.029488	-2.344478	-35.807462
21918		7.076135	-2.405632	-35.249261
21919		7.064454	-2.481180	-34.682773
21920		7.022045	-2.553746	-34.115379
21921		6.961036	-2.629878	-33.547097
21922		6.919358	-2.704957	-32.982379
21923		6.933640	-2.772377	-32.426388
21924		7.006213	-2.823886	-31.882648
21925		7.112972	-2.858806	-31.350091
21926		7.220646	-2.895067	-30.825827
21927		7.303361	-2.926074	-30.297399
21928		7.363612	-2.953083	-29.763764
21929		7.409759	-2.973023	-29.226350
21930		7.459815	-2.996095	-28.696278
21931		7.456322	-3.020971	-28.172085
21932		7.402530	-3.048273	-27.662859
21933		7.291097	-3.087827	-27.154791
21934		7.154121	-3.127358	-26.645887
21935		7.043508	-3.162514	-26.128939
21936		7.007900	-3.189019	-25.611999
21937		7.019696	-3.210748	-25.094085
21938		7.095634	-3.223515	-24.589436
21939		7.164880	-3.232755	-24.088452
21940		7.184771	-3.235315	-23.593119
21941		7.137368	-3.245913	-23.097188
21942		7.051157	-3.260286	-22.593532
21943		6.991423	-3.270023	-22.085810
21944		6.981500	-3.283019	-21.587793
21945		7.008435	-3.297133	-21.097375
21946		7.050344	-3.308789	-20.626248
21947		7.057039	-3.313758	-20.162050
21948		7.031779	-3.319986	-19.702467
21949		6.979470	-3.316890	-19.227919
21950		6.905817	-3.305310	-18.735073
21951		6.820748	-3.291482	-18.225199
21952		6.751810	-3.282438	-17.709164
21953		6.768114	-3.270060	-17.191821
21954		6.870289	-3.254107	-16.688035
21955		7.017614	-3.233248	-16.201519
21956		7.186743	-3.211534	-15.736838
21957		7.338731	-3.200704	-15.274534
21958		7.439845	-3.186918	-14.807466
21959		7.454117	-3.170368	-14.321306
21960		7.383619	-3.151013	-13.828800
21961		7.203592	-3.147056	-13.330435
21962		6.990506	-3.152023	-12.832931
21963		6.787248	-3.160967	-12.340411
21964		6.666731	-3.162583	-11.863131
21965		6.640993	-3.158481	-11.396976
21966		6.702125	-3.152050	-10.938743
21967		6.817655	-3.141604	-10.488768
21968		6.969282	-3.123969	-10.048726
21969		7.099754	-3.106462	-9.622680
21970		7.146346	-3.085496	-9.215997
21971		7.127698	-3.059652	-8.822491
21972		7.019507	-3.050275	-8.440696
21973		6.872776	-3.050773	-8.065509
21974		6.800086	-3.060144	-7.692551
21975		6.850915	-3.070129	-7.315329
21976		7.025001	-3.072896	-6.924838
21977		7.208746	-3.079768	-6.531679
21978		7.410493	-3.088946	-6.137332
21979		7.584400	-3.112036	-5.734147
21980		7.648963	-3.152825	-5.320233
21981		7.636572	-3.194293	-4.903546
21982		7.546624	-3.250481	-4.487079
21983		7.423428	-3.315919	-4.069295
21984		7.334346	-3.380174	-3.650685
21985		7.315961	-3.436841	-3.235973
21986		7.353675	-3.482816	-2.827947
21987		7.415192	-3.521928	-2.417785
21988		7.495623	-3.553380	-2.005462
21989		7.562539	-3.577851	-1.586538
21990		7.617380	-3.600301	-1.166835
21991		7.652719	-3.619980	-0.740238
21992		7.662476	-3.632719	-0.314779
21993		7.628999	-3.637908	0.102774
21994		7.540567	-3.643503	0.510510
21995		7.390511	-3.646656	0.905146
21996		7.195538	-3.636623	1.278938
21997		6.954995	-3.621412	1.632386
21998		6.693225	-3.608893	1.961417
21999		6.446582	-3.588520	2.272173
22000		6.242187	-3.560474	2.562723
22001		6.095278	-3.523609	2.836975
22002		5.980400	-3.476287	3.095937
22003		5.838336	-3.430551	3.345183
22004		5.668522	-3.389519	3.583772
22005		5.470216	-3.362809	3.817895
22006		5.298194	-3.348088	4.038247
22007		5.194344	-3.340091	4.250174
22008		5.235092	-3.318856	4.449809
22009		5.354029	-3.287751	4.636002
22010		5.443275	-3.254210	4.800882
22011		5.479473	-3.221523	4.945687
22012		5.449344	-3.193069	5.073638
22013		5.327916	-3.182131	5.195992
22014		5.187116	-3.177657	5.310605
22015		5.053959	-3.175727	5.425887
22016		4.933834	-3.182104	5.537108
22017		4.842439	-3.205376	5.645695
22018		4.799962	-3.240686	5.751473
22019		4.837853	-3.280593	5.848742
22020		4.928520	-3.322940	5.942106
22021		5.038100	-3.371762	6.031194
22022		5.154927	-3.421462	6.127422
22023		5.252648	-3.464226	6.225715
22024		5.274751	-3.503675	6.320156
22025		5.171645	-3.550414	6.402792
22026		4.976266	-3.596530	6.474129
22027		4.744893	-3.640645	6.526348
22028		4.514838	-3.687493	6.566339
22029		4.339333	-3.733537	6.587811
22030		4.283438	-3.765056	6.599982
22031		4.334514	-3.789408	6.604499
22032		4.432743	-3.796855	6.595665
22033		4.512794	-3.790055	6.567723
22034		4.499855	-3.776964	6.514758
22035		4.388344	-3.769036	6.437169
22036		4.221091	-3.762914	6.335677
22037		4.056164	-3.758038	6.212949
22038		3.962495	-3.752185	6.078830
22039		3.960256	-3.741826	5.936190
22040		4.015614	-3.717105	5.787275
22041		4.063618	-3.688116	5.625212
22042		4.039910	-3.670983	5.448524
22043		3.984569	-3.656760	5.256001
22044		3.937078	-3.640329	5.044487
22045		3.933459	-3.627609	4.813210
22046		3.960233	-3.613636	4.572925
22047		4.020176	-3.583465	4.320333
22048		4.064080	-3.556915	4.065032
22049		4.051333	-3.534859	3.816454
22050		3.986378	-3.516012	3.574474
22051		3.873408	-3.501991	3.341276
22052		3.739814	-3.485805	3.114529
22053		3.600969	-3.476675	2.887148
22054		3.488824	-3.467705	2.664965
22055		3.403877	-3.461546	2.441759
22056		3.337863	-3.453652	2.211353
22057		3.244933	-3.444997	1.968373
22058		3.074641	-3.443000	1.709326
22059		2.859551	-3.451470	1.433172
22060		2.644310	-3.459408	1.144203
22061		2.491384	-3.459685	0.844602
22062		2.396613	-3.449289	0.541603
22063		2.376435	-3.437928	0.237345
22064		2.420357	-3.416604	-0.067029
22065		2.466990	-3.393126	-0.374645
22066		2.460100	-3.369742	-0.690416
22067		2.395199	-3.347014	-1.022940
22068		2.286327	-3.329654	-1.372366
22069		2.153879	-3.310786	-1.737590
22070		2.010628	-3.295245	-2.116766
22071		1.871297	-3.283969	-2.510648
22072		1.741222	-3.280472	-2.914343
22073		1.671443	-3.277231	-3.329503
22074		1.719310	-3.252453	-3.753602
22075		1.849221	-3.213221	-4.193058
22076		1.974968	-3.168841	-4.653109
22077		2.059124	-3.117215	-5.128747
22078		2.057252	-3.063086	-5.613655
22079		1.964280	-3.009660	-6.100255
22080		1.822837	-2.954727	-6.587204
22081		1.642987	-2.911293	-7.071038
22082		1.432594	-2.880765	-7.548322
22083		1.279266	-2.859304	-8.021434
22084		1.227382	-2.841134	-8.488092
22085		1.266112	-2.829080	-8.947588
22086		1.394794	-2.818261	-9.406115
22087		1.559425	-2.805242	-9.860712
22088		1.686116	-2.783588	-10.311014
22089		1.723887	-2.766039	-10.762132
22090		1.654629	-2.758509	-11.213348
22091		1.495291	-2.770578	-11.663942
22092		1.313408	-2.788919	-12.105701
22093		1.184940	-2.809654	-12.537911
22094		1.162294	-2.820220	-12.968521
22095		1.166703	-2.823628	-13.405876
22096		1.125585	-2.825059	-13.863947
22097		1.041936	-2.822530	-14.342805
22098		0.897241	-2.822927	-14.838300
22099		0.703374	-2.833072	-15.344303
22100		0.524382	-2.843414	-15.847220
22101		0.383342	-2.847598	-16.343042
22102		0.266183	-2.852512	-16.822428
22103		0.166952	-2.845918	-17.296332
22104		0.000528	-2.849095	-17.774468
22105		-0.221277	-2.861364	-18.267944
22106		-0.469859	-2.879772	-18.768322
22107		-0.712090	-2.909866	-19.277457
22108		-0.875007	-2.934680	-19.784150
22109		-0.915752	-2.949189	-20.293828
22110		-0.899138	-2.948648	-20.812821
22111		-0.827670	-2.934166	-21.347635
22112		-0.755957	-2.917464	-21.897316
22113		-0.735032	-2.905154	-22.466504
22114		-0.760627	-2.896625	-23.052922
22115		-0.810856	-2.896367	-23.646180
22116		-0.865355	-2.902964	-24.236234
22117		-0.879871	-2.917364	-24.809534
22118		-0.879742	-2.932707	-25.366878
22119		-0.882856	-2.944480	-25.917079
22120		-0.920856	-2.962446	-26.466626
22121		-0.998341	-2.991954	-27.015537
22122		-1.117590	-3.030352	-27.572741
22123		-1.241712	-3.074824	-28.136876
22124		-1.311952	-3.105841	-28.704631
22125		-1.336097	-3.122127	-29.274831
22126		-1.370392	-3.120564	-29.852873
22127		-1.469725	-3.103441	-30.442954
22128		-1.703604	-3.099511	-31.046345
22129		-2.037163	-3.119841	-31.663612
22130		-2.358700	-3.143826	-32.295595
22131		-2.612330	-3.177889	-32.939135
22132		-2.706227	-3.202830	-33.582205
22133		-2.573145	-3.208781	-34.220891
22134		-2.385218	-3.205803	-34.847539
22135		-2.263899	-3.210841	-35.467063
22136		-2.261739	-3.229219	-36.074100
22137		-2.365964	-3.259855	-36.677989
22138		-2.528789	-3.301537	-37.276886
22139		-2.645800	-3.345555	-37.873890
22140		-2.680718	-3.381879	-38.468922
22141		-2.682728	-3.413240	-39.062965
22142		-2.710908	-3.450069	-39.658304
22143		-2.762771	-3.485992	-40.250797
22144		-2.852390	-3.519256	-40.839303
22145		-2.933266	-3.552631	-41.430719
22146		-2.979028	-3.583109	-42.029935
22147		-2.963185	-3.606964	-42.642494
22148		-2.881278	-3.626450	-43.270896
22149		-2.794822	-3.639349	-43.914600
22150		-2.747979	-3.651327	-44.568350
22151		-2.751137	-3.665991	-45.216373
22152		-2.897124	-3.698402	-45.847757
22153		-3.144973	-3.751860	-46.458741
22154		-3.425795	-3.806936	-47.060985
22155		-3.680009	-3.865469	-47.666315
22156		-3.846761	-3.919043	-48.282407
22157		-3.833662	-3.953828	-48.908289
22158		-3.740829	-3.972948	-49.546696
22159		-3.615339	-3.984944	-50.192815
22160		-3.506925	-3.998018	-50.842282
22161		-3.433311	-4.014382	-51.489065
22162		-3.414409	-4.046418	-52.135232
22163		-3.412039	-4.089828	-52.780916
22164		-3.337679	-4.124293	-53.435927
22165		-3.192688	-4.146025	-54.099978
22166		-2.993945	-4.161989	-54.772150
22167		-2.801319	-4.178517	-55.443813
22168		-2.638858	-4.203883	-56.113974
22169		-2.513799	-4.238973	-56.774672
22170		-2.415597	-4.287632	-57.432556
22171		-2.271516	-4.343063	-58.086674
22172		-2.058607	-4.398248	-58.746847
22173		-1.823949	-4.436650	-59.408505
22174		-1.624656	-4.463374	-60.074849
22175		-1.517479	-4.505191	-60.731280
22176		-1.516432	-4.556116	-61.380091
22177		-1.536043	-4.608364	-62.014502
22178		-1.511871	-4.671612	-62.643971
22179		-1.368162	-4.731214	-63.265380
22180		-1.151112	-4.778942	-63.890490
22181		-0.957052	-4.815105	-64.509572
22182		-0.862980	-4.851149	-65.126534
22183		-0.861260	-4.896530	-65.724807
22184		-0.942343	-4.943655	-66.302946
22185		-1.070929	-4.991299	-66.856861
22186		-1.216749	-5.039255	-67.396608
22187		-1.308311	-5.082198	-67.931376
22188		-1.406100	-5.119002	-68.477425
22189		-1.418396	-5.153151	-69.039491
22190		-1.368933	-5.188784	-69.606937
22191		-1.367390	-5.226408	-70.164050
22192		-1.322757	-5.263788	-70.714209
22193		-1.244650	-5.298338	-71.233785
22194		-1.078628	-5.334553	-71.740689
22195		-0.778533	-5.357958	-72.238970
22196		-0.451096	-5.349642	-72.760171
22197		-0.243892	-5.361297	-73.301764
22198		-0.254671	-5.366595	-73.863773
22199		-0.434568	-5.381856	-74.428334
22200		-0.717566	-5.400358	-74.984419
22201		-0.966910	-5.401668	-75.509457
22202		-1.191964	-5.397027	-76.012266
22203		-1.281466	-5.387130	-76.489279
22204		-1.269915	-5.372617	-76.964224
22205		-1.194558	-5.364369	-77.436912
22206		-1.023946	-5.351732	-77.920337
22207		-0.754248	-5.359926	-78.404042
22208		-0.448830	-5.373118	-78.888300
22209		-0.064641	-5.383482	-79.369180
22210		0.403363	-5.369164	-79.852994
22211		0.855200	-5.318150	-80.338157
22212		1.210674	-5.271339	-80.837862
22213		1.474366	-5.230507	-81.332794
22214		1.679389	-5.191011	-81.834917
22215		1.919439	-5.150211	-82.327372
22216		2.247052	-5.102915	-82.812979
22217		2.542946	-5.039299	-83.277304
22218		2.722014	-4.974929	-83.731588
22219		2.802094	-4.921470	-84.161589
22220		2.805991	-4.871121	-84.574670
22221		2.799536	-4.822060	-84.966665
22222		2.847820	-4.781614	-85.348207
22223		3.022980	-4.742719	-85.710746
22224		3.339467	-4.707865	-86.069906
22225		3.720904	-4.650816	-86.422830
22226		4.059306	-4.577532	-86.785322
22227		4.313004	-4.517596	-87.149576
22228		4.459233	-4.471861	-87.505744
22229		4.483382	-4.440219	-87.849456
22230		4.508836	-4.400521	-88.174987
22231		4.606335	-4.359184	-88.479416
22232		4.729555	-4.308115	-88.772328
22233		4.856116	-4.248148	-89.046009
22234		4.936137	-4.193733	-89.320827
22235		4.986656	-4.147460	-89.579799
22236		5.048307	-4.114141	-89.828691
22237		5.126920	-4.084664	-90.049317
22238		5.267855	-4.052178	-90.253310
22239		5.446794	-4.013473	-90.423718
22240		5.624848	-3.969592	-90.581669
22241		5.740879	-3.927707	-90.717752
22242		5.790687	-3.893074	-90.845243
22243		5.797887	-3.867049	-90.954362
22244		5.807459	-3.838370	-91.056089
22245		5.809082	-3.809207	-91.140116
22246		5.857968	-3.779116	-91.220526
22247		5.961255	-3.734833	-91.283878
22248		6.029676	-3.688543	-91.336625
22249		6.007537	-3.650809	-91.365935
22250		5.939395	-3.624850	-91.374500
22251		5.824661	-3.609097	-91.352209
22252		5.702012	-3.593221	-91.315046
22253		5.662383	-3.577637	-91.273688
22254		5.643117	-3.561065	-91.241122
22255		5.650757	-3.545707	-91.212827
22256		5.694308	-3.523137	-91.185502
22257		5.741396	-3.499817	-91.150297
22258		5.756637	-3.490996	-91.097815
22259		5.733105	-3.484817	-91.015710
22260		5.692686	-3.478950	-90.928148
22261		5.706560	-3.461288	-90.832454
22262		5.717945	-3.442994	-90.751366
22263		5.699126	-3.420035	-90.670360
22264		5.692197	-3.394463	-90.593695
22265		5.673477	-3.376107	-90.491221
22266		5.657278	-3.364311	-90.360278
22267		5.661356	-3.354335	-90.190993
22268		5.688649	-3.353778	-90.001620
22269		5.723648	-3.346906	-89.791798
22270		5.742352	-3.331974	-89.587004
22271		5.745569	-3.315909	-89.388430
22272		5.707212	-3.300804	-89.201090
22273		5.648779	-3.286269	-89.005533
22274		5.614983	-3.283142	-88.798032
22275		5.627511	-3.285160	-88.564142
22276		5.703342	-3.287125	-88.312408
22277		5.784445	-3.286680	-88.038805
22278		5.832604	-3.287282	-87.767523
22279		5.860410	-3.282741	-87.490278
22280		5.859072	-3.274937	-87.218489
22281		5.834464	-3.255636	-86.933208
22282		5.808445	-3.245712	-86.639588
22283		5.764893	-3.236982	-86.316881
22284		5.709472	-3.230780	-85.982146
22285		5.630774	-3.231363	-85.619033
22286		5.513295	-3.229586	-85.249507
22287		5.362647	-3.239355	-84.866203
22288		5.235972	-3.247794	-84.484212
22289		5.162781	-3.245133	-84.093896
22290		5.156226	-3.234285	-83.700106
22291		5.206554	-3.229784	-83.292361
22292		5.247196	-3.241300	-82.871952
22293		5.253128	-3.253319	-82.429068
22294		5.230017	-3.275149	-81.978360
22295		5.166687	-3.306218	-81.501026
22296		5.091651	-3.344423	-81.019582
22297		5.038505	-3.380321	-80.529191
22298		5.006813	-3.405256	-80.043143
22299		4.990260	-3.425075	-79.548246
22300		5.002293	-3.450775	-79.054540
22301		5.018416	-3.472544	-78.547849
22302		5.014332	-3.493485	-78.033654
22303		4.964177	-3.507130	-77.494268
22304		4.887897	-3.524788	-76.942876
22305		4.778085	-3.544552	-76.377746
22306		4.705463	-3.555027	-75.816084
22307		4.710141	-3.561521	-75.257942
22308		4.782120	-3.566308	-74.718406
22309		4.970813	-3.572544	-74.182402
22310		5.197709	-3.575899	-73.658316
22311		5.358908	-3.585058	-73.133827
22312		5.389094	-3.602937	-72.608795
22313		5.313902	-3.630143	-72.066067
22314		5.173288	-3.661326	-71.515634
22315		5.017946	-3.694079	-70.947952
22316		4.928839	-3.718944	-70.382024
22317		4.904560	-3.735315	-69.814856
22318		4.950465	-3.748855	-69.251449
22319		5.068129	-3.755551	-68.686769
22320		5.189360	-3.761424	-68.127324
22321		5.216033	-3.775951	-67.556204
22322		5.119160	-3.802425	-66.977936
22323		4.907706	-3.834704	-66.381636
22324		4.644876	-3.877776	-65.775309
22325		4.380904	-3.918922	-65.151887
22326		4.197215	-3.953877	-64.526715
22327		4.100208	-3.983037	-63.904628
22328		4.103990	-4.004841	-63.301201
22329		4.166528	-4.023872	-62.704293
22330		4.209743	-4.049644	-62.118177
22331		4.179617	-4.082086	-61.523031
22332		4.114009	-4.118971	-60.919481
22333		4.010950	-4.160926	-60.298572
22334		3.927817	-4.202768	-59.678322
22335		3.908340	-4.240408	-59.055349
22336		3.955490	-4.267561	-58.443648
22337		4.037396	-4.284308	-57.836875
22338		4.120072	-4.298860	-57.239596
22339		4.145364	-4.315687	-56.637075
22340		4.115392	-4.335047	-56.029855
22341		4.064067	-4.362298	-55.405869
22342		4.047149	-4.388605	-54.770139
22343		4.057626	-4.410561	-54.126980
22344		4.089433	-4.427474	-53.491041
22345		4.088960	-4.443031	-52.858713
22346		3.992511	-4.467607	-52.238498
22347		3.834571	-4.496945	-51.620144
22348		3.675541	-4.532924	-51.002801
22349		3.545359	-4.579101	-50.373154
22350		3.505404	-4.619854	-49.739216
22351		3.578446	-4.653738	-49.092572
22352		3.720409	-4.676481	-48.440857
22353		3.835120	-4.696594	-47.779423
22354		3.853068	-4.727914	-47.119977
22355		3.788078	-4.761720	-46.450460
22356		3.682330	-4.803399	-45.784781
22357		3.584602	-4.850420	-45.117054
22358		3.569538	-4.890848	-44.456975
22359		3.653673	-4.921802	-43.804550
22360		3.826136	-4.934437	-43.166306
22361		4.017108	-4.932240	-42.531161
22362		4.119753	-4.932940	-41.895465
22363		4.069949	-4.951496	-41.247149
22364		3.924745	-4.975709	-40.579595
22365		3.749021	-5.007293	-39.889968
22366		3.608247	-5.044444	-39.195709
22367		3.534630	-5.081877	-38.494607
22368		3.628395	-5.101032	-37.805904
22369		3.803197	-5.090207	-37.130642
22370		3.913529	-5.071747	-36.479050
22371		3.893230	-5.067271	-35.833890
22372		3.768191	-5.064142	-35.193825
22373		3.606647	-5.063280	-34.548481
22374		3.486918	-5.059842	-33.899008
22375		3.419859	-5.066962	-33.249113
22376		3.493649	-5.058095	-32.611791
22377		3.649859	-5.029031	-31.982074
22378		3.847348	-5.000303	-31.361575
22379		4.009424	-4.978122	-30.740154
22380		4.122308	-4.958234	-30.120025
22381		4.219661	-4.944186	-29.495373
22382		4.352792	-4.934646	-28.875909
22383		4.487925	-4.922381	-28.254303
22384		4.588937	-4.907267	-27.641334
22385		4.593885	-4.900633	-27.032094
22386		4.530404	-4.898881	-26.425156
22387		4.457203	-4.890495	-25.811218
22388		4.421705	-4.867995	-25.198922
22389		4.395608	-4.851293	-24.583414
22390		4.401002	-4.831394	-23.970805
22391		4.427624	-4.810335	-23.358365
22392		4.414095	-4.771660	-22.752641
22393		4.282599	-4.739778	-22.150256
22394		4.033973	-4.723854	-21.547568
22395		3.698410	-4.712405	-20.936067
22396		3.331886	-4.714253	-20.328609
22397		2.980473	-4.724773	-19.715284
22398		2.717791	-4.732073	-19.109937
22399		2.573146	-4.726612	-18.509365
22400		2.556117	-4.700306	-17.921488
22401		2.600887	-4.674223	-17.352085
22402		2.590740	-4.658776	-16.802126
22403		2.490085	-4.662230	-16.270441
22404		2.380774	-4.671874	-15.758299
22405		2.332926	-4.685974	-15.249773
22406		2.328354	-4.708387	-14.747196
22407		2.435150	-4.724976	-14.243854
22408		2.614454	-4.736742	-13.745408
22409		2.795576	-4.751205	-13.245267
22410		2.917095	-4.768984	-12.744125
22411		2.965054	-4.788563	-12.235791
22412		2.940012	-4.816878	-11.724008
22413		2.878068	-4.842903	-11.206483
22414		2.816928	-4.873215	-10.695398
22415		2.797121	-4.899470	-10.191021
22416		2.846004	-4.916317	-9.701696
22417		2.915931	-4.924762	-9.224822
22418		2.999820	-4.930314	-8.760803
22419		3.058885	-4.934331	-8.302878
22420		3.071892	-4.929600	-7.845942
22421		2.980312	-4.934702	-7.377464
22422		2.807045	-4.945144	-6.904157
22423		2.568963	-4.970016	-6.426674
22424		2.349301	-4.989190	-5.958440
22425		2.201668	-5.001554	-5.503499
22426		2.163297	-4.999948	-5.071596
22427		2.205064	-4.997068	-4.651011
22428		2.329583	-4.993344	-4.237437
22429		2.530183	-4.979075	-3.822703
22430		2.802125	-4.963494	-3.403121
22431		3.089465	-4.946619	-2.976185
22432		3.335930	-4.926060	-2.542900
22433		3.490709	-4.906966	-2.114156
22434		3.516138	-4.903436	-1.697506
22435		3.415585	-4.915020	-1.293014
22436		3.258570	-4.933603	-0.904441
22437		3.108382	-4.955189	-0.527721
22438		2.988358	-4.980182	-0.159825
22439		2.912212	-4.997870	0.205426
22440		2.859902	-5.007975	0.562407
22441		2.824997	-5.015754	0.906038
22442		2.766474	-5.023586	1.227337
22443		2.682192	-5.028564	1.527616
22444		2.613778	-5.025845	1.791549
22445		2.561049	-5.019692	2.029995
22446		2.530332	-5.000254	2.244228
22447		2.519209	-4.966361	2.438323
22448		2.514565	-4.922953	2.621673
22449		2.491902	-4.884542	2.795351
22450		2.477840	-4.845779	2.960782
22451		2.476537	-4.812907	3.120687
22452		2.521660	-4.780268	3.277554
22453		2.625548	-4.748583	3.433218
22454		2.731115	-4.724342	3.585763
22455		2.792075	-4.706838	3.735859
22456		2.791489	-4.695280	3.883566
22457		2.720864	-4.690464	4.030201
22458		2.597295	-4.698250	4.173155
22459		2.429173	-4.716432	4.314306
22460		2.240177	-4.746667	4.441982
22461		2.090036	-4.781988	4.556749
22462		1.997862	-4.814659	4.658836
22463		2.016615	-4.829790	4.742509
22464		2.176422	-4.809241	4.798000
22465		2.319899	-4.780947	4.821500
22466		2.410725	-4.746410	4.817001
22467		2.431259	-4.711629	4.785639
22468		2.403148	-4.677575	4.740351
22469		2.371219	-4.642341	4.693921
22470		2.365995	-4.599198	4.651912
22471		2.381026	-4.556584	4.613944
22472		2.407299	-4.514845	4.577757
22473		2.431375	-4.476736	4.539296
22474		2.434305	-4.447464	4.501221
22475		2.454775	-4.420506	4.459761
22476		2.508563	-4.388489	4.424329
22477		2.562381	-4.364506	4.395561
22478		2.645668	-4.336999	4.378139
22479		2.713022	-4.309789	4.369597
22480		2.744812	-4.283358	4.372257
22481		2.742351	-4.260996	4.381632
22482		2.695942	-4.241827	4.394983
22483		2.621128	-4.223033	4.406403
22484		2.520856	-4.208448	4.407836
22485		2.371306	-4.204412	4.394787
22486		2.197840	-4.208869	4.366479
22487		2.037239	-4.222360	4.317625
22488		1.924076	-4.240758	4.251545
22489		1.905449	-4.248249	4.164719
22490		1.931848	-4.254697	4.060485
22491		1.961860	-4.261722	3.936774
22492		1.934025	-4.270619	3.801524
22493		1.859154	-4.286122	3.654530
22494		1.745891	-4.312413	3.502837
22495		1.621193	-4.341309	3.344048
22496		1.538833	-4.374370	3.175060
22497		1.493905	-4.410694	2.990545
22498		1.490228	-4.440582	2.786893
22499		1.486111	-4.467549	2.564891
22500		1.477423	-4.493490	2.317298
22501		1.470758	-4.513773	2.045706
22502		1.457220	-4.533641	1.758613
22503		1.475917	-4.551746	1.453351
22504		1.529105	-4.567834	1.138769
22505		1.576432	-4.583332	0.817384
22506		1.610596	-4.597841	0.495647
22507		1.614292	-4.618486	0.169782
22508		1.561445	-4.646247	-0.160524
22509		1.509588	-4.681198	-0.495793
22510		1.479669	-4.717478	-0.840279
22511		1.497903	-4.754756	-1.196161
22512		1.562428	-4.783219	-1.564663
22513		1.648708	-4.806749	-1.952572
22514		1.696770	-4.821690	-2.357908
22515		1.683990	-4.829434	-2.780762
22516		1.570531	-4.849667	-3.217711
22517		1.390505	-4.869428	-3.666473
22518		1.198629	-4.894594	-4.121603
22519		1.097739	-4.906492	-4.593399
22520		1.049619	-4.910411	-5.085806
22521		1.070010	-4.901164	-5.607107
22522		1.082846	-4.879290	-6.159606
22523		1.043289	-4.856986	-6.742887
22524		0.960669	-4.837336	-7.344871
22525		0.871110	-4.815524	-7.954074
22526		0.823192	-4.789641	-8.562363
22527		0.838840	-4.763841	-9.157996
22528		0.889657	-4.726636	-9.742828
22529		0.932971	-4.686866	-10.315454
22530		0.910059	-4.652523	-10.874344
22531		0.799232	-4.621467	-11.425236
22532		0.600569	-4.603029	-11.965432
22533		0.401843	-4.593094	-12.499773
22534		0.253436	-4.584050	-13.025990
22535		0.181312	-4.575007	-13.545973
22536		0.188586	-4.556705	-14.065022
22537		0.233847	-4.539424	-14.582755
22538		0.266625	-4.520400	-15.098346
22539		0.224710	-4.499315	-15.621017
22540		0.105337	-4.477747	-16.149771
22541		-0.042875	-4.464179	-16.679852
22542		-0.219653	-4.456901	-17.207418
22543		-0.325888	-4.453609	-17.734976
22544		-0.318540	-4.435583	-18.263521
22545		-0.259090	-4.406471	-18.795210
22546		-0.197301	-4.369311	-19.329023
22547		-0.183940	-4.337168	-19.870321
22548		-0.230812	-4.299514	-20.418987
22549		-0.336921	-4.270706	-20.978030
22550		-0.483848	-4.246540	-21.539430
22551		-0.587242	-4.225453	-22.098833
22552		-0.644625	-4.201418	-22.652490
22553		-0.664804	-4.182491	-23.199739
22554		-0.682565	-4.167403	-23.737978
22555		-0.689519	-4.146013	-24.262619
22556		-0.710478	-4.123338	-24.772700
22557		-0.745962	-4.100421	-25.268849
22558		-0.811058	-4.074613	-25.757024
22559		-0.914748	-4.064374	-26.239298
22560		-1.015919	-4.066543	-26.714674
22561		-1.094069	-4.069580	-27.181801
22562		-1.102204	-4.068949	-27.642104
22563		-1.049376	-4.070440	-28.095696
22564		-0.950073	-4.059211	-28.536575
22565		-0.870836	-4.039925	-28.975037
22566		-0.851285	-4.024416	-29.411425
22567		-0.972706	-4.007850	-29.841259
22568		-1.265423	-4.009914	-30.266205
22569		-1.679700	-4.033096	-30.681774
22570		-2.145156	-4.075645	-31.094379
22571		-2.517794	-4.126775	-31.516128
22572		-2.719199	-4.160751	-31.940479
22573		-2.771003	-4.165771	-32.384614
22574		-2.768055	-4.145051	-32.857547
22575		-2.813795	-4.138140	-33.360794
22576		-2.939162	-4.137717	-33.893046
22577		-3.123575	-4.147516	-34.450414
22578		-3.311492	-4.162760	-35.022071
22579		-3.445228	-4.186335	-35.606469
22580		-3.508782	-4.200711	-36.199961
22581		-3.529532	-4.212709	-36.806105
22582		-3.545952	-4.222243	-37.418227
22583		-3.553660	-4.227349	-38.036966
22584		-3.607240	-4.244380	-38.658708
22585		-3.669708	-4.275850	-39.287695
22586		-3.706598	-4.317321	-39.922950
22587		-3.689036	-4.363693	-40.562783
22588		-3.637282	-4.396683	-41.211379
22589		-3.586265	-4.416833	-41.861023
22590		-3.570855	-4.439583	-42.504417
22591		-3.627374	-4.459929	-43.139787
22592		-3.824522	-4.500095	-43.766442
22593		-4.081391	-4.561690	-44.385774
22594		-4.334381	-4.631885	-45.000866
22595		-4.506120	-4.714773	-45.611984
22596		-4.578001	-4.785975	-46.230187
22597		-4.591270	-4.833959	-46.847900
22598		-4.604832	-4.880541	-47.470562
22599		-4.609494	-4.928534	-48.086250
22600		-4.657501	-4.979898	-48.695411
22601		-4.713404	-5.035067	-49.301110
22602		-4.768043	-5.094199	-49.911198
22603		-4.801925	-5.169330	-50.525939
22604		-4.770992	-5.243910	-51.156769
22605		-4.636490	-5.299435	-51.795669
22606		-4.422930	-5.316350	-52.453976
22607		-4.176839	-5.331393	-53.110164
22608		-3.929938	-5.343413	-53.762239
22609		-3.767478	-5.359599	-54.401258
22610		-3.655177	-5.380474	-55.039987
22611		-3.568474	-5.410621	-55.674307
22612		-3.457538	-5.447505	-56.300889
22613		-3.267724	-5.478900	-56.921641
22614		-3.055393	-5.487398	-57.534211
22615		-2.852295	-5.492326	-58.139324
22616		-2.693654	-5.506372	-58.719520
22617		-2.588798	-5.517273	-59.278249
22618		-2.530638	-5.535042	-59.825124
22619		-2.462441	-5.551420	-60.362113
22620		-2.381984	-5.575475	-60.900875
22621		-2.225371	-5.621163	-61.440807
22622		-1.938540	-5.644659	-61.988034
22623		-1.579918	-5.644212	-62.534296
22624		-1.231316	-5.627655	-63.076757
22625		-0.879908	-5.591582	-63.611055
22626		-0.578199	-5.549706	-64.151382
22627		-0.359975	-5.521993	-64.681389
22628		-0.176157	-5.500474	-65.231294
22629		-0.013366	-5.465443	-65.775566
22630		0.159537	-5.351811	-66.349107
22631		0.314129	-5.214496	-66.920031
22632		0.407653	-5.071587	-67.487420
22633		0.335639	-4.935074	-68.054861
22634		0.078146	-4.833101	-68.630420
22635		-0.170674	-4.726638	-69.218742
22636		-0.357280	-4.622271	-69.823865
22637		-0.475135	-4.539275	-70.434850
22638		-0.437178	-4.451722	-71.047206
22639		-0.300806	-4.350989	-71.649862
22640		-0.117608	-4.264883	-72.238642
22641		0.110846	-4.185027	-72.805293
22642		0.348045	-4.113864	-73.366507
22643		0.622096	-4.047693	-73.924088
22644		0.913643	-3.999192	-74.491263
22645		1.212805	-3.934572	-75.065137
22646		1.520195	-3.860240	-75.644739
22647		1.821734	-3.771450	-76.212126
22648		2.083365	-3.682316	-76.767478
22649		2.279238	-3.607151	-77.297681
22650		2.411690	-3.558167	-77.814615
22651		2.568957	-3.524220	-78.316154
22652		2.826041	-3.508680	-78.824155
22653		3.324940	-3.476811	-79.331325
22654		3.963693	-3.440540	-79.843897
22655		4.628111	-3.354772	-80.351963
22656		5.277921	-3.241970	-80.854801
22657		5.718277	-3.171641	-81.343674
22658		5.796471	-3.131289	-81.814174
22659		5.634385	-3.099935	-82.256150
22660		5.466686	-3.076847	-82.690984
22661		5.454037	-3.057436	-83.100755
22662		5.617856	-3.036128	-83.498452
22663		5.902252	-2.974146	-83.872559
22664		6.247350	-2.901621	-84.242256
22665		6.544481	-2.839280	-84.594326
22666		6.788011	-2.794585	-84.933656
22667		7.034429	-2.759995	-85.247053
22668		7.304156	-2.725151	-85.543200
22669		7.607297	-2.691606	-85.814556
22670		7.914968	-2.642705	-86.069186
22671		8.170278	-2.568456	-86.306130
22672		8.317428	-2.474153	-86.538685
22673		8.342978	-2.363242	-86.763925
22674		8.277098	-2.275668	-86.987484
22675		8.203414	-2.190015	-87.184953
22676		8.092890	-2.126719	-87.376180
22677		8.029571	-2.069928	-87.555644
22678		8.105071	-2.001686	-87.723949
22679		8.235441	-1.930867	-87.878399
22680		8.402945	-1.846079	-88.030646
22681		8.558049	-1.756939	-88.170146
22682		8.642744	-1.690944	-88.298202
22683		8.632251	-1.654264	-88.393220
22684		8.570313	-1.625928	-88.463432
22685		8.539514	-1.606308	-88.507779
22686		8.592023	-1.587427	-88.527454
22687		8.716880	-1.559821	-88.529269
22688		8.870942	-1.528190	-88.536358
22689		9.009671	-1.494786	-88.540098
22690		9.108689	-1.456133	-88.544167
22691		9.127562	-1.412334	-88.528881
22692		9.078403	-1.397734	-88.494047
22693		8.973909	-1.395963	-88.426300
22694		8.810567	-1.397225	-88.336661
22695		8.649500	-1.408320	-88.232739
22696		8.599127	-1.403137	-88.129757
22697		8.615682	-1.377081	-88.026977
22698		8.657812	-1.340435	-87.935324
22699		8.669397	-1.302101	-87.840636
22700		8.651035	-1.257697	-87.745415
22701		8.597152	-1.211188	-87.629798
22702		8.536819	-1.185085	-87.481015
22703		8.491265	-1.165093	-87.295208
22704		8.449768	-1.155194	-87.084569
22705		8.376096	-1.148490	-86.845498
22706		8.246180	-1.135802	-86.591685
22707		7.999077	-1.133753	-86.321794
22708		7.718904	-1.132824	-86.042507
22709		7.468866	-1.129454	-85.740628
22710		7.256937	-1.127537	-85.423578
22711		7.117420	-1.125360	-85.079830
22712		7.060890	-1.134171	-84.717093
22713		7.038805	-1.140469	-84.324497
22714		7.013270	-1.144399	-83.913768
22715		6.955896	-1.163346	-83.476627
22716		6.865327	-1.194030	-83.025263
22717		6.772540	-1.235473	-82.547155
22718		6.743222	-1.280345	-82.058389
22719		6.790158	-1.329408	-81.551306
22720		6.917346	-1.383713	-81.034857
22721		7.076059	-1.430121	-80.495445
22722		7.205414	-1.475891	-79.948513
22723		7.258540	-1.522547	-79.384125
22724		7.234999	-1.562556	-78.814068
22725		7.145171	-1.603050	-78.228619
22726		7.058335	-1.639587	-77.636884
22727		6.967787	-1.690486	-77.035398
22728		6.878449	-1.740334	-76.431864
22729		6.797855	-1.784848	-75.821804
22730		6.736296	-1.829400	-75.215665
22731		6.686611	-1.861480	-74.601759
22732		6.639047	-1.893319	-73.994927
22733		6.585601	-1.929605	-73.389274
22734		6.521985	-1.967286	-72.793899
22735		6.450677	-2.015803	-72.195784
22736		6.389470	-2.076609	-71.600088
22737		6.360254	-2.138316	-70.990953
22738		6.395738	-2.195112	-70.372166
22739		6.462142	-2.251013	-69.738589
22740		6.541129	-2.316803	-69.099456
22741		6.624107	-2.388546	-68.459070
22742		6.735784	-2.470916	-67.827363
22743		6.890842	-2.549147	-67.202467
22744		7.111603	-2.624053	-66.587342
22745		7.431167	-2.717818	-65.969574
22746		7.748986	-2.802498	-65.352966
22747		8.006345	-2.879643	-64.743199
22748		8.170414	-2.948910	-64.132337
22749		8.228270	-3.007244	-63.516696
22750		8.238813	-3.073815	-62.908979
22751		8.234377	-3.142346	-62.304369
22752		8.229254	-3.210015	-61.721283
22753		8.244074	-3.282565	-61.143666
22754		8.312227	-3.357408	-60.573593
22755		8.393671	-3.422652	-59.994312
22756		8.486852	-3.481245	-59.408815
22757		8.545260	-3.549214	-58.801471
22758		8.562609	-3.626421	-58.181000
22759		8.540834	-3.714919	-57.539440
22760		8.479205	-3.825985	-56.897414
22761		8.427744	-3.948623	-56.254172
22762		8.462828	-4.064294	-55.617884
22763		8.587316	-4.163883	-54.973913
22764		8.793387	-4.253977	-54.330675
22765		9.020924	-4.327251	-53.672399
22766		9.214951	-4.395477	-53.006754
22767		9.335918	-4.469157	-52.329389
22768		9.426801	-4.542690	-51.645720
22769		9.521970	-4.615931	-50.948474
22770		9.650472	-4.684496	-50.247591
22771		9.802980	-4.744912	-49.537552
22772		9.953253	-4.800727	-48.819972
22773		10.041180	-4.854232	-48.093861
22774		10.046767	-4.912382	-47.361609
22775		9.962991	-4.971880	-46.616480
22776		9.854362	-5.033626	-45.868084
22777		9.774996	-5.094777	-45.120136
22778		9.717673	-5.158795	-44.385529
22779		9.701165	-5.219471	-43.666892
22780		9.754971	-5.267749	-42.969259
22781		9.870268	-5.307931	-42.276200
22782		10.067921	-5.335458	-41.583316
22783		10.275602	-5.357578	-40.879936
22784		10.419631	-5.374775	-40.175824
22785		10.457094	-5.398139	-39.473212
22786		10.448579	-5.429017	-38.775394
22787		10.390694	-5.478665	-38.080646
22788		10.297826	-5.532136	-37.391480
22789		10.193677	-5.588831	-36.689313
22790		10.092482	-5.637921	-35.983032
22791		9.988239	-5.679915	-35.264192
22792		9.891728	-5.720681	-34.542172
22793		9.782625	-5.768915	-33.811646
22794		9.671260	-5.830374	-33.082075
22795		9.574975	-5.894387	-32.351730
22796		9.531340	-5.957015	-31.625396
22797		9.531326	-6.016547	-30.897030
22798		9.532899	-6.060070	-30.166581
22799		9.480370	-6.108125	-29.431196
22800		9.357150	-6.171005	-28.695846
22801		9.174897	-6.243690	-27.952544
22802		9.000568	-6.316769	-27.213055
22803		8.846545	-6.396613	-26.467269
22804		8.711044	-6.482732	-25.725556
22805		8.622877	-6.564155	-24.977989
22806		8.550775	-6.634467	-24.233418
22807		8.420566	-6.702464	-23.493167
22808		8.244021	-6.765199	-22.765457
22809		8.016134	-6.830463	-22.038390
22810		7.783135	-6.896200	-21.320858
22811		7.561946	-6.972357	-20.608646
22812		7.369975	-7.047534	-19.901590
22813		7.221774	-7.130127	-19.201645
22814		7.173434	-7.210915	-18.506731
22815		7.200838	-7.276959	-17.818634
22816		7.283916	-7.331161	-17.143590
22817		7.358659	-7.387911	-16.482614
22818		7.367049	-7.444103	-15.837046
22819		7.343304	-7.496234	-15.209377
22820		7.295124	-7.543707	-14.597818
22821		7.263458	-7.582628	-14.001959
22822		7.255262	-7.613209	-13.425313
22823		7.267065	-7.631548	-12.857212
22824		7.277530	-7.639240	-12.306725
22825		7.279982	-7.645829	-11.760008
22826		7.273163	-7.647140	-11.219680
22827		7.227171	-7.655747	-10.681138
22828		7.184632	-7.672616	-10.152196
22829		7.166621	-7.687488	-9.624184
22830		7.194073	-7.702695	-9.108652
22831		7.227022	-7.714599	-8.603924
22832		7.240223	-7.725681	-8.110998
22833		7.194363	-7.734531	-7.617903
22834		7.063835	-7.749448	-7.123295
22835		6.863019	-7.767144	-6.621426
22836		6.628639	-7.784316	-6.120718
22837		6.370585	-7.800884	-5.621836
22838		6.108498	-7.824869	-5.130502
22839		5.872592	-7.846816	-4.647512
22840		5.686577	-7.855731	-4.179595
22841		5.484646	-7.853890	-3.716905
22842		5.312261	-7.833133	-3.257341
22843		5.140483	-7.795856	-2.802875
22844		4.942489	-7.755678	-2.353525
22845		4.747461	-7.725061	-1.913714
22846		4.581573	-7.706597	-1.486165
22847		4.455293	-7.703591	-1.068395
22848		4.491023	-7.697058	-0.659201
22849		4.665948	-7.667960	-0.257960
22850		4.847919	-7.642302	0.139424
22851		4.995769	-7.614155	0.529085
22852		5.064716	-7.592547	0.904673
22853		5.050345	-7.585891	1.254130
22854		5.006828	-7.572832	1.577921
22855		4.951166	-7.562091	1.872268
22856		4.951496	-7.543697	2.138654
22857		5.008167	-7.514557	2.384501
22858		5.050629	-7.479903	2.608983
22859		5.047441	-7.451410	2.825605
22860		4.991059	-7.426066	3.038970
22861		4.877680	-7.412637	3.256058
22862		4.748046	-7.404790	3.475997
22863		4.611265	-7.404721	3.693337
22864		4.482509	-7.416217	3.902702
22865		4.373592	-7.433050	4.102956
22866		4.293842	-7.455313	4.290681
22867		4.270492	-7.465456	4.466406
22868		4.260466	-7.476719	4.625892
22869		4.239771	-7.493430	4.771435
22870		4.228889	-7.509375	4.890756
22871		4.232895	-7.511439	4.984972
22872		4.241178	-7.496840	5.046660
22873		4.249822	-7.471154	5.076709
22874		4.249064	-7.438425	5.077775
22875		4.215774	-7.400590	5.061379
22876		4.169728	-7.358466	5.035675
22877		4.121379	-7.317431	5.006786
22878		4.069970	-7.281087	4.987309
22879		3.999544	-7.251665	4.975871
22880		3.906192	-7.228686	4.967095
22881		3.779706	-7.216706	4.955342
22882		3.647549	-7.210812	4.935237
22883		3.534583	-7.212365	4.909354
22884		3.471613	-7.214235	4.875107
22885		3.475426	-7.214150	4.836570
22886		3.522229	-7.207210	4.794599
22887		3.589347	-7.195983	4.749221
22888		3.637245	-7.179942	4.697864
22889		3.650516	-7.154636	4.632283
22890		3.624586	-7.120324	4.551525
22891		3.566633	-7.086681	4.451070
22892		3.489648	-7.048316	4.333850
22893		3.415252	-7.015591	4.200154
22894		3.342668	-6.984971	4.064651
22895		3.298807	-6.957924	3.925806
22896		3.296586	-6.925234	3.786845
22897		3.287718	-6.892673	3.645021
22898		3.253227	-6.865513	3.492810
22899		3.197228	-6.841725	3.328737
22900		3.108407	-6.825937	3.152555
22901		3.002178	-6.814727	2.960837
22902		2.900500	-6.804623	2.765954
22903		2.817638	-6.798567	2.570397
22904		2.716295	-6.790891	2.375812
22905		2.598544	-6.780380	2.175160
22906		2.444972	-6.767066	1.964261
22907		2.236814	-6.758580	1.738039
22908		2.007384	-6.755518	1.492597
22909		1.795175	-6.755366	1.226985
22910		1.602679	-6.756750	0.946187
22911		1.503805	-6.749905	0.641484
22912		1.534632	-6.719769	0.314189
22913		1.574944	-6.684436	-0.041148
22914		1.579325	-6.650059	-0.418267
22915		1.512446	-6.626383	-0.821094
22916		1.414666	-6.604256	-1.244499
22917		1.347899	-6.580488	-1.692213
22918		1.346756	-6.547412	-2.158439
22919		1.417596	-6.500193	-2.649089
22920		1.499203	-6.444657	-3.162820
22921		1.564540	-6.382133	-3.704006
22922		1.565298	-6.313916	-4.266106
22923		1.479863	-6.258155	-4.844707
22924		1.348047	-6.203932	-5.423828
22925		1.226720	-6.150964	-6.012139
22926		1.143735	-6.093305	-6.602083
22927		1.117231	-6.026812	-7.215351
22928		1.119344	-5.967430	-7.852241
22929		1.142524	-5.908567	-8.522053
22930		1.176705	-5.849757	-9.218556
22931		1.222265	-5.787798	-9.936479
22932		1.274090	-5.727122	-10.659253
22933		1.342462	-5.668139	-11.376167
22934		1.423181	-5.610802	-12.081289
22935		1.511205	-5.554059	-12.776108
22936		1.585524	-5.497941	-13.461074
22937		1.649186	-5.441938	-14.143091
22938		1.672163	-5.392600	-14.820130
22939		1.611113	-5.352709	-15.493012
22940		1.493278	-5.318386	-16.163404
22941		1.382327	-5.278256	-16.829901
22942		1.276897	-5.238072	-17.492522
22943		1.188063	-5.199212	-18.151196
22944		1.122082	-5.156401	-18.806383
22945		1.068460	-5.115189	-19.456902
22946		0.985510	-5.072155	-20.098602
22947		0.889071	-5.024317	-20.735664
22948		0.769614	-4.977705	-21.366549
22949		0.641595	-4.926266	-21.994307
22950		0.501365	-4.861619	-22.627965
22951		0.348976	-4.799257	-23.272236
22952		0.173742	-4.739351	-23.919944
22953		-0.007521	-4.679946	-24.574336
22954		-0.183805	-4.623428	-25.224231
22955		-0.344223	-4.566556	-25.876773
22956		-0.485099	-4.511618	-26.521248
22957		-0.607707	-4.460543	-27.171372
22958		-0.745458	-4.404434	-27.822152
22959		-0.861319	-4.355149	-28.479276
22960		-1.026201	-4.308685	-29.141832
22961		-1.175850	-4.268105	-29.812506
22962		-1.306208	-4.236232	-30.481517
22963		-1.377478	-4.204506	-31.148880
22964		-1.388364	-4.156316	-31.816468
22965		-1.374517	-4.101552	-32.495859
22966		-1.373182	-4.039813	-33.181251
22967		-1.416159	-3.971508	-33.875142
22968		-1.533843	-3.900171	-34.577385
22969		-1.721630	-3.851324	-35.280734
22970		-1.941273	-3.818986	-35.983239
22971		-2.106145	-3.801583	-36.690369
22972		-2.147073	-3.783813	-37.391736
22973		-2.069529	-3.750902	-38.088654
22974		-1.955034	-3.711881	-38.790967
22975		-1.848521	-3.665456	-39.493844
22976		-1.799453	-3.613355	-40.191681
22977		-1.892033	-3.583310	-40.883028
22978		-2.088268	-3.568962	-41.572424
22979		-2.307312	-3.563335	-42.264255
22980		-2.477783	-3.569046	-42.958246
22981		-2.517351	-3.576745	-43.652653
22982		-2.377531	-3.570111	-44.355200
22983		-2.164043	-3.546288	-45.064531
22984		-1.981644	-3.505265	-45.780121
22985		-1.872585	-3.463674	-46.489904
22986		-1.915960	-3.430837	-47.189051
22987		-2.097367	-3.420203	-47.880159
22988		-2.360711	-3.432963	-48.565084
22989		-2.581129	-3.450599	-49.253210
22990		-2.676910	-3.454113	-49.943633
22991		-2.598362	-3.425358	-50.637884
22992		-2.483901	-3.382807	-51.331068
22993		-2.403240	-3.340300	-52.020199
22994		-2.414123	-3.302899	-52.705384
22995		-2.567649	-3.280460	-53.391669
22996		-2.810193	-3.288423	-54.076140
22997		-3.023246	-3.311329	-54.756979
22998		-3.089891	-3.333707	-55.442428
22999		-2.968088	-3.339904	-56.126446
23000		-2.760509	-3.332635	-56.806709
23001		-2.543227	-3.296373	-57.485189
23002		-2.334754	-3.253272	-58.166282
23003		-2.258780	-3.231120	-58.854528
23004		-2.307907	-3.218051	-59.565824
