// General information: 
//  MT Manager version: 2022.2.0 
//  XDA version: 2022.2.0 build 7381 rev 124627 built on 2023-07-19
// Device information: 
//  DeviceId: 00B44876
//  ProductCode: MTW2-3A7G6
//  Firmware Version: 4.3.5
//  Hardware Version: 2.0.0
// Device settings: 
//  Filter Profile: human(46.1)
//  Option Flags: Orientation Smoother Disabled, Position/Velocity Smoother Disabled, Continuous Zero Rotation Update Disabled, AHS Disabled, ICC Disabled
// Coordinate system: ENU
PacketCounter	SampleTimeFine	Roll	Pitch	Yaw
17734		-8.512794	-8.891478	14.936533
17735		-8.504682	-8.983082	14.946517
17736		-8.500141	-9.058603	14.945709
17737		-8.524375	-9.111386	14.929434
17738		-8.571338	-9.140411	14.901171
17739		-8.623572	-9.160931	14.860685
17740		-8.677873	-9.172329	14.810080
17741		-8.714700	-9.193102	14.754679
17742		-8.725568	-9.210314	14.687164
17743		-8.710957	-9.227939	14.607631
17744		-8.685128	-9.234871	14.519587
17745		-8.667070	-9.223277	14.433016
17746		-8.671716	-9.192027	14.358616
17747		-8.702007	-9.153864	14.309226
17748		-8.743061	-9.122697	14.287853
17749		-8.788994	-9.104933	14.283604
17750		-8.853115	-9.095852	14.288353
17751		-8.931520	-9.096547	14.291569
17752		-9.009375	-9.108235	14.285353
17753		-9.055056	-9.141758	14.261040
17754		-9.033309	-9.195260	14.208089
17755		-8.927338	-9.265143	14.129225
17756		-8.736671	-9.356105	14.024814
17757		-8.488560	-9.473342	13.896066
17758		-8.214568	-9.599289	13.740276
17759		-7.965918	-9.715677	13.564507
17760		-7.777649	-9.796628	13.376294
17761		-7.663922	-9.839942	13.192801
17762		-7.618921	-9.845844	13.032410
17763		-7.605701	-9.828284	12.901627
17764		-7.584056	-9.799212	12.802029
17765		-7.533320	-9.760637	12.725665
17766		-7.435507	-9.721580	12.673313
17767		-7.297417	-9.702784	12.644255
17768		-7.130675	-9.717749	12.642234
17769		-6.934225	-9.781658	12.669911
17770		-6.723401	-9.877853	12.725782
17771		-6.508774	-10.001832	12.816408
17772		-6.288162	-10.142005	12.929199
17773		-6.073872	-10.288406	13.055370
17774		-5.863117	-10.428678	13.186546
17775		-5.673756	-10.549868	13.309326
17776		-5.527385	-10.643160	13.414280
17777		-5.431068	-10.706061	13.498721
17778		-5.380546	-10.728300	13.559333
17779		-5.354682	-10.721984	13.599311
17780		-5.344750	-10.697746	13.622288
17781		-5.369015	-10.648756	13.630045
17782		-5.429857	-10.592087	13.623439
17783		-5.537778	-10.535267	13.605002
17784		-5.681277	-10.474547	13.574602
17785		-5.831220	-10.417948	13.539882
17786		-5.957260	-10.371917	13.504352
17787		-6.040862	-10.344061	13.465919
17788		-6.077525	-10.350926	13.433796
17789		-6.067316	-10.399837	13.405883
17790		-6.023344	-10.471166	13.376160
17791		-5.974225	-10.556069	13.340707
17792		-5.932078	-10.647147	13.304271
17793		-5.882840	-10.761381	13.277253
17794		-5.787333	-10.907416	13.267360
17795		-5.611289	-11.073064	13.272817
17796		-5.370306	-11.230651	13.290104
17797		-5.118632	-11.370220	13.306794
17798		-4.913242	-11.475332	13.319241
17799		-4.799536	-11.537478	13.328530
17800		-4.777861	-11.553879	13.338684
17801		-4.817933	-11.546126	13.360129
17802		-4.867298	-11.530453	13.385391
17803		-4.887654	-11.516759	13.412472
17804		-4.878617	-11.511604	13.449293
17805		-4.858884	-11.523266	13.497867
17806		-4.847344	-11.551867	13.560039
17807		-4.863347	-11.593851	13.633076
17808		-4.879200	-11.654901	13.715251
17809		-4.873822	-11.742554	13.801305
17810		-4.827347	-11.845508	13.884526
17811		-4.747490	-11.945126	13.955999
17812		-4.653963	-12.031589	14.015960
17813		-4.578214	-12.080400	14.069051
17814		-4.542836	-12.079135	14.116559
17815		-4.555630	-12.031600	14.159428
17816		-4.602854	-11.955253	14.201235
17817		-4.652499	-11.873380	14.239740
17818		-4.673198	-11.804004	14.271755
17819		-4.654487	-11.749927	14.284161
17820		-4.600159	-11.710900	14.282565
17821		-4.535437	-11.686351	14.273880
17822		-4.477156	-11.667931	14.258806
17823		-4.440532	-11.646265	14.244689
17824		-4.415995	-11.612624	14.228112
17825		-4.391432	-11.570641	14.203984
17826		-4.365623	-11.519093	14.161563
17827		-4.345047	-11.456688	14.095749
17828		-4.334761	-11.384635	14.002634
17829		-4.327068	-11.301707	13.889559
17830		-4.318754	-11.205980	13.770247
17831		-4.300074	-11.099923	13.649752
17832		-4.269739	-11.001753	13.537228
17833		-4.231297	-10.935448	13.427453
17834		-4.208648	-10.890983	13.309790
17835		-4.220271	-10.850377	13.175477
17836		-4.284593	-10.797098	13.029464
17837		-4.398517	-10.738533	12.876238
17838		-4.521360	-10.670128	12.722180
17839		-4.598323	-10.604959	12.566422
17840		-4.607516	-10.539191	12.400685
17841		-4.566144	-10.481147	12.219486
17842		-4.508103	-10.439650	12.024027
17843		-4.473126	-10.411697	11.817006
17844		-4.489250	-10.397445	11.601448
17845		-4.557430	-10.400302	11.386128
17846		-4.651421	-10.422793	11.161575
17847		-4.742530	-10.460808	10.921696
17848		-4.788911	-10.502189	10.663908
17849		-4.775152	-10.543233	10.375092
17850		-4.723252	-10.566885	10.055812
17851		-4.665335	-10.556299	9.707273
17852		-4.636425	-10.507535	9.338006
17853		-4.627918	-10.422801	8.956933
17854		-4.633047	-10.320062	8.568841
17855		-4.623267	-10.229731	8.174866
17856		-4.593895	-10.165661	7.772296
17857		-4.563842	-10.125929	7.356579
17858		-4.571477	-10.080400	6.922301
17859		-4.650729	-9.999188	6.462614
17860		-4.792312	-9.855986	5.978034
17861		-4.954508	-9.651249	5.480958
17862		-5.104790	-9.399384	4.978164
17863		-5.206822	-9.119824	4.468584
17864		-5.255946	-8.832108	3.951630
17865		-5.267706	-8.541831	3.427498
17866		-5.288513	-8.249728	2.907288
17867		-5.356925	-7.963554	2.390147
17868		-5.516509	-7.695257	1.865527
17869		-5.761698	-7.474408	1.332999
17870		-6.070304	-7.306364	0.778234
17871		-6.393994	-7.193703	0.189694
17872		-6.674217	-7.128091	-0.432105
17873		-6.883862	-7.087223	-1.082897
17874		-7.037964	-7.057057	-1.755287
17875		-7.139714	-7.033289	-2.445177
17876		-7.229235	-7.021430	-3.143929
17877		-7.319762	-7.015145	-3.848470
17878		-7.422873	-7.002221	-4.560081
17879		-7.561828	-6.973865	-5.291524
17880		-7.761827	-6.936969	-6.044417
17881		-8.021788	-6.914696	-6.833121
17882		-8.350367	-6.912536	-7.648375
17883		-8.707842	-6.951542	-8.493194
17884		-9.045710	-7.020595	-9.355208
17885		-9.314376	-7.111919	-10.227240
17886		-9.505685	-7.213236	-11.096945
17887		-9.624798	-7.319913	-11.960812
17888		-9.731039	-7.413268	-12.820567
17889		-9.862064	-7.485559	-13.690898
17890		-10.046755	-7.544263	-14.583227
17891		-10.244207	-7.611779	-15.497358
17892		-10.397212	-7.721313	-16.435401
17893		-10.458346	-7.884085	-17.397869
17894		-10.448957	-8.054620	-18.375485
17895		-10.367853	-8.216757	-19.349963
17896		-10.255793	-8.358730	-20.307723
17897		-10.135642	-8.465078	-21.245583
17898		-10.031221	-8.542213	-22.161771
17899		-9.915911	-8.596205	-23.067959
17900		-9.743409	-8.652804	-23.983279
17901		-9.455145	-8.764956	-24.939850
17902		-9.079764	-8.893509	-25.950585
17903		-8.625381	-8.998646	-27.003502
17904		-8.137434	-9.071091	-28.077454
17905		-7.605024	-9.091527	-29.141780
17906		-7.017777	-9.041358	-30.158904
17907		-6.317169	-8.950407	-31.105245
17908		-5.510043	-8.815404	-31.991124
17909		-4.627885	-8.676068	-32.853991
17910		-3.752609	-8.545701	-33.728675
17911		-2.934027	-8.437973	-34.638897
17912		-2.234708	-8.350064	-35.576868
17913		-1.657839	-8.277963	-36.517587
17914		-1.255282	-8.189995	-37.427588
17915		-1.003855	-8.104573	-38.296387
17916		-0.901463	-8.016813	-39.125879
17917		-0.900082	-7.948803	-39.933226
17918		-0.952685	-7.910082	-40.736628
17919		-0.974122	-7.894962	-41.547946
17920		-0.919547	-7.896310	-42.375649
17921		-0.764507	-7.905451	-43.207713
17922		-0.561178	-7.879070	-44.012304
17923		-0.370937	-7.794558	-44.771027
17924		-0.283510	-7.657621	-45.496175
17925		-0.331003	-7.511473	-46.208024
17926		-0.469193	-7.386187	-46.934222
17927		-0.579928	-7.351716	-47.719193
17928		-0.618549	-7.387464	-48.582546
17929		-0.562820	-7.430117	-49.483118
17930		-0.482020	-7.390972	-50.356186
17931		-0.460980	-7.273529	-51.180722
17932		-0.544553	-7.115388	-51.961132
17933		-0.682612	-6.969313	-52.729804
17934		-0.781309	-6.874756	-53.512900
17935		-0.699605	-6.911634	-54.362023
17936		-0.425733	-7.025365	-55.269832
17937		-0.021898	-7.113878	-56.203362
17938		0.378271	-7.115455	-57.112812
17939		0.635818	-7.059921	-57.983825
17940		0.716133	-7.004945	-58.816520
17941		0.699209	-6.985277	-59.631472
17942		0.694059	-7.016922	-60.446794
17943		0.875319	-7.105729	-61.264766
17944		1.364377	-7.245735	-62.093249
17945		2.252901	-7.457368	-62.967750
17946		3.461296	-7.673258	-63.907223
17947		4.800551	-7.822610	-64.904715
17948		6.007444	-7.863068	-65.917473
17949		6.883098	-7.844412	-66.892835
17950		7.363212	-7.815400	-67.784699
17951		7.501253	-7.841823	-68.592269
17952		7.391348	-7.918298	-69.328976
17953		7.202672	-8.035129	-70.035409
17954		7.043868	-8.170494	-70.724263
17955		6.939767	-8.267902	-71.381197
17956		6.865474	-8.300007	-71.970867
17957		6.797388	-8.295540	-72.479701
17958		6.741887	-8.285237	-72.895207
17959		6.751190	-8.296577	-73.233615
17960		6.850728	-8.328774	-73.502108
17961		7.056424	-8.377888	-73.707672
17962		7.368714	-8.438542	-73.862846
17963		7.728208	-8.510521	-73.983911
17964		8.028471	-8.561038	-74.063567
17965		8.187258	-8.595648	-74.111981
17966		8.182236	-8.610086	-74.134638
17967		8.091256	-8.597661	-74.128158
17968		8.001214	-8.555827	-74.119074
17969		7.952402	-8.490507	-74.129446
17970		7.953063	-8.397952	-74.166215
17971		7.952778	-8.279329	-74.216124
17972		7.918249	-8.129242	-74.256552
17973		7.842145	-7.970738	-74.263349
17974		7.754870	-7.836033	-74.239280
17975		7.700604	-7.750766	-74.195456
17976		7.723815	-7.710877	-74.147708
17977		7.813371	-7.697181	-74.098306
17978		7.940476	-7.691365	-74.032949
17979		8.067280	-7.669247	-73.939321
17980		8.161065	-7.622587	-73.817083
17981		8.205257	-7.561378	-73.678136
17982		8.215003	-7.484453	-73.542490
17983		8.191019	-7.400995	-73.415526
17984		8.150773	-7.307457	-73.293802
17985		8.081167	-7.209629	-73.162981
17986		7.994132	-7.107574	-73.004570
17987		7.889573	-7.007113	-72.818942
17988		7.770276	-6.905549	-72.608679
17989		7.651823	-6.823707	-72.387548
17990		7.553928	-6.759681	-72.177880
17991		7.463270	-6.711403	-71.987136
17992		7.365509	-6.661357	-71.801600
17993		7.234800	-6.593374	-71.592230
17994		7.088842	-6.512309	-71.347927
17995		6.953837	-6.444222	-71.079550
17996		6.861155	-6.401949	-70.823692
17997		6.815673	-6.404290	-70.606609
17998		6.800936	-6.433904	-70.427039
17999		6.749508	-6.466723	-70.265288
18000		6.636193	-6.482973	-70.096514
18001		6.480416	-6.479824	-69.888595
18002		6.375829	-6.448235	-69.627587
18003		6.375648	-6.409453	-69.318623
18004		6.492086	-6.386638	-68.980800
18005		6.660654	-6.406483	-68.629135
18006		6.831733	-6.472554	-68.261348
18007		6.942599	-6.583500	-67.867626
18008		6.975761	-6.701516	-67.436949
18009		6.914386	-6.800013	-66.950369
18010		6.790457	-6.863179	-66.416264
18011		6.609127	-6.909348	-65.837933
18012		6.425795	-6.937301	-65.238770
18013		6.289690	-6.972815	-64.634156
18014		6.227004	-7.032398	-64.023981
18015		6.170127	-7.077579	-63.378635
18016		6.060228	-7.096830	-62.684966
18017		5.832598	-7.094941	-61.935527
18018		5.525696	-7.100819	-61.145113
18019		5.218847	-7.134938	-60.346161
18020		5.048891	-7.221448	-59.576311
18021		5.050390	-7.360422	-58.852702
18022		5.187933	-7.522996	-58.164621
18023		5.328925	-7.668065	-57.477044
18024		5.396651	-7.777129	-56.759381
18025		5.333103	-7.840913	-55.993049
18026		5.177142	-7.858491	-55.176116
18027		4.976770	-7.855134	-54.319651
18028		4.817226	-7.865690	-53.463643
18029		4.755348	-7.908752	-52.624782
18030		4.832152	-8.004483	-51.819120
18031		4.991010	-8.138474	-51.029955
18032		5.146178	-8.271122	-50.230968
18033		5.183854	-8.351507	-49.394973
18034		5.089810	-8.370935	-48.505197
18035		4.863191	-8.329732	-47.556913
18036		4.572560	-8.268048	-46.555602
18037		4.272786	-8.226803	-45.523535
18038		4.084722	-8.228189	-44.512690
18039		4.067579	-8.284070	-43.567810
18040		4.227479	-8.377373	-42.693903
18041		4.445620	-8.464069	-41.862463
18042		4.604768	-8.507477	-41.030532
18043		4.603030	-8.473261	-40.158901
18044		4.452293	-8.366376	-39.234974
18045		4.200708	-8.203177	-38.251806
18046		3.950198	-8.016984	-37.217167
18047		3.803248	-7.866213	-36.164662
18048		3.797785	-7.800629	-35.116024
18049		3.845857	-7.790501	-34.074752
18050		3.877834	-7.811280	-33.044427
18051		3.809759	-7.851697	-32.019816
18052		3.665819	-7.900162	-30.999743
18053		3.493245	-7.925996	-29.976317
18054		3.388544	-7.937287	-28.945001
18055		3.368186	-7.945014	-27.902893
18056		3.439349	-7.960372	-26.869071
18057		3.530618	-8.001903	-25.850847
18058		3.601096	-8.071307	-24.849560
18059		3.584488	-8.146703	-23.851349
18060		3.510496	-8.213351	-22.847694
18061		3.400597	-8.257295	-21.835849
18062		3.355625	-8.283057	-20.815479
18063		3.400100	-8.314486	-19.787961
18064		3.542380	-8.377355	-18.761869
18065		3.712574	-8.475622	-17.741271
18066		3.874074	-8.600685	-16.725434
18067		3.951151	-8.722052	-15.709913
18068		3.939092	-8.826617	-14.687985
18069		3.837346	-8.887174	-13.646295
18070		3.692739	-8.891606	-12.580450
18071		3.521256	-8.854062	-11.495980
18072		3.370960	-8.806296	-10.404508
18073		3.245314	-8.771044	-9.310465
18074		3.173070	-8.781536	-8.225578
18075		3.120172	-8.831177	-7.150316
18076		3.085253	-8.913211	-6.086363
18077		3.023010	-8.998794	-5.033068
18078		2.942051	-9.085300	-3.991277
18079		2.818141	-9.171501	-2.966539
18080		2.677328	-9.264752	-1.957970
18081		2.496885	-9.353409	-0.957297
18082		2.330944	-9.443068	0.032598
18083		2.196600	-9.528067	1.010760
18084		2.152870	-9.611163	1.977861
18085		2.181305	-9.685525	2.940686
18086		2.268101	-9.765534	3.898809
18087		2.349284	-9.858812	4.855592
18088		2.401423	-9.967875	5.800083
18089		2.367730	-10.068118	6.728901
18090		2.252793	-10.139645	7.641844
18091		2.067293	-10.172643	8.540484
18092		1.868830	-10.197599	9.416628
18093		1.669756	-10.239714	10.268405
18094		1.517175	-10.321156	11.091507
18095		1.389058	-10.427633	11.899714
18096		1.269687	-10.537905	12.699152
18097		1.138704	-10.641483	13.497061
18098		1.015466	-10.740146	14.293065
18099		0.902661	-10.827762	15.078384
18100		0.818833	-10.912302	15.836890
18101		0.743444	-10.986111	16.555662
18102		0.666503	-11.053503	17.222834
18103		0.569228	-11.116947	17.841981
18104		0.470679	-11.189259	18.419908
18105		0.383603	-11.254646	18.977141
18106		0.343325	-11.311505	19.518025
18107		0.329260	-11.367791	20.039630
18108		0.324568	-11.426211	20.536711
18109		0.308087	-11.476923	21.006690
18110		0.271496	-11.506868	21.457229
18111		0.209322	-11.514042	21.889316
18112		0.127686	-11.512961	22.299660
18113		0.033936	-11.508844	22.692868
18114		-0.026609	-11.482222	23.072906
18115		-0.052462	-11.422967	23.434934
18116		-0.062647	-11.338617	23.772380
18117		-0.087151	-11.232390	24.084377
18118		-0.139363	-11.127460	24.377390
18119		-0.229645	-11.037162	24.657279
18120		-0.332492	-10.974550	24.925052
18121		-0.424987	-10.933360	25.180387
18122		-0.489154	-10.904864	25.421569
18123		-0.525279	-10.873762	25.644228
18124		-0.542777	-10.840565	25.848573
18125		-0.551251	-10.807671	26.037213
18126		-0.556380	-10.779790	26.214021
18127		-0.551014	-10.762789	26.387708
18128		-0.518814	-10.754999	26.567202
18129		-0.466958	-10.761353	26.735769
18130		-0.415160	-10.780016	26.880073
18131		-0.365377	-10.803154	27.004250
18132		-0.320485	-10.817317	27.107457
18133		-0.294277	-10.833972	27.195077
18134		-0.296748	-10.852419	27.274838
18135		-0.336848	-10.873475	27.347114
18136		-0.401137	-10.876938	27.414032
18137		-0.466530	-10.850293	27.471933
18138		-0.525264	-10.790826	27.517832
18139		-0.564797	-10.717609	27.546185
18140		-0.589092	-10.650311	27.562359
18141		-0.610109	-10.611173	27.565334
18142		-0.641436	-10.585440	27.557382
18143		-0.699114	-10.559543	27.548582
18144		-0.772282	-10.527673	27.543805
18145		-0.846343	-10.502066	27.538095
18146		-0.905059	-10.487015	27.520920
18147		-0.939157	-10.481126	27.491941
18148		-0.958226	-10.480615	27.453889
18149		-0.966131	-10.485134	27.410333
18150		-0.972311	-10.492490	27.366745
18151		-0.974587	-10.508706	27.318789
18152		-0.974439	-10.527384	27.258144
18153		-0.950976	-10.542869	27.176451
18154		-0.912925	-10.542083	27.069434
18155		-0.872759	-10.528941	26.940309
18156		-0.851132	-10.508064	26.801218
18157		-0.857669	-10.488895	26.651330
18158		-0.865558	-10.480388	26.478080
18159		-0.842649	-10.487022	26.267620
18160		-0.793785	-10.494540	26.005910
18161		-0.740151	-10.492214	25.695454
18162		-0.721705	-10.471615	25.347856
18163		-0.757256	-10.439464	24.984703
18164		-0.852896	-10.396101	24.613883
18165		-0.973669	-10.345896	24.236380
18166		-1.097431	-10.291699	23.857345
18167		-1.205152	-10.241137	23.487168
18168		-1.287078	-10.193070	23.125724
18169		-1.332887	-10.153235	22.772200
18170		-1.356934	-10.122323	22.419433
18171		-1.358687	-10.097940	22.062197
18172		-1.343726	-10.082335	21.712917
18173		-1.308048	-10.072250	21.378224
18174		-1.268898	-10.058234	21.060840
18175		-1.220680	-10.042621	20.756963
18176		-1.182198	-10.018562	20.459724
18177		-1.149294	-9.982786	20.161622
18178		-1.139984	-9.930388	19.853721
18179		-1.175309	-9.867221	19.525812
18180		-1.268889	-9.784368	19.194463
18181		-1.397129	-9.690049	18.874779
18182		-1.531516	-9.593619	18.570149
18183		-1.621835	-9.502938	18.269212
18184		-1.675924	-9.415615	17.958166
18185		-1.689057	-9.346944	17.619247
18186		-1.699126	-9.278871	17.259735
18187		-1.701382	-9.209226	16.891601
18188		-1.705676	-9.134234	16.517216
18189		-1.686800	-9.068250	16.143206
18190		-1.622516	-8.999956	15.780784
18191		-1.521269	-8.924070	15.414590
18192		-1.414767	-8.836382	15.041398
18193		-1.329826	-8.748376	14.651252
18194		-1.306457	-8.674407	14.234904
18195		-1.341619	-8.632354	13.790514
18196		-1.419221	-8.603813	13.328215
18197		-1.478399	-8.579243	12.858126
18198		-1.518579	-8.510117	12.382032
18199		-1.543307	-8.415675	11.890298
18200		-1.613006	-8.306873	11.380192
18201		-1.732396	-8.201844	10.849991
18202		-1.903395	-8.119979	10.300844
18203		-2.084288	-8.073428	9.733412
18204		-2.224227	-8.033033	9.161003
18205		-2.275724	-7.972039	8.581531
18206		-2.270610	-7.889298	7.991985
18207		-2.240250	-7.804095	7.387666
18208		-2.239883	-7.732215	6.770038
18209		-2.258156	-7.695288	6.142853
18210		-2.287430	-7.690279	5.506276
18211		-2.275673	-7.718359	4.859044
18212		-2.241056	-7.747449	4.212235
18213		-2.209197	-7.748028	3.574848
18214		-2.269043	-7.681724	2.949740
18215		-2.451714	-7.566145	2.335817
18216		-2.766531	-7.411906	1.718627
18217		-3.163087	-7.240959	1.081534
18218		-3.595281	-7.078928	0.423501
18219		-3.954815	-6.957412	-0.254990
18220		-4.195701	-6.873098	-0.938192
18221		-4.283331	-6.819856	-1.607512
18222		-4.294731	-6.750009	-2.265296
18223		-4.307681	-6.657849	-2.929299
18224		-4.405153	-6.542466	-3.603568
18225		-4.568593	-6.431661	-4.292528
18226		-4.767589	-6.341204	-4.989513
18227		-4.912995	-6.280686	-5.699193
18228		-4.972420	-6.234203	-6.426761
18229		-4.944027	-6.191790	-7.166120
18230		-4.877005	-6.126994	-7.915504
18231		-4.823232	-6.045726	-8.671151
18232		-4.822000	-5.960590	-9.429682
18233		-4.841046	-5.899317	-10.194825
18234		-4.875072	-5.848165	-10.971199
18235		-4.876834	-5.830263	-11.764258
18236		-4.872701	-5.827923	-12.570946
18237		-4.852828	-5.815111	-13.388587
18238		-4.861957	-5.761498	-14.195991
18239		-4.883888	-5.677622	-14.980730
18240		-4.924571	-5.572553	-15.741431
18241		-4.922531	-5.511878	-16.492835
18242		-4.877409	-5.524373	-17.245708
18243		-4.785618	-5.601368	-18.025079
18244		-4.702960	-5.689117	-18.837631
18245		-4.680430	-5.730219	-19.677994
18246		-4.780266	-5.688573	-20.537189
18247		-5.002165	-5.592339	-21.405876
18248		-5.317746	-5.466318	-22.269783
18249		-5.595185	-5.388278	-23.129662
18250		-5.743486	-5.423446	-24.004708
18251		-5.780299	-5.513729	-24.914503
18252		-5.788262	-5.601145	-25.845820
18253		-5.843066	-5.648782	-26.766272
18254		-5.964987	-5.653528	-27.653979
18255		-6.098262	-5.662840	-28.514375
18256		-6.187592	-5.694812	-29.358242
18257		-6.130833	-5.802455	-30.199164
18258		-5.940325	-5.962959	-31.052988
18259		-5.615433	-6.156091	-31.937022
18260		-5.260261	-6.330822	-32.841015
18261		-4.928525	-6.440717	-33.749255
18262		-4.682661	-6.492485	-34.643101
18263		-4.481841	-6.507046	-35.501469
18264		-4.231665	-6.542200	-36.333967
18265		-3.784221	-6.718669	-37.181898
18266		-3.222851	-6.955112	-38.050908
18267		-2.722129	-7.128580	-38.941333
18268		-2.466954	-7.181251	-39.819084
18269		-2.483495	-7.123289	-40.660350
18270		-2.731106	-6.973702	-41.446352
18271		-3.075396	-6.793570	-42.195097
18272		-3.381024	-6.656042	-42.927825
18273		-3.579010	-6.559882	-43.661427
18274		-3.722643	-6.438941	-44.406238
18275		-3.848754	-6.277439	-45.155589
18276		-3.993375	-6.065208	-45.890319
18277		-4.108729	-5.840228	-46.598259
18278		-4.164548	-5.631394	-47.283310
18279		-4.104348	-5.488124	-47.966088
18280		-3.920519	-5.418321	-48.664723
18281		-3.614416	-5.413119	-49.394024
18282		-3.258138	-5.421349	-50.150273
18283		-2.890868	-5.432515	-50.912125
18284		-2.542499	-5.433401	-51.658880
18285		-2.185839	-5.430013	-52.384541
18286		-1.801450	-5.447323	-53.102639
18287		-1.382094	-5.467713	-53.825941
18288		-0.988025	-5.474911	-54.563667
18289		-0.640957	-5.473942	-55.312020
18290		-0.390373	-5.445175	-56.055139
18291		-0.211656	-5.408789	-56.791627
18292		-0.102242	-5.370191	-57.517759
18293		-0.013713	-5.318006	-58.235205
18294		0.042479	-5.248327	-58.944038
18295		0.088039	-5.165940	-59.639143
18296		0.144608	-5.083526	-60.319100
18297		0.254772	-5.016470	-60.980444
18298		0.436575	-4.975703	-61.623653
18299		0.716385	-4.983307	-62.249499
18300		1.051022	-4.998628	-62.850016
18301		1.400859	-5.013778	-63.421860
18302		1.712901	-5.021072	-63.965027
18303		1.950488	-5.021736	-64.477214
18304		2.093428	-5.025909	-64.964620
18305		2.166142	-5.053105	-65.431433
18306		2.230712	-5.109414	-65.886188
18307		2.333952	-5.199740	-66.332803
18308		2.473847	-5.278998	-66.768967
18309		2.600327	-5.317242	-67.180004
18310		2.651452	-5.302420	-67.553494
18311		2.603348	-5.250316	-67.888873
18312		2.498015	-5.178679	-68.181737
18313		2.390620	-5.117121	-68.436681
18314		2.337356	-5.082022	-68.662614
18315		2.361081	-5.091710	-68.872566
18316		2.448157	-5.127721	-69.065397
18317		2.557423	-5.164988	-69.234545
18318		2.633288	-5.177897	-69.372315
18319		2.645163	-5.170757	-69.474407
18320		2.622507	-5.160525	-69.547865
18321		2.619528	-5.162823	-69.599816
18322		2.689692	-5.187973	-69.637366
18323		2.835427	-5.221243	-69.669566
18324		3.004966	-5.242655	-69.695997
18325		3.160872	-5.239962	-69.710692
18326		3.256147	-5.206672	-69.706671
18327		3.273005	-5.148027	-69.680271
18328		3.219165	-5.067992	-69.640841
18329		3.125318	-4.977371	-69.584119
18330		3.036568	-4.882166	-69.506463
18331		2.983657	-4.792529	-69.404394
18332		3.012307	-4.724351	-69.283676
18333		3.150458	-4.695583	-69.163690
18334		3.358713	-4.682559	-69.055187
18335		3.533924	-4.650864	-68.948331
18336		3.602934	-4.592780	-68.841141
18337		3.539386	-4.523823	-68.735381
18338		3.393847	-4.456427	-68.627885
18339		3.227319	-4.397696	-68.512772
18340		3.122885	-4.359105	-68.392406
18341		3.126649	-4.341645	-68.275528
18342		3.233707	-4.337001	-68.165600
18343		3.380051	-4.345604	-68.059459
18344		3.505693	-4.363571	-67.950274
18345		3.567447	-4.383321	-67.835745
18346		3.583591	-4.403676	-67.709132
18347		3.584503	-4.433056	-67.571522
18348		3.612612	-4.484126	-67.424362
18349		3.670301	-4.540057	-67.268665
18350		3.765301	-4.589860	-67.108949
18351		3.872891	-4.639423	-66.946794
18352		4.006386	-4.693629	-66.772065
18353		4.176634	-4.764913	-66.583144
18354		4.415609	-4.861452	-66.380020
18355		4.717981	-4.987074	-66.164729
18356		5.047298	-5.118353	-65.937327
18357		5.322875	-5.228618	-65.686010
18358		5.501938	-5.285355	-65.396033
18359		5.538835	-5.270949	-65.065381
18360		5.435384	-5.197380	-64.705155
18361		5.210462	-5.107861	-64.335698
18362		4.930343	-5.046463	-63.972158
18363		4.651482	-5.049121	-63.610978
18364		4.442878	-5.112449	-63.252783
18365		4.336392	-5.201070	-62.885235
18366		4.359177	-5.288629	-62.479776
18367		4.471869	-5.356613	-62.005316
18368		4.646413	-5.411479	-61.467088
18369		4.823252	-5.478645	-60.897764
18370		5.003037	-5.584769	-60.332466
18371		5.194793	-5.748404	-59.788689
18372		5.403366	-5.954464	-59.260862
18373		5.600487	-6.171217	-58.733928
18374		5.758956	-6.357595	-58.192050
18375		5.837724	-6.489094	-57.606890
18376		5.837817	-6.558832	-56.970246
18377		5.744843	-6.590811	-56.292285
18378		5.602051	-6.629703	-55.601414
18379		5.420343	-6.693975	-54.922930
18380		5.251952	-6.810620	-54.260061
18381		5.117676	-6.963425	-53.596206
18382		5.073662	-7.134519	-52.924015
18383		5.092297	-7.296625	-52.239770
18384		5.143784	-7.427288	-51.543064
18385		5.166084	-7.515559	-50.825344
18386		5.124910	-7.581680	-50.075326
18387		4.998730	-7.632612	-49.295026
18388		4.818749	-7.705315	-48.494667
18389		4.583054	-7.812493	-47.683686
18390		4.290736	-7.955298	-46.874546
18391		3.917408	-8.109439	-46.062161
18392		3.524343	-8.230255	-45.242093
18393		3.150424	-8.297970	-44.406534
18394		2.884045	-8.332166	-43.570797
18395		2.744938	-8.391440	-42.748760
18396		2.716511	-8.505525	-41.929530
18397		2.727600	-8.662195	-41.116605
18398		2.758576	-8.846967	-40.314108
18399		2.759673	-9.022881	-39.514060
18400		2.745657	-9.159081	-38.708283
18401		2.694155	-9.229350	-37.879392
18402		2.658440	-9.262854	-37.026336
18403		2.646114	-9.298318	-36.166237
18404		2.676435	-9.357506	-35.315123
18405		2.708871	-9.445482	-34.473168
18406		2.725270	-9.543969	-33.637246
18407		2.665094	-9.612722	-32.794674
18408		2.543438	-9.639434	-31.948683
18409		2.367873	-9.615108	-31.087670
18410		2.184750	-9.545153	-30.204597
18411		1.995086	-9.446252	-29.298466
18412		1.850272	-9.359406	-28.390872
18413		1.752874	-9.315257	-27.502150
18414		1.719505	-9.333101	-26.651302
18415		1.710896	-9.399526	-25.833046
18416		1.714652	-9.490304	-25.031992
18417		1.692162	-9.566983	-24.229594
18418		1.643738	-9.596793	-23.418506
18419		1.535352	-9.565760	-22.587976
18420		1.403360	-9.496133	-21.740870
18421		1.247153	-9.428553	-20.874951
18422		1.153536	-9.393737	-20.002767
18423		1.148032	-9.410421	-19.138886
18424		1.225521	-9.475104	-18.301718
18425		1.305684	-9.539961	-17.476674
18426		1.335022	-9.579349	-16.652868
18427		1.259446	-9.572629	-15.820659
18428		1.118253	-9.530199	-14.980540
18429		0.946440	-9.469855	-14.121229
18430		0.811451	-9.423389	-13.245759
18431		0.738317	-9.406380	-12.360803
18432		0.747300	-9.428129	-11.479000
18433		0.792703	-9.469432	-10.609692
18434		0.847114	-9.511194	-9.755412
18435		0.863378	-9.523941	-8.903191
18436		0.842565	-9.514448	-8.043523
18437		0.788001	-9.490054	-7.164083
18438		0.768245	-9.471928	-6.269856
18439		0.797099	-9.476926	-5.372533
18440		0.914006	-9.511781	-4.486303
18441		1.090068	-9.572519	-3.626383
18442		1.286908	-9.644176	-2.800498
18443		1.424511	-9.693165	-1.991637
18444		1.470056	-9.707604	-1.188868
18445		1.402410	-9.679020	-0.374063
18446		1.261253	-9.630846	0.442615
18447		1.070564	-9.575405	1.246917
18448		0.934506	-9.532700	2.026062
18449		0.901696	-9.514371	2.776232
18450		1.004555	-9.550073	3.485772
18451		1.213684	-9.647274	4.158461
18452		1.458108	-9.789772	4.800844
18453		1.652499	-9.945535	5.439173
18454		1.747943	-10.059378	6.079727
18455		1.733166	-10.109380	6.732389
18456		1.655053	-10.124318	7.386549
18457		1.547272	-10.151484	8.031112
18458		1.452372	-10.209370	8.662358
18459		1.367746	-10.304674	9.284367
18460		1.285967	-10.410589	9.899799
18461		1.182383	-10.501147	10.512040
18462		1.048112	-10.551193	11.126660
18463		0.878126	-10.552676	11.751701
18464		0.700614	-10.515221	12.389019
18465		0.502388	-10.462957	13.037793
18466		0.285776	-10.409014	13.688506
18467		0.053422	-10.351655	14.347585
18468		-0.162112	-10.293172	15.018234
18469		-0.345041	-10.229651	15.700777
18470		-0.484719	-10.164245	16.392826
18471		-0.608300	-10.103441	17.091265
18472		-0.726509	-10.063601	17.784031
18473		-0.857324	-10.049310	18.453347
18474		-0.976256	-10.083700	19.079553
18475		-1.064623	-10.143611	19.664614
18476		-1.112471	-10.195124	20.227846
18477		-1.141260	-10.215702	20.792024
18478		-1.158945	-10.210202	21.346441
18479		-1.166084	-10.196882	21.876490
18480		-1.140350	-10.200577	22.366648
18481		-1.079448	-10.238752	22.813879
18482		-0.989640	-10.302255	23.227756
18483		-0.891495	-10.375152	23.610485
18484		-0.811396	-10.451575	23.957133
18485		-0.776678	-10.515270	24.274789
18486		-0.762751	-10.549415	24.553336
18487		-0.769417	-10.563219	24.796549
18488		-0.800066	-10.562438	25.008920
18489		-0.852598	-10.556803	25.201563
18490		-0.928419	-10.553855	25.375465
18491		-0.989650	-10.558303	25.536517
18492		-1.014140	-10.568929	25.673807
18493		-1.004069	-10.578904	25.774119
18494		-0.977900	-10.574780	25.835874
18495		-0.974885	-10.556707	25.863920
18496		-1.009312	-10.533732	25.867036
18497		-1.068661	-10.512129	25.853566
18498		-1.130728	-10.499746	25.825318
18499		-1.173553	-10.497527	25.785070
18500		-1.182132	-10.491776	25.728787
18501		-1.154460	-10.489333	25.654554
18502		-1.117849	-10.485538	25.577000
18503		-1.082858	-10.486318	25.497628
18504		-1.048062	-10.491449	25.419008
18505		-0.993347	-10.501784	25.334158
18506		-0.905183	-10.517955	25.233532
18507		-0.782420	-10.536610	25.107023
18508		-0.645763	-10.553620	24.951822
18509		-0.506033	-10.557744	24.767733
18510		-0.381602	-10.546585	24.566618
18511		-0.280669	-10.516116	24.354000
18512		-0.220419	-10.466618	24.133453
18513		-0.186111	-10.412732	23.901943
18514		-0.164144	-10.360347	23.655253
18515		-0.134782	-10.304662	23.405000
18516		-0.108660	-10.241676	23.161978
18517		-0.090425	-10.175816	22.929081
18518		-0.102868	-10.114976	22.697444
18519		-0.147394	-10.070514	22.464993
18520		-0.225544	-10.030857	22.232872
18521		-0.322022	-9.991863	21.994413
18522		-0.430705	-9.950080	21.750536
18523		-0.523874	-9.912262	21.491579
18524		-0.589941	-9.874263	21.211693
18525		-0.616631	-9.841193	20.898001
18526		-0.617253	-9.813565	20.544349
18527		-0.608096	-9.798895	20.152814
18528		-0.611105	-9.795287	19.739865
18529		-0.609640	-9.807790	19.311866
18530		-0.617875	-9.825775	18.871163
18531		-0.614684	-9.839431	18.423476
18532		-0.615059	-9.838640	17.975608
18533		-0.611326	-9.831129	17.536421
18534		-0.609097	-9.814161	17.101554
18535		-0.603475	-9.807345	16.653962
18536		-0.594167	-9.807670	16.183385
18537		-0.573117	-9.823710	15.683073
18538		-0.561380	-9.847967	15.153796
18539		-0.557456	-9.873575	14.604012
18540		-0.583531	-9.889796	14.045685
18541		-0.630326	-9.904477	13.491135
18542		-0.700353	-9.899883	12.944820
18543		-0.757035	-9.881534	12.428063
18544		-0.801733	-9.846827	11.937432
18545		-0.803559	-9.804607	11.442021
18546		-0.795597	-9.742626	10.906919
18547		-0.789847	-9.667718	10.320106
18548		-0.829866	-9.583691	9.687977
18549		-0.897793	-9.513480	9.024129
18550		-0.987310	-9.444115	8.347350
18551		-1.045341	-9.362272	7.662917
18552		-1.079507	-9.247304	6.972618
18553		-1.066810	-9.111999	6.277017
18554		-1.040444	-8.963958	5.578502
18555		-1.009373	-8.833241	4.867962
18556		-1.016373	-8.730357	4.147409
18557		-1.076288	-8.650856	3.425621
18558		-1.193268	-8.577897	2.711806
18559		-1.346715	-8.487902	1.999443
18560		-1.540041	-8.370708	1.287477
18561		-1.741307	-8.243646	0.584228
18562		-1.934672	-8.125172	-0.107931
18563		-2.077739	-8.049620	-0.796856
18564		-2.189535	-8.007475	-1.494983
18565		-2.270635	-7.974090	-2.205130
18566		-2.377145	-7.928081	-2.921791
18567		-2.506353	-7.873419	-3.637653
18568		-2.682348	-7.822489	-4.354488
18569		-2.873320	-7.805169	-5.079563
18570		-3.068938	-7.819058	-5.815518
18571		-3.220444	-7.847270	-6.556287
18572		-3.334208	-7.853435	-7.293740
18573		-3.428940	-7.814991	-8.024713
18574		-3.556697	-7.722118	-8.744443
18575		-3.738869	-7.593268	-9.460317
18576		-4.017356	-7.462081	-10.173912
18577		-4.342986	-7.362189	-10.894199
18578		-4.658391	-7.316658	-11.625013
18579		-4.894960	-7.317023	-12.369658
18580		-5.067259	-7.320375	-13.117148
18581		-5.184513	-7.307303	-13.856722
18582		-5.277315	-7.263405	-14.584677
18583		-5.323660	-7.206599	-15.308010
18584		-5.344442	-7.141599	-16.029520
18585		-5.311577	-7.101732	-16.748665
18586		-5.207705	-7.100574	-17.467473
18587		-5.024039	-7.124622	-18.194833
18588		-4.832856	-7.125373	-18.921658
18589		-4.696634	-7.054721	-19.647713
18590		-4.707930	-6.906070	-20.361538
18591		-4.879951	-6.734578	-21.062545
18592		-5.168046	-6.575816	-21.756100
18593		-5.406936	-6.509325	-22.448210
18594		-5.522897	-6.528479	-23.152342
18595		-5.517270	-6.566897	-23.889041
18596		-5.514336	-6.551328	-24.652535
18597		-5.602868	-6.476766	-25.436669
18598		-5.819375	-6.374775	-26.224151
18599		-6.118517	-6.276708	-27.004646
18600		-6.379611	-6.253751	-27.773116
18601		-6.454402	-6.355437	-28.559300
18602		-6.338762	-6.529438	-29.391781
18603		-6.106226	-6.706053	-30.271374
18604		-5.896761	-6.818863	-31.160309
18605		-5.774491	-6.866174	-32.033012
18606		-5.744722	-6.885071	-32.871641
18607		-5.720359	-6.918246	-33.696170
18608		-5.589535	-7.034953	-34.527182
18609		-5.238948	-7.300526	-35.392545
18610		-4.808259	-7.540223	-36.295666
18611		-4.464267	-7.632843	-37.220871
18612		-4.410458	-7.569528	-38.124557
18613		-4.716877	-7.388072	-38.978808
18614		-5.317322	-7.149810	-39.787136
18615		-6.069805	-6.912097	-40.567522
18616		-6.732594	-6.783069	-41.362329
18617		-7.091693	-6.805958	-42.193495
18618		-7.190528	-6.850055	-43.062289
18619		-7.129529	-6.878529	-43.928215
18620		-7.099609	-6.839063	-44.751277
18621		-7.176778	-6.767629	-45.506189
18622		-7.333328	-6.711119	-46.209222
18623		-7.467072	-6.699972	-46.891092
18624		-7.462348	-6.767293	-47.570324
18625		-7.274793	-6.869324	-48.259285
18626		-6.939066	-6.955763	-48.941474
18627		-6.501651	-6.997258	-49.610919
18628		-6.042442	-6.995709	-50.262865
18629		-5.631428	-6.947076	-50.887247
18630		-5.330879	-6.882950	-51.492635
18631		-5.088847	-6.863321	-52.105742
18632		-4.876909	-6.857241	-52.718369
18633		-4.692062	-6.773713	-53.328907
18634		-4.614732	-6.617026	-53.938548
18635		-4.672223	-6.407914	-54.541972
18636		-4.828266	-6.170393	-55.127669
18637		-5.003708	-5.971772	-55.699301
18638		-5.098738	-5.864682	-56.269875
18639		-5.002200	-5.865111	-56.846740
18640		-4.750239	-5.895257	-57.422365
18641		-4.434660	-5.889711	-57.971670
18642		-4.201634	-5.822304	-58.477277
18643		-4.087560	-5.738052	-58.953890
18644		-4.061864	-5.676960	-59.414136
18645		-4.037034	-5.660791	-59.868373
18646		-3.909209	-5.713784	-60.323667
18647		-3.625217	-5.818223	-60.778360
18648		-3.205544	-5.925960	-61.229181
18649		-2.670502	-6.024838	-61.670736
18650		-2.128428	-6.081367	-62.081246
18651		-1.674582	-6.082386	-62.440777
18652		-1.384968	-6.049039	-62.755303
18653		-1.261398	-6.029720	-63.048295
18654		-1.243200	-6.043671	-63.342663
18655		-1.242159	-6.092854	-63.645388
18656		-1.208390	-6.152944	-63.942729
18657		-1.123846	-6.200834	-64.215038
18658		-0.999370	-6.223848	-64.448476
18659		-0.868724	-6.219295	-64.639242
18660		-0.779731	-6.187797	-64.792796
18661		-0.744965	-6.165012	-64.933909
18662		-0.755746	-6.152121	-65.080071
18663		-0.763157	-6.171625	-65.230376
18664		-0.727644	-6.218793	-65.376489
18665		-0.660970	-6.259202	-65.498443
18666		-0.592889	-6.271042	-65.591619
18667		-0.543571	-6.263517	-65.659480
18668		-0.497288	-6.248035	-65.704874
18669		-0.431443	-6.245305	-65.731442
18670		-0.314819	-6.266036	-65.755419
18671		-0.158405	-6.302487	-65.780357
18672		0.015808	-6.324313	-65.801932
18673		0.155524	-6.312920	-65.815884
18674		0.216997	-6.272764	-65.815467
18675		0.194685	-6.210768	-65.800717
18676		0.107407	-6.144836	-65.783396
18677		-0.022008	-6.079278	-65.759399
18678		-0.143415	-6.016916	-65.722960
18679		-0.224843	-5.963670	-65.674126
18680		-0.234742	-5.923098	-65.616564
18681		-0.189480	-5.871968	-65.548589
18682		-0.136308	-5.806426	-65.475663
18683		-0.134441	-5.730393	-65.404213
18684		-0.187747	-5.653943	-65.332370
18685		-0.268960	-5.591158	-65.258266
18686		-0.341515	-5.545610	-65.177562
18687		-0.360066	-5.499352	-65.081819
18688		-0.310346	-5.440621	-64.966843
18689		-0.220907	-5.364906	-64.834443
18690		-0.136984	-5.283786	-64.699989
18691		-0.104968	-5.211676	-64.574199
18692		-0.127290	-5.151720	-64.456218
18693		-0.201255	-5.105442	-64.329468
18694		-0.276724	-5.064077	-64.191418
18695		-0.325049	-5.026638	-64.039867
18696		-0.321386	-4.978818	-63.875923
18697		-0.275258	-4.919008	-63.705078
18698		-0.225637	-4.856346	-63.542587
18699		-0.219853	-4.795667	-63.389393
18700		-0.279056	-4.757675	-63.240559
18701		-0.400740	-4.746389	-63.095268
18702		-0.536843	-4.766656	-62.949664
18703		-0.642456	-4.801183	-62.792588
18704		-0.682051	-4.824077	-62.611966
18705		-0.668947	-4.827366	-62.409953
18706		-0.617798	-4.829894	-62.196977
18707		-0.551713	-4.841173	-61.985629
18708		-0.491407	-4.876083	-61.783551
18709		-0.462221	-4.919445	-61.583995
18710		-0.462429	-4.970933	-61.371651
18711		-0.480704	-5.028315	-61.143135
18712		-0.482701	-5.092854	-60.899474
18713		-0.446674	-5.148333	-60.641489
18714		-0.365168	-5.191213	-60.368726
18715		-0.272419	-5.221295	-60.080219
18716		-0.206554	-5.258879	-59.770681
18717		-0.175300	-5.297129	-59.433104
18718		-0.158420	-5.339120	-59.082505
18719		-0.143160	-5.401907	-58.720328
18720		-0.116772	-5.465419	-58.344354
18721		-0.100632	-5.515904	-57.941713
18722		-0.121055	-5.549424	-57.502920
18723		-0.206475	-5.574132	-57.032382
18724		-0.325096	-5.624893	-56.538714
18725		-0.475888	-5.699756	-56.026404
18726		-0.606837	-5.779893	-55.498343
18727		-0.692917	-5.856881	-54.962687
18728		-0.707127	-5.921290	-54.425585
18729		-0.675638	-5.958103	-53.874002
18730		-0.620689	-5.976275	-53.303705
18731		-0.581159	-5.993735	-52.709413
18732		-0.533593	-6.033216	-52.103929
18733		-0.448765	-6.109621	-51.510000
18734		-0.284613	-6.225961	-50.936420
18735		-0.081520	-6.365039	-50.359913
18736		0.129419	-6.504243	-49.773338
18737		0.274048	-6.599294	-49.167471
18738		0.347750	-6.652489	-48.542789
18739		0.316397	-6.651181	-47.894975
18740		0.204391	-6.603440	-47.210518
18741		0.065811	-6.537923	-46.491207
18742		-0.056745	-6.489910	-45.759637
18743		-0.153641	-6.482229	-45.030640
18744		-0.198535	-6.522313	-44.313050
18745		-0.192567	-6.572989	-43.603054
18746		-0.126522	-6.610099	-42.894237
18747		-0.055383	-6.622168	-42.170034
18748		-0.003954	-6.607846	-41.432579
18749		0.022419	-6.590307	-40.678118
18750		0.087093	-6.609999	-39.921555
18751		0.225004	-6.668818	-39.167126
18752		0.444240	-6.758604	-38.421456
18753		0.676222	-6.846089	-37.676186
18754		0.887186	-6.910506	-36.924940
18755		1.039601	-6.946075	-36.172834
18756		1.127248	-6.960402	-35.423384
18757		1.116193	-6.933807	-34.662423
18758		1.025895	-6.878487	-33.880424
18759		0.898434	-6.816598	-33.088029
18760		0.820068	-6.782489	-32.301324
18761		0.854308	-6.785385	-31.532053
18762		1.024529	-6.816017	-30.792659
18763		1.276082	-6.859177	-30.084255
18764		1.552509	-6.905946	-29.393380
18765		1.757823	-6.924983	-28.700625
18766		1.863672	-6.903320	-27.991258
18767		1.860793	-6.829454	-27.252951
18768		1.797466	-6.715045	-26.472842
18769		1.690568	-6.586716	-25.657280
18770		1.608348	-6.476904	-24.824855
18771		1.566536	-6.406254	-23.992600
18772		1.580469	-6.355991	-23.170114
18773		1.606146	-6.320630	-22.358367
18774		1.611806	-6.296287	-21.552511
18775		1.574015	-6.258756	-20.744571
18776		1.501488	-6.213483	-19.939567
18777		1.423931	-6.168174	-19.133834
18778		1.384144	-6.130835	-18.324112
18779		1.385535	-6.105869	-17.511329
18780		1.434504	-6.105018	-16.701233
18781		1.499075	-6.127722	-15.895124
18782		1.568651	-6.173475	-15.091110
18783		1.594210	-6.215357	-14.281778
18784		1.578680	-6.238375	-13.468373
18785		1.503230	-6.240492	-12.650314
18786		1.400687	-6.239483	-11.830284
18787		1.290225	-6.236774	-11.014704
18788		1.214654	-6.254172	-10.217278
18789		1.184831	-6.299206	-9.439834
18790		1.237394	-6.372620	-8.678316
18791		1.356176	-6.445976	-7.913234
18792		1.525170	-6.514610	-7.142562
18793		1.687228	-6.578610	-6.372221
18794		1.821543	-6.645112	-5.613188
18795		1.895031	-6.711716	-4.864313
18796		1.895653	-6.767845	-4.122067
18797		1.823532	-6.803548	-3.369414
18798		1.705216	-6.831658	-2.611097
18799		1.545837	-6.857284	-1.855067
18800		1.378120	-6.893417	-1.105896
18801		1.239632	-6.953800	-0.378104
18802		1.203091	-7.040117	0.329750
18803		1.265656	-7.124560	1.017287
18804		1.390791	-7.198607	1.691986
18805		1.503976	-7.258764	2.366417
18806		1.578693	-7.318886	3.042831
18807		1.606932	-7.397436	3.713639
18808		1.634695	-7.502590	4.364285
18809		1.701147	-7.632279	4.985934
18810		1.849391	-7.777799	5.576981
18811		2.074822	-7.928864	6.147580
18812		2.357674	-8.076359	6.709172
18813		2.612714	-8.200131	7.269364
18814		2.792207	-8.302222	7.836278
18815		2.853475	-8.369855	8.411802
18816		2.815407	-8.408261	8.994186
18817		2.705219	-8.426096	9.583037
18818		2.566750	-8.445381	10.179089
18819		2.436009	-8.479073	10.781696
18820		2.334844	-8.534274	11.391613
18821		2.265834	-8.607895	12.000884
18822		2.239762	-8.698775	12.602442
18823		2.230424	-8.785295	13.194064
18824		2.214957	-8.857091	13.781688
18825		2.164607	-8.906820	14.374012
18826		2.085489	-8.939466	14.968575
18827		1.983867	-8.969321	15.555028
18828		1.879873	-9.004958	16.115687
18829		1.780713	-9.044146	16.644486
18830		1.701402	-9.088162	17.147394
18831		1.666095	-9.130395	17.639260
18832		1.707226	-9.177158	18.125679
18833		1.811417	-9.239646	18.592330
18834		1.957381	-9.321266	19.027543
18835		2.113953	-9.417385	19.444437
18836		2.264455	-9.516061	19.851840
18837		2.379304	-9.605639	20.250228
18838		2.452366	-9.677621	20.632866
18839		2.478624	-9.742054	20.990526
18840		2.466795	-9.796951	21.321189
18841		2.425042	-9.840236	21.631346
18842		2.372094	-9.864893	21.927173
18843		2.318156	-9.870556	22.212176
18844		2.274412	-9.868951	22.486536
18845		2.236927	-9.866448	22.748908
18846		2.197054	-9.860283	22.991692
18847		2.157240	-9.852205	23.208512
18848		2.125107	-9.840738	23.386879
18849		2.113692	-9.827257	23.520077
18850		2.117024	-9.805434	23.619322
18851		2.124615	-9.775691	23.696305
18852		2.119846	-9.742485	23.763223
18853		2.120419	-9.714786	23.821191
18854		2.126867	-9.688229	23.867342
18855		2.136516	-9.666030	23.900828
18856		2.143845	-9.640891	23.920982
18857		2.137526	-9.610845	23.923368
18858		2.113368	-9.574012	23.912436
18859		2.080906	-9.528493	23.889935
18860		2.051599	-9.481601	23.855364
18861		2.042073	-9.441129	23.808598
18862		2.044603	-9.405449	23.751432
18863		2.051503	-9.369755	23.686353
18864		2.044070	-9.328702	23.620624
18865		2.018948	-9.285156	23.551573
18866		1.992914	-9.239051	23.477042
18867		1.983236	-9.198846	23.389166
18868		2.009153	-9.167562	23.280983
18869		2.069649	-9.149031	23.154647
18870		2.143742	-9.134905	23.011708
18871		2.219386	-9.119173	22.848445
18872		2.268633	-9.090404	22.666159
18873		2.296809	-9.048073	22.470327
18874		2.299625	-8.993674	22.265118
18875		2.294595	-8.940740	22.043066
18876		2.292041	-8.898160	21.807683
18877		2.297665	-8.863728	21.556931
18878		2.302545	-8.833451	21.285361
18879		2.297451	-8.799210	20.990328
18880		2.276540	-8.758955	20.676175
18881		2.251930	-8.714007	20.342925
18882		2.227261	-8.665400	19.984517
18883		2.213844	-8.619308	19.606292
18884		2.201314	-8.574571	19.209152
18885		2.193214	-8.533670	18.801525
18886		2.184006	-8.499510	18.394162
18887		2.177817	-8.474992	17.989216
18888		2.165235	-8.449790	17.589359
18889		2.166172	-8.426444	17.178980
18890		2.169974	-8.398184	16.751622
18891		2.154172	-8.362770	16.305427
18892		2.080132	-8.308419	15.841022
18893		1.937014	-8.233218	15.352742
18894		1.742236	-8.135304	14.841909
18895		1.547422	-8.025069	14.318832
18896		1.372606	-7.908298	13.800919
18897		1.249374	-7.798715	13.296050
18898		1.167465	-7.698898	12.804180
18899		1.110354	-7.610842	12.310097
18900		1.040757	-7.527245	11.799974
18901		0.924334	-7.446277	11.270157
18902		0.762783	-7.365180	10.728669
18903		0.590616	-7.289752	10.178546
18904		0.443052	-7.224940	9.617530
18905		0.366282	-7.169787	9.045256
18906		0.351025	-7.112731	8.471808
18907		0.386357	-7.051109	7.890064
18908		0.421463	-6.974670	7.289511
18909		0.403470	-6.879392	6.665300
18910		0.289272	-6.776907	6.033044
18911		0.098214	-6.675763	5.397886
18912		-0.114305	-6.592264	4.766465
18913		-0.258124	-6.546568	4.147094
18914		-0.291883	-6.520001	3.539137
18915		-0.235085	-6.499205	2.925661
18916		-0.144464	-6.484602	2.293316
18917		-0.061593	-6.480225	1.644015
18918		-0.010724	-6.490154	0.988462
18919		0.014427	-6.514259	0.334039
18920		0.011782	-6.529472	-0.326419
18921		-0.007217	-6.519028	-1.005169
18922		-0.053106	-6.477992	-1.698830
18923		-0.122584	-6.412171	-2.383638
18924		-0.217025	-6.349060	-3.053951
18925		-0.315618	-6.319327	-3.719053
18926		-0.411663	-6.326570	-4.374957
18927		-0.468417	-6.364357	-5.003364
18928		-0.490569	-6.398210	-5.607136
18929		-0.485328	-6.406011	-6.200607
18930		-0.500350	-6.378874	-6.794331
18931		-0.534873	-6.340716	-7.409632
18932		-0.602251	-6.304407	-8.056900
18933		-0.696609	-6.280379	-8.733681
18934		-0.825062	-6.260677	-9.425969
18935		-0.965092	-6.225518	-10.125729
18936		-1.119129	-6.155889	-10.812085
18937		-1.282815	-6.055508	-11.473211
18938		-1.458676	-5.932164	-12.095431
18939		-1.615078	-5.826549	-12.684383
18940		-1.740183	-5.764860	-13.266971
18941		-1.803088	-5.739075	-13.859368
18942		-1.820488	-5.728037	-14.464157
18943		-1.823856	-5.693968	-15.081058
18944		-1.862845	-5.604236	-15.718426
18945		-1.953893	-5.461049	-16.380537
18946		-2.104924	-5.284243	-17.067827
18947		-2.267773	-5.119727	-17.780339
18948		-2.394648	-5.016396	-18.513893
18949		-2.442136	-4.972643	-19.271455
18950		-2.427908	-4.937501	-20.043492
18951		-2.386376	-4.877663	-20.815357
18952		-2.382465	-4.792083	-21.578198
18953		-2.413007	-4.715731	-22.334628
18954		-2.474614	-4.679773	-23.093878
18955		-2.507606	-4.694747	-23.857167
18956		-2.468214	-4.746200	-24.627312
18957		-2.337725	-4.792542	-25.411332
18958		-2.167831	-4.784644	-26.189697
18959		-2.048134	-4.713670	-26.954362
18960		-2.037747	-4.601373	-27.698257
18961		-2.084431	-4.506146	-28.431044
18962		-2.101707	-4.489879	-29.162532
18963		-2.034079	-4.566183	-29.908876
18964		-1.894610	-4.681703	-30.683328
18965		-1.740479	-4.785826	-31.481335
18966		-1.626384	-4.843412	-32.274948
18967		-1.568777	-4.862701	-33.049603
18968		-1.546755	-4.868906	-33.814747
18969		-1.498590	-4.896162	-34.588356
18970		-1.363883	-4.978680	-35.388180
18971		-1.118730	-5.154244	-36.240578
18972		-0.807036	-5.368719	-37.144976
18973		-0.514469	-5.557591	-38.062681
18974		-0.368285	-5.653499	-38.967632
18975		-0.421381	-5.659737	-39.829753
18976		-0.651696	-5.606042	-40.628986
18977		-0.966167	-5.516749	-41.368090
18978		-1.289029	-5.379557	-42.053691
18979		-1.483363	-5.262298	-42.707755
18980		-1.373196	-5.270871	-43.381488
18981		-0.959179	-5.368072	-44.113166
18982		-0.352725	-5.524173	-44.902693
18983		0.269144	-5.678597	-45.714404
18984		0.783475	-5.791643	-46.517671
18985		1.184358	-5.879719	-47.302714
18986		1.491628	-5.958642	-48.070418
18987		1.803275	-6.064533	-48.825863
18988		2.176578	-6.202417	-49.586668
18989		2.593636	-6.314138	-50.352588
18990		2.992429	-6.397220	-51.131439
18991		3.306389	-6.439873	-51.919981
18992		3.488929	-6.441634	-52.702899
18993		3.536670	-6.415526	-53.474345
18994		3.463348	-6.372528	-54.227338
18995		3.363036	-6.345297	-54.962472
18996		3.301039	-6.349422	-55.685781
18997		3.286430	-6.373152	-56.414245
18998		3.275449	-6.393032	-57.143765
18999		3.212002	-6.380915	-57.873369
19000		3.060002	-6.333670	-58.593935
19001		2.846268	-6.281966	-59.312475
19002		2.604644	-6.244052	-60.025490
19003		2.417518	-6.228424	-60.738277
19004		2.321583	-6.256809	-61.454692
19005		2.361202	-6.325979	-62.181275
19006		2.476124	-6.402247	-62.905044
19007		2.582087	-6.420150	-63.604658
19008		2.562932	-6.341401	-64.271541
19009		2.427840	-6.237082	-64.913140
19010		2.254799	-6.159643	-65.559260
19011		2.173105	-6.138356	-66.213636
19012		2.228881	-6.167203	-66.882159
19013		2.407900	-6.221622	-67.551296
19014		2.643594	-6.233590	-68.186694
19015		2.808140	-6.170429	-68.774419
19016		2.829028	-6.072092	-69.306011
19017		2.694319	-5.966679	-69.806225
19018		2.491965	-5.885248	-70.296721
19019		2.357519	-5.851305	-70.804271
19020		2.367062	-5.832943	-71.337518
19021		2.563712	-5.839926	-71.908612
19022		2.896289	-5.840549	-72.513581
19023		3.286659	-5.818487	-73.125943
19024		3.644905	-5.778118	-73.729886
19025		3.903028	-5.728678	-74.325148
19026		4.029773	-5.681836	-74.914441
19027		4.067842	-5.656829	-75.496608
19028		4.082711	-5.645448	-76.067810
19029		4.183350	-5.649136	-76.631250
19030		4.409327	-5.636164	-77.188227
19031		4.743371	-5.595132	-77.736656
19032		5.104384	-5.536695	-78.267225
19033		5.424193	-5.479505	-78.775599
19034		5.684723	-5.438162	-79.254616
19035		5.952564	-5.438583	-79.705692
19036		6.224766	-5.438865	-80.125082
19037		6.451442	-5.403936	-80.504403
19038		6.543866	-5.309631	-80.839671
19039		6.454848	-5.162878	-81.130113
19040		6.205933	-4.981878	-81.386041
19041		5.850551	-4.795143	-81.617790
19042		5.473048	-4.619160	-81.830156
19043		5.150666	-4.456867	-82.020501
19044		4.979498	-4.347933	-82.193146
19045		5.034726	-4.317847	-82.332771
19046		5.276702	-4.330927	-82.439433
19047		5.594270	-4.349849	-82.510287
19048		5.868151	-4.347092	-82.543279
19049		6.035492	-4.319839	-82.539762
19050		6.099357	-4.275638	-82.503246
19051		6.117260	-4.232373	-82.453093
19052		6.141622	-4.199748	-82.409242
19053		6.206257	-4.189474	-82.382368
19054		6.313351	-4.184915	-82.366501
19055		6.441475	-4.178044	-82.348359
19056		6.585302	-4.166742	-82.312839
19057		6.746243	-4.150223	-82.247198
19058		6.927821	-4.128892	-82.158197
19059		7.125281	-4.111837	-82.059554
19060		7.317600	-4.085307	-81.950190
19061		7.427745	-4.016200	-81.828505
19062		7.411762	-3.907316	-81.683321
19063		7.268581	-3.781763	-81.522600
19064		7.044306	-3.668034	-81.343193
19065		6.770421	-3.575822	-81.147876
19066		6.460692	-3.498962	-80.941213
19067		6.145050	-3.435228	-80.724013
19068		5.890426	-3.378274	-80.484965
19069		5.723752	-3.326528	-80.230387
19070		5.671833	-3.280857	-79.962075
19071		5.722440	-3.247795	-79.693463
19072		5.862049	-3.243038	-79.450264
19073		6.045633	-3.263140	-79.250091
19074		6.239476	-3.335045	-79.087105
19075		6.397399	-3.422242	-78.953145
19076		6.486905	-3.484622	-78.817507
19077		6.468687	-3.512547	-78.662328
19078		6.357378	-3.514415	-78.480782
19079		6.212329	-3.501609	-78.271996
19080		6.100644	-3.493821	-78.056607
19081		6.060285	-3.499593	-77.858649
19082		6.120209	-3.517527	-77.690712
19083		6.228268	-3.545271	-77.560803
19084		6.320293	-3.574812	-77.457949
19085		6.331931	-3.599221	-77.359213
19086		6.241162	-3.607559	-77.254216
19087		6.056586	-3.597309	-77.134918
19088		5.833746	-3.582205	-76.993623
19089		5.621356	-3.570959	-76.822592
19090		5.486539	-3.564897	-76.622222
19091		5.440852	-3.568737	-76.407498
19092		5.482745	-3.592939	-76.179803
19093		5.548615	-3.617410	-75.925427
19094		5.573342	-3.633512	-75.646477
19095		5.504330	-3.647366	-75.342749
19096		5.374439	-3.668475	-75.023790
19097		5.220197	-3.715915	-74.696408
19098		5.085063	-3.791465	-74.349884
19099		5.012794	-3.877619	-73.973578
19100		5.036875	-3.979724	-73.573018
19101		5.148366	-4.077205	-73.145743
19102		5.281357	-4.152602	-72.683080
19103		5.352303	-4.210498	-72.179503
19104		5.348624	-4.267627	-71.648558
19105		5.318040	-4.344541	-71.116771
19106		5.321074	-4.445426	-70.591814
19107		5.354465	-4.553864	-70.057376
19108		5.417605	-4.658853	-69.500529
19109		5.505032	-4.751254	-68.930802
19110		5.611880	-4.812166	-68.341319
19111		5.671215	-4.844780	-67.727373
19112		5.654668	-4.861254	-67.085820
19113		5.552724	-4.872148	-66.416193
19114		5.409749	-4.899856	-65.732138
19115		5.246045	-4.947616	-65.043120
19116		5.156266	-5.010538	-64.349686
19117		5.128237	-5.061441	-63.650978
19118		5.125574	-5.080490	-62.941393
19119		5.042365	-5.064795	-62.205170
19120		4.845886	-5.037055	-61.438433
19121		4.546915	-5.013611	-60.647942
19122		4.217409	-5.011053	-59.847017
19123		3.907066	-5.039452	-59.047858
19124		3.745312	-5.108224	-58.275289
19125		3.822932	-5.227127	-57.544074
19126		4.099615	-5.387949	-56.830815
19127		4.455171	-5.561824	-56.115871
19128		4.760056	-5.720189	-55.385517
19129		4.919407	-5.849897	-54.626640
19130		4.930296	-5.950913	-53.829932
19131		4.819637	-6.028054	-52.982958
19132		4.664079	-6.099082	-52.099024
19133		4.512987	-6.175671	-51.208057
19134		4.431367	-6.287932	-50.345907
19135		4.431013	-6.427651	-49.521452
19136		4.486980	-6.585934	-48.730343
19137		4.517841	-6.745116	-47.951375
19138		4.492009	-6.881058	-47.163969
19139		4.389664	-6.985114	-46.358543
19140		4.247521	-7.063086	-45.525700
19141		4.076375	-7.096275	-44.659379
19142		3.918435	-7.091106	-43.767312
19143		3.758979	-7.058915	-42.869789
19144		3.599355	-7.036009	-41.982473
19145		3.391647	-7.039979	-41.099316
19146		3.153798	-7.077615	-40.222586
19147		2.911644	-7.145677	-39.354879
19148		2.743137	-7.234847	-38.500252
19149		2.657757	-7.313151	-37.643367
19150		2.661317	-7.363943	-36.780779
19151		2.714608	-7.400170	-35.912720
19152		2.819003	-7.447178	-35.039902
19153		2.956814	-7.516602	-34.168912
19154		3.125734	-7.612407	-33.311898
19155		3.300498	-7.727004	-32.459259
19156		3.452408	-7.826592	-31.602194
19157		3.529166	-7.882470	-30.726074
19158		3.543118	-7.886304	-29.828949
19159		3.539061	-7.867678	-28.910595
19160		3.588086	-7.865442	-27.981058
19161		3.712789	-7.902429	-27.055530
19162		3.917545	-7.979448	-26.152755
19163		4.146531	-8.069570	-25.263134
19164		4.330296	-8.151921	-24.379455
19165		4.402815	-8.195603	-23.487667
19166		4.366499	-8.210655	-22.586420
19167		4.256743	-8.220504	-21.679928
19168		4.151572	-8.248376	-20.776406
19169		4.101294	-8.295536	-19.870510
19170		4.123175	-8.350087	-18.961482
19171		4.180970	-8.405584	-18.048597
19172		4.243321	-8.461233	-17.144447
19173		4.266761	-8.532224	-16.248754
19174		4.242946	-8.611094	-15.364402
19175		4.147313	-8.681067	-14.478835
19176		3.990163	-8.729496	-13.586758
19177		3.785314	-8.751191	-12.687981
19178		3.590886	-8.776879	-11.796079
19179		3.440997	-8.811468	-10.903938
19180		3.388766	-8.865243	-10.020126
19181		3.425929	-8.945170	-9.158307
19182		3.530324	-9.036886	-8.328161
19183		3.648152	-9.113878	-7.519758
19184		3.757885	-9.178256	-6.731821
19185		3.849514	-9.230472	-5.955320
19186		3.965035	-9.279483	-5.182107
19187		4.108074	-9.328432	-4.423725
19188		4.297938	-9.389084	-3.700456
19189		4.534433	-9.477291	-3.001720
19190		4.797324	-9.565071	-2.319057
19191		5.038194	-9.647614	-1.629665
19192		5.231293	-9.721073	-0.938312
19193		5.350599	-9.771154	-0.242110
19194		5.377197	-9.778565	0.461226
19195		5.291003	-9.728968	1.186178
19196		5.128415	-9.642019	1.941232
19197		4.909833	-9.543222	2.705136
19198		4.713954	-9.456137	3.461479
19199		4.553997	-9.372516	4.224227
19200		4.422378	-9.288244	5.000740
19201		4.297167	-9.210583	5.788454
19202		4.170930	-9.156234	6.569867
19203		4.049600	-9.130540	7.343728
19204		3.957370	-9.140635	8.105957
19205		3.894654	-9.163852	8.852153
19206		3.848626	-9.182315	9.577919
19207		3.802642	-9.178411	10.280580
19208		3.776536	-9.162456	10.971526
19209		3.786997	-9.152153	11.633337
19210		3.852285	-9.155873	12.253845
19211		3.948116	-9.172849	12.828502
19212		4.031795	-9.197017	13.363006
19213		4.084914	-9.223141	13.864615
19214		4.113596	-9.251601	14.342660
19215		4.149408	-9.291866	14.810940
19216		4.209987	-9.339257	15.274007
19217		4.281171	-9.374800	15.741886
19218		4.339224	-9.397351	16.219785
19219		4.357523	-9.415721	16.697481
19220		4.338784	-9.445956	17.170680
19221		4.294817	-9.492305	17.640655
19222		4.246839	-9.551133	18.093202
19223		4.208295	-9.610721	18.513938
19224		4.188789	-9.668285	18.898673
19225		4.180264	-9.721131	19.249340
19226		4.176275	-9.769257	19.567078
19227		4.166200	-9.804687	19.855378
19228		4.146023	-9.822456	20.119094
19229		4.114261	-9.819517	20.358479
19230		4.070435	-9.806463	20.567772
19231		4.005060	-9.787993	20.743955
19232		3.944775	-9.769931	20.884873
19233		3.905779	-9.755542	20.980196
19234		3.888069	-9.745844	21.033815
19235		3.890692	-9.748137	21.058125
19236		3.908287	-9.761327	21.070089
19237		3.943479	-9.785870	21.069080
19238		3.996844	-9.821601	21.061613
19239		4.058802	-9.863458	21.050120
19240		4.105674	-9.900361	21.040388
19241		4.110641	-9.918284	21.038852
19242		4.059171	-9.914461	21.033905
19243		3.962983	-9.893177	21.003212
19244		3.837541	-9.861929	20.937666
19245		3.713546	-9.818688	20.840463
19246		3.600318	-9.775900	20.712352
19247		3.490458	-9.737859	20.557360
19248		3.382846	-9.717935	20.381423
19249		3.291201	-9.717852	20.192351
19250		3.235182	-9.732590	19.998823
19251		3.237795	-9.760087	19.792939
19252		3.286829	-9.799416	19.569215
19253		3.362716	-9.849280	19.325816
19254		3.435166	-9.906375	19.065957
19255		3.485860	-9.961506	18.793506
19256		3.516109	-10.010201	18.516397
19257		3.544258	-10.052902	18.230019
19258		3.568933	-10.091494	17.924148
19259		3.609091	-10.126542	17.602437
19260		3.658069	-10.152907	17.271711
19261		3.721398	-10.163827	16.933963
19262		3.768386	-10.152036	16.590701
19263		3.770080	-10.120127	16.243921
19264		3.683007	-10.066857	15.892535
19265		3.514724	-9.998735	15.539913
19266		3.299158	-9.911999	15.195819
19267		3.092237	-9.821891	14.852286
19268		2.934008	-9.724159	14.500489
19269		2.829893	-9.623191	14.125676
19270		2.729179	-9.516123	13.715969
19271		2.607408	-9.410760	13.276514
19272		2.446405	-9.300577	12.818494
19273		2.257004	-9.186231	12.340536
19274		2.054074	-9.065277	11.844842
19275		1.862281	-8.926466	11.332942
19276		1.666678	-8.767529	10.808957
19277		1.487715	-8.599902	10.275324
19278		1.318296	-8.432955	9.725905
19279		1.180902	-8.288785	9.164724
19280		1.091724	-8.192084	8.591545
19281		1.085057	-8.155749	8.006293
19282		1.147290	-8.171503	7.417293
19283		1.265455	-8.212436	6.834827
19284		1.383034	-8.240615	6.250939
19285		1.470454	-8.248455	5.658214
19286		1.486946	-8.231653	5.067966
19287		1.426943	-8.197803	4.475815
19288		1.285921	-8.153337	3.881956
19289		1.101857	-8.111944	3.287091
19290		0.906162	-8.067736	2.695411
19291		0.728187	-8.027866	2.113271
19292		0.559130	-7.993875	1.537665
19293		0.385520	-7.959885	0.956626
19294		0.164079	-7.914196	0.373765
19295		-0.086517	-7.861480	-0.208884
19296		-0.343578	-7.804446	-0.792659
19297		-0.548646	-7.758735	-1.380609
19298		-0.669655	-7.731889	-1.972835
19299		-0.684024	-7.720303	-2.569634
19300		-0.631625	-7.722550	-3.174577
19301		-0.535125	-7.736301	-3.792681
19302		-0.441279	-7.746861	-4.419732
19303		-0.355484	-7.749995	-5.050193
19304		-0.309719	-7.743106	-5.685190
19305		-0.294140	-7.727346	-6.328107
19306		-0.334467	-7.674550	-6.983469
19307		-0.418791	-7.584553	-7.654049
19308		-0.551346	-7.449183	-8.330639
19309		-0.640427	-7.291607	-8.999154
19310		-0.588320	-7.174290	-9.656908
19311		-0.350303	-7.133251	-10.314102
19312		-0.004697	-7.161847	-10.967308
19313		0.347700	-7.224664	-11.609182
19314		0.606850	-7.272989	-12.240067
19315		0.740218	-7.277383	-12.859997
19316		0.741992	-7.249156	-13.470695
19317		0.668469	-7.206188	-14.073251
19318		0.567469	-7.165680	-14.674377
19319		0.482296	-7.128237	-15.284028
19320		0.397137	-7.082416	-15.910602
19321		0.295427	-7.023118	-16.554224
19322		0.131482	-6.934927	-17.207497
19323		-0.116360	-6.829751	-17.869545
19324		-0.422059	-6.729809	-18.533616
19325		-0.715635	-6.653989	-19.195839
19326		-0.956095	-6.612947	-19.856762
19327		-1.100291	-6.612482	-20.520027
19328		-1.169495	-6.631116	-21.185373
19329		-1.194571	-6.652774	-21.863041
19330		-1.229621	-6.671706	-22.563383
19331		-1.267048	-6.699614	-23.296556
19332		-1.297590	-6.744948	-24.060501
19333		-1.273059	-6.826496	-24.845550
19334		-1.198030	-6.924149	-25.645380
19335		-1.096887	-7.023078	-26.452166
19336		-1.050390	-7.076235	-27.246472
19337		-1.094206	-7.068006	-28.018439
19338		-1.242519	-7.015389	-28.774953
19339		-1.425630	-6.960080	-29.535492
19340		-1.590203	-6.936438	-30.301416
19341		-1.672034	-6.967486	-31.087654
19342		-1.741555	-7.003244	-31.899517
19343		-1.855756	-6.998951	-32.735220
19344		-2.078359	-6.940142	-33.578792
19345		-2.357091	-6.853869	-34.412545
19346		-2.619636	-6.766105	-35.235999
19347		-2.790305	-6.701856	-36.050726
19348		-2.831593	-6.689141	-36.865212
19349		-2.729714	-6.752655	-37.692715
19350		-2.575115	-6.840362	-38.539320
19351		-2.449848	-6.916598	-39.393545
19352		-2.421603	-6.949717	-40.240874
19353		-2.466872	-6.949814	-41.072000
19354		-2.539872	-6.936399	-41.885050
19355		-2.571628	-6.930586	-42.687605
19356		-2.522912	-6.930738	-43.474423
19357		-2.363820	-6.930733	-44.259393
19358		-2.107154	-6.944028	-45.044005
19359		-1.733940	-7.023075	-45.843716
19360		-1.313432	-7.151907	-46.662186
19361		-0.935557	-7.269211	-47.485540
19362		-0.710944	-7.333833	-48.289839
19363		-0.645202	-7.342053	-49.049599
19364		-0.667574	-7.313350	-49.762252
19365		-0.671980	-7.272218	-50.439652
19366		-0.615839	-7.238400	-51.108111
19367		-0.481813	-7.241264	-51.792043
19368		-0.335479	-7.272161	-52.514941
19369		-0.292215	-7.283922	-53.261013
19370		-0.411178	-7.245259	-53.992856
19371		-0.682768	-7.157768	-54.692882
19372		-1.029517	-7.052651	-55.372258
19373		-1.345489	-6.949123	-56.035103
19374		-1.581595	-6.851976	-56.673171
19375		-1.662897	-6.801116	-57.302199
19376		-1.601675	-6.811925	-57.943149
19377		-1.457626	-6.847551	-58.603337
19378		-1.318027	-6.882977	-59.265856
19379		-1.208739	-6.915434	-59.917447
19380		-1.107283	-6.921362	-60.557510
19381		-0.996104	-6.912754	-61.201042
19382		-0.875862	-6.902507	-61.857665
19383		-0.695968	-6.949611	-62.542685
19384		-0.395087	-7.087896	-63.265760
19385		-0.016733	-7.283143	-64.023630
19386		0.401665	-7.480576	-64.777653
19387		0.785661	-7.636706	-65.521246
19388		1.104612	-7.738983	-66.251802
19389		1.379947	-7.846023	-66.981612
19390		1.631104	-7.954340	-67.712029
19391		1.894109	-8.060452	-68.448952
19392		2.184937	-8.182573	-69.197928
19393		2.495531	-8.310297	-69.956229
19394		2.808465	-8.390088	-70.708323
19395		3.105442	-8.429538	-71.459812
19396		3.370579	-8.421959	-72.194323
19397		3.589570	-8.381698	-72.910142
19398		3.746834	-8.317996	-73.605250
19399		3.849613	-8.249131	-74.279503
19400		3.939335	-8.187987	-74.939631
19401		4.058789	-8.155204	-75.584174
19402		4.183714	-8.121911	-76.189372
19403		4.293852	-8.090013	-76.758426
19404		4.354904	-8.044359	-77.287974
19405		4.380283	-7.994831	-77.777775
19406		4.377633	-7.938656	-78.237093
19407		4.358585	-7.877016	-78.662883
19408		4.344515	-7.817173	-79.060764
19409		4.380703	-7.765841	-79.440144
19410		4.476134	-7.713902	-79.792908
19411		4.609435	-7.666110	-80.111365
19412		4.772620	-7.632493	-80.385556
19413		4.980889	-7.614624	-80.620312
19414		5.261403	-7.615246	-80.835085
19415		5.616594	-7.644338	-81.047232
19416		6.032537	-7.698386	-81.266116
19417		6.470593	-7.751179	-81.484810
19418		6.877443	-7.778104	-81.686877
19419		7.188646	-7.763436	-81.864812
19420		7.336928	-7.713706	-82.008359
19421		7.312203	-7.638213	-82.110773
19422		7.171186	-7.550371	-82.180463
19423		6.991435	-7.467563	-82.229234
19424		6.862066	-7.397015	-82.263210
19425		6.806586	-7.339288	-82.284655
19426		6.850474	-7.293725	-82.291258
19427		6.954297	-7.249779	-82.294486
19428		7.065355	-7.190684	-82.306364
19429		7.136875	-7.135773	-82.323683
19430		7.178168	-7.082587	-82.333216
19431		7.220599	-7.051423	-82.340544
19432		7.309058	-7.043525	-82.351396
19433		7.424410	-7.031314	-82.345956
19434		7.528796	-6.996696	-82.311185
19435		7.596138	-6.948263	-82.263448
19436		7.636524	-6.898146	-82.222278
19437		7.653335	-6.858278	-82.165099
19438		7.663470	-6.832777	-82.116608
19439		7.678500	-6.832130	-82.080947
19440		7.721102	-6.854111	-82.051512
19441		7.775345	-6.891062	-82.009079
19442		7.823600	-6.929682	-81.948723
19443		7.848027	-6.958888	-81.874780
19444		7.853550	-6.973897	-81.800197
19445		7.831056	-6.978619	-81.736640
19446		7.783430	-6.977762	-81.683274
19447		7.717031	-6.976639	-81.634075
19448		7.640760	-6.977120	-81.580522
19449		7.575451	-6.989351	-81.513058
19450		7.551490	-7.008419	-81.426999
19451		7.566516	-7.027233	-81.322030
19452		7.624044	-7.047425	-81.206854
19453		7.692241	-7.055162	-81.090888
19454		7.763385	-7.052762	-80.984044
19455		7.814434	-7.042822	-80.882156
19456		7.856997	-7.037731	-80.788262
19457		7.901987	-7.052189	-80.699707
19458		7.959092	-7.082255	-80.618077
19459		8.008764	-7.113501	-80.528255
19460		8.052819	-7.138541	-80.404959
19461		8.099291	-7.148285	-80.233235
19462		8.158599	-7.136302	-80.021263
19463		8.219890	-7.114941	-79.801681
19464		8.270000	-7.091703	-79.593664
19465		8.289716	-7.094113	-79.395352
19466		8.276760	-7.120073	-79.199297
19467		8.235506	-7.168244	-78.992446
19468		8.193075	-7.231107	-78.759933
19469		8.147250	-7.282690	-78.487695
19470		8.127542	-7.333253	-78.175689
19471		8.113305	-7.384208	-77.830015
19472		8.125138	-7.442024	-77.465913
19473		8.143337	-7.506784	-77.102134
19474		8.150256	-7.564196	-76.737844
19475		8.124083	-7.620250	-76.371422
19476		8.095822	-7.690286	-76.017558
19477		8.075257	-7.778061	-75.659400
19478		8.091157	-7.880023	-75.280177
19479		8.143337	-7.998112	-74.876075
19480		8.217294	-8.119116	-74.445399
19481		8.241801	-8.206190	-73.978802
19482		8.197719	-8.267822	-73.478698
19483		8.091432	-8.314540	-72.952769
19484		8.002205	-8.353213	-72.430711
19485		7.938193	-8.403708	-71.929944
19486		7.892900	-8.463977	-71.436386
19487		7.808843	-8.517283	-70.923299
19488		7.679674	-8.559237	-70.391479
19489		7.507687	-8.595039	-69.845933
19490		7.301011	-8.609602	-69.273800
19491		7.062279	-8.602109	-68.661443
19492		6.844470	-8.601231	-68.029965
19493		6.694171	-8.625296	-67.390565
19494		6.650157	-8.685984	-66.761000
19495		6.682960	-8.764908	-66.130897
19496		6.772625	-8.844417	-65.496559
19497		6.837093	-8.897873	-64.846731
19498		6.830802	-8.904649	-64.175119
19499		6.693862	-8.847464	-63.464965
19500		6.479214	-8.764356	-62.725510
19501		6.256424	-8.696206	-61.993560
19502		6.130450	-8.695574	-61.296961
19503		6.147312	-8.783814	-60.648956
19504		6.298137	-8.924850	-60.033680
19505		6.524349	-9.071955	-59.416166
19506		6.773952	-9.219562	-58.793261
19507		6.965421	-9.333536	-58.154712
19508		7.036195	-9.370590	-57.471420
19509		6.942980	-9.338129	-56.740938
19510		6.766154	-9.288634	-55.992323
19511		6.593587	-9.264053	-55.265405
19512		6.548057	-9.323930	-54.592925
19513		6.607749	-9.438891	-53.964170
19514		6.692007	-9.555837	-53.345973
19515		6.677283	-9.630175	-52.708616
19516		6.538525	-9.643755	-52.044676
19517		6.316827	-9.618220	-51.338046
19518		6.082250	-9.577462	-50.587929
19519		5.891524	-9.561745	-49.810669
19520		5.783514	-9.599982	-49.038515
19521		5.746205	-9.696320	-48.283214
19522		5.794098	-9.829690	-47.546689
19523		5.864346	-9.974152	-46.812420
19524		5.897096	-10.100044	-46.063359
19525		5.828509	-10.182799	-45.287620
19526		5.698176	-10.226018	-44.473764
19527		5.538266	-10.253379	-43.621697
19528		5.414710	-10.290682	-42.739402
19529		5.353354	-10.367481	-41.855824
19530		5.368169	-10.489959	-40.990459
19531		5.390816	-10.620922	-40.137446
19532		5.355967	-10.733133	-39.301015
19533		5.195475	-10.779758	-38.475028
19534		4.945771	-10.750328	-37.654639
19535		4.668799	-10.659768	-36.834921
19536		4.449843	-10.562182	-36.014745
19537		4.332844	-10.500843	-35.197531
19538		4.332962	-10.514198	-34.396029
19539		4.415837	-10.581895	-33.603002
19540		4.515945	-10.659968	-32.801923
19541		4.544616	-10.705279	-31.975079
19542		4.523111	-10.713212	-31.127591
19543		4.486489	-10.693180	-30.258447
19544		4.491834	-10.678521	-29.374643
19545		4.524429	-10.669518	-28.491310
19546		4.580968	-10.673697	-27.613418
19547		4.631331	-10.683529	-26.742638
19548		4.648148	-10.680070	-25.893424
19549		4.589328	-10.649512	-25.058535
19550		4.491626	-10.613014	-24.238536
19551		4.394539	-10.597344	-23.422121
19552		4.374108	-10.611006	-22.609463
19553		4.429728	-10.636015	-21.796913
19554		4.539669	-10.663447	-20.984622
19555		4.626295	-10.677500	-20.176961
19556		4.676216	-10.687591	-19.375610
19557		4.702667	-10.682464	-18.568419
19558		4.749840	-10.674652	-17.753506
19559		4.820968	-10.668269	-16.927454
19560		4.963985	-10.702434	-16.105501
19561		5.138185	-10.755797	-15.297156
19562		5.288669	-10.793810	-14.504842
19563		5.347133	-10.794361	-13.725661
19564		5.323378	-10.764028	-12.953811
19565		5.235140	-10.710193	-12.182050
19566		5.098738	-10.652446	-11.417494
19567		4.931738	-10.617558	-10.669376
19568		4.800853	-10.620907	-9.941427
19569		4.700471	-10.625550	-9.221632
19570		4.620562	-10.614337	-8.508491
19571		4.531590	-10.575968	-7.801711
19572		4.436019	-10.556400	-7.112018
19573		4.340615	-10.554337	-6.451057
19574		4.280894	-10.586565	-5.804113
19575		4.262960	-10.644815	-5.169155
19576		4.323307	-10.736642	-4.556666
19577		4.453352	-10.850927	-3.969721
19578		4.618445	-10.966469	-3.391334
19579		4.763525	-11.050198	-2.801774
19580		4.868543	-11.101990	-2.189027
19581		4.943256	-11.128729	-1.546190
19582		5.012582	-11.157725	-0.892521
19583		5.065918	-11.201946	-0.238078
19584		5.110124	-11.263938	0.406911
19585		5.128339	-11.310328	1.045439
19586		5.140641	-11.327762	1.689464
19587		5.162111	-11.297037	2.341339
19588		5.218542	-11.239191	2.998887
19589		5.284907	-11.194295	3.653870
19590		5.342094	-11.170462	4.302585
19591		5.371998	-11.156095	4.953987
19592		5.385333	-11.142277	5.606324
19593		5.390857	-11.111615	6.270375
19594		5.434937	-11.087913	6.939116
19595		5.514271	-11.095389	7.593294
19596		5.652002	-11.143470	8.213419
19597		5.817767	-11.218258	8.804789
19598		5.965221	-11.299247	9.371582
19599		6.064382	-11.359954	9.917648
19600		6.119891	-11.393716	10.457538
19601		6.134239	-11.399473	11.001870
19602		6.112942	-11.390462	11.551917
19603		6.061414	-11.390653	12.102721
19604		5.982570	-11.404193	12.643060
19605		5.903373	-11.433770	13.174747
19606		5.863399	-11.484405	13.698857
19607		5.866248	-11.550494	14.219114
19608		5.887300	-11.622422	14.741487
19609		5.872998	-11.684432	15.265833
19610		5.802287	-11.724523	15.797633
19611		5.688281	-11.748899	16.332617
19612		5.562555	-11.770625	16.860022
19613		5.440263	-11.801268	17.378875
19614		5.336874	-11.839190	17.881211
19615		5.241093	-11.896290	18.362360
19616		5.151702	-11.954355	18.818696
19617		5.052045	-12.000689	19.255831
19618		4.931987	-12.026969	19.672284
19619		4.788719	-12.034007	20.064459
19620		4.649094	-12.020526	20.430799
19621		4.545275	-12.004907	20.764843
19622		4.485218	-11.982377	21.058520
19623		4.478071	-11.958183	21.306536
19624		4.501329	-11.936442	21.495688
19625		4.527812	-11.916917	21.622439
19626		4.536817	-11.905343	21.703547
19627		4.528673	-11.901869	21.749284
19628		4.528914	-11.898310	21.767446
19629		4.572946	-11.893927	21.762909
19630		4.658025	-11.884489	21.737913
19631		4.771192	-11.877448	21.692885
19632		4.887393	-11.875486	21.627907
19633		4.986181	-11.879468	21.541991
19634		5.059661	-11.881274	21.436633
19635		5.106940	-11.876648	21.312026
19636		5.130739	-11.858088	21.170727
19637		5.143643	-11.829815	21.017048
19638		5.154295	-11.792718	20.858857
19639		5.184989	-11.753511	20.690712
19640		5.233160	-11.718149	20.513703
19641		5.289269	-11.687970	20.322676
19642		5.338221	-11.653831	20.117862
19643		5.348787	-11.606882	19.904601
19644		5.315414	-11.538287	19.686494
19645		5.258060	-11.453967	19.463869
19646		5.200285	-11.361994	19.224546
19647		5.166976	-11.270215	18.966362
19648		5.157755	-11.184220	18.692840
19649		5.172501	-11.107180	18.405340
19650		5.195541	-11.046409	18.110507
19651		5.214279	-11.002955	17.818167
19652		5.221573	-10.965211	17.528747
19653		5.229642	-10.928989	17.244028
19654		5.240633	-10.889048	16.961254
19655		5.250483	-10.845142	16.668593
19656		5.238399	-10.795234	16.366617
19657		5.185307	-10.731165	16.046301
19658		5.073846	-10.647017	15.718972
19659		4.945502	-10.549295	15.375041
19660		4.847056	-10.453642	15.013229
19661		4.804079	-10.368620	14.621416
19662		4.814700	-10.305247	14.203021
19663		4.849380	-10.259499	13.764906
19664		4.872044	-10.214842	13.317501
19665		4.874818	-10.173020	12.866728
19666		4.850722	-10.126848	12.420235
19667		4.835668	-10.082001	11.979648
19668		4.843879	-10.042855	11.538376
19669		4.898500	-10.022493	11.082290
19670		4.974986	-10.010709	10.603555
19671		5.048669	-9.998143	10.106978
19672		5.081592	-9.968040	9.605666
19673		5.059717	-9.914500	9.110597
19674		4.988883	-9.835170	8.623912
19675		4.919822	-9.760144	8.138413
19676		4.877431	-9.697456	7.658341
19677		4.878685	-9.649810	7.174435
19678		4.897181	-9.592450	6.675674
19679		4.891306	-9.510843	6.157579
19680		4.808012	-9.398935	5.636280
19681		4.641647	-9.272200	5.113264
19682		4.435243	-9.146364	4.588716
19683		4.277434	-9.044822	4.059939
19684		4.215712	-8.971755	3.533393
19685		4.270433	-8.931922	3.003931
19686		4.375854	-8.899149	2.458971
19687		4.470157	-8.878073	1.891172
19688		4.496943	-8.851024	1.313526
19689		4.457109	-8.819568	0.733932
19690		4.369665	-8.787024	0.151478
19691		4.273294	-8.741470	-0.425035
19692		4.187566	-8.683678	-0.966271
19693		4.119533	-8.637790	-1.460850
19694		4.068810	-8.579762	-1.920033
19695		4.027577	-8.535600	-2.381475
19696		3.937264	-8.500665	-2.866932
19697		3.792174	-8.475310	-3.372662
19698		3.607917	-8.456095	-3.900516
19699		3.423337	-8.443313	-4.459456
19700		3.236702	-8.426892	-5.037291
19701		3.084976	-8.378738	-5.613458
19702		2.959303	-8.288728	-6.175025
19703		2.826180	-8.149672	-6.718565
19704		2.610670	-7.981481	-7.257235
19705		2.269536	-7.816047	-7.805148
19706		1.828487	-7.672221	-8.362166
19707		1.375085	-7.554657	-8.925599
19708		0.960263	-7.477319	-9.515144
19709		0.666097	-7.416236	-10.128424
19710		0.500072	-7.346464	-10.752183
19711		0.409291	-7.261373	-11.378898
19712		0.321504	-7.168355	-12.004378
19713		0.220115	-7.080535	-12.621690
19714		0.096702	-7.006907	-13.240496
19715		-0.036143	-6.945397	-13.876299
19716		-0.180684	-6.888343	-14.526959
19717		-0.349717	-6.812325	-15.193468
19718		-0.557701	-6.707036	-15.873239
19719		-0.779768	-6.580120	-16.565679
19720		-0.972065	-6.448131	-17.258810
19721		-1.071555	-6.331404	-17.945342
19722		-1.062905	-6.266625	-18.616683
19723		-0.954097	-6.274380	-19.285684
19724		-0.806120	-6.318218	-19.954051
19725		-0.691858	-6.349893	-20.610923
19726		-0.696479	-6.343049	-21.253927
19727		-0.820613	-6.299810	-21.878202
19728		-0.993646	-6.242265	-22.485806
19729		-1.111231	-6.202083	-23.087418
19730		-1.120084	-6.201522	-23.694004
19731		-0.993022	-6.254747	-24.323836
19732		-0.798498	-6.340631	-24.984731
19733		-0.624456	-6.422478	-25.665890
19734		-0.556832	-6.475823	-26.350853
19735		-0.588348	-6.488458	-27.011539
19736		-0.686292	-6.478898	-27.652120
19737		-0.766402	-6.465818	-28.287555
19738		-0.791430	-6.450325	-28.926146
19739		-0.724643	-6.449431	-29.582090
19740		-0.608435	-6.468055	-30.260017
19741		-0.478199	-6.483259	-30.955118
19742		-0.405028	-6.488187	-31.651978
19743		-0.409366	-6.475197	-32.338003
19744		-0.483068	-6.434848	-32.995972
19745		-0.553090	-6.378449	-33.625173
19746		-0.544246	-6.322381	-34.233316
19747		-0.363676	-6.318282	-34.844560
19748		-0.015575	-6.393547	-35.479364
19749		0.413738	-6.532199	-36.157562
19750		0.773400	-6.664221	-36.854498
19751		0.965767	-6.749507	-37.555348
19752		0.946664	-6.745063	-38.229833
19753		0.733570	-6.676548	-38.873857
19754		0.445948	-6.566313	-39.485533
19755		0.206455	-6.472921	-40.079515
19756		0.098682	-6.422071	-40.675587
19757		0.114970	-6.420945	-41.301227
19758		0.154334	-6.435044	-41.964229
19759		0.127715	-6.441670	-42.658763
19760		0.008438	-6.438314	-43.364646
19761		-0.124978	-6.441854	-44.073951
19762		-0.184167	-6.472687	-44.774689
19763		-0.099908	-6.553672	-45.462215
19764		0.100703	-6.655516	-46.136531
19765		0.358821	-6.748961	-46.805292
19766		0.580385	-6.802120	-47.458456
19767		0.725705	-6.821762	-48.089040
19768		0.803065	-6.846530	-48.698541
19769		0.904335	-6.908180	-49.291940
19770		1.095562	-7.024943	-49.872691
19771		1.384570	-7.193550	-50.461988
19772		1.672728	-7.333427	-51.039183
19773		1.865665	-7.405147	-51.598925
19774		1.898488	-7.427315	-52.136547
19775		1.825154	-7.441634	-52.659535
19776		1.743978	-7.463984	-53.178304
19777		1.751795	-7.509795	-53.701824
19778		1.878479	-7.602382	-54.236982
19779		2.088008	-7.718183	-54.789380
19780		2.264352	-7.771744	-55.329616
19781		2.295813	-7.746193	-55.851349
19782		2.131794	-7.675285	-56.359595
19783		1.815779	-7.600610	-56.856907
19784		1.474897	-7.533072	-57.345384
19785		1.226486	-7.500662	-57.839260
19786		1.124797	-7.497586	-58.351047
19787		1.135642	-7.504758	-58.883834
19788		1.166178	-7.497149	-59.438059
19789		1.124944	-7.480414	-60.000544
19790		0.989191	-7.458594	-60.556965
19791		0.833684	-7.461253	-61.099776
19792		0.766549	-7.488481	-61.625919
19793		0.864341	-7.536927	-62.142563
19794		1.123340	-7.607761	-62.663251
19795		1.501677	-7.703858	-63.191826
19796		1.906601	-7.796510	-63.719098
19797		2.266954	-7.869170	-64.241381
19798		2.530641	-7.930894	-64.768377
19799		2.729340	-7.999179	-65.303512
19800		2.949130	-8.089732	-65.852133
19801		3.268260	-8.222913	-66.418440
19802		3.730210	-8.410773	-67.001990
19803		4.313351	-8.616720	-67.601781
19804		4.916900	-8.782193	-68.199680
19805		5.485200	-8.868156	-68.772090
19806		5.884607	-8.863362	-69.322639
19807		6.069044	-8.813185	-69.857469
19808		6.086247	-8.731246	-70.383447
19809		6.008366	-8.635050	-70.907940
19810		5.926760	-8.540319	-71.434162
19811		5.912145	-8.445013	-71.978981
19812		5.963543	-8.354236	-72.531207
19813		6.055458	-8.264672	-73.077700
19814		6.131997	-8.161115	-73.603484
19815		6.158049	-8.028736	-74.090727
19816		6.096015	-7.861146	-74.539176
19817		5.919620	-7.657974	-74.967436
19818		5.641796	-7.434641	-75.384031
19819		5.321831	-7.192071	-75.793692
19820		5.048680	-6.966384	-76.207779
19821		4.940080	-6.821719	-76.648379
19822		4.993749	-6.722128	-77.086934
19823		5.104014	-6.627459	-77.477032
19824		5.165797	-6.516998	-77.792271
19825		5.134810	-6.409650	-78.048458
19826		5.024286	-6.304514	-78.269633
19827		4.889307	-6.210268	-78.494714
19828		4.781677	-6.121560	-78.729148
19829		4.711208	-6.019651	-78.975464
19830		4.659354	-5.901642	-79.213066
19831		4.577097	-5.781365	-79.415159
19832		4.446775	-5.669620	-79.580348
19833		4.265537	-5.572584	-79.707109
19834		4.067788	-5.492750	-79.796539
19835		3.902919	-5.429191	-79.852836
19836		3.824510	-5.387015	-79.898349
19837		3.856024	-5.361133	-79.942579
19838		3.983201	-5.340385	-79.974284
19839		4.131790	-5.307214	-79.991337
19840		4.235043	-5.254456	-79.992432
19841		4.249187	-5.192610	-79.969880
19842		4.192165	-5.128462	-79.922397
19843		4.102188	-5.065575	-79.877631
19844		4.029573	-4.994051	-79.847041
19845		3.989553	-4.912047	-79.831959
19846		3.966089	-4.826151	-79.830389
19847		3.946364	-4.754281	-79.833423
19848		3.944267	-4.707665	-79.835925
19849		3.974972	-4.693786	-79.834373
19850		4.061612	-4.707913	-79.826778
19851		4.211845	-4.737410	-79.815940
19852		4.427247	-4.779346	-79.808258
19853		4.681989	-4.829403	-79.813165
19854		4.925137	-4.863051	-79.823108
19855		5.111086	-4.873630	-79.829282
19856		5.250680	-4.869361	-79.822088
19857		5.361027	-4.861103	-79.800464
19858		5.460996	-4.852422	-79.764800
19859		5.548599	-4.860674	-79.700514
19860		5.636106	-4.883459	-79.606117
19861		5.674840	-4.896711	-79.477945
19862		5.630253	-4.875760	-79.308662
19863		5.485522	-4.840575	-79.089593
19864		5.297618	-4.814889	-78.844003
19865		5.117839	-4.806378	-78.589300
19866		4.973572	-4.817677	-78.324315
19867		4.861766	-4.850494	-78.043932
19868		4.781351	-4.898298	-77.753470
19869		4.713127	-4.953103	-77.450448
19870		4.656303	-5.013317	-77.118997
19871		4.648591	-5.082829	-76.774911
19872		4.719217	-5.170139	-76.439211
19873		4.854298	-5.261367	-76.113342
19874		5.043138	-5.373940	-75.794498
19875		5.218594	-5.504712	-75.478220
19876		5.351969	-5.646538	-75.144136
19877		5.399543	-5.760823	-74.769449
19878		5.354500	-5.829268	-74.352655
19879		5.241364	-5.860679	-73.895039
19880		5.127908	-5.857438	-73.408271
19881		5.079115	-5.868033	-72.914087
19882		5.114819	-5.902015	-72.432218
19883		5.202860	-5.966189	-71.958416
19884		5.285030	-6.033703	-71.471651
19885		5.283019	-6.088643	-70.961715
19886		5.196496	-6.129797	-70.431758
19887		5.047370	-6.159995	-69.874703
19888		4.886561	-6.190781	-69.293112
19889		4.753821	-6.240946	-68.709203
19890		4.696272	-6.307422	-68.137723
19891		4.758051	-6.376621	-67.579612
19892		4.937503	-6.428259	-67.034729
19893		5.159807	-6.464364	-66.493948
19894		5.379775	-6.507237	-65.953191
19895		5.562932	-6.562055	-65.412047
19896		5.716082	-6.640598	-64.876014
19897		5.822654	-6.721036	-64.337678
19898		5.886196	-6.797998	-63.799550
19899		5.914454	-6.869262	-63.262940
19900		5.947386	-6.948420	-62.735794
19901		6.016144	-7.035711	-62.213354
19902		6.171498	-7.132668	-61.679998
19903		6.402829	-7.223535	-61.135975
19904		6.653907	-7.305599	-60.588825
19905		6.829392	-7.367003	-60.037533
19906		6.892170	-7.410277	-59.482792
19907		6.824243	-7.437958	-58.923414
19908		6.686298	-7.457641	-58.367804
19909		6.526711	-7.486637	-57.811597
19910		6.421785	-7.530274	-57.266793
19911		6.414945	-7.621344	-56.718942
19912		6.525596	-7.724687	-56.153541
19913		6.701352	-7.819487	-55.573491
19914		6.840611	-7.869850	-54.972532
19915		6.860780	-7.894071	-54.340032
19916		6.786825	-7.915611	-53.675771
19917		6.684535	-7.958289	-52.985329
19918		6.640189	-8.040902	-52.291252
19919		6.682992	-8.155842	-51.601006
19920		6.831946	-8.282015	-50.927937
19921		7.029725	-8.386068	-50.273714
19922		7.211924	-8.453011	-49.637929
19923		7.313171	-8.492353	-49.011774
19924		7.338423	-8.516111	-48.381152
19925		7.313491	-8.540825	-47.747300
19926		7.314008	-8.587799	-47.118809
19927		7.359831	-8.655687	-46.496869
19928		7.471631	-8.721960	-45.887843
19929		7.621996	-8.768136	-45.283748
19930		7.791720	-8.805583	-44.684202
19931		7.914826	-8.818197	-44.084194
19932		7.969573	-8.819806	-43.470022
19933		7.928994	-8.809246	-42.836094
19934		7.840069	-8.804125	-42.188967
19935		7.748983	-8.814561	-41.542861
19936		7.699913	-8.840448	-40.910779
19937		7.682707	-8.862539	-40.279053
19938		7.705678	-8.879012	-39.657092
19939		7.731530	-8.895018	-39.052320
19940		7.739479	-8.911142	-38.462461
19941		7.702905	-8.925232	-37.871352
19942		7.660343	-8.945010	-37.276049
19943		7.637312	-8.972753	-36.680311
19944		7.665680	-9.019693	-36.082134
19945		7.729604	-9.071056	-35.476262
19946		7.817500	-9.127154	-34.870632
19947		7.911943	-9.182957	-34.268805
19948		7.986950	-9.226902	-33.677942
19949		7.986535	-9.250203	-33.075332
19950		7.909710	-9.247898	-32.457776
19951		7.785112	-9.240718	-31.826869
19952		7.666604	-9.244321	-31.196940
19953		7.574759	-9.271980	-30.577489
19954		7.537690	-9.326219	-29.969577
19955		7.546003	-9.395683	-29.382280
19956		7.550881	-9.450980	-28.796050
19957		7.479109	-9.482611	-28.203083
19958		7.300872	-9.497566	-27.592993
19959		7.019632	-9.495791	-26.967682
19960		6.686573	-9.502995	-26.328724
19961		6.364147	-9.535934	-25.688926
19962		6.136023	-9.595886	-25.053785
19963		6.042030	-9.668491	-24.430061
19964		6.079865	-9.740233	-23.829798
19965		6.146438	-9.796866	-23.251112
19966		6.179648	-9.840814	-22.689133
19967		6.137723	-9.891835	-22.130529
19968		6.067402	-9.956409	-21.573018
19969		6.002862	-10.022960	-21.006909
19970		5.976509	-10.095929	-20.429017
19971		5.998549	-10.162157	-19.835462
19972		6.096457	-10.231725	-19.236848
19973		6.254348	-10.302612	-18.650430
19974		6.462290	-10.372183	-18.092707
19975		6.676377	-10.426372	-17.552185
19976		6.869937	-10.457301	-17.013581
19977		7.028444	-10.459257	-16.465476
19978		7.148407	-10.440546	-15.906562
19979		7.252122	-10.422824	-15.328908
19980		7.381567	-10.444302	-14.743725
19981		7.527576	-10.502874	-14.149181
19982		7.672356	-10.575803	-13.549645
19983		7.760700	-10.646859	-12.953212
19984		7.754132	-10.695119	-12.366825
19985		7.636989	-10.719363	-11.787998
19986		7.458547	-10.729985	-11.224355
19987		7.277447	-10.734548	-10.676189
19988		7.156941	-10.748818	-10.143044
19989		7.106045	-10.770541	-9.629112
19990		7.090604	-10.792372	-9.131521
19991		7.032615	-10.792616	-8.634045
19992		6.892695	-10.779193	-8.127989
19993		6.682633	-10.765605	-7.610966
19994		6.452056	-10.773436	-7.087226
19995		6.268833	-10.807827	-6.569450
19996		6.204243	-10.880825	-6.079154
19997		6.295544	-10.981210	-5.622805
19998		6.495756	-11.090326	-5.180000
19999		6.700064	-11.181181	-4.733683
20000		6.826309	-11.242013	-4.276123
20001		6.836280	-11.271516	-3.793060
20002		6.782656	-11.285117	-3.280454
20003		6.727095	-11.300376	-2.735613
20004		6.721568	-11.336789	-2.178765
20005		6.786869	-11.398617	-1.625982
20006		6.904725	-11.481997	-1.085344
20007		6.997312	-11.563301	-0.544336
20008		7.018695	-11.620624	0.002936
20009		6.939279	-11.645807	0.561061
20010		6.799013	-11.647437	1.117303
20011		6.646186	-11.640392	1.667366
20012		6.526840	-11.637255	2.205546
20013		6.472274	-11.648250	2.730146
20014		6.527420	-11.679429	3.237556
20015		6.675735	-11.719717	3.736716
20016		6.874344	-11.767823	4.223536
20017		7.055735	-11.812773	4.696740
20018		7.200112	-11.852553	5.165967
20019		7.299071	-11.887015	5.625398
20020		7.366099	-11.914000	6.074636
20021		7.415950	-11.928328	6.519222
20022		7.471998	-11.948350	6.946803
20023		7.526686	-11.965459	7.358365
20024		7.570571	-11.968410	7.761602
20025		7.578573	-11.957722	8.161001
20026		7.541545	-11.934713	8.561482
20027		7.440988	-11.896206	8.968190
20028		7.289156	-11.843045	9.387685
20029		7.107223	-11.787911	9.830067
20030		6.930544	-11.738989	10.285696
20031		6.787001	-11.710771	10.744899
20032		6.713879	-11.711684	11.188513
20033		6.715935	-11.732205	11.621085
20034		6.759571	-11.748370	12.039371
20035		6.780332	-11.737420	12.436614
20036		6.741799	-11.707848	12.823297
20037		6.642199	-11.671637	13.204439
20038		6.525676	-11.642256	13.590563
20039		6.438516	-11.629489	13.979604
20040		6.412721	-11.625110	14.373261
20041		6.426316	-11.621060	14.772444
20042		6.466467	-11.617122	15.177392
20043		6.492667	-11.607790	15.591849
20044		6.480801	-11.595290	16.016230
20045		6.421474	-11.579547	16.446182
20046		6.347494	-11.564932	16.877877
20047		6.314482	-11.561742	17.292088
20048		6.365996	-11.567049	17.681979
20049		6.483187	-11.567681	18.049418
20050		6.618254	-11.567003	18.395192
20051		6.728938	-11.557509	18.720443
20052		6.786762	-11.525634	19.028156
20053		6.766471	-11.469073	19.321194
20054		6.668185	-11.383536	19.607475
20055		6.512548	-11.276826	19.893864
20056		6.315705	-11.162094	20.185714
20057		6.088286	-11.052453	20.479121
20058		5.866687	-10.963367	20.765683
20059		5.693359	-10.904360	21.023408
20060		5.586719	-10.867070	21.239512
20061		5.541385	-10.842855	21.419203
20062		5.492476	-10.820635	21.564116
20063		5.394617	-10.808719	21.679469
20064		5.244743	-10.790774	21.762911
20065		5.044429	-10.762889	21.829349
20066		4.858464	-10.742226	21.888621
20067		4.744387	-10.732605	21.923430
20068		4.730243	-10.735699	21.927598
20069		4.778663	-10.741663	21.912857
20070		4.837493	-10.757037	21.883631
20071		4.856425	-10.792693	21.841904
20072		4.830761	-10.850067	21.794607
20073		4.781910	-10.915795	21.746196
20074		4.739704	-10.986295	21.702512
20075		4.737116	-11.055693	21.652745
20076		4.795831	-11.126091	21.591843
20077		4.903200	-11.207066	21.517320
20078		5.018234	-11.298052	21.432672
20079		5.100865	-11.380910	21.340326
20080		5.112664	-11.437296	21.245851
20081		5.049721	-11.460335	21.153031
20082		4.945007	-11.431533	21.051693
20083		4.852290	-11.361056	20.946525
20084		4.776605	-11.265105	20.834561
20085		4.717220	-11.159076	20.700521
20086		4.646578	-11.060608	20.547700
20087		4.549206	-10.966069	20.370557
20088		4.419411	-10.877472	20.184556
20089		4.277962	-10.798282	19.989627
20090		4.151007	-10.719629	19.790091
20091		4.049391	-10.640190	19.588579
20092		3.982129	-10.548190	19.382289
20093		3.933814	-10.460825	19.171259
20094		3.886407	-10.370578	18.958536
20095		3.835711	-10.282275	18.722571
20096		3.770771	-10.198146	18.488934
20097		3.699373	-10.124784	18.259003
20098		3.625343	-10.060074	18.030593
20099		3.567716	-10.006666	17.803364
20100		3.533694	-9.968808	17.580853
20101		3.534042	-9.942526	17.349434
20102		3.563539	-9.914303	17.092282
20103		3.599986	-9.885666	16.805939
20104		3.617873	-9.847276	16.501192
20105		3.609614	-9.805715	16.191162
20106		3.578568	-9.765610	15.874498
20107		3.540682	-9.724966	15.550827
20108		3.498055	-9.692095	15.222630
20109		3.444544	-9.664508	14.886454
20110		3.356900	-9.638325	14.541639
20111		3.237647	-9.603518	14.193492
20112		3.101440	-9.561060	13.842185
20113		2.976628	-9.520739	13.476962
20114		2.874318	-9.488530	13.103473
20115		2.830174	-9.465836	12.729007
20116		2.836779	-9.444087	12.351545
20117		2.850254	-9.419480	11.964343
20118		2.818423	-9.388459	11.576376
20119		2.750814	-9.359076	11.192850
20120		2.685090	-9.336036	10.803087
20121		2.671843	-9.328555	10.409647
20122		2.715857	-9.336784	10.023823
20123		2.809442	-9.353708	9.639325
20124		2.913909	-9.354701	9.266574
20125		2.959888	-9.332520	8.906946
20126		2.910224	-9.285227	8.556752
20127		2.750155	-9.219220	8.201762
20128		2.513652	-9.148703	7.836289
20129		2.266996	-9.094981	7.458448
20130		2.066939	-9.066597	7.065669
20131		1.960695	-9.049062	6.665360
20132		1.955138	-9.036386	6.271693
20133		2.020257	-9.012497	5.878279
20134		2.086350	-8.975003	5.482657
20135		2.116772	-8.934362	5.079292
20136		2.100426	-8.898544	4.658705
20137		2.081751	-8.885974	4.213187
20138		2.090302	-8.879095	3.749331
20139		2.138153	-8.880542	3.274043
20140		2.192993	-8.862160	2.785941
20141		2.234130	-8.820589	2.292783
20142		2.222324	-8.756738	1.803717
20143		2.159089	-8.684768	1.323062
20144		2.060761	-8.617954	0.842307
20145		1.977567	-8.572172	0.335056
20146		1.923098	-8.553724	-0.209971
20147		1.904357	-8.550971	-0.785465
20148		1.892030	-8.533693	-1.377368
20149		1.861790	-8.492586	-1.981283
20150		1.801645	-8.426200	-2.586492
20151		1.747257	-8.356329	-3.183648
20152		1.722187	-8.297711	-3.765671
20153		1.766032	-8.268009	-4.350747
20154		1.878697	-8.276746	-4.953392
20155		2.049000	-8.308113	-5.575493
20156		2.214524	-8.333293	-6.197121
20157		2.330426	-8.328432	-6.811512
20158		2.340266	-8.281930	-7.408382
20159		2.244309	-8.214028	-7.993466
20160		2.087663	-8.150919	-8.576233
20161		1.970362	-8.117582	-9.171130
20162		1.935635	-8.111188	-9.788309
20163		1.998272	-8.096256	-10.420749
20164		2.074922	-8.036406	-11.050434
20165		2.081034	-7.930887	-11.665368
20166		1.940925	-7.808159	-12.263596
20167		1.684057	-7.702931	-12.850619
20168		1.395420	-7.630559	-13.439859
20169		1.168110	-7.593876	-14.047660
20170		1.031528	-7.562903	-14.674927
20171		0.967931	-7.526181	-15.315182
20172		0.922605	-7.489195	-15.971627
20173		0.875825	-7.452652	-16.644288
20174		0.824052	-7.424504	-17.333169
20175		0.786316	-7.405375	-18.035314
20176		0.748777	-7.379650	-18.741008
20177		0.713411	-7.357050	-19.449903
20178		0.654865	-7.329211	-20.157314
20179		0.574696	-7.295655	-20.853032
20180		0.475480	-7.268410	-21.534722
20181		0.402041	-7.250062	-22.210192
20182		0.392444	-7.267721	-22.883457
20183		0.473908	-7.346913	-23.562407
20184		0.658608	-7.479847	-24.258591
20185		0.864212	-7.617460	-24.977708
20186		0.975204	-7.717277	-25.712108
20187		0.943655	-7.779478	-26.450159
20188		0.812868	-7.834576	-27.167131
20189		0.627845	-7.907032	-27.860416
20190		0.406721	-8.001934	-28.532658
20191		0.199793	-8.133652	-29.198277
20192		0.039114	-8.296706	-29.868279
20193		-0.025641	-8.482964	-30.545094
20194		-0.057522	-8.641682	-31.240562
20195		-0.081239	-8.767629	-31.954990
20196		-0.142098	-8.854319	-32.699134
20197		-0.192764	-8.935569	-33.464939
20198		-0.171883	-9.054887	-34.258229
20199		-0.057905	-9.178853	-35.058227
20200		0.068574	-9.258257	-35.852919
20201		0.098521	-9.281472	-36.624433
20202		-0.089371	-9.210025	-37.359113
20203		-0.539587	-9.067426	-38.037657
20204		-1.209228	-8.891625	-38.667642
20205		-1.996870	-8.715924	-39.264749
20206		-2.777755	-8.556240	-39.835121
20207		-3.424256	-8.453930	-40.393507
20208		-3.848014	-8.441309	-40.962334
20209		-4.021430	-8.494520	-41.558033
20210		-3.990902	-8.576823	-42.160769
20211		-3.833313	-8.660523	-42.763659
20212		-3.628550	-8.737871	-43.366540
20213		-3.411987	-8.813277	-43.973739
20214		-3.201480	-8.902458	-44.590038
20215		-2.991569	-9.011888	-45.222029
20216		-2.774832	-9.129964	-45.878590
20217		-2.563905	-9.222803	-46.539507
20218		-2.407716	-9.258604	-47.191664
20219		-2.347904	-9.247022	-47.817468
20220		-2.405944	-9.185107	-48.411927
20221		-2.557653	-9.103031	-48.971602
20222		-2.769639	-9.008251	-49.520933
20223		-2.994607	-8.939525	-50.079049
20224		-3.171798	-8.932879	-50.671077
20225		-3.276915	-8.942891	-51.307453
20226		-3.363184	-8.932779	-51.958531
20227		-3.484362	-8.891607	-52.605621
20228		-3.630825	-8.845504	-53.227253
20229		-3.737503	-8.815254	-53.836931
20230		-3.774325	-8.787520	-54.425749
20231		-3.721859	-8.751596	-55.010645
20232		-3.615786	-8.700704	-55.606466
20233		-3.497488	-8.644481	-56.221835
20234		-3.369091	-8.599052	-56.857856
20235		-3.183754	-8.598296	-57.529299
20236		-2.873148	-8.679018	-58.254451
20237		-2.362699	-8.790349	-59.010348
20238		-1.681170	-8.889240	-59.777428
20239		-0.887525	-8.938002	-60.533822
20240		-0.133236	-8.933656	-61.262215
20241		0.450002	-8.888011	-61.949021
20242		0.752336	-8.839935	-62.606948
20243		0.764654	-8.804771	-63.253378
20244		0.615721	-8.762668	-63.887260
20245		0.459508	-8.714124	-64.521996
20246		0.366485	-8.627602	-65.142077
20247		0.356709	-8.501319	-65.734025
20248		0.389561	-8.345571	-66.297461
20249		0.432191	-8.184050	-66.836745
20250		0.483073	-8.031625	-67.361940
20251		0.549141	-7.912532	-67.882062
20252		0.677827	-7.841430	-68.400361
20253		0.902535	-7.814957	-68.910390
20254		1.211418	-7.797090	-69.405536
20255		1.559676	-7.760294	-69.889144
20256		1.863564	-7.667572	-70.341312
20257		2.054387	-7.530352	-70.751896
20258		2.088609	-7.368232	-71.130988
20259		2.000913	-7.206322	-71.487570
20260		1.888279	-7.047378	-71.818682
20261		1.845790	-6.896028	-72.139405
20262		1.933869	-6.773768	-72.467259
20263		2.149009	-6.706522	-72.826844
20264		2.427834	-6.660791	-73.193818
20265		2.693704	-6.599603	-73.545086
20266		2.856002	-6.511736	-73.869901
20267		2.856096	-6.418577	-74.168068
20268		2.743805	-6.337116	-74.424274
20269		2.612348	-6.272286	-74.654842
20270		2.540992	-6.225448	-74.875971
20271		2.573540	-6.213183	-75.100551
20272		2.689388	-6.231956	-75.339111
20273		2.854844	-6.273599	-75.576548
20274		3.034421	-6.319308	-75.812314
20275		3.219142	-6.363871	-76.044536
20276		3.392364	-6.390788	-76.275877
20277		3.541625	-6.404884	-76.504204
20278		3.660103	-6.422604	-76.718855
20279		3.744590	-6.446878	-76.938267
20280		3.820036	-6.487282	-77.177196
20281		3.914704	-6.551652	-77.438938
20282		4.060934	-6.629296	-77.715174
20283		4.273003	-6.711443	-77.998184
20284		4.540387	-6.784526	-78.281017
20285		4.849541	-6.838602	-78.555247
20286		5.214384	-6.878683	-78.796856
20287		5.617141	-6.910313	-79.006084
20288		5.989850	-6.937529	-79.206001
20289		6.237220	-6.947563	-79.395499
20290		6.277898	-6.915965	-79.562092
20291		6.093295	-6.838210	-79.691526
20292		5.726028	-6.708387	-79.759785
20293		5.254602	-6.533223	-79.753062
20294		4.762191	-6.341640	-79.684556
20295		4.308260	-6.163373	-79.582875
20296		3.951402	-6.025166	-79.463028
20297		3.723091	-5.943988	-79.333677
20298		3.636890	-5.917162	-79.208389
20299		3.666971	-5.920889	-79.080409
20300		3.773025	-5.941309	-78.926771
20301		3.915511	-5.965331	-78.742324
20302		4.089667	-6.002539	-78.538867
20303		4.304731	-6.043978	-78.326262
20304		4.566791	-6.080974	-78.117528
20305		4.823928	-6.092482	-77.915118
20306		5.017945	-6.070290	-77.710459
20307		5.101091	-6.033153	-77.502355
20308		5.072372	-5.987148	-77.289529
20309		4.946928	-5.958919	-77.067441
20310		4.765750	-5.956908	-76.849012
20311		4.557602	-5.983015	-76.629861
20312		4.378817	-6.035527	-76.419958
20313		4.252847	-6.104033	-76.229726
20314		4.206787	-6.182517	-76.061057
20315		4.236372	-6.263388	-75.908053
20316		4.355165	-6.353035	-75.770568
20317		4.535173	-6.444155	-75.648130
20318		4.753473	-6.552812	-75.533460
20319		4.981171	-6.682085	-75.422777
20320		5.208813	-6.824219	-75.306215
20321		5.431308	-6.975559	-75.181957
20322		5.639083	-7.121449	-75.040219
20323		5.808853	-7.248764	-74.871068
20324		5.950518	-7.358721	-74.658743
20325		6.082732	-7.458201	-74.405609
20326		6.241630	-7.558384	-74.129828
20327		6.454214	-7.664321	-73.858624
20328		6.717001	-7.761197	-73.601002
20329		6.980511	-7.842605	-73.348420
20330		7.182287	-7.908304	-73.091477
20331		7.262957	-7.960258	-72.825270
20332		7.231535	-8.005931	-72.542034
20333		7.121477	-8.046303	-72.228032
20334		7.002660	-8.089190	-71.872165
20335		6.945385	-8.132170	-71.469649
20336		7.001249	-8.181927	-71.039857
20337		7.128365	-8.252479	-70.595848
20338		7.270531	-8.343427	-70.143404
20339		7.348536	-8.426957	-69.674921
20340		7.333278	-8.483995	-69.183579
20341		7.211578	-8.517730	-68.678210
20342		7.011494	-8.545169	-68.162709
20343		6.765965	-8.585545	-67.638023
20344		6.528285	-8.652133	-67.110983
20345		6.331980	-8.743249	-66.574477
20346		6.202415	-8.858193	-66.043137
20347		6.126367	-8.978007	-65.509663
20348		6.103576	-9.095340	-64.969895
20349		6.108090	-9.211733	-64.411198
20350		6.170696	-9.334496	-63.854307
20351		6.322443	-9.473678	-63.311837
20352		6.581004	-9.621272	-62.793444
20353		6.862890	-9.748778	-62.302001
20354		7.092378	-9.836815	-61.832378
20355		7.180403	-9.884985	-61.368479
20356		7.149559	-9.912273	-60.908125
20357		7.036831	-9.952037	-60.451063
20358		6.923125	-10.018822	-59.998638
20359		6.883776	-10.113091	-59.544722
20360		6.995727	-10.208464	-59.091138
20361		7.199815	-10.272753	-58.628494
20362		7.400587	-10.290958	-58.146229
20363		7.488925	-10.287534	-57.628969
20364		7.450941	-10.281224	-57.080772
20365		7.327956	-10.314318	-56.527602
20366		7.219711	-10.391753	-55.970320
20367		7.179723	-10.492839	-55.427794
20368		7.241651	-10.585085	-54.905280
20369		7.333445	-10.652886	-54.393226
20370		7.387829	-10.694500	-53.880232
20371		7.322534	-10.716897	-53.349057
20372		7.134768	-10.734602	-52.798830
20373		6.863482	-10.764964	-52.234616
20374		6.606914	-10.827214	-51.680340
20375		6.403915	-10.894043	-51.155628
20376		6.258251	-10.936466	-50.651059
20377		6.124760	-10.937335	-50.152075
20378		5.981346	-10.913563	-49.652743
20379		5.818044	-10.882691	-49.148281
20380		5.681474	-10.876743	-48.641089
20381		5.592516	-10.918413	-48.133502
20382		5.580498	-11.018657	-47.628858
20383		5.635046	-11.172281	-47.125065
20384		5.729187	-11.346823	-46.623529
20385		5.810307	-11.513708	-46.119171
20386		5.846440	-11.655838	-45.617725
20387		5.811724	-11.756005	-45.108423
20388		5.696354	-11.814168	-44.581767
20389		5.504418	-11.833050	-44.028344
20390		5.260172	-11.823529	-43.449312
20391		4.973462	-11.810264	-42.845761
20392		4.689763	-11.810013	-42.226354
20393		4.446556	-11.836734	-41.608727
20394		4.306243	-11.896849	-41.002211
20395		4.265077	-11.976855	-40.396443
20396		4.282203	-12.062432	-39.777262
20397		4.288649	-12.142072	-39.136695
20398		4.265795	-12.218385	-38.476059
20399		4.205307	-12.292178	-37.808041
20400		4.133836	-12.373982	-37.139038
20401		4.052692	-12.474821	-36.472811
20402		4.024298	-12.590792	-35.816341
20403		4.078665	-12.714970	-35.165910
20404		4.226486	-12.838938	-34.520990
20405		4.404555	-12.954303	-33.874787
20406		4.556691	-13.042053	-33.213842
20407		4.593185	-13.087331	-32.530006
20408		4.516258	-13.111460	-31.833781
20409		4.349384	-13.123625	-31.135219
20410		4.162370	-13.140775	-30.437071
20411		4.007328	-13.167091	-29.742523
20412		3.954525	-13.206416	-29.065144
20413		4.001621	-13.267117	-28.404018
20414		4.114794	-13.352542	-27.764162
20415		4.225187	-13.458020	-27.135798
20416		4.291090	-13.556090	-26.517835
20417		4.263401	-13.611205	-25.890601
20418		4.146558	-13.630962	-25.238483
20419		3.968678	-13.627743	-24.550348
20420		3.831443	-13.631442	-23.831006
20421		3.775621	-13.640698	-23.123329
20422		3.845092	-13.677772	-22.456290
20423		3.963167	-13.710602	-21.835616
20424		4.072059	-13.733460	-21.243773
20425		4.114006	-13.724600	-20.672076
20426		4.137825	-13.700738	-20.108561
20427		4.175991	-13.669441	-19.543569
20428		4.299018	-13.672944	-18.972734
20429		4.498819	-13.695945	-18.394452
20430		4.744442	-13.731508	-17.800021
20431		4.943435	-13.754971	-17.185657
20432		5.039405	-13.754509	-16.551391
20433		5.013833	-13.725265	-15.887777
20434		4.915360	-13.690184	-15.196130
20435		4.791789	-13.671340	-14.484139
20436		4.690809	-13.674169	-13.770516
20437		4.618147	-13.697858	-13.063298
20438		4.574811	-13.724922	-12.367687
20439		4.543189	-13.746341	-11.679181
20440		4.524733	-13.756958	-10.991855
20441		4.495203	-13.755960	-10.305134
20442		4.467210	-13.767191	-9.631037
20443		4.454981	-13.789774	-8.979111
20444		4.470577	-13.812656	-8.348277
20445		4.473516	-13.815063	-7.726179
20446		4.428533	-13.799110	-7.112388
20447		4.305386	-13.777969	-6.494580
20448		4.143329	-13.767648	-5.883277
20449		3.982997	-13.771110	-5.284147
20450		3.894310	-13.788042	-4.712066
20451		3.885880	-13.819101	-4.174409
20452		3.921676	-13.852465	-3.668043
20453		3.922588	-13.858207	-3.173458
20454		3.857334	-13.835424	-2.685855
20455		3.725355	-13.800790	-2.204991
20456		3.573507	-13.760781	-1.726105
20457		3.417777	-13.718699	-1.239893
20458		3.279427	-13.677525	-0.751716
20459		3.166493	-13.639368	-0.253198
20460		3.111618	-13.612929	0.252845
20461		3.121605	-13.598110	0.767096
20462		3.202271	-13.593484	1.295101
20463		3.295203	-13.592752	1.829846
20464		3.355698	-13.591869	2.364177
20465		3.360310	-13.590665	2.907164
20466		3.302397	-13.595102	3.457885
20467		3.199819	-13.611068	4.019302
20468		3.096455	-13.641026	4.580069
20469		3.021919	-13.676690	5.140120
20470		3.036371	-13.717318	5.693892
20471		3.151642	-13.770202	6.241661
20472		3.335917	-13.814947	6.786752
20473		3.512366	-13.832410	7.333534
20474		3.656008	-13.836142	7.876918
20475		3.727168	-13.815254	8.424867
20476		3.696529	-13.770572	9.001658
20477		3.540037	-13.708302	9.633719
20478		3.294632	-13.645461	10.284524
20479		3.000047	-13.593806	10.915722
20480		2.737577	-13.555091	11.515232
20481		2.562879	-13.514249	12.089959
20482		2.522078	-13.475920	12.630007
20483		2.571902	-13.457746	13.156646
20484		2.669882	-13.442022	13.681543
20485		2.754905	-13.422071	14.214797
20486		2.794299	-13.387548	14.769314
20487		2.774086	-13.340555	15.313564
20488		2.713187	-13.300093	15.814776
20489		2.609195	-13.258725	16.271435
20490		2.495146	-13.224914	16.677958
20491		2.387910	-13.202748	17.047579
20492		2.310219	-13.200962	17.413127
20493		2.271560	-13.197774	17.798179
20494		2.274023	-13.173599	18.191549
20495		2.332686	-13.126518	18.569697
20496		2.431889	-13.040534	18.912847
20497		2.529510	-12.925361	19.232789
20498		2.597548	-12.803437	19.522447
20499		2.620105	-12.696043	19.779954
20500		2.594202	-12.605407	20.016991
20501		2.531269	-12.528151	20.246188
20502		2.456922	-12.477171	20.461104
20503		2.414383	-12.446604	20.658854
20504		2.422766	-12.464694	20.840441
20505		2.505344	-12.486207	21.035484
20506		2.630282	-12.510994	21.257421
20507		2.734644	-12.532728	21.492584
20508		2.794144	-12.556208	21.718417
20509		2.794833	-12.573257	21.919412
20510		2.750657	-12.584543	22.094913
20511		2.681384	-12.593678	22.253760
20512		2.615991	-12.607359	22.407695
20513		2.554161	-12.614044	22.552604
20514		2.498802	-12.599085	22.684100
20515		2.461408	-12.551473	22.798760
20516		2.427872	-12.478537	22.883011
20517		2.372352	-12.403353	22.931105
20518		2.301279	-12.349770	22.940898
20519		2.237527	-12.323066	22.912284
20520		2.188761	-12.333850	22.852158
20521		2.172242	-12.358223	22.778153
20522		2.198922	-12.395873	22.689501
20523		2.254319	-12.431012	22.582975
20524		2.318257	-12.437198	22.461182
20525		2.387001	-12.422000	22.332263
20526		2.444368	-12.394945	22.186235
20527		2.495430	-12.371349	22.022231
20528		2.547985	-12.357217	21.837987
20529		2.613325	-12.359397	21.632124
20530		2.682532	-12.373820	21.416450
20531		2.752122	-12.387405	21.184028
20532		2.810088	-12.398664	20.941777
20533		2.864346	-12.398436	20.697670
20534		2.887076	-12.377593	20.453825
20535		2.889451	-12.349720	20.197604
20536		2.895870	-12.319389	19.926091
20537		2.945188	-12.298697	19.635612
20538		3.067940	-12.299209	19.338490
20539		3.277066	-12.334093	19.035959
20540		3.524417	-12.378963	18.735477
20541		3.728538	-12.425289	18.442974
20542		3.810301	-12.460160	18.184829
20543		3.769981	-12.466003	17.928182
20544		3.623854	-12.437008	17.645039
20545		3.411535	-12.365172	17.316620
20546		3.176920	-12.260641	16.933104
20547		2.989222	-12.141968	16.494341
20548		2.878389	-12.018293	16.009892
20549		2.838049	-11.887740	15.506598
20550		2.795167	-11.750197	14.991612
20551		2.687982	-11.624753	14.473778
20552		2.504556	-11.515467	13.960362
20553		2.306506	-11.414016	13.445966
20554		2.138900	-11.333659	12.918392
20555		2.061069	-11.273822	12.370784
20556		2.064945	-11.213914	11.806674
20557		2.085499	-11.143543	11.221060
20558		2.016863	-11.043468	10.629285
20559		1.835006	-10.923810	10.044227
20560		1.539683	-10.800468	9.455690
20561		1.234338	-10.697981	8.859006
20562		1.012231	-10.617367	8.248217
20563		0.903349	-10.555442	7.619101
20564		0.854719	-10.483814	6.984736
20565		0.801510	-10.403011	6.356056
20566		0.691545	-10.315515	5.732208
20567		0.542681	-10.231498	5.114487
20568		0.381926	-10.153446	4.523072
20569		0.272785	-10.095458	3.951948
20570		0.202632	-10.055634	3.387213
20571		0.157697	-10.011936	2.817776
20572		0.071493	-9.939814	2.227604
20573		-0.088870	-9.844541	1.603577
20574		-0.348095	-9.744054	0.941037
20575		-0.640108	-9.652278	0.249803
20576		-0.912952	-9.565744	-0.457699
20577		-1.108203	-9.486048	-1.165829
20578		-1.219346	-9.409978	-1.855096
20579		-1.266653	-9.350461	-2.525634
20580		-1.302977	-9.304371	-3.181707
20581		-1.317934	-9.281805	-3.837450
20582		-1.311805	-9.283396	-4.504113
20583		-1.266532	-9.314079	-5.185854
20584		-1.195868	-9.361502	-5.879230
20585		-1.110432	-9.401736	-6.568745
20586		-1.045630	-9.425071	-7.241241
20587		-1.009196	-9.430158	-7.886774
20588		-1.015260	-9.433236	-8.503070
20589		-1.018402	-9.454502	-9.113919
20590		-1.018062	-9.476961	-9.729767
20591		-1.008499	-9.498023	-10.343977
20592		-1.027497	-9.512457	-10.956650
20593		-1.064519	-9.507963	-11.585094
20594		-1.128488	-9.482536	-12.226371
20595		-1.201215	-9.448869	-12.878429
20596		-1.297327	-9.405325	-13.538207
20597		-1.408410	-9.357402	-14.201382
20598		-1.532183	-9.314576	-14.860880
20599		-1.631641	-9.275206	-15.522913
20600		-1.704556	-9.247616	-16.192581
20601		-1.728890	-9.252310	-16.864945
20602		-1.711564	-9.279466	-17.542415
20603		-1.669549	-9.316185	-18.228398
20604		-1.675379	-9.329201	-18.909631
20605		-1.760681	-9.296369	-19.569270
20606		-1.950235	-9.222074	-20.199048
20607		-2.184582	-9.137438	-20.807809
20608		-2.423735	-9.066318	-21.394341
20609		-2.619833	-9.025766	-21.962091
20610		-2.768329	-9.022242	-22.531792
20611		-2.896627	-9.025706	-23.115841
20612		-3.086030	-8.998532	-23.705215
20613		-3.341800	-8.937653	-24.292184
20614		-3.642548	-8.864857	-24.861635
20615		-3.892646	-8.815212	-25.422152
20616		-4.007095	-8.819651	-26.005904
20617		-3.970036	-8.875613	-26.646513
20618		-3.871647	-8.943556	-27.344363
20619		-3.815195	-8.984299	-28.065890
20620		-3.880408	-8.996201	-28.781207
20621		-4.024569	-9.005799	-29.482852
20622		-4.137298	-9.029917	-30.180950
20623		-4.092487	-9.099798	-30.889420
20624		-3.825585	-9.239422	-31.628603
20625		-3.348111	-9.440392	-32.418915
20626		-2.827572	-9.598417	-33.239844
20627		-2.444905	-9.637399	-34.066558
20628		-2.357362	-9.555981	-34.859641
20629		-2.598355	-9.410293	-35.597714
20630		-3.073816	-9.245300	-36.276716
20631		-3.580318	-9.119160	-36.922793
20632		-3.958931	-9.048630	-37.570121
20633		-4.149197	-9.010389	-38.232634
20634		-4.205299	-8.976839	-38.897536
20635		-4.238879	-8.928664	-39.540731
20636		-4.339790	-8.855409	-40.147413
20637		-4.501496	-8.787334	-40.738584
20638		-4.671508	-8.722149	-41.321524
20639		-4.773795	-8.680909	-41.904373
20640		-4.760685	-8.681172	-42.514499
20641		-4.602224	-8.715693	-43.177086
20642		-4.367194	-8.739133	-43.886776
20643		-4.104483	-8.713464	-44.613984
20644		-3.866117	-8.650171	-45.329271
20645		-3.653367	-8.598133	-46.036437
20646		-3.417450	-8.584890	-46.735757
20647		-3.109591	-8.620082	-47.440904
20648		-2.720168	-8.675912	-48.161027
20649		-2.318885	-8.701344	-48.880129
20650		-2.035730	-8.662813	-49.560709
20651		-1.948457	-8.563272	-50.184328
20652		-2.093162	-8.442352	-50.781021
20653		-2.425346	-8.316825	-51.358343
20654		-2.842214	-8.217220	-51.935153
20655		-3.235720	-8.162987	-52.543297
20656		-3.498078	-8.168906	-53.201542
20657		-3.625563	-8.184299	-53.903169
20658		-3.688367	-8.170378	-54.588183
20659		-3.775322	-8.113464	-55.223030
20660		-3.937605	-8.042704	-55.829492
20661		-4.118043	-7.994377	-56.400829
20662		-4.235565	-7.982888	-56.966457
20663		-4.248854	-8.004134	-57.554108
20664		-4.116058	-8.073318	-58.179528
20665		-3.831068	-8.195175	-58.837035
20666		-3.431587	-8.320555	-59.495162
20667		-2.958958	-8.413502	-60.137301
20668		-2.505654	-8.470808	-60.749638
20669		-2.126967	-8.517482	-61.346745
20670		-1.848785	-8.601165	-61.940205
20671		-1.617822	-8.727658	-62.534833
20672		-1.342070	-8.866142	-63.134924
20673		-0.960262	-8.966689	-63.736909
20674		-0.499257	-8.988787	-64.337444
20675		-0.055132	-8.936034	-64.938800
20676		0.217957	-8.828679	-65.524287
20677		0.222919	-8.718912	-66.077362
20678		-0.024238	-8.652839	-66.612355
20679		-0.411276	-8.643667	-67.129738
20680		-0.782636	-8.677344	-67.637680
20681		-1.019543	-8.722684	-68.145572
20682		-1.080153	-8.764961	-68.632547
20683		-1.006517	-8.801953	-69.074901
20684		-0.865216	-8.830412	-69.480548
20685		-0.688094	-8.875765	-69.853730
20686		-0.476759	-8.935644	-70.211165
20687		-0.221818	-9.012353	-70.585746
20688		0.099135	-9.095339	-70.990868
20689		0.486023	-9.170771	-71.412460
20690		0.848879	-9.215157	-71.840232
20691		1.082956	-9.262223	-72.284734
20692		1.081687	-9.344401	-72.724808
20693		0.913070	-9.476496	-73.094192
20694		0.669682	-9.626382	-73.349311
20695		0.525825	-9.762401	-73.500823
20696		0.587696	-9.893153	-73.642008
20697		0.828595	-9.977889	-73.815453
20698		1.104001	-9.976794	-74.017648
20699		1.279126	-9.919787	-74.214865
20700		1.250343	-9.827758	-74.360380
20701		1.033023	-9.718282	-74.433016
20702		0.723244	-9.598738	-74.467926
20703		0.414260	-9.502251	-74.489698
20704		0.193596	-9.438712	-74.505050
20705		0.114045	-9.411186	-74.532004
20706		0.197268	-9.416414	-74.588204
20707		0.405924	-9.440826	-74.669703
20708		0.671024	-9.462425	-74.756949
20709		0.920902	-9.468308	-74.833651
20710		1.097057	-9.454963	-74.886899
20711		1.165403	-9.435024	-74.918620
20712		1.167162	-9.415338	-74.929056
20713		1.173063	-9.403513	-74.925244
20714		1.237286	-9.404503	-74.925492
20715		1.349721	-9.409602	-74.937530
20716		1.463973	-9.405951	-74.960627
20717		1.530589	-9.390832	-74.994120
20718		1.545814	-9.359771	-75.034050
20719		1.537071	-9.325572	-75.065359
20720		1.543205	-9.281886	-75.070199
20721		1.564506	-9.227334	-75.053800
20722		1.567396	-9.171490	-75.021137
20723		1.526156	-9.130835	-74.965468
20724		1.466737	-9.110286	-74.892695
20725		1.436818	-9.109091	-74.816958
20726		1.464450	-9.112718	-74.761673
20727		1.532863	-9.108435	-74.720115
20728		1.611961	-9.093154	-74.671161
20729		1.657071	-9.065905	-74.606623
20730		1.656170	-9.032934	-74.516768
20731		1.621177	-8.998463	-74.396643
20732		1.584786	-8.971901	-74.246656
20733		1.579427	-8.959061	-74.098983
20734		1.627391	-8.953628	-73.975699
20735		1.723481	-8.956104	-73.871838
20736		1.856390	-8.969494	-73.793259
20737		1.966382	-8.970279	-73.722813
20738		2.004212	-8.946221	-73.630176
20739		1.961942	-8.905621	-73.505992
20740		1.897227	-8.861467	-73.354982
20741		1.864398	-8.823219	-73.195940
20742		1.896545	-8.792185	-73.054296
20743		1.985436	-8.760216	-72.924834
20744		2.110195	-8.724747	-72.803002
20745		2.237456	-8.688384	-72.677634
20746		2.346495	-8.639683	-72.548969
20747		2.400830	-8.581678	-72.422474
20748		2.401786	-8.512154	-72.293049
20749		2.371435	-8.437957	-72.168746
20750		2.358593	-8.369020	-72.056065
20751		2.375070	-8.315039	-71.946578
20752		2.417780	-8.276333	-71.840418
20753		2.458495	-8.248249	-71.730318
20754		2.496282	-8.219741	-71.597915
20755		2.533314	-8.193949	-71.433090
20756		2.592192	-8.175092	-71.253985
20757		2.684488	-8.167208	-71.064467
20758		2.821507	-8.185885	-70.872958
20759		2.993341	-8.237342	-70.693988
20760		3.205281	-8.314599	-70.532581
20761		3.414573	-8.390732	-70.382074
20762		3.567950	-8.434596	-70.216615
20763		3.646343	-8.446947	-70.017426
20764		3.683548	-8.444803	-69.795319
20765		3.734375	-8.457259	-69.560255
20766		3.819665	-8.508349	-69.325412
20767		3.928514	-8.586244	-69.100527
20768		4.055318	-8.676781	-68.887626
20769		4.175148	-8.770436	-68.671232
20770		4.278088	-8.856758	-68.436157
20771		4.354749	-8.919395	-68.170172
20772		4.403240	-8.959715	-67.876411
20773		4.412929	-8.988584	-67.547675
20774		4.405728	-9.042761	-67.196148
20775		4.394115	-9.128286	-66.844029
20776		4.414824	-9.226119	-66.499379
20777		4.451363	-9.317831	-66.146068
20778		4.500179	-9.394686	-65.768791
20779		4.561728	-9.449531	-65.357050
20780		4.647144	-9.500583	-64.907382
20781		4.722726	-9.541079	-64.423318
20782		4.745734	-9.579481	-63.923314
20783		4.692938	-9.630672	-63.423908
20784		4.590335	-9.696996	-62.933743
20785		4.444456	-9.776491	-62.462560
20786		4.276385	-9.860799	-61.993844
20787		4.087573	-9.928225	-61.495308
20788		3.915512	-9.970207	-60.974674
20789		3.744626	-10.012247	-60.428617
20790		3.612036	-10.048126	-59.854313
20791		3.523540	-10.119445	-59.281817
20792		3.474429	-10.232903	-58.730183
20793		3.479712	-10.391987	-58.205933
20794		3.561631	-10.575663	-57.724407
20795		3.674460	-10.762161	-57.259744
20796		3.784628	-10.928259	-56.787307
20797		3.838582	-11.067226	-56.280335
20798		3.857809	-11.184006	-55.728521
20799		3.847778	-11.291249	-55.140020
20800		3.816696	-11.391263	-54.548604
20801		3.754155	-11.484760	-53.965881
20802		3.672565	-11.583452	-53.390474
20803		3.594362	-11.688070	-52.815347
20804		3.562579	-11.809003	-52.238059
20805		3.607076	-11.942296	-51.659796
20806		3.720958	-12.072407	-51.065893
20807		3.824427	-12.194855	-50.450481
20808		3.854542	-12.291013	-49.796575
20809		3.791133	-12.356006	-49.089621
20810		3.652955	-12.402444	-48.357290
20811		3.479292	-12.448642	-47.613590
20812		3.342157	-12.526440	-46.874663
20813		3.299930	-12.638942	-46.158096
20814		3.370193	-12.755811	-45.453452
20815		3.472312	-12.848202	-44.740482
20816		3.525017	-12.907788	-44.020813
20817		3.507036	-12.949941	-43.299444
20818		3.457971	-13.005031	-42.579037
20819		3.400778	-13.072448	-41.855568
20820		3.394819	-13.138615	-41.129400
20821		3.462818	-13.214369	-40.408030
20822		3.608427	-13.297842	-39.694572
20823		3.792743	-13.370687	-38.964850
20824		3.991548	-13.434834	-38.205693
20825		4.158485	-13.498235	-37.417483
20826		4.273479	-13.561937	-36.617813
20827		4.299549	-13.628129	-35.802831
20828		4.263128	-13.700317	-34.973833
20829		4.160294	-13.771852	-34.128388
20830		4.060910	-13.842950	-33.270472
20831		4.042539	-13.913364	-32.404221
20832		4.181396	-13.992293	-31.557534
20833		4.432234	-14.060403	-30.729846
20834		4.691808	-14.102240	-29.917824
20835		4.801956	-14.104578	-29.109153
20836		4.716047	-14.076057	-28.292633
20837		4.438627	-14.027104	-27.448130
20838		4.052120	-13.985234	-26.567849
20839		3.633900	-13.968682	-25.660178
20840		3.282983	-13.988498	-24.752471
20841		3.029944	-14.034220	-23.859568
20842		2.867597	-14.084563	-22.997752
20843		2.727387	-14.115409	-22.175915
20844		2.565724	-14.131081	-21.388540
20845		2.357997	-14.135831	-20.624035
20846		2.142697	-14.145672	-19.869978
20847		1.969654	-14.155879	-19.115984
20848		1.888976	-14.163880	-18.367926
20849		1.882889	-14.162848	-17.624526
20850		1.905797	-14.160003	-16.873083
20851		1.913918	-14.172319	-16.111132
20852		1.894793	-14.186218	-15.352221
20853		1.847990	-14.196918	-14.583803
20854		1.798314	-14.201277	-13.820794
20855		1.757164	-14.195651	-13.056771
20856		1.744499	-14.189599	-12.287031
20857		1.747758	-14.190432	-11.499943
20858		1.830799	-14.215306	-10.706544
20859		1.977237	-14.243580	-9.913920
20860		2.122829	-14.263121	-9.119936
20861		2.165977	-14.258091	-8.321740
20862		2.076079	-14.233923	-7.512655
20863		1.877460	-14.204367	-6.692177
20864		1.638937	-14.174230	-5.876362
20865		1.408075	-14.146168	-5.079710
20866		1.258813	-14.145422	-4.319177
20867		1.224184	-14.156857	-3.591325
20868		1.308026	-14.158958	-2.881701
20869		1.406211	-14.135960	-2.173563
20870		1.443659	-14.089239	-1.465430
20871		1.358511	-14.027328	-0.747484
20872		1.179288	-13.963046	-0.014913
20873		0.957943	-13.910034	0.730330
20874		0.760080	-13.885790	1.464275
20875		0.625863	-13.892273	2.166758
20876		0.615751	-13.947367	2.827570
20877		0.733517	-14.023174	3.445630
20878		0.950274	-14.099627	4.032702
20879		1.154996	-14.135552	4.608092
20880		1.215891	-14.067851	5.207382
20881		1.075343	-13.908069	5.876076
20882		0.797559	-13.710452	6.587827
20883		0.503670	-13.517944	7.284876
20884		0.308257	-13.352382	7.940178
20885		0.254599	-13.230549	8.554392
20886		0.353897	-13.152126	9.118192
20887		0.536545	-13.090280	9.646553
20888		0.711922	-13.040993	10.156319
20889		0.801736	-13.002935	10.657316
20890		0.812478	-12.974712	11.159337
20891		0.776121	-12.961666	11.660601
20892		0.733330	-12.953703	12.149109
20893		0.726825	-12.951910	12.626206
20894		0.793471	-12.954991	13.084015
20895		0.926251	-12.953692	13.519160
20896		1.096243	-12.947227	13.937301
20897		1.256225	-12.948021	14.336882
20898		1.364942	-12.952247	14.718698
20899		1.386288	-12.949102	15.092157
20900		1.308773	-12.944216	15.462568
20901		1.159690	-12.940777	15.849163
20902		0.977139	-12.950264	16.247924
20903		0.807323	-12.981960	16.656864
20904		0.699727	-13.033835	17.062308
20905		0.662053	-13.094414	17.450543
20906		0.675452	-13.154781	17.816419
20907		0.690208	-13.201391	18.172031
20908		0.649087	-13.217546	18.530570
20909		0.522422	-13.204173	18.899208
20910		0.320214	-13.175569	19.259250
20911		0.070875	-13.151006	19.601734
20912		-0.175507	-13.146549	19.919850
20913		-0.334093	-13.160054	20.208364
20914		-0.350924	-13.174386	20.455523
20915		-0.258799	-13.177997	20.663857
20916		-0.142768	-13.159745	20.838105
20917		-0.076869	-13.123178	20.995133
20918		-0.087476	-13.071552	21.138739
20919		-0.143401	-13.023244	21.270791
20920		-0.188828	-12.986616	21.392844
20921		-0.177923	-12.964700	21.510234
20922		-0.095462	-12.959867	21.619944
20923		0.032760	-12.974925	21.712795
20924		0.167100	-12.989647	21.786874
20925		0.266146	-13.000454	21.847750
20926		0.306354	-12.992753	21.894401
20927		0.278517	-12.956564	21.935333
20928		0.193024	-12.897271	21.978217
20929		0.095539	-12.833777	22.017798
20930		0.034168	-12.776593	22.036900
20931		0.036677	-12.731086	22.023050
20932		0.092697	-12.693371	21.969869
20933		0.174673	-12.658243	21.876664
20934		0.243004	-12.622618	21.752593
20935		0.294554	-12.588501	21.604618
20936		0.318225	-12.547023	21.450911
20937		0.329086	-12.491846	21.305830
20938		0.332317	-12.430427	21.161361
20939		0.338824	-12.369774	20.995683
20940		0.339911	-12.308812	20.817925
20941		0.355133	-12.258019	20.628223
20942		0.379316	-12.210276	20.414289
20943		0.396389	-12.158069	20.175002
20944		0.395259	-12.097910	19.917339
20945		0.395156	-12.029380	19.647478
20946		0.390433	-11.953881	19.359037
20947		0.386793	-11.873756	19.059251
20948		0.379925	-11.791123	18.738234
20949		0.384238	-11.712310	18.388732
20950		0.398240	-11.636568	18.018777
20951		0.430538	-11.581572	17.634512
