// General information: 
//  MT Manager version: 2022.2.0 
//  XDA version: 2022.2.0 build 7381 rev 124627 built on 2023-07-19
// Device information: 
//  DeviceId: 00B44805
//  ProductCode: MTW2-3A7G6
//  Firmware Version: 4.3.5
//  Hardware Version: 2.0.0
// Device settings: 
//  Filter Profile: human(46.1)
//  Option Flags: Orientation Smoother Disabled, Position/Velocity Smoother Disabled, Continuous Zero Rotation Update Disabled, AHS Disabled, ICC Disabled
// Coordinate system: ENU
PacketCounter	SampleTimeFine	Roll	Pitch	Yaw
17734		-4.858330	-3.694734	4.688623
17735		-4.843351	-3.710366	4.681091
17736		-4.845153	-3.724404	4.664171
17737		-4.883359	-3.741670	4.635031
17738		-4.939840	-3.760460	4.592243
17739		-4.987668	-3.781009	4.544160
17740		-5.019043	-3.788457	4.489067
17741		-5.031413	-3.788699	4.426627
17742		-5.017550	-3.780259	4.360320
17743		-4.983043	-3.764649	4.292936
17744		-4.945481	-3.742656	4.226838
17745		-4.927642	-3.721801	4.162973
17746		-4.936632	-3.703110	4.102687
17747		-4.966837	-3.691973	4.048192
17748		-5.010098	-3.682124	4.003596
17749		-5.064061	-3.673128	3.967445
17750		-5.129266	-3.665376	3.932921
17751		-5.203996	-3.669341	3.896203
17752		-5.260697	-3.680075	3.850548
17753		-5.283437	-3.691565	3.795650
17754		-5.253625	-3.689703	3.725101
17755		-5.162681	-3.675433	3.635034
17756		-5.006870	-3.645893	3.525503
17757		-4.807752	-3.597544	3.395699
17758		-4.593918	-3.531870	3.246955
17759		-4.404051	-3.465751	3.085780
17760		-4.263802	-3.404597	2.915138
17761		-4.175086	-3.353174	2.740810
17762		-4.119209	-3.306792	2.573853
17763		-4.082233	-3.270791	2.424802
17764		-4.033505	-3.237482	2.303347
17765		-3.964993	-3.212459	2.214795
17766		-3.857701	-3.195625	2.159217
17767		-3.718484	-3.193922	2.135281
17768		-3.558921	-3.201310	2.144077
17769		-3.377130	-3.217370	2.186445
17770		-3.171988	-3.236690	2.256621
17771		-2.962433	-3.265631	2.351674
17772		-2.746951	-3.295520	2.460149
17773		-2.534696	-3.326043	2.578120
17774		-2.330529	-3.346179	2.697427
17775		-2.148976	-3.367104	2.808502
17776		-2.007962	-3.382813	2.905794
17777		-1.914004	-3.400278	2.989398
17778		-1.854067	-3.416756	3.058485
17779		-1.819575	-3.430359	3.113875
17780		-1.797534	-3.442878	3.162679
17781		-1.798206	-3.451052	3.206758
17782		-1.820252	-3.463664	3.239566
17783		-1.877320	-3.487457	3.262978
17784		-1.970635	-3.518112	3.276579
17785		-2.075132	-3.556695	3.280732
17786		-2.156605	-3.595916	3.280122
17787		-2.205249	-3.633261	3.273546
17788		-2.218823	-3.664329	3.262573
17789		-2.195591	-3.688392	3.254662
17790		-2.137279	-3.708868	3.252761
17791		-2.079650	-3.735418	3.253076
17792		-2.029473	-3.770893	3.257028
17793		-1.954939	-3.813902	3.265727
17794		-1.840198	-3.844586	3.283026
17795		-1.670492	-3.863685	3.305965
17796		-1.461407	-3.862500	3.332164
17797		-1.253990	-3.851731	3.358766
17798		-1.091469	-3.840608	3.384717
17799		-0.997065	-3.843349	3.407231
17800		-0.964533	-3.857964	3.427876
17801		-0.978125	-3.889041	3.447957
17802		-0.990716	-3.919539	3.471126
17803		-0.988539	-3.949295	3.502818
17804		-0.970121	-3.970205	3.540341
17805		-0.950907	-3.991196	3.583779
17806		-0.934611	-4.022029	3.638871
17807		-0.935308	-4.064486	3.699223
17808		-0.940629	-4.112098	3.763743
17809		-0.924444	-4.164123	3.830435
17810		-0.877688	-4.207266	3.898227
17811		-0.806839	-4.237551	3.963906
17812		-0.730235	-4.257717	4.025674
17813		-0.669764	-4.272641	4.080339
17814		-0.640876	-4.282582	4.129101
17815		-0.645648	-4.298404	4.169358
17816		-0.671544	-4.314941	4.201473
17817		-0.697967	-4.329003	4.225871
17818		-0.698486	-4.334067	4.240497
17819		-0.677135	-4.332667	4.253221
17820		-0.634817	-4.321152	4.257323
17821		-0.583373	-4.302004	4.255885
17822		-0.541047	-4.278519	4.248150
17823		-0.510250	-4.258698	4.230486
17824		-0.483805	-4.237362	4.201786
17825		-0.456686	-4.212575	4.159759
17826		-0.430419	-4.179867	4.101073
17827		-0.416589	-4.147486	4.024691
17828		-0.412838	-4.107939	3.933326
17829		-0.412586	-4.071298	3.831096
17830		-0.409942	-4.034463	3.721243
17831		-0.399160	-3.998616	3.603985
17832		-0.376184	-3.961751	3.480737
17833		-0.350403	-3.929606	3.348617
17834		-0.350968	-3.895456	3.203529
17835		-0.392076	-3.875039	3.048736
17836		-0.471479	-3.870316	2.882683
17837		-0.583431	-3.874998	2.701843
17838		-0.699203	-3.885334	2.515564
17839		-0.771625	-3.892048	2.328839
17840		-0.795724	-3.885814	2.140108
17841		-0.785282	-3.874981	1.945608
17842		-0.768707	-3.870314	1.742118
17843		-0.777546	-3.876373	1.525913
17844		-0.827215	-3.902688	1.291460
17845		-0.910732	-3.946428	1.042689
17846		-1.015722	-3.997695	0.780625
17847		-1.115060	-4.049606	0.500793
17848		-1.183638	-4.090463	0.207869
17849		-1.204825	-4.118433	-0.102797
17850		-1.199515	-4.124480	-0.431645
17851		-1.194343	-4.128320	-0.777892
17852		-1.208764	-4.137660	-1.140014
17853		-1.228863	-4.151987	-1.519308
17854		-1.255130	-4.162639	-1.908244
17855		-1.270954	-4.175146	-2.310847
17856		-1.274521	-4.178537	-2.725009
17857		-1.292701	-4.169688	-3.156047
17858		-1.366699	-4.154928	-3.607631
17859		-1.503060	-4.144684	-4.079080
17860		-1.691662	-4.137393	-4.565158
17861		-1.879360	-4.134490	-5.064744
17862		-2.046144	-4.126545	-5.565483
17863		-2.169800	-4.106191	-6.068989
17864		-2.258893	-4.073876	-6.572064
17865		-2.328355	-4.032071	-7.080042
17866		-2.430540	-3.988050	-7.597182
17867		-2.576543	-3.963943	-8.129758
17868		-2.799838	-3.953884	-8.680154
17869		-3.086023	-3.965047	-9.249195
17870		-3.414483	-3.993133	-9.843439
17871		-3.737446	-4.032623	-10.462593
17872		-4.023253	-4.071696	-11.105536
17873		-4.252188	-4.102709	-11.767575
17874		-4.444692	-4.126951	-12.441444
17875		-4.592780	-4.151359	-13.128266
17876		-4.720069	-4.176563	-13.823666
17877		-4.847523	-4.202191	-14.533476
17878		-4.999217	-4.220731	-15.258523
17879		-5.174408	-4.249051	-16.009240
17880		-5.406118	-4.292416	-16.786069
17881		-5.677208	-4.354620	-17.593146
17882		-5.992615	-4.435916	-18.425943
17883		-6.324027	-4.535312	-19.279433
17884		-6.646329	-4.635822	-20.148108
17885		-6.910641	-4.721545	-21.029652
17886		-7.119627	-4.795560	-21.908065
17887		-7.269920	-4.855354	-22.796654
17888		-7.423281	-4.903921	-23.694384
17889		-7.595877	-4.956420	-24.609531
17890		-7.786879	-5.032230	-25.541468
17891		-7.956078	-5.123014	-26.492279
17892		-8.080267	-5.223769	-27.459328
17893		-8.125438	-5.311105	-28.433356
17894		-8.121964	-5.365954	-29.408398
17895		-8.071103	-5.417465	-30.378508
17896		-7.996174	-5.461675	-31.334499
17897		-7.912208	-5.493147	-32.288275
17898		-7.834435	-5.537348	-33.236061
17899		-7.720111	-5.586627	-34.187683
17900		-7.545564	-5.635141	-35.152409
17901		-7.268375	-5.665013	-36.122742
17902		-6.929490	-5.639190	-37.101179
17903		-6.541555	-5.574369	-38.087576
17904		-6.120281	-5.514393	-39.051358
17905		-5.658620	-5.438240	-39.980045
17906		-5.152739	-5.335324	-40.869841
17907		-4.540179	-5.236707	-41.728181
17908		-3.839244	-5.103705	-42.568704
17909		-3.096648	-4.923827	-43.407867
17910		-2.367726	-4.748728	-44.249946
17911		-1.677006	-4.591041	-45.099495
17912		-1.095139	-4.428552	-45.960424
17913		-0.613056	-4.314709	-46.820317
17914		-0.272982	-4.220046	-47.679714
17915		-0.080348	-4.141735	-48.536315
17916		-0.036865	-4.072292	-49.396985
17917		-0.088734	-4.019559	-50.257298
17918		-0.184489	-3.995444	-51.112590
17919		-0.242114	-3.973049	-51.964199
17920		-0.235124	-3.923001	-52.802818
17921		-0.147347	-3.848716	-53.617687
17922		-0.039673	-3.739373	-54.416207
17923		0.062788	-3.648145	-55.206909
17924		0.088059	-3.583357	-55.994093
17925		0.010278	-3.539826	-56.790238
17926		-0.136861	-3.541280	-57.611730
17927		-0.231389	-3.573195	-58.451018
17928		-0.273941	-3.542083	-59.303989
17929		-0.281717	-3.478333	-60.159483
17930		-0.260189	-3.440490	-61.000360
17931		-0.278630	-3.396836	-61.834846
17932		-0.369506	-3.394223	-62.663632
17933		-0.474200	-3.431149	-63.495501
17934		-0.531046	-3.477125	-64.344041
17935		-0.414524	-3.527314	-65.200154
17936		-0.141994	-3.504051	-66.049738
17937		0.195246	-3.416041	-66.895114
17938		0.513991	-3.370833	-67.724994
17939		0.771494	-3.354799	-68.556786
17940		0.879038	-3.369170	-69.392110
17941		0.922371	-3.440780	-70.228639
17942		0.999198	-3.525938	-71.083939
17943		1.241253	-3.620020	-71.945509
17944		1.774598	-3.680782	-72.808304
17945		2.656536	-3.670729	-73.662866
17946		3.770858	-3.537696	-74.514960
17947		4.961596	-3.336680	-75.367667
17948		6.036320	-3.164987	-76.223728
17949		6.867161	-3.063083	-77.086232
17950		7.355984	-3.031698	-77.942134
17951		7.541104	-3.075902	-78.786055
17952		7.500570	-3.150629	-79.602817
17953		7.379619	-3.231245	-80.387161
17954		7.258470	-3.299797	-81.112448
17955		7.143773	-3.310116	-81.771918
17956		7.044822	-3.324877	-82.356076
17957		6.986549	-3.365691	-82.862141
17958		6.959653	-3.396179	-83.285303
17959		6.983035	-3.418462	-83.630563
17960		7.085974	-3.436064	-83.905547
17961		7.272470	-3.435783	-84.116618
17962		7.530127	-3.411007	-84.280404
17963		7.810583	-3.380026	-84.399966
17964		8.030894	-3.335462	-84.493947
17965		8.125259	-3.303005	-84.569337
17966		8.085286	-3.284693	-84.632995
17967		7.985071	-3.282327	-84.696351
17968		7.894600	-3.267624	-84.752103
17969		7.833482	-3.235596	-84.800742
17970		7.793166	-3.172199	-84.838457
17971		7.754278	-3.098203	-84.870986
17972		7.698398	-3.027857	-84.890083
17973		7.617826	-2.981261	-84.894460
17974		7.541755	-2.943503	-84.878894
17975		7.499509	-2.906369	-84.842961
17976		7.514112	-2.853235	-84.786835
17977		7.573152	-2.795169	-84.707221
17978		7.658961	-2.731762	-84.609946
17979		7.746548	-2.663601	-84.493666
17980		7.816355	-2.599552	-84.366292
17981		7.847239	-2.539360	-84.234467
17982		7.853290	-2.480564	-84.097184
17983		7.829781	-2.431497	-83.959301
17984		7.783856	-2.372152	-83.812600
17985		7.706280	-2.317079	-83.656990
17986		7.618322	-2.281812	-83.490446
17987		7.517075	-2.253215	-83.308071
17988		7.416663	-2.232199	-83.114745
17989		7.309199	-2.220041	-82.915355
17990		7.221834	-2.205650	-82.717610
17991		7.137483	-2.186378	-82.516485
17992		7.031720	-2.166461	-82.314084
17993		6.907035	-2.172247	-82.102555
17994		6.789070	-2.195120	-81.880871
17995		6.688383	-2.224826	-81.654962
17996		6.623049	-2.251146	-81.427297
17997		6.590703	-2.278119	-81.208407
17998		6.566740	-2.289095	-81.001614
17999		6.505511	-2.297753	-80.793958
18000		6.400354	-2.316476	-80.572114
18001		6.285242	-2.364766	-80.319719
18002		6.235318	-2.413855	-80.030676
18003		6.269990	-2.450967	-79.703750
18004		6.392349	-2.479009	-79.341996
18005		6.548271	-2.500904	-78.950992
18006		6.701855	-2.518321	-78.538173
18007		6.804469	-2.546226	-78.100729
18008		6.844053	-2.586238	-77.634232
18009		6.802423	-2.640633	-77.140064
18010		6.712924	-2.706407	-76.615322
18011		6.573798	-2.773739	-76.063717
18012		6.428894	-2.831888	-75.484979
18013		6.318944	-2.878000	-74.890114
18014		6.253653	-2.894541	-74.271592
18015		6.180391	-2.925311	-73.623526
18016		6.067142	-2.978215	-72.944103
18017		5.871072	-3.050540	-72.241429
18018		5.616518	-3.136613	-71.522514
18019		5.371143	-3.239416	-70.789861
18020		5.248516	-3.322285	-70.057106
18021		5.248275	-3.355910	-69.323282
18022		5.347044	-3.370649	-68.588884
18023		5.458102	-3.396142	-67.844288
18024		5.520215	-3.436107	-67.087037
18025		5.485283	-3.482972	-66.308087
18026		5.370211	-3.530905	-65.508253
18027		5.206166	-3.589318	-64.694575
18028		5.087570	-3.643336	-63.867101
18029		5.053787	-3.677474	-63.038114
18030		5.141746	-3.694666	-62.213021
18031		5.275997	-3.691161	-61.375372
18032		5.396678	-3.703450	-60.520375
18033		5.424110	-3.713958	-59.645042
18034		5.353551	-3.729497	-58.746482
18035		5.160724	-3.769841	-57.819139
18036		4.902552	-3.819918	-56.876063
18037		4.636506	-3.878985	-55.926441
18038		4.486288	-3.919639	-54.987544
18039		4.485228	-3.916943	-54.065442
18040		4.623731	-3.883442	-53.154407
18041		4.791003	-3.851739	-52.246562
18042		4.913383	-3.811752	-51.335221
18043		4.922223	-3.783231	-50.410987
18044		4.814121	-3.755455	-49.459237
18045		4.602790	-3.734667	-48.473251
18046		4.395569	-3.712604	-47.466185
18047		4.268476	-3.686201	-46.447245
18048		4.257590	-3.650477	-45.418270
18049		4.279435	-3.639218	-44.394073
18050		4.286094	-3.625561	-43.369456
18051		4.221613	-3.623617	-42.358155
18052		4.104738	-3.650573	-41.349519
18053		3.965569	-3.677222	-40.332473
18054		3.876980	-3.693736	-39.309134
18055		3.858544	-3.708550	-38.278316
18056		3.921307	-3.713190	-37.247643
18057		3.999875	-3.728856	-36.223952
18058		4.054114	-3.755065	-35.208669
18059		4.038260	-3.782978	-34.197517
18060		3.981009	-3.822423	-33.189968
18061		3.910303	-3.870119	-32.171214
18062		3.901628	-3.914913	-31.141474
18063		3.958943	-3.949771	-30.100467
18064		4.098691	-3.980928	-29.055073
18065		4.263048	-4.010322	-28.008177
18066		4.414624	-4.047830	-26.963118
18067		4.494026	-4.087875	-25.916763
18068		4.494510	-4.128443	-24.870104
18069		4.425001	-4.180362	-23.815212
18070		4.326700	-4.227361	-22.757167
18071		4.198064	-4.275325	-21.688601
18072		4.088036	-4.333304	-20.612444
18073		4.000999	-4.393252	-19.535338
18074		3.957721	-4.449899	-18.465024
18075		3.918262	-4.498077	-17.398894
18076		3.892603	-4.556363	-16.341769
18077		3.855447	-4.622505	-15.298173
18078		3.798430	-4.691486	-14.267950
18079		3.707874	-4.770916	-13.250192
18080		3.596345	-4.852284	-12.246500
18081		3.451129	-4.936323	-11.254211
18082		3.323518	-5.026225	-10.273710
18083		3.229838	-5.105316	-9.294062
18084		3.213818	-5.175372	-8.314034
18085		3.258924	-5.226982	-7.336335
18086		3.353735	-5.269767	-6.363264
18087		3.448966	-5.317365	-5.404545
18088		3.513584	-5.361150	-4.456673
18089		3.490147	-5.406107	-3.530052
18090		3.394589	-5.462932	-2.622203
18091		3.257501	-5.532893	-1.730412
18092		3.117877	-5.609033	-0.862517
18093		2.971906	-5.686300	-0.012140
18094		2.855080	-5.763367	0.821508
18095		2.753277	-5.822979	1.643266
18096		2.658333	-5.881638	2.449679
18097		2.556527	-5.954718	3.242299
18098		2.468712	-6.028035	4.013330
18099		2.378074	-6.097847	4.759276
18100		2.311766	-6.164141	5.477568
18101		2.265890	-6.228009	6.164027
18102		2.222793	-6.283862	6.816982
18103		2.158988	-6.341710	7.437328
18104		2.099461	-6.392879	8.034565
18105		2.046787	-6.438155	8.606475
18106		2.030979	-6.478331	9.154862
18107		2.031024	-6.502464	9.683497
18108		2.033942	-6.525053	10.187025
18109		2.017344	-6.540175	10.668274
18110		1.992934	-6.555112	11.129124
18111		1.947991	-6.567882	11.564024
18112		1.882571	-6.585410	11.981992
18113		1.812931	-6.597140	12.383457
18114		1.770598	-6.590139	12.768523
18115		1.746492	-6.563802	13.136033
18116		1.727082	-6.534117	13.480483
18117		1.696544	-6.499795	13.805609
18118		1.646967	-6.472045	14.108135
18119		1.567018	-6.457962	14.393262
18120		1.478103	-6.445980	14.662799
18121		1.393486	-6.427462	14.916739
18122		1.328754	-6.409297	15.156391
18123		1.292877	-6.389048	15.388181
18124		1.275613	-6.364696	15.602099
18125		1.262062	-6.348856	15.808401
18126		1.257414	-6.343479	16.004055
18127		1.264767	-6.342245	16.192519
18128		1.290593	-6.347066	16.368314
18129		1.333731	-6.346252	16.534935
18130		1.382408	-6.340748	16.683632
18131		1.428436	-6.337510	16.814159
18132		1.470210	-6.330065	16.929623
18133		1.490321	-6.317665	17.028083
18134		1.477852	-6.315301	17.111531
18135		1.429758	-6.314638	17.182686
18136		1.363067	-6.305190	17.243018
18137		1.289965	-6.291263	17.292731
18138		1.224124	-6.271946	17.334661
18139		1.177431	-6.248336	17.366831
18140		1.146490	-6.213055	17.385352
18141		1.115414	-6.186129	17.391724
18142		1.075644	-6.160587	17.390891
18143		1.020449	-6.141346	17.379589
18144		0.947606	-6.139636	17.362272
18145		0.879130	-6.140128	17.340561
18146		0.824006	-6.136755	17.313136
18147		0.785297	-6.128200	17.277740
18148		0.760447	-6.122419	17.236960
18149		0.751551	-6.126630	17.190948
18150		0.743189	-6.134274	17.132916
18151		0.735169	-6.145643	17.065991
18152		0.733593	-6.155082	16.982850
18153		0.749648	-6.158907	16.886846
18154		0.772941	-6.149669	16.774295
18155		0.785802	-6.142908	16.644059
18156		0.783439	-6.143982	16.491074
18157		0.768629	-6.147375	16.310070
18158		0.753700	-6.155569	16.099147
18159		0.763506	-6.152417	15.858553
18160		0.794521	-6.130398	15.582793
18161		0.819548	-6.098144	15.275633
18162		0.810415	-6.065056	14.937021
18163		0.755708	-6.036537	14.574933
18164		0.657194	-6.016648	14.198414
18165		0.540589	-5.998224	13.815281
18166		0.411465	-5.975927	13.428853
18167		0.290835	-5.950211	13.046313
18168		0.196340	-5.922819	12.670402
18169		0.135197	-5.895581	12.295797
18170		0.096132	-5.871961	11.928708
18171		0.074833	-5.848849	11.570036
18172		0.068739	-5.832233	11.221136
18173		0.082328	-5.812123	10.884771
18174		0.100700	-5.788537	10.558505
18175		0.121908	-5.765056	10.234977
18176		0.128760	-5.731242	9.918677
18177		0.123723	-5.688500	9.598709
18178		0.095431	-5.646048	9.272405
18179		0.030479	-5.604219	8.940893
18180		-0.088889	-5.572880	8.600972
18181		-0.226040	-5.556400	8.260683
18182		-0.357094	-5.536643	7.925903
18183		-0.461686	-5.510232	7.587778
18184		-0.546218	-5.469937	7.246057
18185		-0.604887	-5.426747	6.896251
18186		-0.661517	-5.381686	6.537167
18187		-0.709780	-5.347122	6.166625
18188		-0.740846	-5.320733	5.794750
18189		-0.743626	-5.294894	5.424311
18190		-0.719035	-5.249482	5.052109
18191		-0.660907	-5.184595	4.675161
18192		-0.603922	-5.124834	4.283961
18193		-0.568552	-5.074109	3.873072
18194		-0.582753	-5.024233	3.440423
18195		-0.649026	-4.990718	2.992174
18196		-0.739216	-4.960075	2.526378
18197		-0.809241	-4.919118	2.053788
18198		-0.876266	-4.857014	1.563286
18199		-0.944712	-4.795007	1.065018
18200		-1.042338	-4.741385	0.546391
18201		-1.189130	-4.697430	0.005299
18202		-1.376293	-4.672603	-0.555708
18203		-1.566409	-4.651114	-1.125550
18204		-1.714620	-4.618042	-1.698827
18205		-1.789498	-4.563632	-2.286186
18206		-1.812373	-4.508324	-2.873310
18207		-1.816431	-4.457524	-3.472845
18208		-1.839950	-4.417000	-4.085598
18209		-1.872942	-4.396018	-4.710298
18210		-1.902703	-4.388541	-5.342868
18211		-1.899154	-4.369051	-5.977672
18212		-1.886038	-4.325413	-6.608121
18213		-1.888365	-4.265287	-7.231273
18214		-1.986312	-4.198262	-7.857908
18215		-2.202654	-4.153792	-8.496976
18216		-2.525587	-4.126333	-9.153403
18217		-2.916022	-4.106644	-9.827218
18218		-3.330684	-4.109578	-10.511657
18219		-3.675136	-4.107923	-11.199399
18220		-3.907719	-4.077605	-11.881929
18221		-4.024921	-4.024542	-12.557389
18222		-4.086035	-3.942727	-13.228462
18223		-4.158727	-3.850788	-13.904637
18224		-4.298070	-3.794556	-14.590164
18225		-4.484080	-3.759784	-15.294295
18226		-4.685562	-3.741847	-16.013352
18227		-4.836077	-3.728531	-16.739132
18228		-4.913355	-3.697376	-17.473733
18229		-4.911768	-3.652706	-18.213628
18230		-4.886829	-3.593450	-18.958856
18231		-4.868553	-3.539264	-19.713644
18232		-4.890899	-3.508148	-20.477444
18233		-4.928992	-3.493604	-21.250644
18234		-4.978914	-3.473508	-22.038448
18235		-5.001230	-3.476454	-22.836889
18236		-5.020024	-3.464708	-23.639990
18237		-5.033864	-3.433939	-24.449393
18238		-5.061820	-3.411188	-25.246538
18239		-5.097884	-3.399475	-26.032820
18240		-5.140324	-3.398131	-26.812595
18241		-5.135765	-3.432121	-27.593528
18242		-5.114292	-3.463748	-28.377268
18243		-5.080798	-3.463721	-29.188413
18244		-5.071204	-3.450636	-30.017726
18245		-5.107961	-3.433766	-30.868230
18246		-5.251636	-3.422172	-31.731900
18247		-5.481348	-3.439411	-32.602987
18248		-5.755230	-3.498275	-33.479932
18249		-5.980787	-3.594246	-34.370088
18250		-6.104513	-3.676557	-35.268034
18251		-6.170814	-3.691059	-36.193770
18252		-6.239218	-3.718718	-37.114104
18253		-6.312512	-3.775235	-38.021776
18254		-6.423837	-3.841205	-38.911014
18255		-6.536904	-3.922336	-39.786433
18256		-6.594294	-4.014549	-40.648351
18257		-6.516949	-4.126002	-41.503878
18258		-6.319688	-4.198395	-42.368144
18259		-6.018526	-4.237382	-43.244021
18260		-5.682761	-4.275993	-44.115152
18261		-5.369418	-4.318246	-44.982679
18262		-5.116314	-4.369076	-45.839647
18263		-4.871354	-4.464516	-46.675625
18264		-4.563412	-4.591385	-47.502605
18265		-4.104091	-4.676708	-48.335293
18266		-3.626804	-4.617736	-49.188074
18267		-3.272274	-4.527550	-50.040525
18268		-3.110236	-4.497285	-50.877509
18269		-3.144107	-4.492381	-51.697215
18270		-3.378627	-4.489894	-52.495354
18271		-3.684894	-4.521110	-53.269615
18272		-3.966913	-4.551107	-54.033262
18273		-4.206433	-4.520262	-54.797338
18274		-4.428557	-4.432067	-55.558972
18275		-4.619459	-4.368769	-56.303996
18276		-4.786895	-4.328426	-57.026054
18277		-4.919854	-4.274169	-57.736294
18278		-4.980700	-4.248416	-58.436317
18279		-4.934399	-4.240515	-59.138613
18280		-4.788564	-4.204867	-59.856976
18281		-4.549933	-4.158339	-60.582640
18282		-4.262825	-4.109068	-61.313953
18283		-3.950211	-4.057800	-62.042845
18284		-3.647489	-4.025277	-62.761585
18285		-3.326827	-4.020524	-63.468057
18286		-2.974114	-3.997529	-64.174175
18287		-2.608943	-3.953689	-64.883377
18288		-2.263922	-3.906939	-65.597171
18289		-1.960556	-3.853802	-66.317690
18290		-1.739904	-3.812187	-67.040847
18291		-1.582633	-3.791507	-67.755693
18292		-1.479072	-3.767226	-68.464198
18293		-1.405672	-3.738043	-69.164700
18294		-1.362563	-3.704137	-69.853573
18295		-1.320239	-3.689383	-70.528481
18296		-1.250378	-3.691089	-71.185445
18297		-1.130243	-3.685962	-71.823100
18298		-0.946126	-3.674701	-72.444432
18299		-0.672959	-3.666673	-73.041118
18300		-0.355926	-3.624183	-73.615210
18301		-0.040237	-3.580609	-74.167965
18302		0.256188	-3.566686	-74.690106
18303		0.492639	-3.554214	-75.192748
18304		0.632512	-3.561897	-75.674881
18305		0.722163	-3.596626	-76.144087
18306		0.809051	-3.637446	-76.599762
18307		0.919242	-3.654403	-77.038072
18308		1.040605	-3.648829	-77.460266
18309		1.133848	-3.620356	-77.851912
18310		1.164569	-3.591162	-78.215199
18311		1.127564	-3.578950	-78.545627
18312		1.042522	-3.575599	-78.842107
18313		0.959821	-3.582424	-79.109425
18314		0.924809	-3.595231	-79.346566
18315		0.954847	-3.594378	-79.560074
18316		1.025761	-3.566946	-79.746965
18317		1.111522	-3.548365	-79.905970
18318		1.171241	-3.523552	-80.040364
18319		1.180401	-3.513446	-80.149750
18320		1.168866	-3.517397	-80.232670
18321		1.180344	-3.521261	-80.294922
18322		1.248244	-3.511402	-80.343084
18323		1.369886	-3.481840	-80.376554
18324		1.508264	-3.427024	-80.395722
18325		1.627907	-3.375822	-80.400025
18326		1.697114	-3.306242	-80.391748
18327		1.688993	-3.251750	-80.369682
18328		1.629913	-3.198675	-80.333902
18329		1.532655	-3.148539	-80.286593
18330		1.444513	-3.116823	-80.217485
18331		1.391204	-3.075597	-80.131864
18332		1.419901	-3.037649	-80.035333
18333		1.535131	-2.984479	-79.931716
18334		1.680979	-2.901621	-79.828300
18335		1.792371	-2.818568	-79.724712
18336		1.824732	-2.753562	-79.624816
18337		1.747962	-2.709319	-79.525860
18338		1.607721	-2.682497	-79.426823
18339		1.458679	-2.672458	-79.325094
18340		1.367709	-2.662504	-79.218312
18341		1.380420	-2.641811	-79.106556
18342		1.472280	-2.604318	-78.989635
18343		1.594117	-2.560017	-78.868204
18344		1.711372	-2.532853	-78.740514
18345		1.791021	-2.521132	-78.609662
18346		1.835162	-2.527819	-78.472243
18347		1.874963	-2.554700	-78.326066
18348		1.940481	-2.575579	-78.165637
18349		2.024162	-2.580618	-77.999009
18350		2.145743	-2.583825	-77.819742
18351		2.277584	-2.578259	-77.629955
18352		2.436540	-2.588805	-77.428742
18353		2.645145	-2.605269	-77.210372
18354		2.916196	-2.619854	-76.978014
18355		3.238855	-2.632118	-76.723214
18356		3.571569	-2.616977	-76.446133
18357		3.838584	-2.591667	-76.142796
18358		4.012440	-2.560174	-75.820171
18359		4.064515	-2.527551	-75.480840
18360		3.995591	-2.521867	-75.133931
18361		3.829826	-2.555421	-74.781986
18362		3.626191	-2.604183	-74.426999
18363		3.421260	-2.671009	-74.068495
18364		3.294024	-2.744632	-73.693793
18365		3.249832	-2.781206	-73.284638
18366		3.290276	-2.800435	-72.836480
18367		3.405428	-2.829588	-72.345215
18368		3.586727	-2.855785	-71.817762
18369		3.776685	-2.892346	-71.271525
18370		3.985530	-2.958382	-70.720961
18371		4.206315	-3.025108	-70.170938
18372		4.435184	-3.069742	-69.624651
18373		4.645129	-3.128441	-69.064203
18374		4.826960	-3.167960	-68.476973
18375		4.929260	-3.203020	-67.865725
18376		4.965448	-3.265117	-67.230119
18377		4.922518	-3.325324	-66.576846
18378		4.830585	-3.401179	-65.923190
18379		4.710090	-3.478138	-65.267922
18380		4.597022	-3.571433	-64.622413
18381		4.529102	-3.685864	-63.966662
18382		4.546992	-3.783893	-63.294358
18383		4.606213	-3.849678	-62.601389
18384		4.681847	-3.895251	-61.891227
18385		4.725400	-3.931182	-61.166126
18386		4.716948	-3.969122	-60.426010
18387		4.640603	-4.051941	-59.669061
18388		4.523103	-4.159149	-58.906916
18389		4.349277	-4.279653	-58.140585
18390		4.120059	-4.404441	-57.369619
18391		3.824691	-4.526131	-56.595264
18392		3.513775	-4.638396	-55.810387
18393		3.232954	-4.751359	-55.014283
18394		3.054990	-4.862295	-54.212481
18395		2.992897	-4.942427	-53.402676
18396		3.011018	-5.020641	-52.601218
18397		3.072553	-5.134756	-51.789354
18398		3.146460	-5.203701	-50.977636
18399		3.178782	-5.264448	-50.168566
18400		3.192288	-5.330659	-49.347271
18401		3.188151	-5.376384	-48.520174
18402		3.191495	-5.421385	-47.684989
18403		3.214766	-5.466206	-46.841872
18404		3.272033	-5.499564	-46.002530
18405		3.321441	-5.547658	-45.171698
18406		3.356882	-5.593093	-44.341957
18407		3.317665	-5.606325	-43.509191
18408		3.209589	-5.615106	-42.671046
18409		3.057842	-5.621319	-41.817716
18410		2.897556	-5.619999	-40.952741
18411		2.727427	-5.615365	-40.076814
18412		2.609580	-5.623887	-39.212768
18413		2.537080	-5.635714	-38.360656
18414		2.521691	-5.657558	-37.533881
18415		2.521003	-5.672182	-36.718061
18416		2.526329	-5.679309	-35.915459
18417		2.506347	-5.676874	-35.109071
18418		2.461534	-5.653195	-34.295438
18419		2.356000	-5.626291	-33.468569
18420		2.233317	-5.611734	-32.634130
18421		2.107275	-5.608924	-31.789180
18422		2.033808	-5.614905	-30.951663
18423		2.041448	-5.619333	-30.114504
18424		2.116031	-5.617097	-29.277527
18425		2.171992	-5.587889	-28.449473
18426		2.184595	-5.563709	-27.625310
18427		2.123470	-5.547587	-26.796005
18428		2.009540	-5.540102	-25.961725
18429		1.861241	-5.535806	-25.113475
18430		1.739694	-5.545858	-24.259072
18431		1.682134	-5.559854	-23.394473
18432		1.691997	-5.561436	-22.532028
18433		1.732311	-5.570365	-21.671163
18434		1.784062	-5.567863	-20.812057
18435		1.800829	-5.555108	-19.955520
18436		1.785900	-5.559385	-19.095184
18437		1.761332	-5.581156	-18.222686
18438		1.769713	-5.607178	-17.341696
18439		1.812876	-5.624749	-16.457388
18440		1.926520	-5.642992	-15.580120
18441		2.093955	-5.643277	-14.720472
18442		2.263047	-5.632433	-13.880042
18443		2.378533	-5.628214	-13.058781
18444		2.424073	-5.637023	-12.246634
18445		2.369249	-5.649311	-11.448197
18446		2.251190	-5.682167	-10.663735
18447		2.100575	-5.720871	-9.893557
18448		2.002226	-5.768588	-9.143674
18449		1.997339	-5.804959	-8.411859
18450		2.110710	-5.832942	-7.700223
18451		2.305943	-5.865171	-7.002834
18452		2.531497	-5.885628	-6.324431
18453		2.707414	-5.913382	-5.656131
18454		2.809588	-5.948395	-4.998874
18455		2.826374	-5.999556	-4.349408
18456		2.789308	-6.058426	-3.705321
18457		2.716763	-6.126922	-3.065472
18458		2.638506	-6.182974	-2.432524
18459		2.566512	-6.233225	-1.804601
18460		2.491019	-6.276127	-1.181773
18461		2.386438	-6.306671	-0.556061
18462		2.261226	-6.324790	0.063541
18463		2.106148	-6.339030	0.686103
18464		1.946247	-6.354026	1.307410
18465		1.766264	-6.365289	1.933483
18466		1.561749	-6.371661	2.561440
18467		1.337791	-6.381174	3.197304
18468		1.132640	-6.386954	3.842067
18469		0.951183	-6.392306	4.498206
18470		0.806229	-6.390130	5.158881
18471		0.679574	-6.391965	5.819883
18472		0.568126	-6.416821	6.467471
18473		0.453460	-6.446120	7.093586
18474		0.349537	-6.485519	7.692877
18475		0.266120	-6.513995	8.270883
18476		0.211887	-6.534482	8.831710
18477		0.178159	-6.559413	9.376384
18478		0.162294	-6.584678	9.903468
18479		0.158710	-6.611422	10.404362
18480		0.188603	-6.640173	10.873397
18481		0.251474	-6.667886	11.312272
18482		0.333494	-6.695947	11.719052
18483		0.427050	-6.722253	12.087999
18484		0.502526	-6.744346	12.426276
18485		0.539851	-6.770984	12.732381
18486		0.560793	-6.787123	13.006442
18487		0.555810	-6.794982	13.251027
18488		0.519417	-6.809276	13.469448
18489		0.464302	-6.824460	13.664867
18490		0.398801	-6.837137	13.838325
18491		0.340188	-6.855553	13.990292
18492		0.315182	-6.863073	14.118141
18493		0.318137	-6.846503	14.217553
18494		0.321963	-6.825482	14.285408
18495		0.316677	-6.808796	14.323269
18496		0.283737	-6.800098	14.334916
18497		0.233303	-6.797023	14.327613
18498		0.180366	-6.797655	14.304519
18499		0.144290	-6.795566	14.268605
18500		0.141202	-6.786503	14.221773
18501		0.163211	-6.762427	14.165842
18502		0.192985	-6.745639	14.102764
18503		0.224371	-6.733023	14.031288
18504		0.261756	-6.724403	13.953216
18505		0.319413	-6.718856	13.862883
18506		0.408242	-6.711826	13.760422
18507		0.523734	-6.693547	13.638746
18508		0.648749	-6.667950	13.498213
18509		0.775655	-6.629721	13.334317
18510		0.889279	-6.593788	13.153281
18511		0.978704	-6.557217	12.954296
18512		1.036739	-6.521304	12.736233
18513		1.072938	-6.490357	12.505317
18514		1.096632	-6.452896	12.266303
18515		1.116273	-6.405018	12.023618
18516		1.132206	-6.358634	11.785217
18517		1.140427	-6.316787	11.548729
18518		1.116678	-6.272997	11.314391
18519		1.063121	-6.243876	11.074618
18520		0.980778	-6.218496	10.825794
18521		0.882314	-6.198127	10.568863
18522		0.771489	-6.189024	10.296583
18523		0.677626	-6.178776	10.010754
18524		0.614937	-6.161544	9.703319
18525		0.582423	-6.138178	9.373476
18526		0.568109	-6.117310	9.012266
18527		0.565680	-6.100339	8.625227
18528		0.558023	-6.095271	8.214607
18529		0.555909	-6.095677	7.786626
18530		0.548783	-6.094015	7.351361
18531		0.546810	-6.093667	6.909897
18532		0.544200	-6.093333	6.471680
18533		0.544938	-6.095406	6.032838
18534		0.536861	-6.094628	5.588554
18535		0.538412	-6.096312	5.134555
18536		0.541419	-6.097646	4.661188
18537		0.552302	-6.094598	4.164046
18538		0.557611	-6.095911	3.645226
18539		0.556035	-6.092338	3.108208
18540		0.521635	-6.086468	2.563578
18541		0.471973	-6.082088	2.026200
18542		0.399037	-6.077061	1.503389
18543		0.335142	-6.069170	0.991036
18544		0.283474	-6.045674	0.483262
18545		0.264012	-6.018273	-0.034029
18546		0.250000	-5.968448	-0.580078
18547		0.223175	-5.920152	-1.160877
18548		0.165664	-5.883655	-1.777854
18549		0.085731	-5.837587	-2.424941
18550		-0.009764	-5.792146	-3.087958
18551		-0.078799	-5.744184	-3.761702
18552		-0.131759	-5.668723	-4.435245
18553		-0.154110	-5.590574	-5.111287
18554		-0.160096	-5.511130	-5.790406
18555		-0.167387	-5.426945	-6.481592
18556		-0.216814	-5.361682	-7.182048
18557		-0.298614	-5.308143	-7.889379
18558		-0.435440	-5.257924	-8.600022
18559		-0.605508	-5.213509	-9.310276
18560		-0.816123	-5.168152	-10.015393
18561		-1.034494	-5.137240	-10.719317
18562		-1.236626	-5.120486	-11.416541
18563		-1.392423	-5.105395	-12.111597
18564		-1.528920	-5.076966	-12.811383
18565		-1.646578	-5.050248	-13.515405
18566		-1.775303	-5.027890	-14.226288
18567		-1.921933	-5.018984	-14.944465
18568		-2.101871	-5.023802	-15.673678
18569		-2.291674	-5.043388	-16.407712
18570		-2.485671	-5.062746	-17.149081
18571		-2.653574	-5.066919	-17.893935
18572		-2.791647	-5.048737	-18.629438
18573		-2.919402	-5.006783	-19.359711
18574		-3.081439	-4.968419	-20.083707
18575		-3.293261	-4.938756	-20.805188
18576		-3.576078	-4.922678	-21.536996
18577		-3.891576	-4.932621	-22.277748
18578		-4.187881	-4.955267	-23.027311
18579		-4.425320	-4.962157	-23.781112
18580		-4.618597	-4.956988	-24.535681
18581		-4.761059	-4.947141	-25.279203
18582		-4.866481	-4.931807	-26.016890
18583		-4.933382	-4.914606	-26.739721
18584		-4.971928	-4.887381	-27.456403
18585		-4.954063	-4.870622	-28.169349
18586		-4.865485	-4.849236	-28.873936
18587		-4.725926	-4.780497	-29.587290
18588		-4.600410	-4.675894	-30.302472
18589		-4.531588	-4.575649	-31.014061
18590		-4.589577	-4.496563	-31.719521
18591		-4.780241	-4.460458	-32.432028
18592		-5.047425	-4.473602	-33.143460
18593		-5.262113	-4.526428	-33.861855
18594		-5.393400	-4.527143	-34.591256
18595		-5.457195	-4.467505	-35.349664
18596		-5.513034	-4.414694	-36.120797
18597		-5.635129	-4.388688	-36.902020
18598		-5.863151	-4.402249	-37.692371
18599		-6.126853	-4.460612	-38.488526
18600		-6.329103	-4.578367	-39.293327
18601		-6.350617	-4.687336	-40.112136
18602		-6.238202	-4.728565	-40.954067
18603		-6.058955	-4.737855	-41.810377
18604		-5.881122	-4.766835	-42.662914
18605		-5.748544	-4.821573	-43.507950
18606		-5.693716	-4.890174	-44.341062
18607		-5.618096	-4.988177	-45.167535
18608		-5.433370	-5.106911	-45.997696
18609		-5.071784	-5.176525	-46.827582
18610		-4.702249	-5.078201	-47.692333
18611		-4.479141	-4.994887	-48.558656
18612		-4.474842	-4.982065	-49.405932
18613		-4.741250	-4.993199	-50.255969
18614		-5.285545	-5.060430	-51.094815
18615		-5.927770	-5.202405	-51.926636
18616		-6.465383	-5.355548	-52.759010
18617		-6.765642	-5.431227	-53.595544
18618		-6.904834	-5.393022	-54.442725
18619		-6.941851	-5.364430	-55.266154
18620		-6.932804	-5.380976	-56.043925
18621		-7.004454	-5.377864	-56.797440
18622		-7.143812	-5.412197	-57.523583
18623		-7.222861	-5.483083	-58.228380
18624		-7.196693	-5.526739	-58.915995
18625		-7.044638	-5.506020	-59.603099
18626		-6.760319	-5.456614	-60.265631
18627		-6.373067	-5.389107	-60.905389
18628		-5.969862	-5.294070	-61.522806
18629		-5.608323	-5.216251	-62.120621
18630		-5.310771	-5.182810	-62.705967
18631		-5.048783	-5.157855	-63.289355
18632		-4.855851	-5.081320	-63.881565
18633		-4.730198	-4.976493	-64.483056
18634		-4.692328	-4.891987	-65.077685
18635		-4.741427	-4.861982	-65.665003
18636		-4.874475	-4.838373	-66.247137
18637		-5.018396	-4.836057	-66.827262
18638		-5.076331	-4.859347	-67.396979
18639		-4.978750	-4.844409	-67.960798
18640		-4.783361	-4.754344	-68.512988
18641		-4.553820	-4.672361	-69.032655
18642		-4.344677	-4.617952	-69.519653
18643		-4.237016	-4.571506	-69.986889
18644		-4.202884	-4.568800	-70.445038
18645		-4.135675	-4.598803	-70.896368
18646		-3.982012	-4.640660	-71.346231
18647		-3.702898	-4.654647	-71.780450
18648		-3.311047	-4.617456	-72.196303
18649		-2.837002	-4.563199	-72.577425
18650		-2.353848	-4.492732	-72.927899
18651		-1.949260	-4.441611	-73.247890
18652		-1.683230	-4.411485	-73.551366
18653		-1.551532	-4.423038	-73.847302
18654		-1.504376	-4.463819	-74.137598
18655		-1.488057	-4.486950	-74.431444
18656		-1.452567	-4.495725	-74.712825
18657		-1.370651	-4.500565	-74.966960
18658		-1.260045	-4.490718	-75.185813
18659		-1.146834	-4.479161	-75.367807
18660		-1.069136	-4.462896	-75.533177
18661		-1.036850	-4.465671	-75.686404
18662		-1.031118	-4.478266	-75.832916
18663		-1.029061	-4.490230	-75.977533
18664		-0.995462	-4.497365	-76.114156
18665		-0.932026	-4.495749	-76.228321
18666		-0.864091	-4.495092	-76.319190
18667		-0.809256	-4.480444	-76.386044
18668		-0.755706	-4.472747	-76.436166
18669		-0.683573	-4.470113	-76.467901
18670		-0.576023	-4.456908	-76.494751
18671		-0.438162	-4.427032	-76.517742
18672		-0.292933	-4.383781	-76.536686
18673		-0.176892	-4.339622	-76.542856
18674		-0.128045	-4.302506	-76.540134
18675		-0.147844	-4.262150	-76.532130
18676		-0.224469	-4.218444	-76.522290
18677		-0.341071	-4.190758	-76.502655
18678		-0.448394	-4.169374	-76.472479
18679		-0.514645	-4.129340	-76.427868
18680		-0.531670	-4.081889	-76.370681
18681		-0.503075	-4.017497	-76.305099
18682		-0.472620	-3.939845	-76.232709
18683		-0.481650	-3.876775	-76.159794
18684		-0.525467	-3.829494	-76.086553
18685		-0.596638	-3.784260	-76.011522
18686		-0.654361	-3.745258	-75.928828
18687		-0.667328	-3.695154	-75.830811
18688		-0.626825	-3.631780	-75.718262
18689		-0.564217	-3.555135	-75.589881
18690		-0.506970	-3.467663	-75.458749
18691		-0.490702	-3.389963	-75.337393
18692		-0.519495	-3.336465	-75.212768
18693		-0.578796	-3.301621	-75.086545
18694		-0.639784	-3.279375	-74.952060
18695		-0.680837	-3.249802	-74.805119
18696		-0.685699	-3.199262	-74.646845
18697		-0.660557	-3.144066	-74.482902
18698		-0.625594	-3.090841	-74.320557
18699		-0.628611	-3.046700	-74.166326
18700		-0.680972	-3.026686	-74.024077
18701		-0.775693	-3.030689	-73.885807
18702		-0.877907	-3.058132	-73.739655
18703		-0.952802	-3.079684	-73.580688
18704		-0.974385	-3.085627	-73.400789
18705		-0.958323	-3.087601	-73.201771
18706		-0.904774	-3.091570	-72.991864
18707		-0.841096	-3.089910	-72.780263
18708		-0.779986	-3.087003	-72.576783
18709		-0.736325	-3.114088	-72.372574
18710		-0.700921	-3.161818	-72.158855
18711		-0.682191	-3.211645	-71.930665
18712		-0.654683	-3.258712	-71.684183
18713		-0.603184	-3.284635	-71.414435
18714		-0.521919	-3.290993	-71.127428
18715		-0.442063	-3.281126	-70.822751
18716		-0.376818	-3.288400	-70.508931
18717		-0.321813	-3.333087	-70.177661
18718		-0.276034	-3.366033	-69.832230
18719		-0.243779	-3.408069	-69.472990
18720		-0.194873	-3.461051	-69.088864
18721		-0.170375	-3.481847	-68.675979
18722		-0.189653	-3.504555	-68.234698
18723		-0.257064	-3.551400	-67.771643
18724		-0.357042	-3.596123	-67.292342
18725		-0.481663	-3.644359	-66.801404
18726		-0.577705	-3.714544	-66.298401
18727		-0.627099	-3.775800	-65.782427
18728		-0.622244	-3.820980	-65.247986
18729		-0.582254	-3.854131	-64.697715
18730		-0.523360	-3.879383	-64.123251
18731		-0.473896	-3.909719	-63.530581
18732		-0.405645	-3.940580	-62.931523
18733		-0.303081	-3.968374	-62.338301
18734		-0.132404	-3.979434	-61.754267
18735		0.067160	-3.982712	-61.171346
18736		0.281087	-4.024031	-60.574421
18737		0.437131	-4.030056	-59.958842
18738		0.504535	-4.021976	-59.328188
18739		0.477822	-4.022591	-58.675254
18740		0.388313	-4.022297	-57.997122
18741		0.260104	-4.025924	-57.298993
18742		0.156164	-4.039746	-56.594540
18743		0.070567	-4.050821	-55.891064
18744		0.035226	-4.076242	-55.193260
18745		0.062841	-4.105555	-54.485177
18746		0.124607	-4.098392	-53.773185
18747		0.183855	-4.086521	-53.048174
18748		0.240448	-4.079907	-52.306802
18749		0.282320	-4.075131	-51.554972
18750		0.361704	-4.078747	-50.799413
18751		0.503046	-4.067180	-50.045420
18752		0.710019	-4.053747	-49.295338
18753		0.934699	-4.046014	-48.547542
18754		1.147700	-4.040559	-47.798403
18755		1.305550	-4.020931	-47.050949
18756		1.392667	-3.996985	-46.302541
18757		1.383457	-3.968980	-45.542841
18758		1.309822	-3.946444	-44.776182
18759		1.209118	-3.935270	-44.003562
18760		1.158452	-3.932085	-43.235552
18761		1.204108	-3.905023	-42.480738
18762		1.369638	-3.859030	-41.742555
18763		1.603752	-3.807582	-41.015452
18764		1.854640	-3.741426	-40.293989
18765		2.038056	-3.658392	-39.574951
18766		2.135719	-3.589483	-38.846445
18767		2.147721	-3.533806	-38.096779
18768		2.092461	-3.478998	-37.318101
18769		1.995909	-3.425960	-36.515948
18770		1.925775	-3.385730	-35.700717
18771		1.884680	-3.331309	-34.882806
18772		1.874108	-3.269182	-34.070326
18773		1.881727	-3.219002	-33.263360
18774		1.891139	-3.177680	-32.462843
18775		1.849468	-3.138245	-31.665190
18776		1.796204	-3.107155	-30.872715
18777		1.736993	-3.093022	-30.080383
18778		1.717999	-3.086865	-29.281808
18779		1.731228	-3.073514	-28.475461
18780		1.785248	-3.060885	-27.668979
18781		1.855286	-3.048026	-26.865534
18782		1.925894	-3.043015	-26.064409
18783		1.960298	-3.034182	-25.265069
18784		1.951847	-3.030726	-24.464113
18785		1.894413	-3.042371	-23.664572
18786		1.821770	-3.070924	-22.865464
18787		1.735696	-3.096750	-22.073691
18788		1.678501	-3.127132	-21.293255
18789		1.674178	-3.153549	-20.521711
18790		1.739282	-3.174969	-19.760300
18791		1.871567	-3.203397	-18.994524
18792		2.050956	-3.219939	-18.224236
18793		2.220303	-3.242770	-17.454198
18794		2.363445	-3.271913	-16.690957
18795		2.439916	-3.293987	-15.937729
18796		2.453993	-3.324023	-15.195583
18797		2.407222	-3.369636	-14.455066
18798		2.315714	-3.426752	-13.722018
18799		2.190102	-3.495388	-12.992506
18800		2.060143	-3.574785	-12.273115
18801		1.967199	-3.658961	-11.564309
18802		1.967196	-3.728459	-10.866234
18803		2.044431	-3.771352	-10.174949
18804		2.167297	-3.801780	-9.493500
18805		2.291485	-3.844857	-8.813288
18806		2.388213	-3.897970	-8.142348
18807		2.447055	-3.969042	-7.484274
18808		2.517903	-4.055858	-6.843495
18809		2.625855	-4.138199	-6.221674
18810		2.802859	-4.207308	-5.618368
18811		3.051105	-4.265269	-5.023127
18812		3.334938	-4.311178	-4.431853
18813		3.589394	-4.342161	-3.840763
18814		3.774570	-4.382690	-3.253658
18815		3.855500	-4.430403	-2.666798
18816		3.845120	-4.480342	-2.081664
18817		3.767085	-4.538260	-1.496398
18818		3.663783	-4.607980	-0.907754
18819		3.562102	-4.687161	-0.317193
18820		3.491705	-4.762284	0.277844
18821		3.450161	-4.838109	0.876371
18822		3.439976	-4.906153	1.471460
18823		3.439666	-4.958795	2.065005
18824		3.425425	-5.006707	2.654536
18825		3.379494	-5.057768	3.240505
18826		3.317217	-5.112543	3.819486
18827		3.233312	-5.169929	4.385314
18828		3.148430	-5.224602	4.930573
18829		3.067490	-5.281943	5.449463
18830		3.011940	-5.340865	5.949289
18831		3.000027	-5.404025	6.436403
18832		3.056245	-5.462980	6.912966
18833		3.166056	-5.509227	7.377972
18834		3.313110	-5.553106	7.825292
18835		3.470956	-5.596783	8.253814
18836		3.625312	-5.640832	8.668191
18837		3.746689	-5.686123	9.069103
18838		3.827016	-5.732205	9.447468
18839		3.863630	-5.777656	9.802523
18840		3.859757	-5.819942	10.133446
18841		3.824186	-5.852375	10.442648
18842		3.780544	-5.877331	10.736871
18843		3.733089	-5.894859	11.017053
18844		3.687586	-5.905008	11.285811
18845		3.649885	-5.908793	11.537786
18846		3.611854	-5.911579	11.768009
18847		3.571809	-5.911909	11.970271
18848		3.538927	-5.905373	12.141320
18849		3.523054	-5.892802	12.278285
18850		3.517891	-5.873233	12.386833
18851		3.517376	-5.848096	12.475610
18852		3.517407	-5.825958	12.547058
18853		3.520389	-5.808312	12.605995
18854		3.526585	-5.783777	12.654173
18855		3.533874	-5.752656	12.691861
18856		3.533699	-5.719612	12.716667
18857		3.520930	-5.681562	12.726010
18858		3.489354	-5.645636	12.719882
18859		3.457232	-5.613616	12.701917
18860		3.429901	-5.582690	12.672237
18861		3.415748	-5.544654	12.628967
18862		3.409553	-5.507010	12.581424
18863		3.406406	-5.465926	12.526521
18864		3.388086	-5.424065	12.465061
18865		3.358651	-5.387725	12.395218
18866		3.330527	-5.357274	12.315306
18867		3.320336	-5.326508	12.223001
18868		3.339987	-5.298373	12.113524
18869		3.386978	-5.265056	11.988816
18870		3.445800	-5.228006	11.848378
18871		3.503934	-5.185454	11.688385
18872		3.540707	-5.139595	11.511102
18873		3.554128	-5.097523	11.315860
18874		3.546685	-5.056428	11.105617
18875		3.532981	-5.019951	10.878116
18876		3.520942	-4.985845	10.636119
18877		3.514787	-4.942108	10.374982
18878		3.503988	-4.897419	10.098789
18879		3.484025	-4.850718	9.800674
18880		3.451032	-4.803393	9.483507
18881		3.415789	-4.760951	9.142331
18882		3.381680	-4.718252	8.782201
18883		3.356080	-4.675640	8.405327
18884		3.330622	-4.633891	8.011600
18885		3.315855	-4.595911	7.608492
18886		3.299813	-4.565410	7.201610
18887		3.283247	-4.537263	6.794307
18888		3.262471	-4.503365	6.386508
18889		3.249304	-4.466210	5.973170
18890		3.228324	-4.419515	5.547811
18891		3.176919	-4.358410	5.100416
18892		3.072758	-4.299337	4.627657
18893		2.916880	-4.247000	4.133133
18894		2.714352	-4.192623	3.616311
18895		2.512838	-4.138098	3.092305
18896		2.334954	-4.083780	2.572271
18897		2.201771	-4.024181	2.059184
18898		2.101683	-3.963162	1.554648
18899		2.015583	-3.888726	1.045296
18900		1.908307	-3.814197	0.528245
18901		1.774708	-3.756375	-0.008089
18902		1.594096	-3.705137	-0.559261
18903		1.417658	-3.665614	-1.120417
18904		1.270546	-3.629558	-1.687003
18905		1.181115	-3.581170	-2.258510
18906		1.148137	-3.524034	-2.832832
18907		1.156276	-3.460398	-3.411187
18908		1.155803	-3.379984	-4.004256
18909		1.103879	-3.310733	-4.619490
18910		0.976240	-3.271067	-5.250121
18911		0.796745	-3.251228	-5.889226
18912		0.602652	-3.242370	-6.526204
18913		0.475598	-3.246263	-7.152481
18914		0.441283	-3.228717	-7.768748
18915		0.469395	-3.186990	-8.381596
18916		0.522472	-3.164999	-9.001733
18917		0.588475	-3.147189	-9.628886
18918		0.621091	-3.134472	-10.272514
18919		0.636221	-3.138319	-10.922595
18920		0.631199	-3.139653	-11.582236
18921		0.603085	-3.118235	-12.253166
18922		0.542264	-3.104291	-12.928903
18923		0.462137	-3.091917	-13.609104
18924		0.360474	-3.092427	-14.281761
18925		0.260240	-3.106035	-14.945599
18926		0.161435	-3.128866	-15.595180
18927		0.098041	-3.152224	-16.226345
18928		0.065818	-3.155473	-16.835796
18929		0.040913	-3.140857	-17.434523
18930		-0.006531	-3.125822	-18.036885
18931		-0.068256	-3.109379	-18.658419
18932		-0.162129	-3.098264	-19.305295
18933		-0.278149	-3.089548	-19.976543
18934		-0.419236	-3.082597	-20.663149
18935		-0.572714	-3.059690	-21.355643
18936		-0.750414	-3.026388	-22.033017
18937		-0.942704	-2.983209	-22.688522
18938		-1.152830	-2.943553	-23.320728
18939		-1.346391	-2.908820	-23.934087
18940		-1.509529	-2.873682	-24.536635
18941		-1.628451	-2.823737	-25.143566
18942		-1.705471	-2.751566	-25.760326
18943		-1.774866	-2.663614	-26.398792
18944		-1.882974	-2.566154	-27.053638
18945		-2.026916	-2.473866	-27.731565
18946		-2.214431	-2.404107	-28.430438
18947		-2.400944	-2.360796	-29.152262
18948		-2.540960	-2.325002	-29.888676
18949		-2.612960	-2.270255	-30.638546
18950		-2.639073	-2.192685	-31.403065
18951		-2.637699	-2.131288	-32.164216
18952		-2.657224	-2.085917	-32.922400
18953		-2.703582	-2.058909	-33.681806
18954		-2.766947	-2.052811	-34.443244
18955		-2.798133	-2.066526	-35.209279
18956		-2.762900	-2.068066	-35.978211
18957		-2.659520	-2.026160	-36.748030
18958		-2.540075	-1.963574	-37.512958
18959		-2.458327	-1.908785	-38.266713
18960		-2.459429	-1.898548	-39.008427
18961		-2.493041	-1.930639	-39.747587
18962		-2.489692	-1.988600	-40.486591
18963		-2.427757	-2.023167	-41.237455
18964		-2.314178	-2.028526	-42.009720
18965		-2.183893	-2.033381	-42.788964
18966		-2.094695	-2.050303	-43.569952
18967		-2.047352	-2.079508	-44.348475
18968		-2.022220	-2.133729	-45.128400
18969		-1.948521	-2.203020	-45.922608
18970		-1.798498	-2.279215	-46.741904
18971		-1.547046	-2.352244	-47.583886
18972		-1.257928	-2.369525	-48.443743
18973		-1.026994	-2.340041	-49.315032
18974		-0.927977	-2.334260	-50.173143
18975		-0.980663	-2.367342	-51.008048
18976		-1.190322	-2.408212	-51.809356
18977		-1.469568	-2.464214	-52.571403
18978		-1.726108	-2.549935	-53.299395
18979		-1.840810	-2.668489	-54.015451
18980		-1.673375	-2.792478	-54.717702
18981		-1.270764	-2.794915	-55.442316
18982		-0.742658	-2.795537	-56.178854
18983		-0.154216	-2.815791	-56.922588
18984		0.346003	-2.833673	-57.670817
18985		0.738290	-2.881961	-58.410398
18986		1.072114	-2.950663	-59.140162
18987		1.403900	-3.023350	-59.866536
18988		1.778913	-3.083392	-60.590764
18989		2.177356	-3.078088	-61.322573
18990		2.547895	-3.087978	-62.062620
18991		2.856368	-3.091712	-62.805527
18992		3.021125	-3.073515	-63.554335
18993		3.058351	-3.092336	-64.303731
18994		3.016525	-3.141524	-65.046956
18995		2.948055	-3.193327	-65.787531
18996		2.907194	-3.250838	-66.516506
18997		2.891790	-3.255805	-67.243506
18998		2.856129	-3.260936	-67.973012
18999		2.790627	-3.263360	-68.702255
19000		2.642731	-3.269276	-69.436064
19001		2.448103	-3.306443	-70.169452
19002		2.241450	-3.346627	-70.902262
19003		2.078339	-3.403862	-71.628815
19004		2.008590	-3.451051	-72.350494
19005		2.036367	-3.473754	-73.062900
19006		2.106378	-3.439514	-73.770082
19007		2.165189	-3.411337	-74.459083
19008		2.135933	-3.392454	-75.129714
19009		2.015363	-3.387885	-75.797964
19010		1.868816	-3.409150	-76.462986
19011		1.793377	-3.417913	-77.126948
19012		1.813529	-3.379963	-77.784179
19013		1.947225	-3.326633	-78.421608
19014		2.112670	-3.238931	-79.019492
19015		2.204685	-3.123769	-79.590220
19016		2.179637	-3.075037	-80.132522
19017		2.048569	-3.054483	-80.669839
19018		1.865673	-3.042018	-81.206762
19019		1.746580	-3.047763	-81.751841
19020		1.751162	-3.028323	-82.301651
19021		1.911795	-2.975646	-82.860030
19022		2.190155	-2.883095	-83.422894
19023		2.522838	-2.778087	-83.990080
19024		2.833091	-2.677002	-84.552508
19025		3.059254	-2.595002	-85.114579
19026		3.180965	-2.544391	-85.680378
19027		3.234966	-2.527159	-86.241900
19028		3.279140	-2.516896	-86.788727
19029		3.393020	-2.493306	-87.318493
19030		3.612203	-2.420715	-87.821445
19031		3.911558	-2.319849	-88.302419
19032		4.238023	-2.213357	-88.765479
19033		4.544928	-2.132624	-89.208543
19034		4.817348	-2.077248	-89.627895
19035		5.091931	-2.036253	-90.030001
19036		5.352227	-1.941963	-90.391726
19037		5.525463	-1.814336	-90.736807
19038		5.579880	-1.715340	-91.049828
19039		5.488833	-1.620316	-91.339853
19040		5.251576	-1.555333	-91.612170
19041		4.923230	-1.521987	-91.866528
19042		4.585534	-1.497384	-92.098083
19043		4.317843	-1.493551	-92.301856
19044		4.186383	-1.496460	-92.472112
19045		4.242029	-1.462217	-92.600876
19046		4.440743	-1.377253	-92.686877
19047		4.707319	-1.294528	-92.733425
19048		4.944932	-1.216772	-92.749106
19049		5.089677	-1.159116	-92.742206
19050		5.151383	-1.129717	-92.721816
19051		5.178406	-1.107102	-92.694793
19052		5.210112	-1.080970	-92.666021
19053		5.268498	-1.046805	-92.638796
19054		5.359600	-0.989008	-92.610714
19055		5.472583	-0.930396	-92.570475
19056		5.609701	-0.874166	-92.516902
19057		5.771132	-0.812900	-92.440964
19058		5.953598	-0.747242	-92.346560
19059		6.142877	-0.682398	-92.241512
19060		6.308238	-0.606229	-92.123899
19061		6.386331	-0.509445	-91.997834
19062		6.344250	-0.430717	-91.869602
19063		6.203864	-0.389000	-91.724540
19064		5.990536	-0.349998	-91.567288
19065		5.718226	-0.321202	-91.400174
19066		5.421042	-0.303530	-91.218883
19067		5.120321	-0.298312	-91.028344
19068		4.882318	-0.305180	-90.819005
19069		4.723699	-0.291609	-90.593313
19070		4.662860	-0.283509	-90.361111
19071		4.705752	-0.269218	-90.131541
19072		4.827575	-0.254679	-89.912965
19073		4.985738	-0.249999	-89.714694
19074		5.170859	-0.250210	-89.535519
19075		5.320109	-0.250529	-89.370933
19076		5.396258	-0.251141	-89.208931
19077		5.385807	-0.262711	-89.038901
19078		5.300500	-0.284550	-88.857588
19079		5.180882	-0.317307	-88.668521
19080		5.095066	-0.340683	-88.475260
19081		5.065394	-0.354153	-88.296040
19082		5.117959	-0.367324	-88.134831
19083		5.212203	-0.364157	-87.988495
19084		5.287758	-0.358949	-87.857723
19085		5.293540	-0.363530	-87.731683
19086		5.211749	-0.373320	-87.604726
19087		5.053638	-0.394185	-87.465569
19088		4.869733	-0.416117	-87.310355
19089		4.687772	-0.430237	-87.136813
19090		4.574471	-0.460030	-86.941010
19091		4.552914	-0.479441	-86.724131
19092		4.600291	-0.489763	-86.481933
19093		4.661104	-0.491502	-86.217818
19094		4.688933	-0.501671	-85.929970
19095		4.640229	-0.529713	-85.628301
19096		4.541362	-0.576343	-85.313054
19097		4.418129	-0.617959	-84.985074
19098		4.314447	-0.676267	-84.644368
19099		4.274638	-0.759028	-84.273193
19100		4.332990	-0.823834	-83.872322
19101		4.442107	-0.861133	-83.430777
19102		4.564081	-0.884682	-82.953356
19103		4.637256	-0.918150	-82.447810
19104		4.656534	-0.966995	-81.929620
19105		4.653502	-1.021803	-81.407624
19106		4.675475	-1.050157	-80.880992
19107		4.719936	-1.108423	-80.348095
19108		4.814383	-1.170701	-79.795678
19109		4.924309	-1.207747	-79.220408
19110		5.023432	-1.224814	-78.624734
19111		5.077821	-1.242521	-78.006622
19112		5.073284	-1.266237	-77.367212
19113		4.993431	-1.299811	-76.715118
19114		4.873410	-1.356684	-76.052285
19115		4.747258	-1.414658	-75.383775
19116		4.679313	-1.469994	-74.705163
19117		4.665361	-1.505375	-74.010034
19118		4.649392	-1.533498	-73.301897
19119		4.559453	-1.574450	-72.579578
19120		4.378014	-1.637882	-71.838068
19121		4.110468	-1.722844	-71.084722
19122		3.806069	-1.819611	-70.327406
19123		3.532229	-1.922783	-69.572029
19124		3.413877	-2.016698	-68.824637
19125		3.505568	-2.077917	-68.080803
19126		3.768187	-2.126999	-67.340866
19127		4.093535	-2.195579	-66.582996
19128		4.388102	-2.232615	-65.817846
19129		4.545236	-2.289242	-65.038819
19130		4.570498	-2.384259	-64.239483
19131		4.485311	-2.486887	-63.409790
19132		4.362333	-2.595517	-62.565254
19133		4.235837	-2.702183	-61.720761
19134		4.183287	-2.804306	-60.888791
19135		4.199051	-2.872965	-60.074559
19136		4.259350	-2.937956	-59.279508
19137		4.298332	-3.013450	-58.492905
19138		4.295955	-3.087323	-57.704004
19139		4.223569	-3.160326	-56.902673
19140		4.109581	-3.237434	-56.080354
19141		3.956813	-3.297104	-55.231038
19142		3.803205	-3.343058	-54.362019
19143		3.647457	-3.384592	-53.485297
19144		3.484990	-3.429468	-52.610635
19145		3.293476	-3.498564	-51.748744
19146		3.087864	-3.594439	-50.893546
19147		2.885891	-3.678713	-50.042815
19148		2.741444	-3.754221	-49.196033
19149		2.671088	-3.810821	-48.341378
19150		2.682506	-3.842543	-47.482003
19151		2.743819	-3.874618	-46.613206
19152		2.854978	-3.905824	-45.741538
19153		3.002107	-3.939347	-44.871481
19154		3.188178	-3.983877	-44.006034
19155		3.369328	-4.013580	-43.142035
19156		3.520994	-4.023177	-42.273178
19157		3.608579	-4.036778	-41.391850
19158		3.650768	-4.058172	-40.494088
19159		3.674497	-4.078548	-39.585761
19160		3.746469	-4.108431	-38.668347
19161		3.886367	-4.132528	-37.748727
19162		4.090310	-4.140409	-36.835955
19163		4.307571	-4.140879	-35.934240
19164		4.496617	-4.157609	-35.039504
19165		4.581434	-4.168939	-34.148553
19166		4.573609	-4.203520	-33.258394
19167		4.510297	-4.256209	-32.369789
19168		4.441119	-4.303891	-31.479291
19169		4.410016	-4.343755	-30.588708
19170		4.455088	-4.390703	-29.692967
19171		4.528780	-4.433479	-28.796523
19172		4.603749	-4.476430	-27.905947
19173		4.651696	-4.533876	-27.022454
19174		4.651949	-4.585629	-26.139733
19175		4.574475	-4.628222	-25.266134
19176		4.441907	-4.687399	-24.396374
19177		4.273133	-4.755301	-23.527514
19178		4.110912	-4.821083	-22.661542
19179		3.991119	-4.896425	-21.793913
19180		3.973356	-4.974114	-20.939403
19181		4.031940	-5.032544	-20.088699
19182		4.139165	-5.068607	-19.258669
19183		4.260097	-5.098158	-18.443682
19184		4.379208	-5.126026	-17.647501
19185		4.494027	-5.158253	-16.858475
19186		4.631807	-5.187527	-16.089024
19187		4.792733	-5.217735	-15.329314
19188		4.995932	-5.246081	-14.587719
19189		5.245162	-5.260534	-13.858639
19190		5.502812	-5.258039	-13.135354
19191		5.732519	-5.252169	-12.410086
19192		5.923635	-5.234601	-11.685634
19193		6.034745	-5.205095	-10.958336
19194		6.054161	-5.175400	-10.230024
19195		5.972532	-5.156846	-9.500077
19196		5.824300	-5.157968	-8.770103
19197		5.629955	-5.154229	-8.034905
19198		5.441779	-5.146803	-7.290714
19199		5.280519	-5.125168	-6.537694
19200		5.134249	-5.090609	-5.776214
19201		4.996189	-5.075638	-5.009021
19202		4.868852	-5.064411	-4.239388
19203		4.739738	-5.059664	-3.481285
19204		4.647739	-5.063368	-2.733757
19205		4.584634	-5.077383	-2.004199
19206		4.540445	-5.087310	-1.288716
19207		4.499591	-5.088415	-0.595786
19208		4.476143	-5.103283	0.077414
19209		4.494096	-5.115195	0.727729
19210		4.558118	-5.110221	1.341444
19211		4.640662	-5.112097	1.926835
19212		4.724840	-5.110054	2.472018
19213		4.778611	-5.121394	2.988240
19214		4.823018	-5.145395	3.474283
19215		4.876320	-5.174757	3.949935
19216		4.945999	-5.194601	4.421904
19217		5.012641	-5.209807	4.892781
19218		5.068229	-5.231387	5.366216
19219		5.086544	-5.259320	5.838784
19220		5.072930	-5.293696	6.306664
19221		5.039813	-5.338111	6.760481
19222		5.004436	-5.383259	7.193399
19223		4.975201	-5.428707	7.602091
19224		4.957887	-5.468057	7.977455
19225		4.954631	-5.501915	8.322105
19226		4.955168	-5.528590	8.636691
19227		4.946299	-5.552738	8.924531
19228		4.933045	-5.568976	9.182892
19229		4.902925	-5.579920	9.415479
19230		4.864938	-5.591853	9.619246
19231		4.809803	-5.600338	9.789843
19232		4.758309	-5.610358	9.919429
19233		4.725119	-5.616182	10.017022
19234		4.705209	-5.621667	10.081417
19235		4.710507	-5.626441	10.121249
19236		4.741395	-5.634731	10.142862
19237		4.783583	-5.642727	10.158471
19238		4.839954	-5.651995	10.163916
19239		4.903759	-5.660587	10.166978
19240		4.945199	-5.664254	10.167026
19241		4.943806	-5.672398	10.155872
19242		4.894671	-5.686514	10.130480
19243		4.800494	-5.696996	10.081357
19244		4.676125	-5.704704	10.000855
19245		4.552432	-5.711719	9.894791
19246		4.434234	-5.711974	9.760705
19247		4.322382	-5.710858	9.602237
19248		4.218816	-5.717826	9.424595
19249		4.136610	-5.733415	9.232165
19250		4.084128	-5.752689	9.026008
19251		4.089096	-5.770146	8.812489
19252		4.140155	-5.789731	8.587357
19253		4.204686	-5.804221	8.348179
19254		4.271033	-5.822649	8.097035
19255		4.322452	-5.843871	7.832288
19256		4.349593	-5.867315	7.551156
19257		4.377134	-5.886405	7.256438
19258		4.400007	-5.892039	6.950159
19259		4.431317	-5.890002	6.630531
19260		4.471742	-5.872744	6.305633
19261		4.522534	-5.844262	5.973735
19262		4.546342	-5.808614	5.633126
19263		4.525682	-5.769959	5.282498
19264		4.421232	-5.728401	4.923191
19265		4.243787	-5.694949	4.560166
19266		4.032368	-5.666663	4.192230
19267		3.822669	-5.630708	3.828745
19268		3.645873	-5.577661	3.460221
19269		3.514095	-5.504592	3.073002
19270		3.379219	-5.429249	2.663473
19271		3.230227	-5.356699	2.224948
19272		3.051680	-5.283103	1.760803
19273		2.849232	-5.210691	1.274771
19274		2.638776	-5.137660	0.769132
19275		2.432596	-5.052822	0.251734
19276		2.223467	-4.973495	-0.279306
19277		2.028302	-4.896418	-0.818409
19278		1.846939	-4.827422	-1.370314
19279		1.699460	-4.776743	-1.935387
19280		1.604344	-4.737089	-2.509445
19281		1.587465	-4.706284	-3.087569
19282		1.630542	-4.675161	-3.667126
19283		1.726829	-4.642950	-4.243981
19284		1.821439	-4.604893	-4.819728
19285		1.884043	-4.575558	-5.399636
19286		1.880471	-4.552009	-5.984841
19287		1.805070	-4.536473	-6.578568
19288		1.657828	-4.531127	-7.178989
19289		1.477997	-4.536111	-7.785450
19290		1.285846	-4.536028	-8.389158
19291		1.111459	-4.535283	-8.986077
19292		0.934952	-4.529235	-9.578032
19293		0.747524	-4.516654	-10.170860
19294		0.515654	-4.517257	-10.763823
19295		0.259075	-4.524276	-11.361033
19296		0.005207	-4.533107	-11.961856
19297		-0.200306	-4.547234	-12.562989
19298		-0.321433	-4.557517	-13.165554
19299		-0.339847	-4.556637	-13.763969
19300		-0.304696	-4.545495	-14.366981
19301		-0.227357	-4.533039	-14.975018
19302		-0.145318	-4.517239	-15.589121
19303		-0.083212	-4.504565	-16.212258
19304		-0.055883	-4.496343	-16.842250
19305		-0.055918	-4.492188	-17.485887
19306		-0.105586	-4.475543	-18.144839
19307		-0.190186	-4.468995	-18.818069
19308		-0.293552	-4.486300	-19.492957
19309		-0.338941	-4.513245	-20.162282
19310		-0.267700	-4.542793	-20.817608
19311		-0.053586	-4.541188	-21.464127
19312		0.243341	-4.518574	-22.099841
19313		0.555364	-4.486270	-22.729334
19314		0.780787	-4.459270	-23.350400
19315		0.883703	-4.444217	-23.964355
19316		0.868775	-4.447453	-24.577306
19317		0.788369	-4.455166	-25.190939
19318		0.688406	-4.460355	-25.811867
19319		0.588533	-4.448786	-26.440195
19320		0.473762	-4.424516	-27.081215
19321		0.348131	-4.398251	-27.733740
19322		0.160767	-4.367097	-28.398967
19323		-0.093929	-4.350949	-29.072839
19324		-0.386778	-4.359770	-29.753574
19325		-0.664086	-4.378228	-30.433647
19326		-0.897839	-4.396709	-31.116912
19327		-1.046855	-4.414518	-31.799153
19328		-1.131882	-4.425471	-32.490627
19329		-1.176509	-4.431489	-33.196390
19330		-1.221128	-4.445879	-33.921695
19331		-1.253850	-4.481016	-34.667607
19332		-1.267983	-4.526509	-35.436995
19333		-1.231981	-4.579350	-36.223154
19334		-1.154925	-4.617569	-37.017526
19335		-1.078673	-4.629317	-37.818129
19336		-1.059074	-4.635873	-38.611694
19337		-1.114691	-4.643314	-39.395509
19338		-1.259931	-4.660811	-40.177310
19339		-1.432899	-4.689555	-40.960985
19340		-1.577912	-4.737501	-41.752761
19341		-1.666838	-4.768371	-42.553238
19342		-1.757342	-4.758130	-43.376391
19343		-1.900807	-4.760008	-44.211189
19344		-2.120789	-4.774297	-45.049209
19345		-2.387067	-4.794223	-45.885545
19346		-2.632208	-4.822935	-46.714434
19347		-2.781565	-4.864753	-47.537711
19348		-2.807890	-4.916212	-48.362836
19349		-2.716448	-4.948750	-49.195081
19350		-2.591405	-4.950782	-50.031832
19351		-2.496111	-4.946923	-50.873737
19352		-2.471595	-4.965227	-51.708366
19353		-2.514255	-4.987303	-52.531635
19354		-2.584618	-5.009627	-53.343873
19355		-2.606569	-5.032987	-54.145314
19356		-2.545080	-5.061103	-54.935888
19357		-2.367280	-5.084017	-55.722286
19358		-2.087100	-5.109996	-56.504421
19359		-1.706254	-5.156310	-57.285866
19360		-1.305752	-5.148540	-58.075147
19361		-0.973294	-5.120240	-58.869654
19362		-0.765923	-5.119657	-59.649168
19363		-0.684991	-5.152156	-60.403917
19364		-0.679712	-5.181380	-61.126227
19365		-0.656204	-5.217999	-61.832476
19366		-0.578644	-5.259019	-62.525860
19367		-0.459193	-5.267866	-63.234017
19368		-0.354759	-5.255712	-63.947230
19369		-0.353766	-5.208313	-64.677564
19370		-0.499943	-5.197021	-65.405359
19371		-0.754142	-5.213399	-66.116711
19372		-1.087360	-5.218878	-66.814111
19373		-1.397819	-5.239514	-67.493959
19374		-1.604697	-5.270895	-68.159537
19375		-1.679224	-5.292459	-68.815467
19376		-1.645321	-5.286142	-69.468298
19377		-1.551556	-5.255291	-70.125129
19378		-1.454806	-5.231234	-70.786001
19379		-1.368698	-5.228611	-71.444303
19380		-1.295663	-5.217352	-72.103782
19381		-1.209100	-5.212449	-72.777724
19382		-1.094760	-5.217711	-73.466387
19383		-0.920124	-5.226279	-74.185973
19384		-0.647300	-5.222058	-74.928828
19385		-0.305797	-5.158677	-75.692510
19386		0.037218	-5.094620	-76.462475
19387		0.388103	-5.050138	-77.223511
19388		0.681622	-5.008651	-77.984955
19389		0.923440	-4.963980	-78.743484
19390		1.152099	-4.950112	-79.499968
19391		1.401225	-4.920964	-80.264178
19392		1.648389	-4.885612	-81.026060
19393		1.917054	-4.842391	-81.783944
19394		2.179040	-4.795163	-82.530648
19395		2.438945	-4.736972	-83.264854
19396		2.668932	-4.684987	-83.978697
19397		2.855154	-4.631124	-84.677513
19398		2.994240	-4.577121	-85.353902
19399		3.097486	-4.540017	-86.019436
19400		3.190614	-4.518833	-86.667268
19401		3.292694	-4.478973	-87.289882
19402		3.379229	-4.411805	-87.885521
19403		3.462486	-4.359860	-88.447258
19404		3.516909	-4.309256	-88.973982
19405		3.540944	-4.268256	-89.462803
19406		3.540444	-4.226243	-89.922844
19407		3.528416	-4.196181	-90.354117
19408		3.533708	-4.184755	-90.759587
19409		3.581062	-4.158050	-91.129972
19410		3.665342	-4.117383	-91.467841
19411		3.789290	-4.073331	-91.769726
19412		3.948282	-4.030682	-92.029400
19413		4.150430	-3.997459	-92.261774
19414		4.427340	-3.962824	-92.469396
19415		4.766464	-3.909332	-92.664573
19416		5.155364	-3.868324	-92.851490
19417		5.565799	-3.804640	-93.019404
19418		5.932694	-3.709519	-93.173592
19419		6.203331	-3.630761	-93.309050
19420		6.328405	-3.560819	-93.425679
19421		6.306562	-3.517552	-93.522423
19422		6.190426	-3.488973	-93.598337
19423		6.035717	-3.469912	-93.661626
19424		5.915920	-3.443991	-93.703770
19425		5.857212	-3.390109	-93.731689
19426		5.878269	-3.333844	-93.748891
19427		5.962729	-3.268197	-93.754454
19428		6.041925	-3.192230	-93.761710
19429		6.101270	-3.134442	-93.769914
19430		6.151835	-3.086325	-93.777782
19431		6.201307	-3.049856	-93.778773
19432		6.286892	-3.019589	-93.770137
19433		6.380931	-2.959628	-93.746636
19434		6.457712	-2.913917	-93.711630
19435		6.512896	-2.874276	-93.665393
19436		6.537261	-2.831207	-93.617963
19437		6.545602	-2.807320	-93.572648
19438		6.559928	-2.795953	-93.526697
19439		6.578378	-2.788194	-93.485455
19440		6.623658	-2.798701	-93.440917
19441		6.680862	-2.806415	-93.382813
19442		6.729004	-2.810830	-93.314338
19443		6.754050	-2.821473	-93.246132
19444		6.754880	-2.834163	-93.176566
19445		6.731796	-2.839925	-93.112461
19446		6.689963	-2.845274	-93.058136
19447		6.632720	-2.864469	-93.006715
19448		6.575391	-2.889717	-92.948655
19449		6.526648	-2.913681	-92.877979
19450		6.513143	-2.933283	-92.785479
19451		6.534533	-2.945560	-92.673337
19452		6.581992	-2.947152	-92.554018
19453		6.643898	-2.938079	-92.432246
19454		6.709096	-2.932405	-92.316299
19455		6.765039	-2.936708	-92.202598
19456		6.820661	-2.944420	-92.091257
19457		6.879656	-2.953823	-91.975511
19458		6.947992	-2.963435	-91.849794
19459		7.011305	-2.965499	-91.706623
19460		7.074526	-2.971180	-91.548354
19461		7.136444	-2.972638	-91.364337
19462		7.210072	-2.967726	-91.163261
19463		7.285878	-2.982457	-90.954075
19464		7.356883	-3.006998	-90.747041
19465		7.402625	-3.041321	-90.545006
19466		7.425003	-3.088223	-90.340532
19467		7.418976	-3.134338	-90.123673
19468		7.409694	-3.197379	-89.878455
19469		7.407392	-3.267738	-89.602028
19470		7.418960	-3.325667	-89.294311
19471		7.436582	-3.392387	-88.960341
19472		7.472202	-3.470103	-88.610999
19473		7.504339	-3.527175	-88.250143
19474		7.520038	-3.585787	-87.889481
19475		7.519609	-3.658696	-87.529340
19476		7.514387	-3.718566	-87.166982
19477		7.513939	-3.781337	-86.794335
19478		7.561517	-3.855910	-86.403609
19479		7.632474	-3.918844	-85.983934
19480		7.697719	-3.980177	-85.533382
19481		7.731565	-4.043263	-85.060036
19482		7.694537	-4.106511	-84.564543
19483		7.604341	-4.175946	-84.059000
19484		7.529926	-4.236021	-83.553146
19485		7.473182	-4.272228	-83.050312
19486		7.429923	-4.307778	-82.555689
19487		7.376438	-4.372996	-82.051121
19488		7.282789	-4.438911	-81.531824
19489		7.129514	-4.505284	-80.990065
19490		6.932869	-4.549424	-80.428875
19491		6.714158	-4.611865	-79.840315
19492		6.527155	-4.673198	-79.230769
19493		6.390448	-4.721060	-78.608767
19494		6.352079	-4.755116	-77.975153
19495		6.390367	-4.788367	-77.338437
19496		6.476608	-4.828938	-76.687729
19497		6.534299	-4.842316	-76.021857
19498		6.514954	-4.861093	-75.340719
19499		6.397615	-4.903050	-74.646154
19500		6.214295	-4.952797	-73.941068
19501		6.035851	-5.024532	-73.246036
19502		5.952205	-5.100577	-72.566580
19503		5.982982	-5.148345	-71.909434
19504		6.131821	-5.187230	-71.266199
19505		6.357327	-5.235772	-70.618355
19506		6.598558	-5.274334	-69.956382
19507		6.766973	-5.293365	-69.275077
19508		6.822235	-5.316613	-68.577266
19509		6.745613	-5.365816	-67.868482
19510		6.612364	-5.433171	-67.157385
19511		6.493465	-5.507366	-66.466642
19512		6.465866	-5.561623	-65.797286
19513		6.520646	-5.592997	-65.148989
19514		6.586502	-5.630632	-64.507070
19515		6.566593	-5.666448	-63.857925
19516		6.450001	-5.711375	-63.187814
19517		6.263437	-5.771685	-62.488923
19518		6.064682	-5.834190	-61.760296
19519		5.898912	-5.903570	-61.004159
19520		5.810268	-5.974941	-60.246640
19521		5.789520	-6.045736	-59.495064
19522		5.846247	-6.119801	-58.752114
19523		5.919414	-6.188913	-58.004910
19524		5.949038	-6.259962	-57.248338
19525		5.900008	-6.331596	-56.471493
19526		5.809404	-6.417645	-55.666406
19527		5.684993	-6.498564	-54.830582
19528		5.586339	-6.577757	-53.970709
19529		5.543030	-6.654367	-53.098806
19530		5.554389	-6.720287	-52.234396
19531		5.558080	-6.768196	-51.386305
19532		5.509776	-6.817846	-50.556873
19533		5.356281	-6.856954	-49.737164
19534		5.129852	-6.888592	-48.931535
19535		4.890488	-6.922403	-48.128346
19536		4.710189	-6.952881	-47.321706
19537		4.609691	-6.971823	-46.512573
19538		4.616038	-6.977249	-45.708245
19539		4.690608	-6.973720	-44.902097
19540		4.773560	-6.967096	-44.090488
19541		4.804333	-6.982445	-43.259142
19542		4.797941	-6.986852	-42.414033
19543		4.776698	-6.997323	-41.554315
19544		4.784600	-7.001659	-40.681816
19545		4.811562	-6.983938	-39.803087
19546		4.860372	-6.970223	-38.929909
19547		4.905886	-6.964889	-38.067620
19548		4.914351	-6.945832	-37.222604
19549		4.860672	-6.940633	-36.395170
19550		4.779595	-6.954431	-35.582913
19551		4.708183	-6.966008	-34.772185
19552		4.703611	-6.972904	-33.961287
19553		4.756791	-6.957587	-33.145218
19554		4.853490	-6.932391	-32.330265
19555		4.927080	-6.904980	-31.514819
19556		4.978946	-6.887989	-30.704006
19557		5.020550	-6.865094	-29.894631
19558		5.072523	-6.857376	-29.079882
19559		5.157502	-6.852756	-28.257538
19560		5.312052	-6.853352	-27.438244
19561		5.477866	-6.815292	-26.626513
19562		5.607408	-6.772457	-25.832966
19563		5.659506	-6.741693	-25.055402
19564		5.651415	-6.722820	-24.287675
19565		5.568438	-6.699789	-23.531064
19566		5.448300	-6.692952	-22.789117
19567		5.319530	-6.709796	-22.062923
19568		5.217611	-6.725884	-21.347637
19569		5.122965	-6.711183	-20.640685
19570		5.044278	-6.706103	-19.940494
19571		4.963851	-6.711248	-19.251070
19572		4.883651	-6.717106	-18.575749
19573		4.806135	-6.736183	-17.918819
19574		4.770750	-6.769133	-17.277552
19575		4.796152	-6.814513	-16.649263
19576		4.883037	-6.850292	-16.027556
19577		5.018560	-6.860365	-15.411258
19578		5.179108	-6.846985	-14.794587
19579		5.312802	-6.838625	-14.169531
19580		5.429994	-6.835604	-13.533478
19581		5.520879	-6.826881	-12.881187
19582		5.589766	-6.818471	-12.221394
19583		5.636056	-6.798629	-11.558932
19584		5.674875	-6.764548	-10.904979
19585		5.697531	-6.723191	-10.255268
19586		5.726348	-6.690093	-9.604225
19587		5.764460	-6.653274	-8.949108
19588		5.821324	-6.624123	-8.288979
19589		5.883511	-6.585376	-7.624439
19590		5.933310	-6.548145	-6.963384
19591		5.962745	-6.522911	-6.305464
19592		5.984955	-6.506903	-5.647546
19593		6.003173	-6.505473	-4.984323
19594		6.054384	-6.510138	-4.327363
19595		6.156844	-6.522928	-3.679722
19596		6.298417	-6.540500	-3.052443
19597		6.456959	-6.537710	-2.446316
19598		6.599249	-6.535813	-1.863624
19599		6.700517	-6.540560	-1.298609
19600		6.763713	-6.541607	-0.738844
19601		6.789380	-6.539703	-0.183335
19602		6.788166	-6.550320	0.368419
19603		6.749192	-6.575251	0.909649
19604		6.689466	-6.603549	1.443208
19605		6.633301	-6.646309	1.965353
19606		6.611786	-6.691451	2.487166
19607		6.616492	-6.725839	3.006939
19608		6.628497	-6.752754	3.528918
19609		6.608476	-6.775878	4.053061
19610		6.542409	-6.801829	4.573741
19611		6.439395	-6.836301	5.087121
19612		6.323403	-6.876449	5.594459
19613		6.205448	-6.916921	6.087282
19614		6.106103	-6.950882	6.565749
19615		6.008743	-6.983848	7.022418
19616		5.913696	-7.012363	7.458092
19617		5.814034	-7.032739	7.873900
19618		5.693159	-7.055036	8.267355
19619		5.556682	-7.075304	8.635802
19620		5.419793	-7.092295	8.975233
19621		5.318048	-7.101725	9.287169
19622		5.252555	-7.104243	9.561736
19623		5.232668	-7.097029	9.794823
19624		5.244493	-7.076817	9.979767
19625		5.258170	-7.057403	10.116865
19626		5.260776	-7.041398	10.208586
19627		5.259713	-7.027978	10.265044
19628		5.270260	-7.016821	10.295224
19629		5.315052	-6.999909	10.305912
19630		5.398686	-6.976619	10.296801
19631		5.502912	-6.950849	10.268570
19632		5.612959	-6.926912	10.220583
19633		5.709679	-6.902647	10.151289
19634		5.779417	-6.876979	10.059910
19635		5.829193	-6.850573	9.950176
19636		5.854111	-6.823326	9.827816
19637		5.865915	-6.794225	9.690352
19638		5.878277	-6.762146	9.542314
19639		5.904995	-6.723576	9.387757
19640		5.949051	-6.683043	9.223475
19641		5.999441	-6.634814	9.043542
19642		6.030885	-6.582907	8.852890
19643		6.027569	-6.525300	8.645157
19644		5.987893	-6.475201	8.426137
19645		5.929805	-6.425709	8.196792
19646		5.868337	-6.366717	7.952307
19647		5.823630	-6.306007	7.694443
19648		5.806693	-6.247053	7.425143
19649		5.810443	-6.187617	7.144914
19650		5.815852	-6.134392	6.857382
19651		5.825095	-6.087752	6.566956
19652		5.822208	-6.041124	6.279329
19653		5.819576	-5.994367	5.992703
19654		5.820983	-5.944014	5.704584
19655		5.813610	-5.889591	5.409102
19656		5.781003	-5.829085	5.105462
19657		5.711092	-5.769567	4.784950
19658		5.593548	-5.716359	4.449355
19659		5.466782	-5.673071	4.090319
19660		5.374259	-5.627365	3.720108
19661		5.323052	-5.566617	3.324370
19662		5.313593	-5.507332	2.911328
19663		5.334368	-5.450009	2.482125
19664		5.343097	-5.392944	2.043514
19665		5.333354	-5.341256	1.596013
19666		5.304137	-5.296161	1.148092
19667		5.282434	-5.256043	0.699387
19668		5.286088	-5.215925	0.248963
19669		5.327314	-5.166685	-0.206619
19670		5.381343	-5.108533	-0.676213
19671		5.430214	-5.049413	-1.160231
19672		5.442363	-4.991678	-1.650023
19673		5.405180	-4.937551	-2.146251
19674		5.330292	-4.891425	-2.640617
19675		5.261349	-4.850495	-3.132630
19676		5.210036	-4.795394	-3.619349
19677		5.192172	-4.728670	-4.107996
19678		5.178064	-4.650207	-4.606194
19679		5.131566	-4.570014	-5.117151
19680		5.020651	-4.499902	-5.646864
19681		4.852625	-4.448315	-6.190838
19682		4.656914	-4.412802	-6.740446
19683		4.508353	-4.383021	-7.283839
19684		4.442190	-4.334100	-7.820890
19685		4.471349	-4.270558	-8.352212
19686		4.539723	-4.198733	-8.889341
19687		4.600199	-4.138078	-9.445185
19688		4.602726	-4.091216	-10.017504
19689		4.554445	-4.060158	-10.602595
19690		4.469241	-4.042809	-11.188432
19691		4.371172	-4.019032	-11.759891
19692		4.267287	-3.998062	-12.296626
19693		4.198321	-3.976007	-12.799155
19694		4.129399	-3.940604	-13.278046
19695		4.061308	-3.909088	-13.752047
19696		3.951143	-3.889934	-14.242696
19697		3.795120	-3.883490	-14.759807
19698		3.618875	-3.889554	-15.305985
19699		3.434400	-3.888462	-15.873577
19700		3.235605	-3.874534	-16.455587
19701		3.070965	-3.841467	-17.037594
19702		2.923754	-3.781747	-17.604680
19703		2.747827	-3.700560	-18.163590
19704		2.488054	-3.624657	-18.726237
19705		2.133540	-3.575052	-19.297068
19706		1.696728	-3.551493	-19.888140
19707		1.245965	-3.541018	-20.499635
19708		0.843544	-3.536737	-21.120861
19709		0.551052	-3.514351	-21.753205
19710		0.356013	-3.471091	-22.388658
19711		0.232918	-3.420688	-23.021048
19712		0.117498	-3.363453	-23.646074
19713		-0.006248	-3.311249	-24.270942
19714		-0.144379	-3.269886	-24.901614
19715		-0.293832	-3.226578	-25.543906
19716		-0.460528	-3.187544	-26.201737
19717		-0.639955	-3.142689	-26.876839
19718		-0.865959	-3.094364	-27.563959
19719		-1.097124	-3.055432	-28.258579
19720		-1.290270	-3.019139	-28.951367
19721		-1.394095	-2.985629	-29.632915
19722		-1.397636	-2.965944	-30.300923
19723		-1.302846	-2.939057	-30.957352
19724		-1.184381	-2.888968	-31.609652
19725		-1.106484	-2.847441	-32.257796
19726		-1.133932	-2.828858	-32.896996
19727		-1.254373	-2.827006	-33.531187
19728		-1.410011	-2.843641	-34.158126
19729		-1.511120	-2.871345	-34.780087
19730		-1.509027	-2.898418	-35.403528
19731		-1.382077	-2.910292	-36.036344
19732		-1.210803	-2.895713	-36.687115
19733		-1.064507	-2.876943	-37.354856
19734		-1.001085	-2.881193	-38.019000
19735		-1.031299	-2.890225	-38.678811
19736		-1.127585	-2.905876	-39.333876
19737		-1.198644	-2.923702	-39.980449
19738		-1.221370	-2.919338	-40.632392
19739		-1.167488	-2.911727	-41.291520
19740		-1.063516	-2.892830	-41.960012
19741		-0.958785	-2.865415	-42.634831
19742		-0.898761	-2.845891	-43.318334
19743		-0.907303	-2.830724	-43.992860
19744		-0.973999	-2.828216	-44.652766
19745		-1.023932	-2.837182	-45.293625
19746		-0.994404	-2.849200	-45.920355
19747		-0.808517	-2.871088	-46.543620
19748		-0.480584	-2.860889	-47.173875
19749		-0.099196	-2.818403	-47.823910
19750		0.226174	-2.783958	-48.491110
19751		0.395062	-2.746888	-49.167345
19752		0.347454	-2.735108	-49.840291
19753		0.166971	-2.751545	-50.498197
19754		-0.087029	-2.781622	-51.132631
19755		-0.300030	-2.826825	-51.760335
19756		-0.396662	-2.843666	-52.383240
19757		-0.413496	-2.824297	-53.024911
19758		-0.417754	-2.805773	-53.687979
19759		-0.457766	-2.807019	-54.376705
19760		-0.561531	-2.838397	-55.081892
19761		-0.662651	-2.889644	-55.790360
19762		-0.687301	-2.947612	-56.488498
19763		-0.588171	-3.000910	-57.169230
19764		-0.400266	-3.024021	-57.833048
19765		-0.169241	-3.020006	-58.485620
19766		0.035632	-3.032204	-59.120215
19767		0.181749	-3.063859	-59.740026
19768		0.284722	-3.111358	-60.344763
19769		0.420438	-3.190022	-60.932011
19770		0.645424	-3.286033	-61.503059
19771		0.931170	-3.336815	-62.064136
19772		1.192837	-3.344147	-62.620965
19773		1.366371	-3.375559	-63.166290
19774		1.407133	-3.436165	-63.702784
19775		1.351356	-3.508328	-64.235953
19776		1.303074	-3.593928	-64.768181
19777		1.337904	-3.677129	-65.297991
19778		1.461515	-3.748856	-65.821789
19779		1.643932	-3.768726	-66.342666
19780		1.780940	-3.743773	-66.864596
19781		1.778400	-3.738875	-67.383712
19782		1.601978	-3.761399	-67.900760
19783		1.300366	-3.797631	-68.427414
19784		0.984511	-3.857762	-68.957476
19785		0.763332	-3.907090	-69.486309
19786		0.656196	-3.938348	-70.017110
19787		0.652887	-3.956228	-70.549709
19788		0.659452	-3.943330	-71.094822
19789		0.603753	-3.944194	-71.646458
19790		0.480769	-3.979499	-72.203577
19791		0.358131	-4.030234	-72.752063
19792		0.315117	-4.083713	-73.289619
19793		0.429088	-4.129403	-73.811632
19794		0.685222	-4.148579	-74.325381
19795		1.039261	-4.142185	-74.830840
19796		1.424540	-4.119959	-75.338817
19797		1.771341	-4.123570	-75.853694
19798		2.043190	-4.155289	-76.376913
19799		2.274826	-4.209567	-76.916843
19800		2.537837	-4.283876	-77.460572
19801		2.884028	-4.343008	-78.011053
19802		3.348468	-4.387962	-78.558880
19803		3.911760	-4.378696	-79.100196
19804		4.490742	-4.321252	-79.628807
19805		5.006967	-4.260370	-80.151785
19806		5.383712	-4.190251	-80.658208
19807		5.568359	-4.137292	-81.183197
19808		5.603353	-4.114537	-81.710919
19809		5.564892	-4.096108	-82.249492
19810		5.509881	-4.087046	-82.794690
19811		5.510858	-4.051636	-83.331050
19812		5.543650	-3.970745	-83.862440
19813		5.603055	-3.886801	-84.377086
19814		5.652451	-3.782974	-84.870413
19815		5.656594	-3.682796	-85.341018
19816		5.588426	-3.597508	-85.791174
19817		5.431172	-3.537310	-86.229477
19818		5.197496	-3.502662	-86.662890
19819		4.944880	-3.506061	-87.089954
19820		4.747964	-3.518383	-87.507454
19821		4.681784	-3.501168	-87.911723
19822		4.719059	-3.388215	-88.286990
19823		4.781299	-3.266814	-88.627349
19824		4.818867	-3.170266	-88.928473
19825		4.780157	-3.078972	-89.199840
19826		4.657753	-3.010469	-89.458171
19827		4.522321	-2.958536	-89.713867
19828		4.410344	-2.889386	-89.967736
19829		4.321821	-2.807205	-90.216768
19830		4.245073	-2.715785	-90.443058
19831		4.138028	-2.626921	-90.642572
19832		4.004369	-2.563836	-90.810966
19833		3.833686	-2.512810	-90.949178
19834		3.647558	-2.477178	-91.057109
19835		3.499896	-2.444579	-91.142770
19836		3.437101	-2.415788	-91.200711
19837		3.463954	-2.368021	-91.235161
19838		3.556395	-2.294443	-91.259641
19839		3.669119	-2.216214	-91.260331
19840		3.743184	-2.141218	-91.246887
19841		3.734900	-2.081599	-91.221140
19842		3.668349	-2.039899	-91.194217
19843		3.581649	-1.997099	-91.167274
19844		3.499651	-1.952876	-91.148139
19845		3.446945	-1.909334	-91.133880
19846		3.421405	-1.861231	-91.126075
19847		3.403828	-1.822751	-91.120071
19848		3.409384	-1.790501	-91.117018
19849		3.449435	-1.764746	-91.110643
19850		3.544898	-1.737932	-91.102551
19851		3.702138	-1.713583	-91.088395
19852		3.917023	-1.684400	-91.075233
19853		4.161085	-1.654400	-91.063009
19854		4.391548	-1.605967	-91.046535
19855		4.572225	-1.565288	-91.024963
19856		4.715913	-1.533650	-90.994797
19857		4.838284	-1.503879	-90.947671
19858		4.950060	-1.474154	-90.882702
19859		5.046467	-1.450920	-90.801689
19860		5.131892	-1.443698	-90.689956
19861		5.160936	-1.408638	-90.546295
19862		5.095949	-1.395999	-90.381486
19863		4.963900	-1.410577	-90.189296
19864		4.795104	-1.434765	-89.972038
19865		4.626310	-1.461657	-89.737732
19866		4.484831	-1.490860	-89.487997
19867		4.382890	-1.526496	-89.225324
19868		4.321402	-1.570515	-88.949484
19869		4.264064	-1.608163	-88.650806
19870		4.216780	-1.645055	-88.346609
19871		4.228771	-1.700005	-88.028207
19872		4.314747	-1.747083	-87.704490
19873		4.451207	-1.783523	-87.373753
19874		4.633734	-1.825872	-87.036618
19875		4.809531	-1.873140	-86.690739
19876		4.936736	-1.907132	-86.323847
19877		4.970808	-1.934539	-85.940677
19878		4.937174	-1.987821	-85.527892
19879		4.856497	-2.040966	-85.088149
19880		4.772186	-2.089263	-84.629777
19881		4.737345	-2.130857	-84.156919
19882		4.781249	-2.161541	-83.678029
19883		4.853890	-2.179738	-83.188313
19884		4.908896	-2.182483	-82.691575
19885		4.903341	-2.223285	-82.181756
19886		4.837379	-2.275840	-81.659080
19887		4.710285	-2.332642	-81.120660
19888		4.584867	-2.402024	-80.570348
19889		4.487710	-2.471050	-80.012764
19890		4.455288	-2.520596	-79.454746
19891		4.522016	-2.546628	-78.897372
19892		4.691774	-2.551142	-78.339689
19893		4.895109	-2.551257	-77.779981
19894		5.107983	-2.569299	-77.230750
19895		5.300742	-2.593614	-76.678251
19896		5.456825	-2.623195	-76.131290
19897		5.573936	-2.664274	-75.584453
19898		5.653276	-2.701124	-75.039558
19899		5.697952	-2.746386	-74.500518
19900		5.755284	-2.791796	-73.965591
19901		5.846699	-2.819843	-73.426831
19902		6.012108	-2.849576	-72.883344
19903		6.246022	-2.873480	-72.325995
19904		6.487370	-2.886495	-71.760254
19905		6.648401	-2.895713	-71.193275
19906		6.711928	-2.925210	-70.630103
19907		6.661119	-2.966003	-70.074223
19908		6.546760	-3.014858	-69.526222
19909		6.422266	-3.069106	-68.981871
19910		6.347155	-3.121845	-68.439097
19911		6.363730	-3.159233	-67.880666
19912		6.490506	-3.188097	-67.302539
19913		6.651229	-3.194149	-66.697879
19914		6.763819	-3.186556	-66.076214
19915		6.782794	-3.214241	-65.439191
19916		6.726556	-3.272421	-64.786890
19917		6.651654	-3.337266	-64.115248
19918		6.631771	-3.407284	-63.441182
19919		6.693654	-3.465732	-62.763270
19920		6.847900	-3.507955	-62.090408
19921		7.035394	-3.524908	-61.423169
19922		7.196627	-3.525202	-60.767590
19923		7.295000	-3.539354	-60.123682
19924		7.332610	-3.560273	-59.490030
19925		7.328136	-3.581100	-58.858731
19926		7.349414	-3.612010	-58.234521
19927		7.411087	-3.640422	-57.610641
19928		7.529302	-3.656706	-56.986824
19929		7.675851	-3.648972	-56.364266
19930		7.829182	-3.651306	-55.745092
19931		7.938693	-3.637532	-55.122052
19932		7.981527	-3.626135	-54.495993
19933		7.944125	-3.635034	-53.866743
19934		7.873745	-3.657539	-53.235544
19935		7.805012	-3.679729	-52.607023
19936		7.763925	-3.696265	-51.977663
19937		7.753645	-3.705775	-51.354152
19938		7.783625	-3.721960	-50.738700
19939		7.808603	-3.725196	-50.129490
19940		7.809903	-3.729100	-49.530606
19941		7.791718	-3.742703	-48.938106
19942		7.768763	-3.762156	-48.344461
19943		7.759239	-3.785872	-47.747181
19944		7.806483	-3.812051	-47.144960
19945		7.892558	-3.834493	-46.536952
19946		8.000965	-3.857055	-45.925759
19947		8.106230	-3.875609	-45.315408
19948		8.173875	-3.879224	-44.707194
19949		8.172668	-3.886462	-44.099239
19950		8.118318	-3.908251	-43.491740
19951		8.015780	-3.946098	-42.880059
19952		7.921420	-3.991467	-42.269695
19953		7.856121	-4.040063	-41.663831
19954		7.837720	-4.090675	-41.070225
19955		7.848214	-4.129950	-40.480645
19956		7.850346	-4.154587	-39.894715
19957		7.778181	-4.191045	-39.307400
19958		7.616930	-4.238045	-38.719237
19959		7.364749	-4.301148	-38.124828
19960		7.062229	-4.380790	-37.525745
19961		6.775746	-4.471659	-36.922308
19962		6.577604	-4.555587	-36.315804
19963		6.499316	-4.621515	-35.709141
19964		6.534586	-4.667799	-35.109458
19965		6.590772	-4.698495	-34.522026
19966		6.619217	-4.737652	-33.950550
19967		6.602712	-4.798959	-33.390485
19968		6.559349	-4.866991	-32.830721
19969		6.522565	-4.927173	-32.263168
19970		6.526313	-4.990213	-31.681859
19971		6.570760	-5.045582	-31.087688
19972		6.680802	-5.089932	-30.488076
19973		6.844849	-5.119036	-29.888465
19974		7.050448	-5.136087	-29.299597
19975		7.255215	-5.145226	-28.721548
19976		7.457701	-5.164979	-28.146644
19977		7.622109	-5.183304	-27.566875
19978		7.755875	-5.205252	-26.985118
19979		7.885026	-5.241228	-26.394293
19980		8.033363	-5.290408	-25.793567
19981		8.175055	-5.323621	-25.183017
19982		8.308713	-5.340169	-24.574331
19983		8.394248	-5.376658	-23.972386
19984		8.385917	-5.411616	-23.383927
19985		8.279196	-5.447817	-22.816319
19986		8.129944	-5.498240	-22.268275
19987		7.971341	-5.549806	-21.735258
19988		7.867547	-5.598922	-21.217191
19989		7.826595	-5.627068	-20.706758
19990		7.805281	-5.644173	-20.203158
19991		7.744130	-5.667847	-19.707423
19992		7.621040	-5.703063	-19.215930
19993		7.440495	-5.759929	-18.723266
19994		7.247063	-5.831746	-18.233235
19995		7.098206	-5.904437	-17.740439
19996		7.069199	-5.978179	-17.255739
19997		7.162889	-6.030462	-16.774315
19998		7.348033	-6.055609	-16.298721
19999		7.532453	-6.070692	-15.822618
20000		7.655168	-6.105068	-15.343914
20001		7.674253	-6.152936	-14.851680
20002		7.635075	-6.205438	-14.341383
20003		7.603672	-6.260604	-13.814230
20004		7.616686	-6.318711	-13.270206
20005		7.680154	-6.365003	-12.714685
20006		7.778292	-6.400404	-12.160025
20007		7.844805	-6.431676	-11.607214
20008		7.852310	-6.470208	-11.060841
20009		7.781059	-6.521050	-10.521087
20010		7.661791	-6.578052	-9.986900
20011		7.529277	-6.629401	-9.457217
20012		7.431248	-6.683961	-8.932951
20013		7.395937	-6.732870	-8.413009
20014		7.448375	-6.762611	-7.892678
20015		7.581120	-6.777309	-7.377143
20016		7.763068	-6.787724	-6.866090
20017		7.924103	-6.790471	-6.367019
20018		8.054644	-6.808399	-5.883733
20019		8.155961	-6.824344	-5.413412
20020		8.223254	-6.838699	-4.956450
20021		8.281750	-6.853788	-4.510634
20022		8.345591	-6.863298	-4.078202
20023		8.398140	-6.855174	-3.652966
20024		8.436775	-6.837965	-3.238672
20025		8.444666	-6.830251	-2.831125
20026		8.409597	-6.814586	-2.425018
20027		8.306311	-6.801236	-2.021298
20028		8.166283	-6.799675	-1.613556
20029		8.000291	-6.803554	-1.193371
20030		7.834641	-6.812898	-0.767618
20031		7.709291	-6.824357	-0.335658
20032		7.650101	-6.830654	0.099349
20033		7.647856	-6.826090	0.529187
20034		7.680036	-6.809273	0.950287
20035		7.687188	-6.788809	1.353700
20036		7.645490	-6.780562	1.741037
20037		7.555218	-6.774835	2.120360
20038		7.456920	-6.772647	2.495830
20039		7.386446	-6.767949	2.876281
20040		7.367886	-6.761404	3.265943
20041		7.381174	-6.742164	3.667547
20042		7.413204	-6.721948	4.081966
20043		7.430255	-6.697077	4.501400
20044		7.412929	-6.678429	4.926990
20045		7.351652	-6.662549	5.350856
20046		7.273683	-6.655452	5.766276
20047		7.240837	-6.649791	6.169798
20048		7.286806	-6.629574	6.562952
20049		7.380682	-6.586655	6.938174
20050		7.494180	-6.534861	7.294412
20051		7.583860	-6.480745	7.633440
20052		7.618071	-6.414232	7.949105
20053		7.583446	-6.350324	8.243698
20054		7.480869	-6.293565	8.526580
20055		7.320534	-6.241079	8.799565
20056		7.124966	-6.198741	9.065684
20057		6.905644	-6.168100	9.322448
20058		6.685650	-6.153312	9.563055
20059		6.513041	-6.143486	9.785168
20060		6.398839	-6.118895	9.978736
20061		6.311102	-6.072537	10.145184
20062		6.233287	-6.028716	10.279004
20063		6.134043	-6.000380	10.382651
20064		5.960209	-5.978439	10.453942
20065		5.761980	-5.973863	10.497730
20066		5.589663	-5.984489	10.523844
20067		5.479969	-5.982958	10.536631
20068		5.453207	-5.961967	10.537522
20069		5.483414	-5.933315	10.520885
20070		5.524189	-5.903249	10.495269
20071		5.540552	-5.888083	10.455715
20072		5.516129	-5.889763	10.405840
20073		5.481554	-5.901836	10.353095
20074		5.460199	-5.923924	10.298471
20075		5.479263	-5.943502	10.242714
20076		5.546005	-5.951536	10.182078
20077		5.650179	-5.953866	10.116609
20078		5.758424	-5.943442	10.043250
20079		5.826494	-5.923642	9.963808
20080		5.830300	-5.903593	9.878500
20081		5.775449	-5.885348	9.789200
20082		5.680900	-5.861970	9.689346
20083		5.588425	-5.816656	9.578167
20084		5.502324	-5.759480	9.454143
20085		5.426240	-5.696815	9.315968
20086		5.340022	-5.635294	9.160507
20087		5.226320	-5.575853	8.980016
20088		5.091716	-5.526084	8.782759
20089		4.949932	-5.479022	8.571831
20090		4.811315	-5.423668	8.355089
20091		4.693642	-5.366842	8.134001
20092		4.599314	-5.298215	7.907824
20093		4.521134	-5.224720	7.667309
20094		4.429882	-5.156840	7.423702
20095		4.329270	-5.094111	7.167411
20096		4.221437	-5.041407	6.904155
20097		4.103407	-4.989644	6.640196
20098		3.980888	-4.948409	6.375037
20099		3.879014	-4.904483	6.115767
20100		3.801703	-4.864975	5.856008
20101		3.757721	-4.827778	5.592773
20102		3.733270	-4.785846	5.312533
20103		3.726733	-4.742012	5.019415
20104		3.710769	-4.704985	4.712278
20105		3.681321	-4.674865	4.395437
20106		3.639721	-4.639165	4.071746
20107		3.598955	-4.596357	3.744130
20108		3.547160	-4.564334	3.408927
20109		3.479830	-4.524323	3.067587
20110		3.378488	-4.482477	2.717829
20111		3.255480	-4.449873	2.358151
20112		3.128983	-4.426331	1.989498
20113		3.013019	-4.407012	1.616036
20114		2.922557	-4.384368	1.239706
20115		2.890297	-4.359105	0.865191
20116		2.896369	-4.318414	0.492392
20117		2.893802	-4.265303	0.116131
20118		2.852583	-4.224545	-0.267913
20119		2.794027	-4.201613	-0.654505
20120		2.741573	-4.182225	-1.041789
20121		2.734533	-4.166099	-1.429106
20122		2.776037	-4.149555	-1.807864
20123		2.863979	-4.119714	-2.181016
20124		2.933342	-4.069509	-2.542628
20125		2.956430	-4.016054	-2.905244
20126		2.884680	-3.975483	-3.268434
20127		2.727091	-3.949452	-3.646532
20128		2.504200	-3.938705	-4.041083
20129		2.279944	-3.941335	-4.444844
20130		2.100196	-3.945260	-4.856341
20131		2.009396	-3.933982	-5.261840
20132		2.002657	-3.905792	-5.658226
20133		2.046658	-3.861541	-6.046966
20134		2.087511	-3.817559	-6.440778
20135		2.097184	-3.784856	-6.847889
20136		2.072422	-3.764946	-7.276755
20137		2.051263	-3.753818	-7.724059
20138		2.057069	-3.738402	-8.182507
20139		2.097713	-3.718787	-8.654464
20140		2.135378	-3.680164	-9.131656
20141		2.152226	-3.634766	-9.615211
20142		2.124175	-3.598745	-10.099037
20143		2.045492	-3.565884	-10.587262
20144		1.939166	-3.545909	-11.086935
20145		1.852190	-3.529511	-11.607406
20146		1.785633	-3.514230	-12.153308
20147		1.751869	-3.492132	-12.723835
20148		1.724870	-3.458685	-13.309958
20149		1.681889	-3.427567	-13.906934
20150		1.614686	-3.402809	-14.505455
20151		1.557007	-3.379086	-15.099671
20152		1.527735	-3.358085	-15.688669
20153		1.563039	-3.341104	-16.275489
20154		1.661297	-3.319540	-16.865712
20155		1.806604	-3.278828	-17.459255
20156		1.945814	-3.230426	-18.055669
20157		2.034520	-3.184361	-18.650913
20158		2.022250	-3.142808	-19.242673
20159		1.922196	-3.127917	-19.838062
20160		1.773696	-3.124797	-20.439491
20161		1.655932	-3.122919	-21.049776
20162		1.611650	-3.094272	-21.664375
20163		1.639940	-3.029903	-22.282103
20164		1.673117	-2.944928	-22.896878
20165		1.639888	-2.867656	-23.511442
20166		1.486710	-2.823369	-24.125290
20167		1.239307	-2.802742	-24.744207
20168		0.964872	-2.802144	-25.372487
20169		0.745309	-2.799490	-26.008244
20170		0.592179	-2.768132	-26.648649
20171		0.509073	-2.736629	-27.301578
20172		0.448877	-2.709675	-27.962280
20173		0.387113	-2.673682	-28.640452
20174		0.324569	-2.656066	-29.331823
20175		0.281076	-2.637618	-30.033916
20176		0.241494	-2.621505	-30.740888
20177		0.207187	-2.621115	-31.448760
20178		0.147894	-2.607076	-32.153634
20179		0.062624	-2.595824	-32.860865
20180		-0.022234	-2.609567	-33.562157
20181		-0.071708	-2.631970	-34.257772
20182		-0.068056	-2.671010	-34.951593
20183		0.049580	-2.734997	-35.652443
20184		0.236440	-2.785560	-36.357697
20185		0.426676	-2.792644	-37.076256
20186		0.534626	-2.824600	-37.806426
20187		0.537926	-2.892383	-38.547434
20188		0.446028	-2.982918	-39.279537
20189		0.313964	-3.100240	-40.001786
20190		0.165475	-3.239611	-40.714068
20191		0.037535	-3.400048	-41.424808
20192		-0.050525	-3.555860	-42.135110
20193		-0.079658	-3.681589	-42.857890
20194		-0.079365	-3.762607	-43.593232
20195		-0.091298	-3.852394	-44.339127
20196		-0.116788	-3.957500	-45.099228
20197		-0.126543	-4.051303	-45.871780
20198		-0.076831	-4.153943	-46.652139
20199		0.041677	-4.200522	-47.429313
20200		0.139077	-4.172961	-48.197919
20201		0.129461	-4.148452	-48.954070
20202		-0.089387	-4.133570	-49.685481
20203		-0.527960	-4.135764	-50.408746
20204		-1.159514	-4.198138	-51.109511
20205		-1.892184	-4.299315	-51.788996
20206		-2.619047	-4.421221	-52.452627
20207		-3.206869	-4.550137	-53.101732
20208		-3.595931	-4.671231	-53.730245
20209		-3.762399	-4.735048	-54.353585
20210		-3.747683	-4.775382	-54.967128
20211		-3.606689	-4.814680	-55.573461
20212		-3.417524	-4.852951	-56.171696
20213		-3.205230	-4.892682	-56.775741
20214		-2.990109	-4.927875	-57.384186
20215		-2.752974	-4.991171	-58.005801
20216		-2.519974	-5.031022	-58.634557
20217		-2.312443	-5.024949	-59.271915
20218		-2.167758	-5.019522	-59.895705
20219		-2.114974	-5.011666	-60.506804
20220		-2.178802	-5.019249	-61.101180
20221		-2.309880	-5.041855	-61.686043
20222		-2.487312	-5.065627	-62.271256
20223		-2.676826	-5.107365	-62.877464
20224		-2.830629	-5.161213	-63.500293
20225		-2.937135	-5.157665	-64.141509
20226		-3.041451	-5.135149	-64.795301
20227		-3.171988	-5.153951	-65.436485
20228		-3.322226	-5.172337	-66.067637
20229		-3.438483	-5.178268	-66.680958
20230		-3.475197	-5.172583	-67.278462
20231		-3.445321	-5.144811	-67.869026
20232		-3.375822	-5.103730	-68.466465
20233		-3.276751	-5.072565	-69.082859
20234		-3.154804	-5.064278	-69.717077
20235		-2.961986	-5.054969	-70.374586
20236		-2.650286	-5.038517	-71.046573
20237		-2.168689	-4.964602	-71.721397
20238		-1.551429	-4.832074	-72.386536
20239		-0.853704	-4.678112	-73.033932
20240		-0.185152	-4.510838	-73.661130
20241		0.330707	-4.372969	-74.290710
20242		0.600434	-4.296418	-74.920940
20243		0.632997	-4.257667	-75.567500
20244		0.529139	-4.240298	-76.216303
20245		0.397412	-4.215953	-76.852962
20246		0.304179	-4.141724	-77.462841
20247		0.274553	-4.038323	-78.046587
20248		0.278622	-3.931734	-78.598354
20249		0.297883	-3.830460	-79.129709
20250		0.328696	-3.734349	-79.649632
20251		0.392937	-3.647811	-80.157249
20252		0.517411	-3.576616	-80.657316
20253		0.719252	-3.497137	-81.135028
20254		0.980643	-3.365998	-81.594706
20255		1.264842	-3.220777	-82.026776
20256		1.505321	-3.077255	-82.430018
20257		1.643112	-2.935191	-82.812022
20258		1.648833	-2.820459	-83.181867
20259		1.557822	-2.726227	-83.540447
20260		1.449117	-2.643227	-83.894353
20261		1.402765	-2.568375	-84.234470
20262		1.465945	-2.475300	-84.572025
20263		1.625115	-2.351484	-84.905414
20264		1.837585	-2.212793	-85.233950
20265		2.053661	-2.090138	-85.552952
20266		2.180724	-1.992058	-85.856058
20267		2.165417	-1.923264	-86.146293
20268		2.057997	-1.902224	-86.419863
20269		1.939739	-1.904079	-86.671989
20270		1.858971	-1.903027	-86.917569
20271		1.863376	-1.883617	-87.151994
20272		1.942344	-1.850376	-87.381984
20273		2.061988	-1.822305	-87.605883
20274		2.208219	-1.788346	-87.826787
20275		2.370595	-1.759415	-88.047099
20276		2.523606	-1.736697	-88.261544
20277		2.661064	-1.730072	-88.475100
20278		2.774460	-1.734457	-88.689260
20279		2.864714	-1.743925	-88.910351
20280		2.947498	-1.764830	-89.140889
20281		3.055085	-1.779730	-89.379689
20282		3.206947	-1.778369	-89.623583
20283		3.421254	-1.769048	-89.860007
20284		3.689589	-1.751164	-90.079257
20285		4.003849	-1.727499	-90.278571
20286		4.354110	-1.683057	-90.461477
20287		4.733285	-1.624619	-90.629870
20288		5.070892	-1.545399	-90.781720
20289		5.270678	-1.458480	-90.927846
20290		5.279177	-1.388987	-91.064304
20291		5.096912	-1.334146	-91.183151
20292		4.752341	-1.301697	-91.269085
20293		4.309035	-1.292491	-91.312393
20294		3.843951	-1.281590	-91.313405
20295		3.416418	-1.267431	-91.277614
20296		3.073629	-1.252818	-91.214746
20297		2.854187	-1.234652	-91.126362
20298		2.763782	-1.202943	-91.018073
20299		2.781058	-1.169298	-90.880806
20300		2.876122	-1.142243	-90.718301
20301		3.009658	-1.126141	-90.526935
20302		3.180257	-1.108390	-90.314882
20303		3.388733	-1.088293	-90.092576
20304		3.634754	-1.052510	-89.866208
20305		3.874037	-1.006574	-89.642686
20306		4.059503	-0.971323	-89.424718
20307		4.152955	-0.959103	-89.216829
20308		4.142648	-0.966290	-89.015061
20309		4.038255	-0.998746	-88.820371
20310		3.879018	-1.046624	-88.629118
20311		3.697232	-1.107730	-88.442846
20312		3.540466	-1.174277	-88.262323
20313		3.440308	-1.236282	-88.091468
20314		3.411691	-1.294922	-87.931076
20315		3.456456	-1.359033	-87.777537
20316		3.589097	-1.428731	-87.630777
20317		3.784668	-1.488325	-87.484933
20318		4.012109	-1.545892	-87.342159
20319		4.256318	-1.607473	-87.195758
20320		4.503446	-1.672085	-87.041063
20321		4.744298	-1.733691	-86.874820
20322		4.966963	-1.789824	-86.691022
20323		5.160203	-1.863087	-86.481304
20324		5.331277	-1.927102	-86.246904
20325		5.482704	-2.004196	-85.985861
20326		5.667083	-2.073133	-85.707108
20327		5.890828	-2.119695	-85.411987
20328		6.141074	-2.143772	-85.115238
20329		6.389063	-2.158266	-84.818469
20330		6.583921	-2.164277	-84.526116
20331		6.676301	-2.189344	-84.235961
20332		6.678726	-2.239114	-83.937502
20333		6.619768	-2.304902	-83.615693
20334		6.546100	-2.376628	-83.268043
20335		6.522161	-2.436451	-82.878781
20336		6.586414	-2.466923	-82.450054
20337		6.694252	-2.485159	-81.996525
20338		6.816094	-2.502887	-81.531846
20339		6.897979	-2.531395	-81.064435
20340		6.904803	-2.573936	-80.591126
20341		6.813693	-2.641371	-80.117210
20342		6.658361	-2.730975	-79.640678
20343		6.461739	-2.830925	-79.157689
20344		6.266742	-2.934854	-78.666569
20345		6.103771	-3.038348	-78.166139
20346		6.000483	-3.130655	-77.654044
20347		5.944078	-3.216918	-77.129902
20348		5.938050	-3.297088	-76.595810
20349		5.973267	-3.390879	-76.052289
20350		6.073153	-3.481919	-75.502942
20351		6.245579	-3.554398	-74.958273
20352		6.496743	-3.604201	-74.420154
20353		6.762912	-3.619384	-73.896586
20354		6.968557	-3.626516	-73.394036
20355		7.066924	-3.650015	-72.914336
20356		7.069271	-3.691457	-72.458307
20357		7.012983	-3.753762	-72.017080
20358		6.954178	-3.819872	-71.577988
20359		6.963877	-3.878793	-71.130220
20360		7.089144	-3.916886	-70.659198
20361		7.261231	-3.910721	-70.160978
20362		7.410627	-3.898429	-69.650587
20363		7.475996	-3.920558	-69.127534
20364		7.434345	-3.971140	-68.598650
20365		7.320687	-4.038069	-68.075056
20366		7.222716	-4.129506	-67.559157
20367		7.197127	-4.202828	-67.037017
20368		7.247182	-4.248619	-66.514232
20369		7.316636	-4.285505	-65.987498
20370		7.343326	-4.322944	-65.459004
20371		7.274403	-4.370735	-64.926822
20372		7.102418	-4.441188	-64.397280
20373		6.871993	-4.528468	-63.870324
20374		6.657453	-4.613980	-63.350634
20375		6.485836	-4.677808	-62.839891
20376		6.361065	-4.722206	-62.340894
20377		6.248568	-4.767337	-61.847441
20378		6.128831	-4.821265	-61.357896
20379		5.995956	-4.883288	-60.864808
20380		5.886592	-4.959775	-60.371439
20381		5.825785	-5.043610	-59.866809
20382		5.834724	-5.126349	-59.356428
20383		5.902326	-5.208669	-58.842130
20384		6.008564	-5.285988	-58.323243
20385		6.100333	-5.368452	-57.805098
20386		6.151079	-5.445286	-57.285339
20387		6.124135	-5.507613	-56.762552
20388		6.031193	-5.569474	-56.236408
20389		5.876820	-5.627846	-55.700452
20390		5.674217	-5.694576	-55.149657
20391		5.430782	-5.771006	-54.583630
20392		5.196082	-5.859215	-54.010722
20393		5.001378	-5.953048	-53.428339
20394		4.891057	-6.039493	-52.837603
20395		4.854218	-6.107656	-52.231964
20396		4.870420	-6.166003	-51.611622
20397		4.887054	-6.233974	-50.975267
20398		4.890159	-6.320501	-50.330534
20399		4.863425	-6.405454	-49.679957
20400		4.818864	-6.498487	-49.034138
20401		4.781064	-6.608511	-48.386815
20402		4.790171	-6.704637	-47.734743
20403		4.856868	-6.766765	-47.078666
20404		5.000353	-6.818702	-46.417980
20405		5.178822	-6.865304	-45.747663
20406		5.317475	-6.897525	-45.070327
20407		5.362467	-6.934231	-44.390885
20408		5.307473	-6.999881	-43.712277
20409		5.171738	-7.071226	-43.034772
20410		5.002448	-7.129409	-42.363405
20411		4.868854	-7.195554	-41.694580
20412		4.824671	-7.243815	-41.025002
20413		4.864304	-7.270506	-40.364569
20414		4.973478	-7.297583	-39.712520
20415		5.084691	-7.323927	-39.070471
20416		5.143647	-7.339021	-38.437528
20417		5.117787	-7.359175	-37.803581
20418		5.014318	-7.395236	-37.158233
20419		4.860845	-7.433082	-36.493659
20420		4.739405	-7.473660	-35.812658
20421		4.708860	-7.504718	-35.130232
20422		4.763802	-7.501863	-34.462879
20423		4.855900	-7.478613	-33.822215
20424		4.950160	-7.458925	-33.210179
20425		4.998644	-7.441580	-32.621505
20426		5.041000	-7.442819	-32.043333
20427		5.104426	-7.438739	-31.465534
20428		5.233600	-7.436478	-30.874327
20429		5.430760	-7.417033	-30.269261
20430		5.655799	-7.385436	-29.647715
20431		5.833263	-7.366036	-29.011077
20432		5.916603	-7.352075	-28.363249
20433		5.897451	-7.350053	-27.705728
20434		5.815669	-7.361954	-27.037180
20435		5.712237	-7.391392	-26.356633
20436		5.620730	-7.419483	-25.666828
20437		5.552039	-7.439399	-24.977317
20438		5.510295	-7.459344	-24.289360
20439		5.478444	-7.474898	-23.607576
20440		5.462193	-7.490776	-22.928147
20441		5.437726	-7.496848	-22.255058
20442		5.422685	-7.516447	-21.595708
20443		5.421212	-7.538629	-20.947998
20444		5.439416	-7.548057	-20.316625
20445		5.440466	-7.548893	-19.696310
20446		5.398706	-7.561972	-19.084723
20447		5.293104	-7.592361	-18.485744
20448		5.156978	-7.633597	-17.896061
20449		5.025689	-7.674468	-17.316928
20450		4.948995	-7.700980	-16.753805
20451		4.936946	-7.720746	-16.205733
20452		4.956036	-7.728057	-15.681077
20453		4.943449	-7.723994	-15.175492
20454		4.884169	-7.734420	-14.692908
20455		4.762430	-7.758120	-14.221330
20456		4.618060	-7.781693	-13.755226
20457		4.473880	-7.796919	-13.286358
20458		4.333320	-7.801174	-12.806521
20459		4.213345	-7.810078	-12.312794
20460		4.141562	-7.811667	-11.806511
20461		4.122615	-7.801720	-11.279708
20462		4.170533	-7.787877	-10.745069
20463		4.232607	-7.780650	-10.202574
20464		4.263892	-7.779813	-9.656700
20465		4.252249	-7.800241	-9.110439
20466		4.194928	-7.836136	-8.563443
20467		4.096334	-7.884385	-8.015237
20468		4.004879	-7.931897	-7.465057
20469		3.948031	-7.981770	-6.916312
20470		3.965978	-8.022057	-6.362090
20471		4.065726	-8.047620	-5.804662
20472		4.209330	-8.047230	-5.241034
20473		4.343408	-8.042244	-4.669962
20474		4.463180	-8.042797	-4.099157
20475		4.485890	-8.030647	-3.519372
20476		4.407259	-8.013038	-2.932734
20477		4.239366	-8.018360	-2.346058
20478		4.002518	-8.047876	-1.754870
20479		3.727675	-8.078668	-1.177781
20480		3.481559	-8.109313	-0.611482
20481		3.319408	-8.120556	-0.056267
20482		3.265455	-8.107642	0.497359
20483		3.296915	-8.085834	1.049089
20484		3.369618	-8.053289	1.604812
20485		3.432914	-8.025279	2.155084
20486		3.463864	-8.005173	2.696022
20487		3.454660	-7.989020	3.219334
20488		3.399762	-7.981180	3.707670
20489		3.310055	-7.968016	4.162539
20490		3.216134	-7.949434	4.584553
20491		3.116626	-7.936092	4.982151
20492		3.054100	-7.908925	5.366885
20493		3.024632	-7.862356	5.745139
20494		3.035950	-7.810070	6.121733
20495		3.083472	-7.736968	6.492896
20496		3.147375	-7.639139	6.844960
20497		3.204665	-7.549489	7.168852
20498		3.249076	-7.471194	7.466825
20499		3.245130	-7.401939	7.736789
20500		3.211479	-7.353096	7.983455
20501		3.159777	-7.326175	8.212262
20502		3.102527	-7.310922	8.433283
20503		3.083843	-7.308881	8.651337
20504		3.120024	-7.279975	8.870723
20505		3.182865	-7.255644	9.098728
20506		3.294948	-7.228958	9.334580
20507		3.396019	-7.204806	9.570446
20508		3.443027	-7.193705	9.794516
20509		3.444322	-7.190328	9.993649
20510		3.401888	-7.195588	10.168682
20511		3.335686	-7.205391	10.325405
20512		3.274534	-7.213281	10.469220
20513		3.217483	-7.207533	10.600689
20514		3.161867	-7.196766	10.716324
20515		3.117129	-7.180183	10.817879
20516		3.069439	-7.146508	10.889621
20517		2.998834	-7.114692	10.927277
20518		2.918699	-7.097064	10.927200
20519		2.846345	-7.088633	10.894409
20520		2.794520	-7.084978	10.833467
20521		2.774720	-7.090752	10.755863
20522		2.798126	-7.088538	10.667538
20523		2.841969	-7.071031	10.567962
20524		2.886534	-7.045222	10.454691
20525		2.939311	-7.020679	10.327652
20526		2.989066	-6.997902	10.180585
20527		3.033414	-6.978456	10.014886
20528		3.085749	-6.963641	9.832077
20529		3.154016	-6.953374	9.638496
20530		3.219249	-6.928841	9.433601
20531		3.279755	-6.894431	9.215669
20532		3.327633	-6.863992	8.986069
20533		3.360236	-6.821052	8.749558
20534		3.366338	-6.774214	8.496165
20535		3.362709	-6.736231	8.226431
20536		3.370381	-6.698089	7.943241
20537		3.426846	-6.665278	7.656245
20538		3.552817	-6.638026	7.373552
20539		3.749275	-6.596661	7.103670
20540		3.961956	-6.542468	6.844870
20541		4.131581	-6.480726	6.587006
20542		4.188817	-6.430658	6.322399
20543		4.133764	-6.390198	6.031715
20544		3.979503	-6.351649	5.706821
20545		3.770055	-6.313031	5.335703
20546		3.539960	-6.273721	4.917669
20547		3.349049	-6.224218	4.466482
20548		3.231699	-6.151235	3.988937
20549		3.165938	-6.053077	3.495201
20550		3.083879	-5.939546	2.990912
20551		2.953917	-5.843971	2.468907
20552		2.757964	-5.768023	1.937091
20553		2.556569	-5.709344	1.394119
20554		2.396342	-5.662894	0.843789
20555		2.314516	-5.608135	0.288658
20556		2.289146	-5.525886	-0.274740
20557		2.273884	-5.445792	-0.850651
20558		2.174228	-5.368513	-1.441441
20559		1.964568	-5.314658	-2.045210
20560		1.675419	-5.275322	-2.660129
20561		1.373883	-5.246176	-3.283573
20562		1.147283	-5.211997	-3.904897
20563		1.019667	-5.151976	-4.526084
20564		0.930056	-5.082676	-5.148175
20565		0.849379	-5.024418	-5.770228
20566		0.727795	-4.975665	-6.394969
20567		0.571923	-4.947273	-7.014494
20568		0.416917	-4.929812	-7.618380
20569		0.301548	-4.910396	-8.203641
20570		0.211309	-4.864435	-8.775013
20571		0.135510	-4.800573	-9.356056
20572		0.018217	-4.740089	-9.957974
20573		-0.171869	-4.697308	-10.595558
20574		-0.433592	-4.668336	-11.270916
20575		-0.715659	-4.652963	-11.978250
20576		-0.973477	-4.647919	-12.698255
20577		-1.165198	-4.635468	-13.406971
20578		-1.284772	-4.615028	-14.091778
20579		-1.353438	-4.581213	-14.763527
20580		-1.411146	-4.557849	-15.422840
20581		-1.442019	-4.547787	-16.079485
20582		-1.445131	-4.549792	-16.741917
20583		-1.404153	-4.549427	-17.414719
20584		-1.332576	-4.553778	-18.090191
20585		-1.249831	-4.557495	-18.760394
20586		-1.187912	-4.556874	-19.418576
20587		-1.154069	-4.567891	-20.058690
20588		-1.151551	-4.590850	-20.687586
20589		-1.154240	-4.614290	-21.309181
20590		-1.155738	-4.625494	-21.932981
20591		-1.146201	-4.637282	-22.556369
20592		-1.161572	-4.654923	-23.179041
20593		-1.206905	-4.658430	-23.808534
20594		-1.275836	-4.661325	-24.447733
20595		-1.353868	-4.674049	-25.094083
20596		-1.452721	-4.665842	-25.750455
20597		-1.567133	-4.667262	-26.410678
20598		-1.678019	-4.693874	-27.070381
20599		-1.769967	-4.700750	-27.734039
20600		-1.834698	-4.709731	-28.404722
20601		-1.844649	-4.730385	-29.080655
20602		-1.819060	-4.728392	-29.759952
20603		-1.788036	-4.718692	-30.439968
20604		-1.806369	-4.709879	-31.110741
20605		-1.900061	-4.699737	-31.775678
20606		-2.090350	-4.688956	-32.428038
20607		-2.329802	-4.700169	-33.066438
20608		-2.567486	-4.710952	-33.693625
20609		-2.770545	-4.720295	-34.315827
20610		-2.938504	-4.734271	-34.930047
20611		-3.109381	-4.722294	-35.549941
20612		-3.329075	-4.711883	-36.171847
20613		-3.597204	-4.727044	-36.791666
20614		-3.898020	-4.752570	-37.414583
20615		-4.138484	-4.804213	-38.043097
20616		-4.249462	-4.855755	-38.678927
20617		-4.234464	-4.878927	-39.338224
20618		-4.167609	-4.892813	-40.024104
20619		-4.122524	-4.907549	-40.730324
20620		-4.171011	-4.951411	-41.444392
20621		-4.279588	-5.022572	-42.160404
20622		-4.354885	-5.099912	-42.878173
20623		-4.278080	-5.177154	-43.599264
20624		-3.985991	-5.251036	-44.325965
20625		-3.525342	-5.266486	-45.058917
20626		-3.053573	-5.198537	-45.807752
20627		-2.713402	-5.123668	-46.555050
20628		-2.644493	-5.102937	-47.294178
20629		-2.857104	-5.124508	-48.017103
20630		-3.266743	-5.183363	-48.724653
20631		-3.693542	-5.271010	-49.416012
20632		-4.028208	-5.322085	-50.095798
20633		-4.221801	-5.304130	-50.776606
20634		-4.305917	-5.273981	-51.436929
20635		-4.371785	-5.232297	-52.080429
20636		-4.498448	-5.208341	-52.710028
20637		-4.661722	-5.206844	-53.336839
20638		-4.822260	-5.209869	-53.960240
20639		-4.916782	-5.220122	-54.591955
20640		-4.899754	-5.224429	-55.233479
20641		-4.768926	-5.187970	-55.895951
20642		-4.581403	-5.120064	-56.576376
20643		-4.366940	-5.046362	-57.263322
20644		-4.167110	-4.974404	-57.948098
20645		-3.976554	-4.928175	-58.627342
20646		-3.755007	-4.896833	-59.312512
20647		-3.454481	-4.864004	-59.991202
20648		-3.105994	-4.805273	-60.664787
20649		-2.764781	-4.718170	-61.325534
20650		-2.543046	-4.626470	-61.967994
20651		-2.486971	-4.581747	-62.592398
20652		-2.638382	-4.560665	-63.213249
20653		-2.946958	-4.579669	-63.847470
20654		-3.307456	-4.648361	-64.499699
20655		-3.644036	-4.710071	-65.173701
20656		-3.867683	-4.775682	-65.866097
20657		-3.989697	-4.783679	-66.566021
20658		-4.095341	-4.760508	-67.257460
20659		-4.186804	-4.765963	-67.917479
20660		-4.339734	-4.795483	-68.556046
20661		-4.508823	-4.838495	-69.186008
20662		-4.601292	-4.885458	-69.815267
20663		-4.585152	-4.932052	-70.446220
20664		-4.443969	-4.981561	-71.081602
20665		-4.157174	-5.013649	-71.713939
20666		-3.780024	-5.006994	-72.335325
20667		-3.345771	-4.979374	-72.938149
20668		-2.928918	-4.967492	-73.511144
20669		-2.574697	-4.962616	-74.075983
20670		-2.305880	-4.974516	-74.646736
20671		-2.056951	-5.014423	-75.223237
20672		-1.760067	-5.047175	-75.794801
20673		-1.394526	-5.024580	-76.358884
20674		-0.981884	-4.957255	-76.910518
20675		-0.592725	-4.876139	-77.448299
20676		-0.369022	-4.806247	-77.984468
20677		-0.380986	-4.792939	-78.524020
20678		-0.592970	-4.843364	-79.072023
20679		-0.925951	-4.921202	-79.627828
20680		-1.247084	-5.033954	-80.167046
20681		-1.448543	-5.104253	-80.680618
20682		-1.511648	-5.133005	-81.159336
20683		-1.447212	-5.162395	-81.585317
20684		-1.311999	-5.189500	-81.972553
20685		-1.151401	-5.200132	-82.336942
20686		-0.952738	-5.216654	-82.695929
20687		-0.692652	-5.257933	-83.051244
20688		-0.371392	-5.284747	-83.410134
20689		-0.008098	-5.279366	-83.764666
20690		0.350998	-5.261896	-84.105289
20691		0.629265	-5.254988	-84.426537
20692		0.713562	-5.281397	-84.729420
20693		0.624747	-5.359549	-84.991221
20694		0.505440	-5.426407	-85.218351
20695		0.461990	-5.502303	-85.409775
20696		0.579418	-5.522866	-85.573030
20697		0.784204	-5.453183	-85.736873
20698		1.011728	-5.354493	-85.899244
20699		1.144093	-5.275633	-86.051154
20700		1.086866	-5.217037	-86.188575
20701		0.876471	-5.191560	-86.305487
20702		0.593410	-5.187823	-86.405046
20703		0.296733	-5.186117	-86.502614
20704		0.071667	-5.187407	-86.593109
20705		-0.010785	-5.180005	-86.678653
20706		0.036959	-5.143835	-86.761032
20707		0.194054	-5.104571	-86.837077
20708		0.423414	-5.066786	-86.898295
20709		0.640088	-5.019304	-86.950515
20710		0.788317	-4.982597	-86.986169
20711		0.856619	-4.976277	-87.008019
20712		0.868826	-4.985884	-87.019471
20713		0.881630	-4.989744	-87.024325
20714		0.937813	-4.985914	-87.026237
20715		1.029854	-4.970726	-87.026870
20716		1.119527	-4.946604	-87.037188
20717		1.172446	-4.931860	-87.050559
20718		1.187385	-4.919284	-87.070098
20719		1.179568	-4.909688	-87.078567
20720		1.185759	-4.905362	-87.066468
20721		1.200865	-4.884672	-87.032669
20722		1.190977	-4.868302	-86.981587
20723		1.151046	-4.870980	-86.912511
20724		1.103164	-4.874722	-86.838634
20725		1.076564	-4.874343	-86.766884
20726		1.105230	-4.864309	-86.698778
20727		1.168094	-4.843910	-86.630103
20728		1.241517	-4.818735	-86.556061
20729		1.286865	-4.799303	-86.467433
20730		1.284130	-4.779384	-86.364727
20731		1.243518	-4.768218	-86.240123
20732		1.209190	-4.760909	-86.105397
20733		1.200896	-4.746367	-85.971096
20734		1.236058	-4.728129	-85.845340
20735		1.323978	-4.704149	-85.735975
20736		1.444792	-4.678253	-85.636171
20737		1.533904	-4.639983	-85.537657
20738		1.553976	-4.602982	-85.428460
20739		1.507305	-4.585445	-85.304302
20740		1.444769	-4.566917	-85.163331
20741		1.410183	-4.536795	-85.016252
20742		1.422754	-4.496392	-84.872789
20743		1.489586	-4.445136	-84.734020
20744		1.591949	-4.388633	-84.594056
20745		1.697071	-4.337725	-84.458212
20746		1.782663	-4.279650	-84.319352
20747		1.810286	-4.221267	-84.188472
20748		1.790125	-4.182010	-84.057660
20749		1.758752	-4.144828	-83.931058
20750		1.744301	-4.104757	-83.811593
20751		1.755001	-4.072129	-83.692159
20752		1.808028	-4.042534	-83.571688
20753		1.858075	-4.004114	-83.443812
20754		1.907116	-3.992177	-83.300726
20755		1.964162	-3.992786	-83.140633
20756		2.034762	-3.982902	-82.959918
20757		2.132731	-3.981976	-82.766500
20758		2.286110	-3.978594	-82.567447
20759		2.469157	-3.975561	-82.372353
20760		2.687700	-3.977361	-82.187349
20761		2.905760	-3.978392	-82.003101
20762		3.060996	-3.977354	-81.814156
20763		3.148073	-3.995796	-81.608288
20764		3.209276	-4.033872	-81.382554
20765		3.267761	-4.063401	-81.142927
20766		3.358201	-4.091896	-80.901526
20767		3.478089	-4.129057	-80.664368
20768		3.613382	-4.161982	-80.432187
20769		3.741997	-4.201909	-80.193898
20770		3.854710	-4.260519	-79.935645
20771		3.933278	-4.295352	-79.657733
20772		3.977224	-4.328201	-79.350808
20773		3.998782	-4.375355	-79.020114
20774		4.012332	-4.420261	-78.675141
20775		4.021114	-4.478882	-78.325483
20776		4.059796	-4.535094	-77.976165
20777		4.110354	-4.582557	-77.616520
20778		4.171342	-4.646505	-77.233521
20779		4.249488	-4.704871	-76.814202
20780		4.333175	-4.741604	-76.360459
20781		4.401685	-4.778515	-75.881942
20782		4.433311	-4.815573	-75.392095
20783		4.395032	-4.870117	-74.909887
20784		4.314564	-4.940502	-74.441135
20785		4.203838	-5.018238	-73.986607
20786		4.069862	-5.098817	-73.531554
20787		3.931522	-5.197446	-73.065101
20788		3.805621	-5.305967	-72.570189
20789		3.666105	-5.402903	-72.049424
20790		3.558084	-5.503944	-71.511333
20791		3.492711	-5.604267	-70.964610
20792		3.467053	-5.707550	-70.431292
20793		3.498365	-5.825550	-69.916609
20794		3.604445	-5.936376	-69.418272
20795		3.733949	-6.035064	-68.927684
20796		3.853342	-6.132580	-68.430656
20797		3.935281	-6.241056	-67.911710
20798		3.986367	-6.351770	-67.360983
20799		3.998944	-6.454250	-66.790448
20800		3.990477	-6.551576	-66.208416
20801		3.947193	-6.642206	-65.633796
20802		3.898189	-6.744844	-65.066509
20803		3.859892	-6.854873	-64.499335
20804		3.864587	-6.958925	-63.928706
20805		3.941771	-7.054768	-63.340537
20806		4.064003	-7.124895	-62.733527
20807		4.160852	-7.188253	-62.098786
20808		4.199129	-7.253898	-61.437192
20809		4.150178	-7.326787	-60.751431
20810		4.047399	-7.416684	-60.046037
20811		3.919452	-7.510122	-59.334675
20812		3.819520	-7.603365	-58.626551
20813		3.811557	-7.689189	-57.919518
20814		3.893467	-7.742639	-57.214616
20815		3.994803	-7.792036	-56.500901
20816		4.069487	-7.849540	-55.785582
20817		4.080423	-7.900559	-55.069828
20818		4.053614	-7.965532	-54.350826
20819		4.025793	-8.027950	-53.629167
20820		4.047828	-8.076717	-52.898927
20821		4.129785	-8.124240	-52.166919
20822		4.280220	-8.155719	-51.427199
20823		4.469755	-8.175489	-50.674275
20824		4.676188	-8.193378	-49.902967
20825		4.859054	-8.227153	-49.112787
20826		4.991462	-8.260194	-48.308915
20827		5.039025	-8.301355	-47.500383
20828		5.022870	-8.361275	-46.680919
20829		4.942613	-8.418014	-45.853018
20830		4.867100	-8.470532	-45.014760
20831		4.873393	-8.517615	-44.169737
20832		5.022191	-8.544280	-43.321802
20833		5.269442	-8.543376	-42.476405
20834		5.512710	-8.530478	-41.640135
20835		5.618460	-8.519433	-40.819067
20836		5.544758	-8.532886	-40.007907
20837		5.300444	-8.580759	-39.187911
20838		4.953328	-8.646193	-38.356588
20839		4.585118	-8.723216	-37.510347
20840		4.276853	-8.798547	-36.660186
20841		4.053565	-8.864604	-35.816379
20842		3.909899	-8.901380	-34.995462
20843		3.781965	-8.928543	-34.201888
20844		3.636992	-8.965938	-33.436187
20845		3.454232	-9.003957	-32.689235
20846		3.272806	-9.043896	-31.957144
20847		3.130335	-9.078114	-31.221464
20848		3.068694	-9.098404	-30.479627
20849		3.057522	-9.094307	-29.731387
20850		3.082242	-9.090085	-28.977595
20851		3.097662	-9.092147	-28.222615
20852		3.077704	-9.084788	-27.463056
20853		3.032563	-9.081312	-26.708041
20854		2.990163	-9.082617	-25.948548
20855		2.950475	-9.072045	-25.186188
20856		2.936683	-9.060162	-24.417893
20857		2.958341	-9.059917	-23.635026
20858		3.049790	-9.053558	-22.841961
20859		3.177472	-9.027979	-22.037390
20860		3.283350	-8.988343	-21.233943
20861		3.305085	-8.963839	-20.432770
20862		3.210555	-8.948509	-19.635398
20863		3.024625	-8.947914	-18.845499
20864		2.813948	-8.958220	-18.068390
20865		2.602586	-8.970921	-17.308867
20866		2.477486	-8.995319	-16.572244
20867		2.458417	-8.990571	-15.841739
20868		2.519933	-8.952196	-15.120159
20869		2.594640	-8.909259	-14.401747
20870		2.607588	-8.867034	-13.684159
20871		2.517897	-8.829791	-12.969937
20872		2.360428	-8.818449	-12.256904
20873		2.162448	-8.823212	-11.546120
20874		1.992708	-8.835344	-10.850116
20875		1.902678	-8.855997	-10.170585
20876		1.932434	-8.869188	-9.519574
20877		2.073912	-8.846834	-8.884991
20878		2.281421	-8.795327	-8.258302
20879		2.445780	-8.721085	-7.623499
20880		2.489813	-8.633059	-6.981685
20881		2.359800	-8.582855	-6.329568
20882		2.119171	-8.566091	-5.666701
20883		1.855279	-8.543077	-5.011539
20884		1.664861	-8.515813	-4.378068
20885		1.607767	-8.475401	-3.768265
20886		1.682193	-8.415672	-3.179806
20887		1.832879	-8.348938	-2.617641
20888		1.984728	-8.285773	-2.075586
20889		2.065840	-8.245630	-1.548806
20890		2.084804	-8.234379	-1.035872
20891		2.064586	-8.232017	-0.531167
20892		2.032411	-8.226633	-0.038615
20893		2.031326	-8.223542	0.441566
20894		2.102207	-8.214948	0.911276
20895		2.227171	-8.195373	1.367312
20896		2.390346	-8.176938	1.806406
20897		2.538983	-8.159294	2.229338
20898		2.633430	-8.148551	2.635782
20899		2.653272	-8.152513	3.026263
20900		2.593879	-8.174785	3.412510
20901		2.463057	-8.212372	3.795369
20902		2.311222	-8.260171	4.183822
20903		2.169956	-8.314843	4.572663
20904		2.088337	-8.367185	4.959785
20905		2.062984	-8.399514	5.342042
20906		2.080577	-8.418639	5.713036
20907		2.091830	-8.434239	6.076702
20908		2.052002	-8.439559	6.429306
20909		1.940489	-8.451308	6.769060
20910		1.764877	-8.480750	7.096477
20911		1.536257	-8.518927	7.404281
20912		1.313810	-8.554477	7.689361
20913		1.176308	-8.581391	7.955020
20914		1.153734	-8.572849	8.196591
20915		1.217688	-8.532403	8.413001
20916		1.308155	-8.481914	8.601601
20917		1.358408	-8.439563	8.768936
20918		1.349242	-8.408762	8.912406
20919		1.303718	-8.389710	9.040861
20920		1.264209	-8.374582	9.160412
20921		1.271345	-8.354793	9.277041
20922		1.342699	-8.325727	9.387824
20923		1.452825	-8.289452	9.487699
20924		1.567510	-8.252888	9.574965
20925		1.652342	-8.217282	9.643821
20926		1.681068	-8.184908	9.694008
20927		1.646427	-8.156059	9.735036
20928		1.559926	-8.128598	9.763781
20929		1.464097	-8.104450	9.782983
20930		1.394768	-8.069776	9.785649
20931		1.376542	-8.023412	9.767759
20932		1.408171	-7.965653	9.719237
20933		1.463178	-7.903188	9.638731
20934		1.516783	-7.849507	9.527998
20935		1.557631	-7.795679	9.396527
20936		1.571134	-7.737100	9.255199
20937		1.573245	-7.677504	9.107932
20938		1.569889	-7.615481	8.955310
20939		1.554332	-7.552223	8.794362
20940		1.541451	-7.486288	8.616267
20941		1.546687	-7.421547	8.420731
20942		1.551393	-7.349475	8.206747
20943		1.549387	-7.278175	7.970597
20944		1.540681	-7.212124	7.713917
20945		1.524282	-7.141752	7.441844
20946		1.498478	-7.062998	7.158669
20947		1.476651	-6.988888	6.858365
20948		1.447905	-6.916062	6.538182
20949		1.432622	-6.843599	6.195029
20950		1.434842	-6.782436	5.831409
20951		1.454542	-6.730904	5.451152
20952		1.465862	-6.680319	5.059643
20953		1.443882	-6.622598	4.657233
20954		1.373545	-6.578113	4.251137
20955		1.269624	-6.544432	3.845617
20956		1.148794	-6.508359	3.431818
20957		1.058947	-6.475402	3.006551
20958		1.005400	-6.440121	2.553859
20959		0.988758	-6.413117	2.074600
20960		0.993435	-6.394941	1.573593
20961		1.016496	-6.374920	1.056161
20962		1.027979	-6.353874	0.535837
20963		1.027345	-6.330964	0.018688
20964		0.996447	-6.308008	-0.497814
20965		0.940028	-6.290833	-1.015881
20966		0.859303	-6.277370	-1.543403
20967		0.800176	-6.266857	-2.087098
20968		0.779025	-6.256503	-2.643207
20969		0.796758	-6.242049	-3.208330
20970		0.805119	-6.210329	-3.775893
20971		0.788613	-6.162400	-4.337261
20972		0.721365	-6.126221	-4.878315
20973		0.637770	-6.089978	-5.407805
20974		0.547962	-6.047954	-5.943362
20975		0.471039	-6.011819	-6.487022
20976		0.411332	-5.984063	-7.043655
20977		0.348150	-5.944399	-7.614131
20978		0.244996	-5.903572	-8.194201
20979		0.081131	-5.871137	-8.776100
20980		-0.156731	-5.851202	-9.347501
20981		-0.421419	-5.839052	-9.914466
