// General information: 
//  MT Manager version: 2022.2.0 
//  XDA version: 2022.2.0 build 7381 rev 124627 built on 2023-07-19
// Device information: 
//  DeviceId: 00B447FA
//  ProductCode: MTW2-3A7G6
//  Firmware Version: 4.3.5
//  Hardware Version: 2.0.0
// Device settings: 
//  Filter Profile: human(46.1)
//  Option Flags: Orientation Smoother Disabled, Position/Velocity Smoother Disabled, Continuous Zero Rotation Update Disabled, AHS Disabled, ICC Disabled
// Coordinate system: ENU
PacketCounter	SampleTimeFine	Roll	Pitch	Yaw
08434		58.708371	-15.684666	22.215851
08435		58.699843	-15.679480	22.188178
08436		58.698350	-15.676010	22.161049
08437		58.709407	-15.672780	22.134786
08438		58.745613	-15.670753	22.109404
08439		58.809287	-15.673627	22.082257
08440		58.896346	-15.679628	22.058252
08441		59.005692	-15.687216	22.039978
08442		59.122505	-15.694758	22.026903
08443		59.217209	-15.697000	22.021003
08444		59.252445	-15.689852	22.024817
08445		59.233950	-15.678846	22.015221
08446		59.195978	-15.672436	22.003816
08447		59.192790	-15.667563	21.997764
08448		59.233851	-15.666313	21.992758
08449		59.296261	-15.669101	21.984288
08450		59.348534	-15.675714	21.978059
08451		59.375855	-15.680108	21.974319
08452		59.368890	-15.684233	21.966177
08453		59.348858	-15.689931	21.957127
08454		59.323176	-15.692854	21.949798
08455		59.303748	-15.695581	21.943621
08456		59.290991	-15.700565	21.936712
08457		59.284203	-15.703925	21.933226
08458		59.276416	-15.708509	21.927925
08459		59.267888	-15.709800	21.925380
08460		59.259535	-15.712434	21.924508
08461		59.252113	-15.708874	21.924294
08462		59.242444	-15.705733	21.924122
08463		59.220454	-15.696950	21.927809
08464		59.184123	-15.682273	21.940638
08465		59.132821	-15.661417	21.957651
08466		59.062195	-15.637944	21.978436
08467		58.980928	-15.614887	22.003465
08468		58.887511	-15.590052	22.037465
08469		58.789937	-15.563576	22.077023
08470		58.688627	-15.541944	22.121621
08471		58.588967	-15.516687	22.165486
08472		58.499221	-15.498158	22.208785
08473		58.430288	-15.479715	22.248188
08474		58.392131	-15.463908	22.280540
08475		58.388459	-15.451273	22.308476
08476		58.406509	-15.441672	22.331809
08477		58.437735	-15.429163	22.353707
08478		58.467367	-15.421999	22.375996
08479		58.481237	-15.410803	22.404939
08480		58.469175	-15.395927	22.431476
08481		58.441277	-15.381088	22.457542
08482		58.387153	-15.366033	22.484687
08483		58.314336	-15.347837	22.517335
08484		58.213054	-15.323046	22.554656
08485		58.113316	-15.294891	22.587965
08486		58.023519	-15.265418	22.618003
08487		57.967168	-15.237139	22.643721
08488		57.945804	-15.210640	22.661897
08489		57.957037	-15.183835	22.673726
08490		57.978403	-15.158566	22.681892
08491		57.994373	-15.134633	22.679958
08492		57.999552	-15.116360	22.672341
08493		58.000767	-15.106070	22.662326
08494		57.993524	-15.092593	22.651018
08495		57.996509	-15.076297	22.637341
08496		58.008270	-15.066835	22.619731
08497		58.029900	-15.052147	22.602188
08498		58.064742	-15.037833	22.585356
08499		58.111601	-15.025684	22.570096
08500		58.161928	-15.009233	22.557518
08501		58.211703	-14.999151	22.553391
08502		58.221102	-14.982539	22.544773
08503		58.198193	-14.957839	22.550778
08504		58.133355	-14.939282	22.551619
08505		58.046213	-14.917635	22.557737
08506		57.944721	-14.887564	22.571052
08507		57.852865	-14.848529	22.584967
08508		57.784680	-14.821285	22.597754
08509		57.747490	-14.791378	22.608439
08510		57.721734	-14.765867	22.618587
08511		57.714098	-14.746389	22.628440
08512		57.706951	-14.729711	22.637714
08513		57.684699	-14.714681	22.640028
08514		57.644211	-14.701800	22.636950
08515		57.604023	-14.687832	22.641773
08516		57.573513	-14.687411	22.651303
08517		57.576370	-14.684534	22.665848
08518		57.579946	-14.700165	22.678254
08519		57.623044	-14.717103	22.702261
08520		57.647010	-14.734574	22.718759
08521		57.714021	-14.777477	22.736480
08522		57.769327	-14.856805	22.779706
08523		57.734103	-14.943288	22.822592
08524		57.598104	-15.045794	22.862195
08525		57.397041	-15.179671	22.905029
08526		57.153525	-15.342050	22.954519
08527		56.920051	-15.537634	23.018865
08528		56.707779	-15.769137	23.099843
08529		56.526612	-16.034891	23.195090
08530		56.367014	-16.336681	23.307423
08531		56.212824	-16.672535	23.436079
08532		56.043449	-17.040080	23.577282
08533		55.844244	-17.438069	23.733206
08534		55.580273	-17.865137	23.906006
08535		55.246927	-18.319821	24.091000
08536		54.860572	-18.800304	24.291074
08537		54.442783	-19.308230	24.507397
08538		53.998931	-19.834962	24.749849
08539		53.545196	-20.377862	25.012588
08540		53.084892	-20.940117	25.295536
08541		52.622197	-21.518617	25.595735
08542		52.145185	-22.114128	25.917057
08543		51.653267	-22.722596	26.253287
08544		51.141080	-23.344918	26.604778
08545		50.613577	-23.979907	26.967465
08546		50.064788	-24.629577	27.343877
08547		49.489518	-25.294458	27.729859
08548		48.886323	-25.961843	28.126506
08549		48.279546	-26.617451	28.539144
08550		47.690529	-27.270690	28.963728
08551		47.165335	-27.932098	29.391948
08552		46.718389	-28.599820	29.832986
08553		46.365976	-29.270178	30.296499
08554		46.076602	-29.947361	30.777633
08555		45.789861	-30.617817	31.272325
08556		45.448537	-31.273254	31.767485
08557		45.011878	-31.915432	32.268879
08558		44.476235	-32.554771	32.773866
08559		43.854212	-33.197456	33.290920
08560		43.171228	-33.842780	33.825747
08561		42.461430	-34.493347	34.370417
08562		41.737196	-35.144323	34.925624
08563		41.009295	-35.789998	35.492281
08564		40.276709	-36.423175	36.072956
08565		39.549101	-37.054979	36.662923
08566		38.811243	-37.677905	37.274573
08567		38.054349	-38.300008	37.903134
08568		37.271907	-38.922045	38.549423
08569		36.456833	-39.544046	39.218013
08570		35.607389	-40.158452	39.914797
08571		34.730146	-40.762200	40.640199
08572		33.810618	-41.357950	41.401135
08573		32.856843	-41.938179	42.186174
08574		31.843318	-42.511357	43.012650
08575		30.775722	-43.078703	43.871319
08576		29.643607	-43.636969	44.766293
08577		28.451677	-44.186537	45.695818
08578		27.199051	-44.731549	46.655061
08579		25.901431	-45.265471	47.659997
08580		24.561109	-45.787251	48.731621
08581		23.203810	-46.291117	49.863779
08582		21.815809	-46.773931	51.067160
08583		20.398739	-47.233407	52.321495
08584		18.960154	-47.669673	53.626875
08585		17.469974	-48.082169	54.967243
08586		15.897626	-48.470466	56.331046
08587		14.253140	-48.836924	57.703778
08588		12.550514	-49.184488	59.089939
08589		10.840350	-49.506052	60.485814
08590		9.149266	-49.807066	61.896639
08591		7.517140	-50.082599	63.308644
08592		5.929751	-50.333997	64.720959
08593		4.383072	-50.561611	66.126267
08594		2.849716	-50.765369	67.524204
08595		1.326054	-50.949939	68.897128
08596		-0.187508	-51.111565	70.239741
08597		-1.692307	-51.251036	71.545241
08598		-3.188428	-51.374432	72.804646
08599		-4.672049	-51.479855	74.033327
08600		-6.100257	-51.564648	75.237575
08601		-7.457803	-51.635194	76.406554
08602		-8.724937	-51.684129	77.547244
08603		-9.909755	-51.713670	78.655787
08604		-11.041037	-51.728921	79.724892
08605		-12.140053	-51.731891	80.753230
08606		-13.248747	-51.724911	81.751500
08607		-14.378875	-51.716003	82.714627
08608		-15.514615	-51.688283	83.645665
08609		-16.657986	-51.656235	84.540481
08610		-17.786356	-51.621454	85.420921
08611		-18.893527	-51.581089	86.277762
08612		-19.944745	-51.523700	87.115200
08613		-20.930023	-51.462145	87.933971
08614		-21.891054	-51.403462	88.724024
08615		-22.803915	-51.338894	89.481560
08616		-23.679480	-51.270046	90.210388
08617		-24.526205	-51.211106	90.914699
08618		-25.335518	-51.147862	91.589132
08619		-26.086732	-51.087704	92.220220
08620		-26.774408	-51.022612	92.827099
08621		-27.417783	-50.955900	93.414861
08622		-28.052980	-50.893433	93.988015
08623		-28.691449	-50.831745	94.539486
08624		-29.336200	-50.773394	95.071949
08625		-29.960810	-50.722759	95.579458
08626		-30.552511	-50.668532	96.057869
08627		-31.127130	-50.617948	96.519299
08628		-31.654863	-50.563106	96.963410
08629		-32.152697	-50.508861	97.385733
08630		-32.617625	-50.452271	97.788239
08631		-33.067612	-50.400995	98.173408
08632		-33.514884	-50.350685	98.540146
08633		-33.963622	-50.310600	98.887727
08634		-34.421841	-50.275829	99.219706
08635		-34.845389	-50.246098	99.526603
08636		-35.252887	-50.216457	99.818339
08637		-35.623410	-50.188510	100.079269
08638		-35.960776	-50.159557	100.310660
08639		-36.244827	-50.131976	100.508032
08640		-36.473293	-50.103778	100.682513
08641		-36.637388	-50.070621	100.828511
08642		-36.752359	-50.033365	100.944358
08643		-36.830204	-49.994711	101.030552
08644		-36.905928	-49.958409	101.093693
08645		-36.969345	-49.927499	101.124110
08646		-37.024917	-49.906240	101.138884
08647		-37.070353	-49.890411	101.134704
08648		-37.114770	-49.882748	101.118073
08649		-37.148462	-49.878065	101.088598
08650		-37.159439	-49.877428	101.048464
08651		-37.135484	-49.880589	101.000598
08652		-37.081548	-49.883311	100.949559
08653		-37.010642	-49.895975	100.894557
08654		-36.939957	-49.909031	100.840374
08655		-36.883222	-49.928408	100.789207
08656		-36.851514	-49.953001	100.753007
08657		-36.831373	-49.982481	100.716883
08658		-36.824758	-50.009887	100.688640
08659		-36.818314	-50.040920	100.666073
08660		-36.815119	-50.067753	100.653905
08661		-36.803013	-50.096842	100.643201
08662		-36.790125	-50.122008	100.637421
08663		-36.787252	-50.146913	100.638218
08664		-36.798454	-50.170002	100.652642
08665		-36.814373	-50.190279	100.677519
08666		-36.849615	-50.206987	100.726630
08667		-36.911221	-50.218588	100.794399
08668		-37.008923	-50.225256	100.861605
08669		-37.112836	-50.228510	100.925461
08670		-37.208893	-50.219617	100.991871
08671		-37.291871	-50.207617	101.054076
08672		-37.357341	-50.186840	101.109778
08673		-37.406254	-50.166570	101.156045
08674		-37.453299	-50.150106	101.201386
08675		-37.498264	-50.136666	101.239529
08676		-37.544711	-50.129788	101.273822
08677		-37.583259	-50.131613	101.295569
08678		-37.604444	-50.139067	101.305614
08679		-37.609011	-50.151997	101.299926
08680		-37.598585	-50.168465	101.282704
08681		-37.563086	-50.190209	101.248522
08682		-37.507121	-50.214249	101.197517
08683		-37.438621	-50.238437	101.135327
08684		-37.358369	-50.266004	101.062197
08685		-37.276642	-50.295549	100.980336
08686		-37.197735	-50.326041	100.896102
08687		-37.105106	-50.359537	100.801056
08688		-36.999384	-50.394827	100.702580
08689		-36.865008	-50.431697	100.590853
08690		-36.705984	-50.468076	100.467624
08691		-36.511449	-50.507424	100.335261
08692		-36.295191	-50.548745	100.197378
08693		-36.063057	-50.593644	100.039612
08694		-35.827443	-50.641712	99.863061
08695		-35.586516	-50.697774	99.657842
08696		-35.344262	-50.758939	99.419365
08697		-35.092917	-50.828414	99.134106
08698		-34.819550	-50.904076	98.800684
08699		-34.489619	-50.984810	98.404191
08700		-34.105369	-51.068630	97.962071
08701		-33.645998	-51.150939	97.458625
08702		-33.115702	-51.225272	96.904397
08703		-32.515427	-51.301984	96.292580
08704		-31.870983	-51.383630	95.637852
08705		-31.172148	-51.470063	94.930199
08706		-30.413636	-51.563023	94.170976
08707		-29.586736	-51.664270	93.360541
08708		-28.706941	-51.769543	92.492134
08709		-27.779256	-51.870701	91.581173
08710		-26.819344	-51.972154	90.625775
08711		-25.808408	-52.072937	89.630893
08712		-24.740615	-52.171637	88.610527
08713		-23.593350	-52.272094	87.560256
08714		-22.364606	-52.369844	86.483971
08715		-21.059243	-52.458813	85.378755
08716		-19.702715	-52.543756	84.245102
08717		-18.311777	-52.621823	83.085331
08718		-16.913247	-52.693187	81.907950
08719		-15.500452	-52.756165	80.708264
08720		-14.068175	-52.805533	79.498705
08721		-12.607981	-52.836803	78.286868
08722		-11.126406	-52.851039	77.073132
08723		-9.611252	-52.851984	75.837864
08724		-8.088682	-52.833451	74.596289
08725		-6.548809	-52.799457	73.335677
08726		-4.986747	-52.754997	72.074298
08727		-3.406460	-52.691435	70.816185
08728		-1.809751	-52.604941	69.562201
08729		-0.179446	-52.489884	68.300456
08730		1.469436	-52.348814	67.032073
08731		3.114273	-52.181215	65.761037
08732		4.715698	-51.982355	64.487175
08733		6.245426	-51.765770	63.206585
08734		7.688055	-51.530612	61.921136
08735		9.080383	-51.274388	60.636786
08736		10.460858	-50.998584	59.358918
08737		11.881974	-50.708071	58.098417
08738		13.360816	-50.406355	56.872539
08739		14.933887	-50.081200	55.662482
08740		16.576608	-49.735117	54.467627
08741		18.273615	-49.374028	53.262727
08742		19.956582	-48.997474	52.057387
08743		21.567622	-48.612480	50.849762
08744		23.088098	-48.222488	49.639220
08745		24.546382	-47.823357	48.431549
08746		25.942416	-47.416711	47.251972
08747		27.330787	-46.988419	46.103727
08748		28.740922	-46.546790	44.997516
08749		30.204825	-46.095898	43.926741
08750		31.694410	-45.624697	42.904019
08751		33.200985	-45.128463	41.918661
08752		34.678852	-44.609544	40.968828
08753		36.101306	-44.063355	40.050305
08754		37.436441	-43.492827	39.168942
08755		38.674257	-42.898009	38.323667
08756		39.798157	-42.283745	37.514848
08757		40.807242	-41.654553	36.742498
08758		41.719916	-41.020755	36.011259
08759		42.574001	-40.378658	35.304240
08760		43.405949	-39.724087	34.645220
08761		44.267056	-39.050274	34.038319
08762		45.181554	-38.364160	33.482828
08763		46.155712	-37.667925	32.974497
08764		47.163121	-36.964511	32.518170
08765		48.167949	-36.255822	32.103084
08766		49.113061	-35.549032	31.713198
08767		49.976596	-34.845139	31.341000
08768		50.754734	-34.145704	30.987950
08769		51.469648	-33.451081	30.649599
08770		52.131690	-32.757232	30.339322
08771		52.774712	-32.057074	30.045935
08772		53.393383	-31.358081	29.777338
08773		53.988116	-30.655365	29.520435
08774		54.523152	-29.950937	29.281108
08775		54.993242	-29.249212	29.049549
08776		55.394241	-28.555453	28.822856
08777		55.756875	-27.866816	28.606168
08778		56.102836	-27.187019	28.408467
08779		56.460283	-26.517616	28.226095
08780		56.846527	-25.860764	28.063749
08781		57.259238	-25.221483	27.914022
08782		57.684800	-24.606836	27.775079
08783		58.091177	-24.010347	27.640126
08784		58.461554	-23.443606	27.509044
08785		58.770979	-22.904242	27.383207
08786		59.013311	-22.395813	27.262366
08787		59.229982	-21.917417	27.150434
08788		59.427860	-21.482199	27.054798
08789		59.614858	-21.076127	26.965483
08790		59.788732	-20.703630	26.883120
08791		59.940266	-20.360152	26.805773
08792		60.070795	-20.049187	26.734141
08793		60.178254	-19.763726	26.667979
08794		60.256287	-19.501206	26.611054
08795		60.310471	-19.256464	26.554344
08796		60.354479	-19.032555	26.504040
08797		60.395226	-18.821750	26.451223
08798		60.439338	-18.627464	26.391053
08799		60.483305	-18.443120	26.323278
08800		60.537645	-18.269041	26.246099
08801		60.597285	-18.099487	26.156457
08802		60.646039	-17.933275	26.054826
08803		60.682012	-17.769412	25.942692
08804		60.694724	-17.606747	25.822352
08805		60.698179	-17.441246	25.693596
08806		60.692487	-17.271488	25.566812
08807		60.694718	-17.098696	25.445221
08808		60.700728	-16.927702	25.329997
08809		60.720661	-16.752096	25.223467
08810		60.755191	-16.578893	25.131343
08811		60.821560	-16.407145	25.047660
08812		60.920145	-16.233800	24.984393
08813		61.053325	-16.055458	24.936425
08814		61.224552	-15.883185	24.895623
08815		61.410276	-15.711112	24.864433
08816		61.603146	-15.543891	24.838496
08817		61.802159	-15.379222	24.812240
08818		61.988443	-15.223804	24.785273
08819		62.156958	-15.069565	24.751618
08820		62.294947	-14.923706	24.710662
08821		62.409917	-14.777533	24.665462
08822		62.510305	-14.640951	24.613966
08823		62.614592	-14.527508	24.561837
08824		62.763311	-14.502904	24.525141
08825		62.819266	-14.562063	24.524639
08826		62.669880	-14.621210	24.539479
08827		62.425531	-14.634257	24.531816
08828		62.247527	-14.632463	24.500939
08829		62.233465	-14.617187	24.488551
08830		62.398067	-14.607845	24.502812
08831		62.622246	-14.601003	24.527271
08832		62.773768	-14.598666	24.551596
08833		62.794623	-14.597519	24.571850
08834		62.681386	-14.594303	24.595274
08835		62.514436	-14.579359	24.623265
08836		62.373865	-14.559761	24.657350
08837		62.309043	-14.533377	24.695438
08838		62.307853	-14.508321	24.735977
08839		62.322730	-14.478529	24.778489
08840		62.312945	-14.451722	24.816185
08841		62.263725	-14.424044	24.846180
08842		62.185188	-14.400443	24.872600
08843		62.114122	-14.378949	24.894134
08844		62.065530	-14.367183	24.913003
08845		62.044769	-14.352528	24.925960
08846		62.031026	-14.341599	24.938231
08847		62.022656	-14.329480	24.945571
08848		62.005260	-14.320511	24.949578
08849		61.975179	-14.312044	24.953419
08850		61.928967	-14.303734	24.960527
08851		61.875711	-14.296017	24.966320
08852		61.813668	-14.290460	24.976636
08853		61.754095	-14.282463	24.987675
08854		61.694300	-14.273478	25.001690
08855		61.638884	-14.266971	25.015056
08856		61.572899	-14.259923	25.027425
08857		61.506947	-14.251943	25.037143
08858		61.446282	-14.250066	25.041821
08859		61.399470	-14.246930	25.044790
08860		61.366410	-14.248880	25.046097
08861		61.357372	-14.250862	25.044934
08862		61.358718	-14.259159	25.038437
08863		61.365758	-14.266474	25.031440
08864		61.371318	-14.276706	25.020734
08865		61.376623	-14.286423	25.009362
08866		61.371257	-14.298085	24.995350
08867		61.360998	-14.310348	24.981949
08868		61.343930	-14.325751	24.967120
08869		61.318104	-14.340766	24.948423
08870		61.287277	-14.353122	24.934469
08871		61.253638	-14.364426	24.920088
08872		61.218581	-14.375048	24.907079
08873		61.180649	-14.383689	24.893805
08874		61.135609	-14.391517	24.883044
08875		61.093366	-14.397692	24.867601
08876		61.043175	-14.404620	24.854043
08877		60.997484	-14.411609	24.841501
08878		60.942821	-14.418322	24.827424
08879		60.886417	-14.421819	24.814849
08880		60.828038	-14.425595	24.804312
08881		60.776039	-14.424759	24.797497
08882		60.733943	-14.426673	24.791256
08883		60.706570	-14.425819	24.783928
08884		60.683919	-14.425456	24.781069
08885		60.669385	-14.422623	24.781078
08886		60.657151	-14.421801	24.782189
08887		60.650871	-14.419445	24.784107
08888		60.644461	-14.420413	24.787041
08889		60.640953	-14.417090	24.790189
08890		60.638792	-14.415469	24.794134
08891		60.640000	-14.411774	24.799119
08892		60.644851	-14.410927	24.803373
08893		60.654183	-14.405847	24.810588
08894		60.653132	-14.401839	24.819726
08895		60.648587	-14.392743	24.827934
08896		60.639422	-14.385784	24.836770
08897		60.629865	-14.377229	24.848391
08898		60.620846	-14.367795	24.858838
08899		60.621082	-14.359259	24.868727
08900		60.627051	-14.351678	24.880112
08901		60.634724	-14.341078	24.889956
08902		60.641380	-14.334391	24.900350
08903		60.651034	-14.329674	24.908721
08904		60.666820	-14.331736	24.914371
08905		60.701262	-14.338529	24.917952
08906		60.746604	-14.352432	24.923764
08907		60.814650	-14.370941	24.926897
08908		60.905380	-14.398366	24.940629
08909		61.010766	-14.433946	24.958751
08910		61.116828	-14.480041	24.971264
08911		61.234525	-14.532651	24.984077
08912		61.357512	-14.594210	24.996498
08913		61.459870	-14.660157	25.003962
08914		61.503076	-14.703898	24.975675
08915		61.595423	-14.772489	24.979813
08916		61.647078	-14.856933	25.002722
08917		61.626906	-14.934940	25.004894
08918		61.559494	-15.033930	25.018214
08919		61.444833	-15.158241	25.044403
08920		61.310197	-15.307794	25.081773
08921		61.182969	-15.483071	25.127843
08922		61.067728	-15.685901	25.183772
08923		60.983514	-15.913743	25.245490
08924		60.919704	-16.162326	25.320440
08925		60.868158	-16.438102	25.409219
08926		60.805656	-16.735585	25.507469
08927		60.714667	-17.056798	25.619116
08928		60.567751	-17.402085	25.746533
08929		60.361256	-17.765933	25.884150
08930		60.083858	-18.151212	26.038027
08931		59.742683	-18.553630	26.200887
08932		59.353793	-18.977728	26.381661
08933		58.927130	-19.422524	26.584356
08934		58.481773	-19.883271	26.805739
08935		58.035923	-20.364843	27.043281
08936		57.584848	-20.868044	27.303508
08937		57.133817	-21.386860	27.583287
08938		56.673396	-21.927163	27.883751
08939		56.208568	-22.483486	28.209466
08940		55.723918	-23.058008	28.561795
08941		55.217448	-23.644499	28.937689
08942		54.679762	-24.251483	29.334630
08943		54.104216	-24.874327	29.756381
08944		53.472087	-25.509644	30.203130
08945		52.783117	-26.156262	30.669054
08946		52.023996	-26.817683	31.153915
08947		51.199218	-27.488512	31.658322
08948		50.296103	-28.162596	32.185533
08949		49.349983	-28.845722	32.733746
08950		48.363342	-29.539248	33.308452
08951		47.338094	-30.241675	33.909777
08952		46.267081	-30.954898	34.542722
08953		45.149403	-31.675644	35.210618
08954		43.977266	-32.404836	35.921664
08955		42.760747	-33.142378	36.677104
08956		41.470358	-33.876943	37.490382
08957		40.114641	-34.600044	38.348664
08958		38.696938	-35.320115	39.241499
08959		37.223148	-36.038198	40.157479
08960		35.674042	-36.757228	41.101538
08961		34.066210	-37.473800	42.071700
08962		32.409148	-38.186023	43.068498
08963		30.746557	-38.888790	44.087635
08964		29.083584	-39.583432	45.127027
08965		27.437393	-40.259543	46.187619
08966		25.812764	-40.916824	47.272522
08967		24.212112	-41.559988	48.374765
08968		22.631889	-42.185253	49.505117
08969		21.082757	-42.782572	50.663603
08970		19.561583	-43.359112	51.859581
08971		18.077432	-43.909941	53.081028
08972		16.618117	-44.434513	54.331745
08973		15.188265	-44.929631	55.602940
08974		13.767791	-45.396749	56.893688
08975		12.353074	-45.834675	58.186990
08976		10.927609	-46.246406	59.488569
08977		9.504682	-46.629863	60.784715
08978		8.064692	-46.990933	62.080490
08979		6.605799	-47.326605	63.366659
08980		5.120314	-47.638153	64.641887
08981		3.614996	-47.931777	65.897975
08982		2.093854	-48.203756	67.142549
08983		0.593075	-48.449428	68.365867
08984		-0.886808	-48.678799	69.576472
08985		-2.331253	-48.883841	70.770881
08986		-3.739912	-49.060945	71.951524
08987		-5.099871	-49.211951	73.098175
08988		-6.422951	-49.341918	74.222420
08989		-7.721080	-49.447366	75.310799
08990		-9.015913	-49.537507	76.373756
08991		-10.304362	-49.608668	77.389952
08992		-11.583912	-49.665682	78.361147
08993		-12.829976	-49.716541	79.262022
08994		-14.051879	-49.757650	80.115889
08995		-15.208748	-49.788420	80.910113
08996		-16.340047	-49.814015	81.668747
08997		-17.446188	-49.816918	82.404767
08998		-18.533376	-49.787073	83.121835
08999		-19.677319	-49.741912	83.795525
09000		-20.836487	-49.709108	84.416580
09001		-21.924368	-49.688913	84.989981
09002		-22.858279	-49.663937	85.534371
09003		-23.642004	-49.635568	86.057662
09004		-24.293983	-49.605372	86.543752
09005		-24.887631	-49.594432	86.989040
09006		-25.492420	-49.591180	87.414390
09007		-26.137323	-49.570922	87.823519
09008		-26.881067	-49.537110	88.214851
09009		-27.731262	-49.516472	88.576213
09010		-28.647485	-49.499655	88.916062
09011		-29.527032	-49.475359	89.215171
09012		-30.358714	-49.468613	89.508142
09013		-31.089741	-49.486592	89.793462
09014		-31.703930	-49.515520	90.072899
09015		-32.216202	-49.565087	90.335666
09016		-32.682161	-49.637066	90.595811
09017		-33.111309	-49.732573	90.850479
09018		-33.538996	-49.826239	91.104415
09019		-33.976900	-49.896574	91.350063
09020		-34.477274	-49.936544	91.588781
09021		-35.063951	-49.945535	91.811402
09022		-35.744553	-49.941518	92.017097
09023		-36.503039	-49.933503	92.212616
09024		-37.245281	-49.945266	92.395805
09025		-37.966629	-49.997198	92.562808
09026		-38.565049	-50.005716	92.725452
09027		-39.022669	-50.025017	92.888529
09028		-39.418138	-50.049236	93.058597
09029		-39.777160	-50.079883	93.215741
09030		-40.135575	-50.113091	93.370791
09031		-40.499231	-50.141929	93.525473
09032		-40.896292	-50.166110	93.680804
09033		-41.341082	-50.197938	93.833890
09034		-41.820740	-50.224216	93.985857
09035		-42.315133	-50.253707	94.140078
09036		-42.815875	-50.273502	94.299306
09037		-43.300078	-50.293251	94.456217
09038		-43.765507	-50.307148	94.619755
09039		-44.200006	-50.332540	94.765959
09040		-44.600500	-50.357569	94.918063
09041		-44.968960	-50.383777	95.066310
09042		-45.330329	-50.412160	95.222038
09043		-45.687578	-50.446261	95.371751
09044		-46.056491	-50.479572	95.511414
09045		-46.455641	-50.511935	95.646778
09046		-46.890270	-50.536496	95.787555
09047		-47.335737	-50.564816	95.921094
09048		-47.782592	-50.593313	96.047108
09049		-48.182522	-50.625868	96.159699
09050		-48.517964	-50.655154	96.255511
09051		-48.795509	-50.682708	96.343889
09052		-49.038532	-50.708021	96.437183
09053		-49.248325	-50.737068	96.525438
09054		-49.441328	-50.759872	96.614829
09055		-49.612530	-50.780769	96.692712
09056		-49.769736	-50.797905	96.772577
09057		-49.898281	-50.813876	96.842619
09058		-50.003231	-50.824927	96.909106
09059		-50.082793	-50.829080	96.970625
09060		-50.152249	-50.831428	97.032351
09061		-50.217790	-50.839889	97.086785
09062		-50.293298	-50.845877	97.146070
09063		-50.364638	-50.851407	97.202574
09064		-50.447134	-50.854667	97.260695
09065		-50.524893	-50.852823	97.309604
09066		-50.605579	-50.846767	97.356918
09067		-50.676250	-50.843153	97.399367
09068		-50.734258	-50.839222	97.437645
09069		-50.766929	-50.842219	97.472619
09070		-50.777590	-50.849847	97.509919
09071		-50.762632	-50.867357	97.537895
09072		-50.743456	-50.888073	97.563695
09073		-50.724870	-50.915405	97.585533
09074		-50.714634	-50.940681	97.611417
09075		-50.698899	-50.968844	97.635753
09076		-50.675308	-50.998720	97.658089
09077		-50.638193	-51.028369	97.675599
09078		-50.616173	-51.059816	97.698273
09079		-50.617597	-51.092692	97.721758
09080		-50.643182	-51.123875	97.749432
09081		-50.669559	-51.155957	97.770070
09082		-50.698649	-51.183538	97.790569
09083		-50.714121	-51.209908	97.801270
09084		-50.712177	-51.228011	97.804095
09085		-50.693125	-51.242222	97.797152
09086		-50.659411	-51.251717	97.783561
09087		-50.608051	-51.263234	97.758372
09088		-50.541842	-51.272981	97.730811
09089		-50.456491	-51.283911	97.690732
09090		-50.361583	-51.294093	97.638761
09091		-50.260339	-51.305982	97.576697
09092		-50.147270	-51.314589	97.499591
09093		-50.005991	-51.324897	97.401951
09094		-49.833725	-51.332146	97.287523
09095		-49.622577	-51.341207	97.154747
09096		-49.369293	-51.352225	97.010991
09097		-49.057439	-51.367394	96.847399
09098		-48.699959	-51.385650	96.670654
09099		-48.298493	-51.408563	96.477012
09100		-47.868752	-51.435768	96.269885
09101		-47.425425	-51.468380	96.047603
09102		-46.972316	-51.504460	95.814664
09103		-46.505050	-51.544990	95.562158
09104		-46.034124	-51.587809	95.298142
09105		-45.546248	-51.635960	95.014695
09106		-45.048805	-51.683845	94.721116
09107		-44.522728	-51.741081	94.402310
09108		-43.983044	-51.803202	94.072535
09109		-43.417951	-51.866687	93.725763
09110		-42.841438	-51.927492	93.368672
09111		-42.256074	-51.988677	92.992066
09112		-41.675241	-52.050254	92.605658
09113		-41.075443	-52.112030	92.193642
09114		-40.454262	-52.169977	91.759918
09115		-39.805342	-52.234332	91.298950
09116		-39.135199	-52.301865	90.821653
09117		-38.407916	-52.372456	90.299748
09118		-37.655914	-52.451865	89.752837
09119		-36.864524	-52.541063	89.161623
09120		-36.045381	-52.642339	88.534832
09121		-35.176311	-52.763783	87.860493
09122		-34.246882	-52.905080	87.136961
09123		-33.240891	-53.071598	86.357380
09124		-32.172980	-53.266598	85.537063
09125		-31.060988	-53.472201	84.687987
09126		-29.936396	-53.671493	83.844083
09127		-28.778246	-53.867339	82.993329
09128		-27.584110	-54.062463	82.125686
09129		-26.316552	-54.254647	81.214015
09130		-24.982944	-54.444650	80.267244
09131		-23.588249	-54.635610	79.284602
09132		-22.180565	-54.812758	78.303245
09133		-20.725711	-54.962627	77.309992
09134		-19.231285	-55.095994	76.311928
09135		-17.696353	-55.204631	75.298963
09136		-16.135384	-55.286345	74.273825
09137		-14.567356	-55.357030	73.226810
09138		-13.038583	-55.425760	72.167590
09139		-11.535196	-55.489519	71.080227
09140		-10.043594	-55.542580	69.967511
09141		-8.523198	-55.582198	68.816627
09142		-6.938456	-55.600837	67.640741
09143		-5.281392	-55.585181	66.454479
09144		-3.572832	-55.533849	65.274418
09145		-1.810330	-55.455852	64.083337
09146		-0.030293	-55.358996	62.884864
09147		1.778579	-55.236030	61.672043
09148		3.597582	-55.094471	60.449531
09149		5.438019	-54.935528	59.218358
09150		7.283040	-54.749300	57.995858
09151		9.170935	-54.536316	56.774977
09152		11.077982	-54.291322	55.574184
09153		13.004427	-54.011797	54.380484
09154		14.924271	-53.702812	53.192432
09155		16.840413	-53.357699	51.986427
09156		18.724735	-52.977176	50.766650
09157		20.610280	-52.557800	49.505755
09158		22.485185	-52.109582	48.203733
09159		24.359888	-51.623677	46.860515
09160		26.215771	-51.096144	45.479867
09161		28.058449	-50.526943	44.053858
09162		29.867351	-49.927291	42.618268
09163		31.636139	-49.281936	41.173875
09164		33.371822	-48.599693	39.739568
09165		35.099435	-47.870697	38.335881
09166		36.824047	-47.101120	36.971837
09167		38.549802	-46.288323	35.654388
09168		40.272203	-45.440279	34.381748
09169		41.965308	-44.546850	33.162467
09170		43.578701	-43.617403	32.009027
09171		45.094790	-42.648837	30.913496
09172		46.522202	-41.649678	29.898448
09173		47.891418	-40.628956	28.965694
09174		49.215562	-39.591653	28.142318
09175		50.529235	-38.538300	27.421067
09176		51.827763	-37.476839	26.802941
09177		53.106441	-36.406330	26.265789
09178		54.323003	-35.333288	25.802615
09179		55.436496	-34.253647	25.394738
09180		56.415185	-33.173304	25.031866
09181		57.245262	-32.097664	24.693385
09182		57.932658	-31.036708	24.385286
09183		58.525381	-29.998816	24.105592
09184		59.048262	-28.990649	23.855996
09185		59.548403	-28.007914	23.630611
09186		60.053995	-27.063554	23.434529
09187		60.576962	-26.154028	23.260757
09188		61.122374	-25.293786	23.105138
09189		61.670703	-24.475577	22.963867
09190		62.191856	-23.697783	22.835972
09191		62.682704	-22.957184	22.713946
09192		63.143141	-22.258818	22.603473
09193		63.576782	-21.601254	22.509323
09194		63.963277	-20.990286	22.434575
09195		64.300255	-20.414970	22.383917
09196		64.569367	-19.880129	22.362148
09197		64.759640	-19.375465	22.368368
09198		64.865427	-18.911030	22.400344
09199		64.917303	-18.480048	22.449554
09200		64.949562	-18.101270	22.514013
09201		64.984680	-17.770134	22.582033
09202		65.027276	-17.489611	22.651961
09203		65.060822	-17.248414	22.712831
09204		65.075177	-17.031516	22.765026
09205		65.081378	-16.835228	22.797467
09206		65.075504	-16.655830	22.820113
09207		65.079385	-16.489465	22.834184
09208		65.096086	-16.340294	22.849269
09209		65.129875	-16.198189	22.866994
09210		65.175947	-16.065266	22.888714
09211		65.226272	-15.936037	22.910055
09212		65.283923	-15.811807	22.934487
09213		65.345800	-15.685627	22.958927
09214		65.401101	-15.562100	22.984776
09215		65.442803	-15.430678	23.012743
09216		65.464218	-15.296477	23.046677
09217		65.467371	-15.155418	23.079345
09218		65.466925	-15.006405	23.114853
09219		65.479267	-14.850805	23.151704
09220		65.504313	-14.689085	23.193205
09221		65.540047	-14.518457	23.232637
09222		65.579696	-14.400746	23.240459
09223		65.577228	-14.426552	23.270231
09224		65.310100	-14.532093	23.375350
09225		64.766592	-14.548376	23.431438
09226		64.213016	-14.499929	23.415016
09227		63.892332	-14.454053	23.407856
09228		63.902780	-14.455472	23.443653
09229		64.130667	-14.494788	23.511475
09230		64.319956	-14.533206	23.589863
09231		64.349967	-14.549514	23.657899
09232		64.200558	-14.553562	23.711008
09233		63.963808	-14.540436	23.768830
09234		63.732002	-14.516951	23.841862
09235		63.553446	-14.490694	23.943002
09236		63.404927	-14.471979	24.055508
09237		63.238194	-14.439849	24.172490
09238		63.014166	-14.407107	24.286541
09239		62.710928	-14.370544	24.394170
09240		62.365027	-14.329345	24.494756
09241		62.046417	-14.284464	24.576646
09242		61.822053	-14.253155	24.642476
09243		61.703950	-14.228300	24.699243
09244		61.677600	-14.214909	24.742795
09245		61.699026	-14.210412	24.768317
09246		61.735564	-14.209229	24.778247
09247		61.777107	-14.206413	24.778895
09248		61.806996	-14.204434	24.775323
09249		61.831761	-14.200896	24.772533
09250		61.842516	-14.198281	24.776556
09251		61.833978	-14.189464	24.787443
09252		61.811195	-14.181407	24.800689
09253		61.769255	-14.172275	24.821964
09254		61.718389	-14.162534	24.851348
09255		61.657034	-14.150587	24.883799
09256		61.590922	-14.144204	24.913849
09257		61.524205	-14.136926	24.938741
09258		61.461304	-14.130449	24.961365
09259		61.422778	-14.124757	24.977873
09260		61.412351	-14.124568	24.996770
09261		61.403642	-14.121502	25.007550
09262		61.395667	-14.118752	25.017034
09263		61.390483	-14.112598	25.023343
09264		61.397193	-14.108139	25.035950
09265		61.418296	-14.103934	25.053835
09266		61.435957	-14.098975	25.074355
09267		61.440896	-14.091220	25.092852
09268		61.433610	-14.082083	25.115943
09269		61.443587	-14.076151	25.137269
09270		61.484074	-14.073600	25.158018
09271		61.566457	-14.073098	25.176547
09272		61.671873	-14.076182	25.194647
09273		61.786513	-14.077275	25.208801
09274		61.890754	-14.081781	25.221797
09275		61.971861	-14.081272	25.228958
09276		62.024530	-14.081613	25.233427
09277		62.068368	-14.084102	25.232122
09278		62.104459	-14.088790	25.234267
09279		62.137189	-14.092041	25.234748
09280		62.168987	-14.094034	25.237859
09281		62.190614	-14.093148	25.235658
09282		62.205190	-14.091190	25.234596
09283		62.216657	-14.086462	25.230054
09284		62.230948	-14.082697	25.221571
09285		62.243854	-14.079036	25.211932
09286		62.254176	-14.078881	25.202132
09287		62.263461	-14.075952	25.190844
09288		62.272071	-14.077103	25.180054
09289		62.281312	-14.074922	25.171905
09290		62.290036	-14.075245	25.165729
09291		62.297785	-14.072753	25.165821
09292		62.298687	-14.074268	25.168193
09293		62.292749	-14.071108	25.170384
09294		62.273289	-14.068936	25.172679
09295		62.260085	-14.064516	25.176494
09296		62.254326	-14.061256	25.181471
09297		62.261965	-14.056092	25.186517
09298		62.272617	-14.053452	25.190567
09299		62.293200	-14.047354	25.191381
09300		62.311200	-14.045156	25.198431
09301		62.341365	-14.043167	25.199137
09302		62.372056	-14.043131	25.198993
09303		62.415293	-14.042834	25.198283
09304		62.473073	-14.049668	25.197112
09305		62.544069	-14.057144	25.194390
09306		62.623912	-14.066491	25.190992
09307		62.721942	-14.074751	25.198430
09308		62.818319	-14.082913	25.211076
09309		62.916117	-14.087821	25.253291
09310		62.973609	-14.092239	25.278948
09311		63.000566	-14.093868	25.297427
09312		63.010556	-14.093358	25.327165
09313		63.032377	-14.092689	25.364932
09314		63.078133	-14.097681	25.411977
09315		63.160591	-14.103692	25.464213
09316		63.263667	-14.118163	25.520398
09317		63.379971	-14.143207	25.570880
09318		63.471412	-14.176567	25.623547
09319		63.529171	-14.216108	25.672450
09320		63.578760	-14.249146	25.702920
09321		63.690898	-14.326852	25.773319
09322		63.739538	-14.412342	25.860406
09323		63.697465	-14.504124	25.933948
09324		63.579544	-14.642294	26.013049
09325		63.391990	-14.833843	26.099197
09326		63.158135	-15.070841	26.193977
09327		62.905475	-15.349540	26.293639
09328		62.649543	-15.675137	26.396683
09329		62.396318	-16.042864	26.506980
09330		62.129471	-16.450643	26.624532
09331		61.835854	-16.890771	26.756269
09332		61.490432	-17.363978	26.896423
09333		61.090532	-17.864860	27.047496
09334		60.625447	-18.394104	27.211282
09335		60.117092	-18.951438	27.385828
09336		59.570847	-19.537889	27.578065
09337		59.005575	-20.154745	27.790978
09338		58.436871	-20.798194	28.026607
09339		57.879218	-21.463729	28.290833
09340		57.339583	-22.144940	28.581916
09341		56.813598	-22.835845	28.898318
09342		56.268506	-23.532419	29.248329
09343		55.692444	-24.233490	29.624597
09344		55.059034	-24.941679	30.025656
09345		54.372386	-25.657256	30.469305
09346		53.624108	-26.380582	30.918333
09347		52.823637	-27.104751	31.395045
09348		51.985086	-27.836319	31.896289
09349		51.109864	-28.567181	32.425535
09350		50.209902	-29.303203	32.982236
09351		49.284752	-30.037483	33.562496
09352		48.322305	-30.771426	34.166318
09353		47.327119	-31.499571	34.789620
09354		46.304101	-32.230988	35.432570
09355		45.254065	-32.962896	36.098705
09356		44.175485	-33.694232	36.782369
09357		43.085011	-34.421983	37.486169
09358		41.984984	-35.149172	38.215399
09359		40.875537	-35.871980	38.966970
09360		39.740832	-36.580826	39.744228
09361		38.570027	-37.274474	40.539604
09362		37.335373	-37.955672	41.360835
09363		36.020878	-38.616988	42.206116
09364		34.630300	-39.265619	43.062976
09365		33.184088	-39.899047	43.927600
09366		31.684964	-40.514271	44.815597
09367		30.143941	-41.117441	45.718454
09368		28.578984	-41.703729	46.637920
09369		27.009736	-42.268239	47.576040
09370		25.449916	-42.804666	48.537300
09371		23.911035	-43.308183	49.516048
09372		22.376416	-43.802386	50.506550
09373		20.818478	-44.277889	51.505482
09374		19.203427	-44.725778	52.506294
09375		17.526158	-45.149548	53.485346
09376		15.777512	-45.560310	54.444920
09377		13.991810	-45.954569	55.376511
09378		12.180734	-46.333350	56.283569
09379		10.375180	-46.703379	57.159761
09380		8.575906	-47.056269	58.043343
09381		6.790852	-47.337681	58.968367
09382		4.965686	-47.570857	59.894429
09383		3.046486	-47.786275	60.777721
09384		1.076345	-48.029224	61.614500
09385		-0.835088	-48.277876	62.441198
09386		-2.600150	-48.511440	63.287902
09387		-4.166726	-48.742060	64.151855
09388		-5.539483	-48.978432	65.024535
09389		-6.761741	-49.204071	65.902905
09390		-7.902864	-49.395794	66.792566
09391		-9.026599	-49.537820	67.687062
09392		-10.207157	-49.633790	68.585866
09393		-11.491602	-49.724336	69.461755
09394		-12.844552	-49.815146	70.322908
09395		-14.124038	-49.892296	71.160982
09396		-15.267874	-49.954676	71.980362
09397		-16.280246	-50.010351	72.777803
09398		-17.187470	-50.065429	73.556700
09399		-18.017380	-50.115968	74.302130
09400		-18.802584	-50.159488	75.026014
09401		-19.562464	-50.170537	75.731183
09402		-20.361850	-50.162195	76.418539
09403		-21.209591	-50.148204	77.074569
09404		-22.099753	-50.141662	77.706460
09405		-22.956776	-50.143409	78.312390
09406		-23.730018	-50.145398	78.897401
09407		-24.415209	-50.144620	79.470530
09408		-25.039084	-50.147551	80.031340
09409		-25.625538	-50.158421	80.575142
09410		-26.202296	-50.178292	81.114533
09411		-26.762949	-50.203612	81.640755
09412		-27.318149	-50.219498	82.151416
09413		-27.870365	-50.225769	82.646300
09414		-28.425797	-50.236540	83.121853
09415		-28.968203	-50.253504	83.574934
09416		-29.498008	-50.272095	84.014419
09417		-30.024303	-50.296880	84.434043
09418		-30.542761	-50.324358	84.842083
09419		-31.059371	-50.356077	85.237754
09420		-31.565310	-50.388991	85.629622
09421		-32.041373	-50.418849	86.013392
09422		-32.502258	-50.443819	86.390605
09423		-32.952492	-50.460794	86.750299
09424		-33.417158	-50.475126	87.093603
09425		-33.907984	-50.496186	87.422385
09426		-34.421348	-50.522852	87.741801
09427		-34.916945	-50.553580	88.038026
09428		-35.391064	-50.582692	88.323796
09429		-35.830895	-50.615655	88.598007
09430		-36.236200	-50.656598	88.861864
09431		-36.590928	-50.699127	89.116821
09432		-36.894963	-50.735787	89.364645
09433		-37.176429	-50.757371	89.608535
09434		-37.454097	-50.749616	89.836286
09435		-37.783098	-50.728262	90.049005
09436		-38.168289	-50.708145	90.254854
09437		-38.555570	-50.691804	90.441153
09438		-38.910322	-50.676859	90.620268
09439		-39.219271	-50.665219	90.782875
09440		-39.485503	-50.651759	90.933799
09441		-39.717708	-50.637602	91.067740
09442		-39.951366	-50.616530	91.189647
09443		-40.194648	-50.588153	91.298119
09444		-40.472910	-50.560880	91.396600
09445		-40.771675	-50.535978	91.497904
09446		-41.065510	-50.512876	91.594369
09447		-41.352231	-50.494368	91.683053
09448		-41.620805	-50.474667	91.770673
09449		-41.876227	-50.460189	91.856321
09450		-42.106820	-50.447611	91.934548
09451		-42.313836	-50.436989	92.001481
09452		-42.533777	-50.425843	92.070349
09453		-42.748881	-50.416839	92.139402
09454		-42.964678	-50.408149	92.211632
09455		-43.164502	-50.398276	92.281469
09456		-43.370962	-50.388500	92.354186
09457		-43.581830	-50.383088	92.425461
09458		-43.797095	-50.378615	92.494719
09459		-43.995118	-50.374890	92.552396
09460		-44.187517	-50.369261	92.612285
09461		-44.374250	-50.366652	92.673516
09462		-44.561667	-50.363687	92.723716
09463		-44.748859	-50.361613	92.752712
09464		-44.924708	-50.359234	92.777285
09465		-45.066177	-50.360870	92.796768
09466		-45.185501	-50.363105	92.818881
09467		-45.282022	-50.363936	92.841025
09468		-45.354818	-50.363929	92.860829
09469		-45.403817	-50.364320	92.876351
09470		-45.428863	-50.364150	92.894848
09471		-45.431678	-50.359633	92.909351
09472		-45.437004	-50.355313	92.927690
09473		-45.439367	-50.354311	92.939961
09474		-45.445270	-50.352415	92.949464
09475		-45.450266	-50.352407	92.963925
09476		-45.447098	-50.355653	92.977200
09477		-45.425180	-50.365347	92.982259
09478		-45.407966	-50.375995	92.990019
09479		-45.383658	-50.394366	92.993191
09480		-45.346970	-50.416681	92.995494
09481		-45.279662	-50.439686	92.985416
09482		-45.182523	-50.461501	92.969150
09483		-45.058055	-50.482016	92.949079
09484		-44.910581	-50.503880	92.922671
09485		-44.735158	-50.518139	92.879925
09486		-44.550366	-50.531333	92.832824
09487		-44.349260	-50.543590	92.778296
09488		-44.130097	-50.557904	92.724128
09489		-43.889369	-50.574513	92.668226
09490		-43.634872	-50.590920	92.613991
09491		-43.368322	-50.616840	92.561129
09492		-43.101001	-50.646813	92.506516
09493		-42.825659	-50.680966	92.442140
09494		-42.528419	-50.711423	92.352365
09495		-42.205835	-50.746747	92.230165
09496		-41.868058	-50.794864	92.097433
09497		-41.487902	-50.853938	91.949882
09498		-41.035218	-50.911976	91.779175
09499		-40.511388	-50.994414	91.580341
09500		-39.949477	-51.106661	91.381297
09501		-39.337278	-51.245337	91.168287
09502		-38.700177	-51.408237	90.956904
09503		-38.046611	-51.590034	90.738189
09504		-37.354355	-51.777105	90.485982
09505		-36.621321	-51.977795	90.202296
09506		-35.882884	-52.206874	89.915788
09507		-35.141701	-52.439109	89.616329
09508		-34.402842	-52.672350	89.307311
09509		-33.650907	-52.908119	88.985906
09510		-32.913478	-53.154618	88.663640
09511		-32.186222	-53.415529	88.333431
09512		-31.429675	-53.676331	87.983153
09513		-30.623029	-53.928234	87.608548
09514		-29.795834	-54.183715	87.217929
09515		-28.938637	-54.449064	86.805086
09516		-28.003135	-54.702918	86.356784
09517		-27.001869	-54.937766	85.866047
09518		-25.950294	-55.165013	85.334558
09519		-24.868249	-55.386645	84.771414
09520		-23.770110	-55.593988	84.184521
09521		-22.644541	-55.790074	83.559217
09522		-21.485144	-55.985374	82.894204
09523		-20.281538	-56.180266	82.181921
09524		-19.014945	-56.377863	81.416086
09525		-17.639466	-56.575264	80.579345
09526		-16.172291	-56.775849	79.680608
09527		-14.584157	-56.979275	78.695247
09528		-12.882734	-57.193517	77.613716
09529		-11.051520	-57.417432	76.410310
09530		-9.152975	-57.655358	75.091191
09531		-7.178860	-57.888250	73.667964
09532		-5.090887	-58.091687	72.156591
09533		-2.839792	-58.255579	70.568109
09534		-0.446081	-58.377802	68.922808
09535		2.035520	-58.449855	67.217482
09536		4.546679	-58.482272	65.437822
09537		7.042580	-58.480763	63.560822
09538		9.521922	-58.417025	61.601216
09539		12.006585	-58.280855	59.574023
09540		14.486324	-58.070010	57.525599
09541		16.975453	-57.788635	55.473514
09542		19.483183	-57.431083	53.440039
09543		21.997730	-57.007253	51.424823
09544		24.500720	-56.515698	49.454558
09545		26.973271	-55.956309	47.532798
09546		29.406680	-55.342376	45.656158
09547		31.798734	-54.668152	43.824559
09548		34.114095	-53.932286	42.050459
09549		36.341918	-53.136752	40.335982
09550		38.461172	-52.288169	38.698731
09551		40.460765	-51.388463	37.137096
09552		42.343106	-50.450232	35.639339
09553		44.120959	-49.478816	34.217378
09554		45.797439	-48.480601	32.898324
09555		47.384709	-47.453182	31.680264
09556		48.887755	-46.405268	30.576155
09557		50.301458	-45.330839	29.597482
09558		51.603214	-44.244393	28.723743
09559		52.774331	-43.158639	27.957612
09560		53.794955	-42.092487	27.286707
09561		54.669883	-41.041512	26.700894
09562		55.424257	-40.006010	26.201200
09563		56.076103	-38.988379	25.769398
09564		56.631686	-37.990223	25.400750
09565		57.088831	-37.001262	25.084414
09566		57.455497	-36.028664	24.815807
09567		57.741957	-35.073196	24.585804
09568		57.958334	-34.142555	24.382864
09569		58.134239	-33.233959	24.205296
09570		58.295069	-32.359055	24.061212
09571		58.448051	-31.513806	23.948811
09572		58.601437	-30.700028	23.854260
09573		58.759286	-29.908693	23.774276
09574		58.935352	-29.148491	23.716356
09575		59.117888	-28.411709	23.675013
09576		59.294382	-27.693182	23.647049
09577		59.471853	-26.989892	23.633084
09578		59.638146	-26.306906	23.629417
09579		59.784466	-25.639072	23.630408
09580		59.905740	-24.995178	23.637304
09581		60.018898	-24.370990	23.651886
09582		60.138990	-23.770144	23.674413
09583		60.274574	-23.190608	23.704065
09584		60.423190	-22.639876	23.734598
09585		60.571777	-22.112882	23.755544
09586		60.711113	-21.616541	23.756870
09587		60.858743	-21.151552	23.739642
09588		61.011866	-20.728643	23.704791
09589		61.166674	-20.341257	23.658265
09590		61.314017	-19.985787	23.606767
09591		61.453862	-19.658326	23.551348
09592		61.586816	-19.360622	23.496714
09593		61.705335	-19.082656	23.444566
09594		61.791557	-18.826716	23.398754
09595		61.847301	-18.586448	23.359407
09596		61.866949	-18.364918	23.327006
09597		61.871747	-18.155577	23.299699
09598		61.868156	-17.959969	23.285592
09599		61.859404	-17.768111	23.284443
09600		61.838849	-17.583080	23.290629
09601		61.814304	-17.399624	23.299298
09602		61.790802	-17.223037	23.320470
09603		61.777116	-17.051852	23.347957
09604		61.779093	-16.884599	23.378895
09605		61.792381	-16.718744	23.409881
09606		61.805177	-16.549392	23.443645
09607		61.812328	-16.379722	23.472948
09608		61.816970	-16.211501	23.495215
09609		61.826283	-16.041949	23.507568
09610		61.848679	-15.872459	23.517681
09611		61.888006	-15.699721	23.519249
09612		61.939317	-15.528294	23.516890
09613		62.005733	-15.348336	23.509907
09614		62.082149	-15.164968	23.501563
09615		62.175549	-14.976212	23.492315
09616		62.282409	-14.784849	23.486572
09617		62.398807	-14.588474	23.480128
09618		62.538679	-14.408575	23.479799
09619		62.708086	-14.255275	23.476320
09620		62.892170	-14.196324	23.443054
09621		63.025426	-14.261625	23.432601
09622		62.882529	-14.356191	23.472195
09623		62.551034	-14.400414	23.504123
09624		62.159346	-14.426460	23.494801
09625		61.810497	-14.427018	23.500565
09626		61.595033	-14.409134	23.505967
09627		61.559301	-14.397334	23.524329
09628		61.665842	-14.397771	23.569453
09629		61.824689	-14.397166	23.610624
09630		61.946757	-14.392564	23.644951
09631		62.003216	-14.389190	23.674734
09632		61.999447	-14.400472	23.715359
09633		61.951307	-14.414653	23.764891
09634		61.896966	-14.422799	23.817075
09635		61.883708	-14.418197	23.867249
09636		61.943673	-14.413549	23.915214
09637		62.052586	-14.411393	23.964873
09638		62.173505	-14.413275	24.018694
09639		62.249631	-14.415323	24.074081
09640		62.252880	-14.421107	24.117952
09641		62.199889	-14.422335	24.158084
09642		62.134492	-14.421564	24.194923
09643		62.107395	-14.420621	24.231519
09644		62.129590	-14.420979	24.268352
09645		62.180082	-14.421774	24.303714
09646		62.224748	-14.425927	24.332007
09647		62.252533	-14.427890	24.351383
09648		62.257736	-14.430517	24.363417
09649		62.252730	-14.433898	24.368880
09650		62.244238	-14.440880	24.370494
09651		62.240114	-14.447010	24.370198
09652		62.226890	-14.457430	24.370072
09653		62.212354	-14.465231	24.361402
09654		62.203290	-14.476538	24.352926
09655		62.201499	-14.488838	24.343462
09656		62.201928	-14.503205	24.335254
09657		62.199670	-14.515816	24.323293
09658		62.203020	-14.532850	24.311365
09659		62.212977	-14.550952	24.299263
09660		62.230021	-14.568607	24.289993
09661		62.254334	-14.580747	24.276678
09662		62.296181	-14.592496	24.265279
09663		62.349634	-14.600610	24.258105
09664		62.409110	-14.609413	24.259712
09665		62.448512	-14.610726	24.261098
09666		62.464229	-14.607005	24.261360
09667		62.456552	-14.599269	24.262519
09668		62.434726	-14.595330	24.262687
09669		62.415035	-14.583215	24.268329
09670		62.406977	-14.572592	24.277247
09671		62.401028	-14.557107	24.293165
09672		62.389908	-14.537865	24.313714
09673		62.364925	-14.512896	24.335359
09674		62.330589	-14.486546	24.359206
09675		62.294374	-14.458885	24.379673
09676		62.258273	-14.436146	24.404139
09677		62.221074	-14.410555	24.430381
09678		62.182447	-14.390514	24.456437
09679		62.145849	-14.368084	24.483367
09680		62.115600	-14.347267	24.511107
09681		62.097459	-14.325431	24.536207
09682		62.085814	-14.307058	24.557338
09683		62.086829	-14.288356	24.578196
09684		62.097385	-14.272630	24.594342
09685		62.106326	-14.258536	24.606692
09686		62.121976	-14.244013	24.614869
09687		62.141452	-14.227723	24.624684
09688		62.159985	-14.210857	24.636909
09689		62.177893	-14.191090	24.645648
09690		62.196964	-14.174088	24.652586
09691		62.213115	-14.159679	24.665006
09692		62.220941	-14.147311	24.681464
09693		62.214841	-14.140068	24.703432
09694		62.201114	-14.140606	24.728524
09695		62.171984	-14.142927	24.750246
09696		62.138042	-14.146440	24.777751
09697		62.081300	-14.152009	24.797356
09698		62.003624	-14.161036	24.797042
09699		61.934877	-14.185348	24.820761
09700		61.828342	-14.219203	24.833472
09701		61.694899	-14.269506	24.837041
09702		61.527028	-14.342491	24.842065
09703		61.320839	-14.439142	24.842863
09704		61.079983	-14.563401	24.846792
09705		60.818455	-14.713822	24.850232
09706		60.534396	-14.895178	24.856804
09707		60.244061	-15.105380	24.870759
09708		59.944442	-15.341108	24.891110
09709		59.646893	-15.600249	24.922054
09710		59.351003	-15.881572	24.965461
09711		59.045433	-16.178393	25.023083
09712		58.717319	-16.492849	25.095359
09713		58.366634	-16.822971	25.185100
09714		57.992796	-17.167912	25.298746
09715		57.600671	-17.528479	25.437490
09716		57.194149	-17.909220	25.606629
09717		56.786365	-18.305877	25.804800
09718		56.376303	-18.722120	26.034165
09719		55.959576	-19.159091	26.287562
09720		55.533241	-19.618204	26.563499
09721		55.092484	-20.097591	26.854045
09722		54.634466	-20.594350	27.154907
09723		54.145199	-21.109192	27.464696
09724		53.613717	-21.634269	27.780198
09725		53.038711	-22.171183	28.104074
09726		52.421398	-22.711470	28.439088
09727		51.771755	-23.261174	28.784719
09728		51.088489	-23.814993	29.143533
09729		50.373785	-24.374343	29.517014
09730		49.637782	-24.943502	29.905493
09731		48.887569	-25.514068	30.309821
09732		48.138978	-26.085171	30.732854
09733		47.398063	-26.658044	31.169290
09734		46.658768	-27.224695	31.615054
09735		45.920954	-27.789678	32.067419
09736		45.169286	-28.348151	32.526725
09737		44.409945	-28.905760	32.991459
09738		43.629772	-29.466302	33.458826
09739		42.824731	-30.027045	33.924034
09740		41.994707	-30.594851	34.391570
09741		41.140446	-31.168040	34.862130
09742		40.255494	-31.751477	35.341409
09743		39.342759	-32.346254	35.835356
09744		38.403560	-32.954096	36.346995
09745		37.463919	-33.570680	36.880408
09746		36.525954	-34.197159	37.431531
09747		35.577710	-34.830449	37.998506
09748		34.607038	-35.474651	38.583222
09749		33.585864	-36.123024	39.185763
09750		32.514960	-36.774720	39.809599
09751		31.388229	-37.429826	40.456652
09752		30.206237	-38.086480	41.129231
09753		28.983417	-38.738982	41.829074
09754		27.733149	-39.391926	42.559449
09755		26.454825	-40.043352	43.314453
09756		25.168371	-40.691161	44.093055
09757		23.899611	-41.329918	44.890012
09758		22.668890	-41.953322	45.707151
09759		21.476526	-42.561416	46.546577
09760		20.319459	-43.156945	47.403306
09761		19.200698	-43.736083	48.274525
09762		18.112912	-44.298447	49.161812
09763		17.041116	-44.844206	50.062935
09764		15.958455	-45.373932	50.976465
09765		14.848152	-45.885632	51.888178
09766		13.719562	-46.380865	52.803354
09767		12.566727	-46.853317	53.730798
09768		11.386897	-47.302731	54.671324
09769		10.175079	-47.731003	55.620361
09770		8.936780	-48.138808	56.579365
09771		7.667623	-48.522358	57.548272
09772		6.392208	-48.880381	58.519164
09773		5.134447	-49.218181	59.486717
09774		3.874114	-49.537825	60.454658
09775		2.625623	-49.836020	61.416258
09776		1.394147	-50.108804	62.385743
09777		0.154553	-50.345609	63.359983
09778		-1.136407	-50.560405	64.335079
09779		-2.488860	-50.751626	65.306767
09780		-3.875423	-50.926386	66.273108
09781		-5.251850	-51.092427	67.223762
09782		-6.582698	-51.241643	68.169729
09783		-7.875988	-51.375279	69.104966
09784		-9.129576	-51.506715	70.016581
09785		-10.344057	-51.626612	70.892931
09786		-11.546775	-51.743889	71.748336
09787		-12.769021	-51.853932	72.583950
09788		-14.008078	-51.942048	73.395187
09789		-15.320797	-52.014850	74.170018
09790		-16.750605	-52.063490	74.910029
09791		-18.275866	-52.096481	75.617076
09792		-19.854957	-52.120129	76.306930
09793		-21.442426	-52.136791	76.989086
09794		-22.979182	-52.150036	77.660673
09795		-24.389203	-52.146928	78.322312
09796		-25.649598	-52.125224	78.985060
09797		-26.763206	-52.078025	79.646519
09798		-27.724259	-52.011580	80.293436
09799		-28.585691	-51.941858	80.920351
09800		-29.349052	-51.865313	81.523178
09801		-30.016849	-51.792217	82.088723
09802		-30.610963	-51.729534	82.610546
09803		-31.149874	-51.675541	83.088473
09804		-31.649738	-51.635879	83.517864
09805		-32.123809	-51.609018	83.913151
09806		-32.587706	-51.592494	84.276129
09807		-33.011219	-51.576486	84.602966
09808		-33.407875	-51.566405	84.901364
09809		-33.761532	-51.560116	85.167070
09810		-34.071299	-51.559339	85.411782
09811		-34.333112	-51.557081	85.633330
09812		-34.574015	-51.551760	85.840656
09813		-34.803698	-51.546034	86.041040
09814		-35.038975	-51.541611	86.232658
09815		-35.275242	-51.539937	86.415685
09816		-35.512646	-51.537921	86.595128
09817		-35.760773	-51.534002	86.774244
09818		-36.017379	-51.527843	86.960218
09819		-36.282531	-51.516280	87.146360
09820		-36.567996	-51.497436	87.341368
09821		-36.860641	-51.466680	87.533218
09822		-37.153647	-51.429667	87.727230
09823		-37.443007	-51.386913	87.926759
09824		-37.733432	-51.338019	88.136600
09825		-38.011325	-51.286932	88.348742
09826		-38.289885	-51.235195	88.568835
09827		-38.581939	-51.178786	88.797389
09828		-38.880936	-51.121232	89.032762
09829		-39.190516	-51.070721	89.267274
09830		-39.531891	-51.031042	89.503507
09831		-39.889473	-50.998052	89.735396
09832		-40.260672	-50.964508	89.966493
09833		-40.650053	-50.923307	90.206704
09834		-41.069244	-50.882168	90.458550
09835		-41.494351	-50.843899	90.717945
09836		-41.883719	-50.807504	90.976825
09837		-42.228926	-50.772027	91.230569
09838		-42.527739	-50.739279	91.480954
09839		-42.790099	-50.706245	91.723182
09840		-43.038238	-50.680269	91.949083
09841		-43.260324	-50.661199	92.147975
09842		-43.481369	-50.644501	92.326762
09843		-43.690195	-50.629325	92.478967
09844		-43.891700	-50.616430	92.612790
09845		-44.061389	-50.606873	92.714875
09846		-44.204161	-50.597382	92.807100
09847		-44.306389	-50.583075	92.873425
09848		-44.390354	-50.563804	92.926972
09849		-44.448652	-50.541621	92.964257
09850		-44.483341	-50.514765	92.992540
09851		-44.496214	-50.485612	93.004112
09852		-44.498032	-50.458527	93.007993
09853		-44.491783	-50.432287	92.996607
09854		-44.490219	-50.404594	92.979871
09855		-44.489664	-50.371945	92.954652
09856		-44.498580	-50.337356	92.927104
09857		-44.515383	-50.305618	92.900818
09858		-44.543456	-50.276662	92.883097
09859		-44.567160	-50.249583	92.869342
09860		-44.583985	-50.229086	92.863082
09861		-44.593780	-50.217662	92.865886
09862		-44.598317	-50.208865	92.875688
09863		-44.611303	-50.205145	92.892741
09864		-44.634397	-50.210047	92.916165
09865		-44.655095	-50.221710	92.938753
09866		-44.672885	-50.239102	92.959634
09867		-44.684462	-50.265035	92.978096
09868		-44.689744	-50.294126	92.996088
09869		-44.679444	-50.321923	93.005202
09870		-44.658428	-50.354545	93.008789
09871		-44.610320	-50.388031	93.001435
09872		-44.534535	-50.421279	92.982215
09873		-44.430158	-50.450811	92.950002
09874		-44.303222	-50.477583	92.909664
09875		-44.137388	-50.501675	92.842186
09876		-43.925713	-50.520789	92.749084
09877		-43.661045	-50.537991	92.624894
09878		-43.352985	-50.556297	92.472526
09879		-42.990284	-50.576138	92.279589
09880		-42.586030	-50.595236	92.054742
09881		-42.152861	-50.618478	91.798843
09882		-41.688891	-50.646174	91.511297
09883		-41.175830	-50.672917	91.189453
09884		-40.622490	-50.700046	90.844303
09885		-40.033544	-50.729866	90.469510
09886		-39.423920	-50.761437	90.072094
09887		-38.785846	-50.798170	89.646310
09888		-38.114348	-50.838154	89.191625
09889		-37.400712	-50.878577	88.707987
09890		-36.641283	-50.918330	88.195767
09891		-35.833575	-50.951127	87.654687
09892		-34.992119	-50.979737	87.082277
09893		-34.123525	-51.008540	86.484051
09894		-33.218334	-51.030572	85.860272
09895		-32.274052	-51.044603	85.215059
09896		-31.286164	-51.046953	84.540960
09897		-30.267725	-51.045352	83.840586
09898		-29.220173	-51.038295	83.105491
09899		-28.145758	-51.017832	82.335738
09900		-27.069087	-50.994636	81.542104
09901		-26.009277	-50.970235	80.732671
09902		-24.937030	-50.944578	79.894106
09903		-23.826822	-50.906201	79.034482
09904		-22.677913	-50.861503	78.156149
09905		-21.487648	-50.806432	77.260631
09906		-20.252850	-50.739164	76.344934
09907		-18.973103	-50.665297	75.396374
09908		-17.678202	-50.588174	74.425461
09909		-16.367920	-50.499913	73.441798
09910		-15.053882	-50.405559	72.445935
09911		-13.746351	-50.304912	71.444615
09912		-12.452069	-50.199035	70.444307
09913		-11.177785	-50.089531	69.442290
09914		-9.946243	-49.982388	68.443780
09915		-8.754133	-49.877277	67.446426
09916		-7.572756	-49.773572	66.455123
09917		-6.366021	-49.659541	65.475836
09918		-5.121838	-49.532316	64.520856
09919		-3.838948	-49.391949	63.586844
09920		-2.523287	-49.240009	62.666983
09921		-1.182429	-49.080738	61.750469
09922		0.180412	-48.908889	60.832194
09923		1.536303	-48.726647	59.916966
09924		2.895725	-48.531458	58.995461
09925		4.253510	-48.321709	58.064829
09926		5.590545	-48.101012	57.129199
09927		6.892618	-47.868970	56.184644
09928		8.157644	-47.621875	55.225443
09929		9.409317	-47.351806	54.248762
09930		10.662631	-47.062588	53.251032
09931		11.927823	-46.757718	52.234221
09932		13.203426	-46.438117	51.207323
09933		14.498808	-46.102397	50.168230
09934		15.810479	-45.749383	49.127366
09935		17.135333	-45.379347	48.086925
09936		18.473815	-44.996458	47.046848
09937		19.829850	-44.603924	46.001894
09938		21.213320	-44.200174	44.960757
09939		22.616897	-43.782410	43.931728
09940		24.042404	-43.351978	42.906987
09941		25.495103	-42.905245	41.889718
09942		26.950965	-42.443930	40.902853
09943		28.389013	-41.960882	39.937840
09944		29.790815	-41.458832	38.997900
09945		31.132855	-40.939641	38.086035
09946		32.404161	-40.398873	37.200403
09947		33.621961	-39.836475	36.335038
09948		34.796990	-39.263629	35.485089
09949		35.925663	-38.679736	34.657322
09950		37.005644	-38.088398	33.856526
09951		38.054129	-37.482223	33.082456
09952		39.077690	-36.870273	32.338028
09953		40.099664	-36.250066	31.631725
09954		41.120142	-35.626190	30.963033
09955		42.140015	-34.997065	30.335722
09956		43.129486	-34.368613	29.755354
09957		44.101909	-33.739780	29.202204
09958		45.053072	-33.128224	28.678168
09959		45.990167	-32.526126	28.196000
09960		46.909480	-31.932415	27.758755
09961		47.813489	-31.343901	27.359552
09962		48.692968	-30.767067	26.998734
09963		49.541108	-30.195369	26.670272
09964		50.345242	-29.632395	26.371780
09965		51.092360	-29.069387	26.098847
09966		51.780583	-28.519774	25.851728
09967		52.405032	-27.979446	25.630546
09968		52.967450	-27.457723	25.433041
09969		53.482429	-26.951572	25.255237
09970		53.963106	-26.466729	25.108320
09971		54.405684	-25.999470	24.989655
09972		54.814334	-25.548197	24.881665
09973		55.216240	-25.117753	24.790507
09974		55.603269	-24.706768	24.722342
09975		55.977882	-24.310736	24.674147
09976		56.332385	-23.933144	24.637252
09977		56.658613	-23.566780	24.602555
09978		56.947309	-23.213836	24.571615
09979		57.198778	-22.871866	24.545137
09980		57.425654	-22.547509	24.517424
09981		57.638501	-22.240874	24.495614
09982		57.837758	-21.949647	24.481329
09983		58.042643	-21.674472	24.470114
09984		58.252906	-21.413011	24.460045
09985		58.481020	-21.159069	24.448874
09986		58.719340	-20.911717	24.436171
09987		58.967970	-20.674726	24.421181
09988		59.210842	-20.440477	24.407836
09989		59.450804	-20.212742	24.396454
09990		59.693070	-19.999126	24.391513
09991		59.935551	-19.793531	24.396426
09992		60.190571	-19.598436	24.411554
09993		60.469574	-19.413157	24.438458
09994		60.770041	-19.238231	24.474935
09995		61.085528	-19.073345	24.519281
09996		61.398757	-18.916229	24.571204
09997		61.697037	-18.766772	24.617819
09998		61.946174	-18.626216	24.660619
09999		62.144567	-18.489857	24.698222
10000		62.300539	-18.359628	24.725661
10001		62.423906	-18.237522	24.747869
10002		62.529151	-18.125048	24.765328
10003		62.628291	-18.021772	24.778842
10004		62.725492	-17.927866	24.792680
10005		62.818939	-17.836367	24.808509
10006		62.916811	-17.753524	24.824224
10007		63.018791	-17.675236	24.843968
10008		63.120544	-17.601122	24.869306
10009		63.216419	-17.526092	24.896327
10010		63.301933	-17.453601	24.926786
10011		63.368132	-17.379833	24.960750
10012		63.423285	-17.305078	24.996164
10013		63.470570	-17.225426	25.034266
10014		63.506757	-17.143802	25.073922
10015		63.545577	-17.057593	25.116540
10016		63.579378	-16.970947	25.162045
10017		63.617273	-16.882177	25.207225
10018		63.653345	-16.794978	25.252868
10019		63.679578	-16.706836	25.294745
10020		63.705337	-16.614313	25.335518
10021		63.732216	-16.516950	25.375189
10022		63.769791	-16.417027	25.411804
10023		63.816320	-16.310102	25.443581
10024		63.864412	-16.200159	25.470340
10025		63.907905	-16.081830	25.494159
10026		63.951133	-15.956681	25.515213
10027		63.998183	-15.829464	25.536086
10028		64.062941	-15.698526	25.560025
10029		64.147920	-15.564142	25.584221
10030		64.251029	-15.429836	25.610995
10031		64.363198	-15.294489	25.641389
10032		64.487270	-15.159911	25.674681
10033		64.619312	-15.023057	25.711449
10034		64.774359	-14.924469	25.734395
10035		64.858349	-14.914513	25.764707
10036		64.732897	-14.959754	25.849003
10037		64.392670	-14.975942	25.916302
10038		64.005226	-14.944879	25.937782
10039		63.756092	-14.898952	25.965710
10040		63.757026	-14.863995	26.023104
10041		63.928560	-14.842746	26.092597
10042		64.115029	-14.820146	26.165606
10043		64.202985	-14.801005	26.231007
10044		64.134753	-14.791860	26.280316
10045		63.948175	-14.780588	26.330203
10046		63.744599	-14.759445	26.372703
10047		63.609292	-14.733710	26.416902
10048		63.573510	-14.711022	26.464605
10049		63.600013	-14.690695	26.514234
10050		63.619777	-14.671684	26.560358
10051		63.590234	-14.653138	26.597512
10052		63.502225	-14.639040	26.625105
10053		63.392872	-14.626703	26.644854
10054		63.304718	-14.618641	26.660781
10055		63.253143	-14.615177	26.673356
10056		63.240874	-14.615074	26.682241
10057		63.245593	-14.617764	26.685201
10058		63.252505	-14.620212	26.682588
10059		63.253668	-14.621445	26.673764
10060		63.257520	-14.628955	26.661698
10061		63.252839	-14.634424	26.646779
10062		63.245387	-14.640239	26.629380
10063		63.235939	-14.646277	26.608520
10064		63.232032	-14.652223	26.588297
10065		63.224878	-14.656173	26.569032
10066		63.221354	-14.655221	26.552718
10067		63.224674	-14.655668	26.538310
10068		63.235560	-14.656883	26.526503
10069		63.252772	-14.653963	26.518654
10070		63.264958	-14.652815	26.512572
10071		63.272929	-14.647795	26.508551
10072		63.275199	-14.640312	26.505666
10073		63.269826	-14.631458	26.506050
10074		63.263770	-14.622147	26.507371
10075		63.257230	-14.608791	26.514982
10076		63.253448	-14.595102	26.525226
10077		63.256372	-14.577969	26.541835
10078		63.254417	-14.559260	26.558617
10079		63.244352	-14.538577	26.576277
10080		63.224251	-14.519863	26.593044
10081		63.202351	-14.501131	26.608897
10082		63.190112	-14.482951	26.624930
10083		63.191269	-14.471176	26.640717
10084		63.198677	-14.460787	26.659362
10085		63.219777	-14.456479	26.680303
10086		63.240646	-14.456198	26.700263
10087		63.261170	-14.454545	26.720398
10088		63.289465	-14.458458	26.738690
10089		63.319204	-14.466493	26.753523
10090		63.349092	-14.478199	26.769879
10091		63.374971	-14.491374	26.780569
10092		63.398892	-14.513573	26.783699
10093		63.421663	-14.537404	26.779153
10094		63.476435	-14.570714	26.788760
10095		63.526648	-14.607191	26.809298
10096		63.576630	-14.645670	26.824544
10097		63.607140	-14.689132	26.838171
10098		63.629640	-14.732722	26.854443
10099		63.651406	-14.786847	26.862534
10100		63.671371	-14.850556	26.874466
10101		63.674323	-14.935247	26.891960
10102		63.634400	-15.041531	26.906151
10103		63.556679	-15.173120	26.926255
10104		63.442546	-15.334560	26.961234
10105		63.294962	-15.520439	27.003996
10106		63.119129	-15.735311	27.051671
10107		62.910848	-15.976809	27.099974
10108		62.668453	-16.249371	27.148513
10109		62.397927	-16.544989	27.192388
10110		62.110324	-16.867407	27.237594
10111		61.801717	-17.209439	27.288063
10112		61.476810	-17.569608	27.341693
10113		61.133191	-17.948340	27.394806
10114		60.781456	-18.347381	27.449743
10115		60.431231	-18.768352	27.508392
10116		60.078226	-19.206049	27.575115
10117		59.723732	-19.666088	27.647257
10118		59.363598	-20.142039	27.723499
10119		58.977164	-20.634368	27.801581
10120		58.554795	-21.139417	27.882372
10121		58.095508	-21.655542	27.968733
10122		57.603816	-22.181528	28.061758
10123		57.085505	-22.724113	28.159045
10124		56.549423	-23.284930	28.260725
10125		55.998017	-23.865012	28.368368
10126		55.431087	-24.461778	28.476081
10127		54.844356	-25.075690	28.586276
10128		54.252775	-25.703761	28.700487
10129		53.650385	-26.347567	28.818949
10130		53.044478	-27.005871	28.942144
10131		52.428987	-27.680923	29.069080
10132		51.798023	-28.366751	29.204188
10133		51.163296	-29.066986	29.349591
10134		50.529560	-29.775834	29.503378
10135		49.896493	-30.492639	29.666553
10136		49.260290	-31.209412	29.843992
10137		48.621793	-31.925123	30.046013
10138		47.951305	-32.637422	30.270625
10139		47.235571	-33.346826	30.516839
10140		46.473579	-34.053637	30.777842
10141		45.675646	-34.759535	31.053678
10142		44.878535	-35.458561	31.345040
10143		44.113849	-36.159596	31.656652
10144		43.384333	-36.860648	31.992394
10145		42.688197	-37.563374	32.346125
10146		42.009100	-38.267614	32.714312
10147		41.338526	-38.971106	33.091744
10148		40.664916	-39.674117	33.483905
10149		40.002538	-40.369190	33.895905
10150		39.343217	-41.061678	34.336690
10151		38.671996	-41.743290	34.803228
10152		37.970102	-42.415754	35.294144
10153		37.226517	-43.080998	35.806287
10154		36.455689	-43.740580	36.331225
10155		35.676948	-44.394358	36.867135
10156		34.901274	-45.042545	37.419240
10157		34.134780	-45.684617	37.986574
10158		33.382627	-46.323125	38.566241
10159		32.640281	-46.956032	39.159341
10160		31.901596	-47.583301	39.780423
10161		31.141613	-48.200908	40.440740
10162		30.341426	-48.802447	41.135193
10163		29.493782	-49.389843	41.851033
10164		28.603376	-49.966897	42.579523
10165		27.666430	-50.531111	43.324668
10166		26.697757	-51.080941	44.084626
10167		25.703391	-51.619780	44.851955
10168		24.699337	-52.152159	45.627561
10169		23.681672	-52.676603	46.416661
10170		22.643026	-53.190258	47.231432
10171		21.586278	-53.688423	48.070006
10172		20.502450	-54.168404	48.948281
10173		19.381075	-54.621323	49.860840
10174		18.212315	-55.061464	50.798673
10175		17.014319	-55.487562	51.751105
10176		15.802369	-55.900414	52.720496
10177		14.593065	-56.295379	53.706731
10178		13.406348	-56.674405	54.709197
10179		12.244516	-57.036252	55.721564
10180		11.100258	-57.381880	56.748158
10181		9.957183	-57.702115	57.785479
10182		8.806426	-57.998710	58.831903
10183		7.636607	-58.273785	59.893556
10184		6.443076	-58.522679	60.972945
10185		5.223233	-58.749016	62.065649
10186		3.973573	-58.961059	63.158243
10187		2.705850	-59.150486	64.242646
10188		1.412638	-59.317335	65.326342
10189		0.134747	-59.466975	66.392361
10190		-1.125234	-59.600505	67.446550
10191		-2.348007	-59.719946	68.481200
10192		-3.533964	-59.829123	69.496494
10193		-4.697016	-59.929956	70.490391
10194		-5.838287	-60.022985	71.460641
10195		-6.971697	-60.111726	72.409463
10196		-8.095486	-60.178963	73.350184
10197		-9.199937	-60.233747	74.267204
10198		-10.288982	-60.269769	75.172907
10199		-11.361268	-60.286793	76.057430
10200		-12.425498	-60.294150	76.915771
10201		-13.477912	-60.288819	77.743346
10202		-14.517949	-60.281208	78.541128
10203		-15.522283	-60.276810	79.301842
10204		-16.492975	-60.267307	80.033065
10205		-17.417402	-60.252605	80.726877
10206		-18.310542	-60.234692	81.399734
10207		-19.148957	-60.209536	82.041938
10208		-19.938377	-60.185685	82.653423
10209		-20.697276	-60.158401	83.244315
10210		-21.428289	-60.130696	83.813712
10211		-22.119169	-60.100532	84.352295
10212		-22.766351	-60.071934	84.852713
10213		-23.383767	-60.046854	85.326862
10214		-23.970581	-60.030376	85.774426
10215		-24.539175	-60.019712	86.201245
10216		-25.081465	-60.014444	86.599897
10217		-25.605340	-60.011890	86.974060
10218		-26.114487	-60.009147	87.335254
10219		-26.597838	-60.012429	87.679672
10220		-27.066320	-60.009529	88.016018
10221		-27.501228	-60.004874	88.328441
10222		-27.912109	-60.006076	88.621830
10223		-28.306235	-60.006306	88.905549
10224		-28.693347	-60.007033	89.169559
10225		-29.078738	-60.005008	89.418047
10226		-29.473751	-59.998439	89.657902
10227		-29.861732	-59.995418	89.875843
10228		-30.242454	-59.992312	90.093059
10229		-30.618729	-59.987712	90.306281
10230		-30.990790	-59.983912	90.523025
10231		-31.362870	-59.980086	90.729030
10232		-31.747234	-59.975999	90.933846
10233		-32.150413	-59.973500	91.137487
10234		-32.548357	-59.968998	91.336699
10235		-32.939412	-59.960076	91.530254
10236		-33.341215	-59.951645	91.729410
10237		-33.735072	-59.942857	91.927462
10238		-34.104467	-59.936131	92.120085
10239		-34.454007	-59.927344	92.311452
10240		-34.806170	-59.914174	92.519462
10241		-35.142957	-59.897373	92.727936
10242		-35.473417	-59.881777	92.950285
10243		-35.804502	-59.857935	93.178333
10244		-36.131310	-59.836550	93.416986
10245		-36.429153	-59.811268	93.646991
10246		-36.713696	-59.787263	93.871089
10247		-36.983507	-59.765092	94.099297
10248		-37.232777	-59.742559	94.319301
10249		-37.457650	-59.722740	94.526125
10250		-37.657356	-59.702398	94.716908
10251		-37.841916	-59.686389	94.888860
10252		-38.008136	-59.669746	95.043721
10253		-38.155606	-59.658895	95.174654
10254		-38.287971	-59.648987	95.280644
10255		-38.410877	-59.636903	95.364768
10256		-38.527781	-59.625325	95.432976
10257		-38.625870	-59.614170	95.478670
10258		-38.693508	-59.601538	95.496275
10259		-38.741975	-59.593334	95.496578
10260		-38.766332	-59.588063	95.492713
10261		-38.746935	-59.580372	95.468864
10262		-38.692518	-59.576854	95.429274
10263		-38.628041	-59.577163	95.381422
10264		-38.565939	-59.580612	95.335080
10265		-38.515022	-59.589364	95.288151
10266		-38.473434	-59.602549	95.237683
10267		-38.451018	-59.617652	95.195262
10268		-38.430561	-59.634679	95.159224
10269		-38.399103	-59.653892	95.121094
10270		-38.363957	-59.669461	95.086069
10271		-38.315836	-59.681520	95.048396
10272		-38.253733	-59.691956	95.008131
10273		-38.170799	-59.697100	94.965257
10274		-38.075492	-59.698724	94.915781
10275		-37.967899	-59.701988	94.850086
10276		-37.842022	-59.703615	94.760955
10277		-37.699797	-59.703296	94.650980
10278		-37.537586	-59.702696	94.523326
10279		-37.336345	-59.692289	94.366129
10280		-37.092446	-59.678383	94.172981
10281		-36.822160	-59.660816	93.950406
10282		-36.519858	-59.641762	93.698944
10283		-36.193014	-59.624825	93.428512
10284		-35.830773	-59.616208	93.143945
10285		-35.401579	-59.612440	92.830566
10286		-34.904624	-59.611558	92.493306
10287		-34.355049	-59.617658	92.144362
10288		-33.760516	-59.631625	91.779838
10289		-33.127136	-59.649081	91.381670
10290		-32.471733	-59.673314	90.945167
10291		-31.816842	-59.700635	90.487861
10292		-31.150806	-59.733766	89.998852
10293		-30.468203	-59.764694	89.478025
10294		-29.775257	-59.794112	88.930303
10295		-29.055477	-59.817732	88.347479
10296		-28.319089	-59.836618	87.735688
10297		-27.557133	-59.855423	87.080487
10298		-26.761923	-59.880085	86.378781
10299		-25.903061	-59.902357	85.616790
10300		-24.976500	-59.925115	84.793221
10301		-23.988890	-59.946617	83.913273
10302		-22.929833	-59.961370	82.977946
10303		-21.781936	-59.966593	81.975659
10304		-20.555823	-59.968811	80.908451
10305		-19.265437	-59.968290	79.778804
10306		-17.928145	-59.964995	78.597547
10307		-16.549091	-59.957310	77.369299
10308		-15.115568	-59.945854	76.093939
10309		-13.614714	-59.929120	74.755686
10310		-12.052951	-59.908091	73.369185
10311		-10.433153	-59.880807	71.942809
10312		-8.757568	-59.842362	70.486142
10313		-7.015962	-59.781420	68.999799
10314		-5.204710	-59.698777	67.488239
10315		-3.330251	-59.589697	65.964447
10316		-1.412413	-59.448654	64.430995
10317		0.518896	-59.282460	62.890675
10318		2.433797	-59.095121	61.338797
10319		4.320844	-58.887503	59.767006
10320		6.186208	-58.653503	58.171645
10321		8.027232	-58.386642	56.571869
10322		9.858666	-58.086164	54.973397
10323		11.700060	-57.754823	53.377604
10324		13.551735	-57.385213	51.801213
10325		15.401165	-56.976497	50.255386
10326		17.245397	-56.529491	48.751833
10327		19.073566	-56.052542	47.295012
10328		20.876302	-55.546533	45.886696
10329		22.651617	-55.006433	44.527990
10330		24.401376	-54.429466	43.219350
10331		26.133580	-53.823970	41.958410
10332		27.832153	-53.192457	40.749606
10333		29.479807	-52.540568	39.598436
10334		31.051269	-51.868750	38.503589
10335		32.542930	-51.182398	37.454435
10336		33.949726	-50.481404	36.452406
10337		35.259748	-49.763956	35.501080
10338		36.494595	-49.029234	34.601413
10339		37.676728	-48.286504	33.746800
10340		38.812337	-47.533418	32.955869
10341		39.895002	-46.773183	32.223460
10342		40.948078	-46.011407	31.535080
10343		41.973197	-45.245880	30.887917
10344		42.963495	-44.478848	30.275972
10345		43.918795	-43.710614	29.706719
10346		44.833858	-42.948572	29.173245
10347		45.704045	-42.194745	28.683966
10348		46.532177	-41.445177	28.245178
10349		47.333321	-40.696766	27.856805
10350		48.129836	-39.951744	27.513867
10351		48.943252	-39.215349	27.215991
10352		49.776110	-38.486477	26.960000
10353		50.612717	-37.763278	26.743488
10354		51.438766	-37.056147	26.568770
10355		52.228912	-36.360970	26.414993
10356		52.964565	-35.685958	26.265263
10357		53.647059	-35.029968	26.117343
10358		54.238758	-34.395764	25.969012
10359		54.760469	-33.777941	25.809930
10360		55.246800	-33.178637	25.646590
10361		55.707598	-32.595709	25.489094
10362		56.155049	-32.025881	25.348135
10363		56.592564	-31.465880	25.221510
10364		57.022790	-30.924327	25.101046
10365		57.436556	-30.393315	24.985592
10366		57.853379	-29.877260	24.869263
10367		58.285631	-29.371071	24.760867
10368		58.758165	-28.879326	24.660282
10369		59.266148	-28.402412	24.571583
10370		59.790205	-27.944956	24.500679
10371		60.305928	-27.501737	24.438292
10372		60.766010	-27.067427	24.382709
10373		61.172351	-26.640281	24.326761
10374		61.516159	-26.219373	24.272702
10375		61.796110	-25.801003	24.224992
10376		62.046013	-25.391832	24.180931
10377		62.273707	-24.993069	24.142374
10378		62.482296	-24.606585	24.105715
10379		62.672153	-24.229072	24.068041
10380		62.841844	-23.858456	24.029629
10381		63.006215	-23.497967	23.986906
10382		63.170237	-23.151634	23.940806
10383		63.332949	-22.817470	23.895330
10384		63.495461	-22.497236	23.845106
10385		63.659177	-22.187487	23.785839
10386		63.817055	-21.892473	23.717513
10387		63.966249	-21.602752	23.646219
10388		64.101321	-21.324346	23.565974
10389		64.221050	-21.050305	23.479471
10390		64.312599	-20.785371	23.389408
10391		64.376015	-20.525841	23.298300
10392		64.412176	-20.277503	23.206649
10393		64.420458	-20.039000	23.114950
10394		64.399953	-19.809130	23.024436
10395		64.358125	-19.583197	22.935722
10396		64.306419	-19.363659	22.848170
10397		64.258649	-19.148188	22.767650
10398		64.226713	-18.931658	22.694498
10399		64.217314	-18.716533	22.627693
10400		64.228802	-18.503356	22.565448
10401		64.256663	-18.293134	22.508658
10402		64.287349	-18.089664	22.449804
10403		64.311777	-17.888974	22.392113
10404		64.332589	-17.694659	22.331489
10405		64.341321	-17.507330	22.269111
10406		64.345695	-17.331709	22.202022
10407		64.343940	-17.162980	22.136144
10408		64.342601	-17.002976	22.069850
10409		64.354699	-16.851035	22.007452
10410		64.383470	-16.707585	21.948402
10411		64.421252	-16.565871	21.898451
10412		64.459792	-16.430280	21.853599
10413		64.495982	-16.296590	21.814216
10414		64.529482	-16.164483	21.783898
10415		64.554201	-16.032851	21.765334
10416		64.570040	-15.901682	21.751610
10417		64.576567	-15.768299	21.742886
10418		64.578140	-15.635410	21.744468
10419		64.578972	-15.499771	21.750927
10420		64.587748	-15.364838	21.763884
10421		64.598302	-15.214800	21.777970
10422		64.613785	-15.059242	21.791564
10423		64.650110	-14.898531	21.805852
10424		64.717638	-14.767425	21.812200
10425		64.812330	-14.735174	21.831527
10426		64.720230	-14.782371	21.878931
10427		64.384336	-14.815760	21.928768
10428		63.946563	-14.807077	21.937519
10429		63.609689	-14.790368	21.933342
10430		63.462335	-14.767719	21.943243
10431		63.548429	-14.740604	21.950534
10432		63.806284	-14.747284	21.977435
10433		64.036287	-14.769562	22.021875
10434		64.114499	-14.784169	22.049956
10435		64.035025	-14.789983	22.065778
10436		63.869857	-14.793516	22.081779
10437		63.720357	-14.783426	22.107064
10438		63.654398	-14.773537	22.140817
10439		63.666380	-14.764515	22.182235
10440		63.707240	-14.755005	22.222914
10441		63.725219	-14.743988	22.259899
10442		63.688593	-14.732820	22.292121
10443		63.601609	-14.718321	22.316792
10444		63.508900	-14.707551	22.334025
10445		63.443786	-14.702785	22.350672
10446		63.431406	-14.702640	22.361913
10447		63.453273	-14.705975	22.373274
10448		63.491909	-14.708980	22.380877
10449		63.526993	-14.713013	22.385236
10450		63.549863	-14.719777	22.387015
10451		63.568726	-14.725690	22.390381
10452		63.578166	-14.733764	22.395114
10453		63.578132	-14.739548	22.403490
10454		63.568440	-14.747148	22.412029
10455		63.556845	-14.752390	22.422476
10456		63.540671	-14.756622	22.434139
10457		63.528157	-14.754630	22.448110
10458		63.520711	-14.751726	22.464948
10459		63.508542	-14.748734	22.482819
10460		63.485744	-14.743914	22.498839
10461		63.460845	-14.738715	22.512727
10462		63.443326	-14.730347	22.526584
10463		63.444978	-14.722683	22.543682
10464		63.454018	-14.720539	22.559895
10465		63.452517	-14.720159	22.572468
10466		63.443369	-14.714340	22.586733
10467		63.437792	-14.709986	22.598041
10468		63.439483	-14.705466	22.609697
10469		63.450275	-14.700275	22.621873
10470		63.460367	-14.693642	22.635049
10471		63.463668	-14.686148	22.647222
10472		63.464239	-14.678065	22.661419
10473		63.449507	-14.669584	22.674565
10474		63.431416	-14.661845	22.683276
10475		63.417457	-14.654947	22.694146
10476		63.409578	-14.643900	22.702140
10477		63.414037	-14.639318	22.713120
10478		63.414237	-14.631185	22.718992
10479		63.414666	-14.623899	22.721449
10480		63.414749	-14.617093	22.724630
10481		63.414737	-14.610197	22.729088
10482		63.420951	-14.604809	22.729447
10483		63.432928	-14.602135	22.730131
10484		63.445610	-14.597155	22.731570
10485		63.455539	-14.595355	22.733281
10486		63.454577	-14.591319	22.736425
10487		63.444772	-14.587353	22.739583
10488		63.432904	-14.581624	22.739538
10489		63.430659	-14.577624	22.740988
10490		63.440578	-14.574239	22.742901
10491		63.454076	-14.568810	22.747397
10492		63.470628	-14.566822	22.750263
10493		63.484668	-14.562661	22.751281
10494		63.495616	-14.559477	22.749061
10495		63.508154	-14.557448	22.747626
10496		63.522928	-14.557926	22.745480
10497		63.532968	-14.556122	22.742646
10498		63.543680	-14.552606	22.739215
10499		63.559554	-14.549582	22.735184
10500		63.569048	-14.544865	22.736023
10501		63.580133	-14.535607	22.734324
10502		63.586332	-14.525495	22.735782
10503		63.597025	-14.515977	22.737431
10504		63.612884	-14.508295	22.737772
10505		63.635963	-14.499617	22.737849
10506		63.666316	-14.492256	22.741363
10507		63.704207	-14.485900	22.744351
10508		63.743219	-14.481128	22.756656
10509		63.786816	-14.475029	22.773206
10510		63.843139	-14.472554	22.778152
10511		63.914951	-14.469989	22.780239
10512		63.987568	-14.457417	22.776684
10513		64.085783	-14.428401	22.748305
10514		64.304837	-14.435436	22.733036
10515		64.580846	-14.451975	22.713421
10516		64.906893	-14.480311	22.684129
10517		65.250608	-14.519510	22.664684
10518		65.568488	-14.569058	22.654646
10519		65.829379	-14.626421	22.659575
10520		66.005671	-14.696465	22.665386
10521		66.113711	-14.791370	22.676744
10522		66.173254	-14.917587	22.694854
10523		66.188813	-15.079456	22.717603
10524		66.151119	-15.279424	22.750245
10525		66.051048	-15.513542	22.795036
10526		65.881144	-15.778940	22.851847
10527		65.659250	-16.085118	22.915724
10528		65.405760	-16.430759	22.986139
10529		65.144344	-16.804277	23.075799
10530		64.887720	-17.212152	23.176390
10531		64.635402	-17.649989	23.285448
10532		64.378336	-18.113905	23.412816
10533		64.106965	-18.603348	23.554151
10534		63.815977	-19.114050	23.712095
10535		63.495966	-19.646761	23.883678
10536		63.129019	-20.199899	24.069686
10537		62.717467	-20.776009	24.266144
10538		62.278912	-21.374163	24.472687
10539		61.823812	-21.995275	24.686937
10540		61.363474	-22.633990	24.914185
10541		60.900113	-23.290939	25.157350
10542		60.425651	-23.956906	25.412601
10543		59.942748	-24.635411	25.682494
10544		59.444958	-25.324709	25.965379
10545		58.924544	-26.023949	26.263586
10546		58.382413	-26.734752	26.575102
10547		57.822258	-27.454983	26.897607
10548		57.240686	-28.184435	27.233816
10549		56.626405	-28.920393	27.582431
10550		55.984067	-29.661045	27.942546
10551		55.313642	-30.407515	28.314796
10552		54.625833	-31.158996	28.699287
10553		53.925179	-31.910605	29.098447
10554		53.209981	-32.664393	29.506528
10555		52.479819	-33.416835	29.912516
10556		51.737061	-34.170230	30.321561
10557		50.967862	-34.921262	30.729464
10558		50.180822	-35.666971	31.131438
10559		49.357491	-36.404051	31.527014
10560		48.502127	-37.130928	31.929365
10561		47.604308	-37.844627	32.334454
10562		46.680131	-38.548130	32.750091
10563		45.729009	-39.242183	33.172865
10564		44.746606	-39.933328	33.610253
10565		43.741863	-40.613970	34.060831
10566		42.750109	-41.288644	34.521449
10567		41.777576	-41.955957	35.000583
10568		40.837766	-42.612951	35.509453
10569		39.934474	-43.256422	36.047152
10570		39.055357	-43.888604	36.617454
10571		38.180159	-44.509009	37.211569
10572		37.262762	-45.118275	37.837563
10573		36.281332	-45.713555	38.473878
10574		35.227367	-46.294030	39.115531
10575		34.117854	-46.866215	39.768790
10576		32.981540	-47.429940	40.441236
10577		31.835937	-47.986123	41.133712
10578		30.707443	-48.532586	41.856785
10579		29.596031	-49.068163	42.612082
10580		28.507291	-49.591438	43.399334
10581		27.441900	-50.095249	44.214356
10582		26.378730	-50.588078	45.060756
10583		25.297492	-51.066435	45.933385
10584		24.170919	-51.527915	46.835565
10585		22.997175	-51.976416	47.756680
10586		21.784441	-52.412995	48.691123
10587		20.535534	-52.836096	49.646913
10588		19.267318	-53.245654	50.628164
10589		17.995554	-53.646443	51.633883
10590		16.718011	-54.046741	52.663883
10591		15.438190	-54.436753	53.717524
10592		14.159187	-54.819712	54.795103
10593		12.886003	-55.184891	55.908587
10594		11.619705	-55.526280	57.076118
10595		10.325878	-55.841347	58.284789
10596		8.988474	-56.128769	59.508501
10597		7.608458	-56.397574	60.731391
10598		6.168865	-56.648968	61.947393
10599		4.713348	-56.885073	63.137175
10600		3.227081	-57.111235	64.316459
10601		1.730493	-57.331387	65.482949
10602		0.211859	-57.541616	66.639167
10603		-1.304384	-57.736618	67.772347
10604		-2.819897	-57.916217	68.894205
10605		-4.298162	-58.073997	69.991081
10606		-5.734809	-58.215023	71.071719
10607		-7.145569	-58.329404	72.158310
10608		-8.551946	-58.417896	73.243802
10609		-9.933858	-58.498014	74.285848
10610		-11.317533	-58.565465	75.297870
10611		-12.679107	-58.624444	76.273591
10612		-13.984961	-58.679053	77.219787
10613		-15.205578	-58.716445	78.137822
10614		-16.339165	-58.745167	79.015643
10615		-17.417624	-58.770920	79.853958
10616		-18.448487	-58.784940	80.649653
10617		-19.440729	-58.793777	81.393202
10618		-20.442592	-58.799002	82.104114
10619		-21.474053	-58.809304	82.776148
10620		-22.541335	-58.821909	83.413066
10621		-23.611712	-58.839891	83.991220
10622		-24.655956	-58.869066	84.519306
10623		-25.631888	-58.913383	85.003011
10624		-26.527849	-58.976551	85.447230
10625		-27.363360	-59.048152	85.861136
10626		-28.122362	-59.120801	86.242525
10627		-28.843666	-59.190496	86.621861
10628		-29.499483	-59.260665	86.988745
10629		-30.110875	-59.313401	87.349123
10630		-30.695503	-59.354026	87.702731
10631		-31.250523	-59.379510	88.045647
10632		-31.788438	-59.398715	88.373656
10633		-32.294557	-59.408792	88.678406
10634		-32.751407	-59.415567	88.956482
10635		-33.162835	-59.419079	89.216572
10636		-33.535480	-59.417110	89.466245
10637		-33.852516	-59.409595	89.691245
10638		-34.170599	-59.402573	89.913923
10639		-34.496189	-59.395760	90.124408
10640		-34.825760	-59.389017	90.330435
10641		-35.172933	-59.385377	90.549138
10642		-35.507225	-59.382336	90.780113
10643		-35.822453	-59.378713	91.031693
10644		-36.110747	-59.366712	91.282307
10645		-36.390176	-59.350498	91.534608
10646		-36.663310	-59.330066	91.779932
10647		-36.932627	-59.309945	92.013543
10648		-37.185668	-59.293831	92.238852
10649		-37.420859	-59.279528	92.464435
10650		-37.644821	-59.264972	92.687593
10651		-37.853033	-59.251521	92.903941
10652		-38.057289	-59.238555	93.122463
10653		-38.271061	-59.225008	93.348823
10654		-38.485833	-59.206102	93.575722
10655		-38.708935	-59.186469	93.796531
10656		-38.950548	-59.167805	94.023689
10657		-39.196445	-59.146739	94.245855
10658		-39.421472	-59.128386	94.457176
10659		-39.624973	-59.109633	94.660946
10660		-39.797313	-59.088816	94.842118
10661		-39.957037	-59.066643	95.016294
10662		-40.106083	-59.047114	95.173915
10663		-40.259581	-59.026276	95.316166
10664		-40.420839	-59.006931	95.447143
10665		-40.572107	-58.990470	95.563827
10666		-40.717629	-58.972396	95.676734
10667		-40.834181	-58.951638	95.773149
10668		-40.943071	-58.932153	95.870051
10669		-41.026633	-58.904431	95.951522
10670		-41.093242	-58.875238	96.022718
10671		-41.130391	-58.846320	96.076204
10672		-41.147752	-58.820147	96.117474
10673		-41.148286	-58.795030	96.141397
10674		-41.134957	-58.772738	96.155216
10675		-41.120552	-58.751558	96.165780
10676		-41.114444	-58.735583	96.177053
10677		-41.103948	-58.726032	96.183169
10678		-41.094107	-58.716890	96.183927
10679		-41.092541	-58.709545	96.185340
10680		-41.091360	-58.706322	96.186782
10681		-41.089584	-58.700595	96.186768
10682		-41.085675	-58.696546	96.183072
10683		-41.066981	-58.695012	96.168778
10684		-41.037878	-58.698196	96.163580
10685		-40.981059	-58.701710	96.142541
10686		-40.901747	-58.710511	96.118602
10687		-40.805767	-58.723301	96.080940
10688		-40.706653	-58.739108	96.033308
10689		-40.602512	-58.758538	95.967795
10690		-40.485307	-58.778799	95.883211
10691		-40.367136	-58.793377	95.793446
10692		-40.232268	-58.803852	95.688581
10693		-40.090490	-58.812241	95.572237
10694		-39.935123	-58.823245	95.436258
10695		-39.762884	-58.835359	95.281276
10696		-39.574567	-58.849706	95.116940
10697		-39.360946	-58.863387	94.944170
10698		-39.119583	-58.878107	94.758780
10699		-38.855757	-58.891522	94.562767
10700		-38.570433	-58.908110	94.350747
10701		-38.273493	-58.928286	94.127621
10702		-37.970310	-58.954184	93.890294
10703		-37.653100	-58.983962	93.631824
10704		-37.324129	-59.018407	93.355279
10705		-36.984660	-59.054329	93.063121
10706		-36.630957	-59.094419	92.753336
10707		-36.264914	-59.139147	92.427767
10708		-35.888970	-59.186704	92.084504
10709		-35.496473	-59.238198	91.724131
10710		-35.080415	-59.291357	91.330406
10711		-34.645291	-59.348756	90.907795
10712		-34.204513	-59.410869	90.466251
10713		-33.752586	-59.473666	90.004155
10714		-33.300505	-59.537183	89.524903
10715		-32.862768	-59.605964	89.032623
10716		-32.443243	-59.680995	88.530947
10717		-32.020128	-59.761962	88.003293
10718		-31.592658	-59.854728	87.458963
10719		-31.156877	-59.952538	86.907182
10720		-30.719625	-60.051069	86.355775
10721		-30.276655	-60.145170	85.803712
10722		-29.816896	-60.236915	85.251398
10723		-29.316987	-60.322585	84.688137
10724		-28.761421	-60.400348	84.116217
10725		-28.153809	-60.464793	83.531717
10726		-27.504877	-60.530750	82.927454
10727		-26.808406	-60.597915	82.302201
10728		-26.069027	-60.666300	81.658220
10729		-25.291922	-60.732604	80.984652
10730		-24.500282	-60.802737	80.289186
10731		-23.691018	-60.871389	79.567393
10732		-22.872043	-60.936004	78.834393
10733		-22.031923	-60.982090	78.091104
10734		-21.173033	-61.017236	77.330590
10735		-20.296422	-61.050980	76.542834
10736		-19.387930	-61.089728	75.715939
10737		-18.426222	-61.129809	74.843499
10738		-17.414651	-61.170811	73.936868
10739		-16.353086	-61.212064	72.995865
10740		-15.258695	-61.250220	72.032327
10741		-14.118571	-61.270994	71.041479
10742		-12.936152	-61.276574	70.025709
10743		-11.705694	-61.265841	68.973702
10744		-10.425772	-61.239493	67.881505
10745		-9.093861	-61.198301	66.741592
10746		-7.712797	-61.139829	65.550859
10747		-6.277626	-61.058637	64.306994
10748		-4.779566	-60.950615	63.011945
10749		-3.211494	-60.806691	61.668636
10750		-1.575389	-60.625944	60.274415
10751		0.107272	-60.407666	58.836714
10752		1.799934	-60.150252	57.366114
10753		3.475494	-59.847838	55.877142
10754		5.115579	-59.507437	54.386221
10755		6.723872	-59.119314	52.905726
10756		8.316397	-58.688389	51.431567
10757		9.901910	-58.221624	49.969717
10758		11.469772	-57.727946	48.515924
10759		12.999526	-57.211225	47.078737
10760		14.496090	-56.669872	45.650193
10761		15.955522	-56.101537	44.247483
10762		17.375255	-55.502704	42.885303
10763		18.772213	-54.867816	41.577458
10764		20.166049	-54.201988	40.318241
10765		21.552287	-53.510738	39.119148
10766		22.926128	-52.793840	37.990853
10767		24.290387	-52.055481	36.921239
10768		25.635371	-51.305833	35.908411
10769		26.960859	-50.542240	34.949828
10770		28.240831	-49.770274	34.051469
10771		29.475250	-48.986315	33.205531
10772		30.658329	-48.193505	32.408373
10773		31.787500	-47.392450	31.660042
10774		32.871305	-46.585141	30.958760
10775		33.932002	-45.766955	30.305268
10776		34.979239	-44.952151	29.686685
10777		36.003584	-44.139896	29.106299
10778		37.004268	-43.329885	28.568494
10779		37.988824	-42.525420	28.069215
10780		38.964292	-41.733001	27.601802
10781		39.933620	-40.950997	27.166284
10782		40.908143	-40.178003	26.768362
10783		41.888906	-39.417112	26.405856
10784		42.861315	-38.675442	26.069028
10785		43.818241	-37.944879	25.756754
10786		44.750263	-37.227015	25.469879
10787		45.651239	-36.523803	25.203709
10788		46.525995	-35.834639	24.948384
10789		47.382948	-35.161281	24.708854
10790		48.222716	-34.500792	24.493784
10791		49.049249	-33.858519	24.301019
10792		49.856090	-33.230793	24.124378
10793		50.646760	-32.613734	23.969984
10794		51.420758	-32.005989	23.831801
10795		52.182332	-31.403674	23.703292
10796		52.937826	-30.812505	23.585481
10797		53.682386	-30.228790	23.474929
10798		54.410196	-29.647625	23.375012
10799		55.122013	-29.070432	23.277687
10800		55.811283	-28.503190	23.184731
10801		56.481978	-27.942861	23.096423
10802		57.141497	-27.397821	23.016584
10803		57.781570	-26.863155	22.933637
10804		58.403626	-26.338445	22.856364
10805		59.013691	-25.827137	22.777564
10806		59.592254	-25.332335	22.705352
10807		60.133612	-24.846148	22.638594
10808		60.643408	-24.376208	22.573684
10809		61.117990	-23.922677	22.514134
10810		61.561521	-23.482077	22.464221
10811		61.977613	-23.055380	22.424742
10812		62.357799	-22.644201	22.390092
10813		62.689686	-22.243893	22.361366
10814		62.966169	-21.858139	22.336802
10815		63.193072	-21.482263	22.315743
10816		63.374296	-21.120678	22.296035
10817		63.520677	-20.769343	22.284899
10818		63.637893	-20.430665	22.279411
10819		63.733077	-20.103962	22.283075
10820		63.798724	-19.790210	22.288777
10821		63.836439	-19.485384	22.297894
10822		63.853574	-19.189751	22.306777
10823		63.854722	-18.904308	22.315046
10824		63.843589	-18.628909	22.324637
10825		63.832291	-18.363850	22.334846
10826		63.830822	-18.110910	22.343459
10827		63.848326	-17.866107	22.354328
10828		63.876567	-17.636358	22.367201
10829		63.908538	-17.411495	22.374716
10830		63.941040	-17.195440	22.377532
10831		63.965534	-16.984910	22.381541
10832		63.981562	-16.786505	22.384515
10833		63.987107	-16.593671	22.385934
10834		63.985602	-16.407443	22.387069
10835		63.978475	-16.228372	22.385370
10836		63.974111	-16.055206	22.381900
10837		63.971528	-15.891520	22.375727
10838		63.977977	-15.738496	22.366701
10839		63.980009	-15.590959	22.354771
10840		63.985062	-15.450336	22.340998
10841		63.995907	-15.312107	22.325007
10842		64.017960	-15.177846	22.310258
10843		64.050302	-15.046881	22.298153
10844		64.083794	-14.917888	22.290278
10845		64.120137	-14.791014	22.289332
10846		64.154781	-14.668111	22.290456
10847		64.184013	-14.547281	22.299577
10848		64.205077	-14.426348	22.315006
10849		64.228546	-14.304617	22.337691
10850		64.248873	-14.183222	22.369472
10851		64.275205	-14.057576	22.412600
10852		64.342653	-13.943071	22.471830
10853		64.432633	-13.836917	22.537477
10854		64.522911	-13.742014	22.609385
10855		64.598448	-13.688867	22.667094
10856		64.517806	-13.668969	22.718848
10857		64.307738	-13.658350	22.784335
10858		64.041472	-13.664019	22.833020
10859		63.774035	-13.670369	22.855828
10860		63.628535	-13.668894	22.889504
10861		63.655590	-13.666427	22.935861
10862		63.811839	-13.651687	22.988894
10863		64.026677	-13.630489	23.039244
10864		64.197736	-13.609215	23.084010
10865		64.276455	-13.592437	23.117439
10866		64.250304	-13.585074	23.142997
10867		64.148804	-13.582628	23.177694
10868		64.023191	-13.587351	23.210760
10869		63.899140	-13.582836	23.245439
10870		63.818072	-13.566830	23.279100
10871		63.801382	-13.547240	23.313966
10872		63.837408	-13.530086	23.348131
10873		63.891042	-13.516320	23.382426
10874		63.920319	-13.506083	23.412207
10875		63.910977	-13.499248	23.435615
10876		63.865198	-13.492002	23.455211
10877		63.809359	-13.486497	23.475259
10878		63.766430	-13.477861	23.495675
10879		63.753162	-13.471078	23.517894
10880		63.760732	-13.466551	23.540485
10881		63.771216	-13.461526	23.561210
10882		63.775519	-13.457706	23.580507
10883		63.764798	-13.454518	23.598731
10884		63.740149	-13.456765	23.613477
10885		63.710785	-13.458264	23.626557
10886		63.684020	-13.459370	23.637927
10887		63.664470	-13.460558	23.651076
10888		63.650592	-13.461037	23.663236
10889		63.642564	-13.465259	23.672014
10890		63.630755	-13.471094	23.679513
10891		63.617856	-13.471010	23.686324
10892		63.604632	-13.472128	23.696377
10893		63.595834	-13.473003	23.704265
10894		63.585367	-13.476594	23.714251
10895		63.573393	-13.481595	23.720511
10896		63.559472	-13.486300	23.724637
10897		63.545393	-13.488769	23.730200
10898		63.535877	-13.490920	23.737534
10899		63.523327	-13.492886	23.744131
10900		63.507020	-13.496423	23.749443
10901		63.484629	-13.497959	23.757309
10902		63.467470	-13.499107	23.766178
10903		63.455951	-13.501636	23.774472
10904		63.448324	-13.506716	23.779950
10905		63.434202	-13.510627	23.782847
10906		63.419030	-13.514451	23.784060
10907		63.408142	-13.519784	23.786241
10908		63.398899	-13.521966	23.789017
10909		63.393672	-13.521963	23.789858
10910		63.390347	-13.525352	23.788844
10911		63.386344	-13.528358	23.788594
10912		63.382457	-13.529410	23.786565
10913		63.383520	-13.531956	23.784740
10914		63.378476	-13.535554	23.781463
10915		63.369137	-13.536051	23.778543
10916		63.354362	-13.536109	23.776080
10917		63.333840	-13.537707	23.773279
10918		63.309218	-13.538038	23.770735
10919		63.289173	-13.537865	23.768612
10920		63.273051	-13.538023	23.767685
10921		63.254607	-13.540754	23.768276
10922		63.228821	-13.542912	23.765823
10923		63.198054	-13.544202	23.760478
10924		63.167591	-13.543060	23.755916
10925		63.145317	-13.544905	23.750857
10926		63.130708	-13.546690	23.746957
10927		63.118946	-13.548945	23.739882
10928		63.108548	-13.551450	23.731273
10929		63.095622	-13.555549	23.724295
10930		63.084925	-13.560857	23.714910
10931		63.068069	-13.565739	23.705403
10932		63.052885	-13.570205	23.691127
10933		63.039971	-13.570678	23.676663
10934		63.038481	-13.570698	23.663321
10935		63.045560	-13.568559	23.648481
10936		63.068179	-13.569770	23.630509
10937		63.099728	-13.569421	23.613506
10938		63.134008	-13.566296	23.598773
10939		63.163817	-13.563287	23.584852
10940		63.178677	-13.555749	23.574722
10941		63.184292	-13.548173	23.563741
10942		63.186908	-13.539029	23.556028
10943		63.191274	-13.528466	23.546129
10944		63.207935	-13.521166	23.531138
10945		63.236264	-13.515582	23.515751
10946		63.263027	-13.511683	23.503782
10947		63.294277	-13.511847	23.498410
10948		63.314226	-13.518798	23.495353
10949		63.325314	-13.532881	23.481861
10950		63.371204	-13.572092	23.476842
10951		63.451758	-13.635865	23.497021
10952		63.542053	-13.713367	23.525868
10953		63.623208	-13.811932	23.561246
10954		63.660264	-13.935976	23.614034
10955		63.625451	-14.078758	23.675382
10956		63.521502	-14.252917	23.738285
10957		63.365083	-14.466195	23.802477
10958		63.176836	-14.718105	23.870023
10959		62.965562	-15.003875	23.939805
10960		62.735100	-15.317448	24.015548
10961		62.474710	-15.657082	24.093376
10962		62.176489	-16.022966	24.170039
10963		61.841924	-16.415069	24.248904
10964		61.483668	-16.829001	24.335045
10965		61.106424	-17.265563	24.432311
10966		60.707818	-17.725871	24.538205
10967		60.278795	-18.207618	24.659148
10968		59.820733	-18.706662	24.793511
10969		59.332245	-19.223779	24.940802
10970		58.817924	-19.759065	25.102966
10971		58.274493	-20.305359	25.280955
10972		57.718059	-20.867157	25.471176
10973		57.148039	-21.443204	25.676168
10974		56.560420	-22.028699	25.896047
10975		55.967215	-22.626085	26.133371
10976		55.366779	-23.236155	26.395227
10977		54.753525	-23.857504	26.678918
10978		54.121822	-24.489443	26.982378
10979		53.463631	-25.130804	27.303058
10980		52.767344	-25.770143	27.634262
10981		52.028339	-26.418972	27.970698
10982		51.239845	-27.067687	28.317532
10983		50.423506	-27.718216	28.679134
10984		49.600503	-28.374600	29.056564
10985		48.808188	-29.038529	29.452299
10986		48.062357	-29.707059	29.876542
10987		47.365543	-30.379873	30.322825
10988		46.698073	-31.051994	30.781513
10989		46.051287	-31.721992	31.247602
10990		45.410800	-32.388024	31.721503
10991		44.771855	-33.051579	32.200729
10992		44.131066	-33.713802	32.685971
10993		43.477668	-34.374614	33.179492
10994		42.802208	-35.032521	33.685481
10995		42.096565	-35.681303	34.208508
10996		41.356204	-36.322816	34.742969
10997		40.584440	-36.964289	35.289409
10998		39.776738	-37.594445	35.842408
10999		38.931493	-38.219101	36.406117
11000		38.050544	-38.834303	36.982133
11001		37.148463	-39.442306	37.572209
11002		36.239345	-40.041474	38.174563
11003		35.324648	-40.632271	38.800051
11004		34.410652	-41.216132	39.439965
11005		33.498396	-41.788433	40.104495
11006		32.567324	-42.354836	40.784086
11007		31.609631	-42.910751	41.480553
11008		30.624560	-43.456507	42.195478
11009		29.614106	-43.990608	42.923711
11010		28.587434	-44.513393	43.669390
11011		27.528812	-45.027526	44.426054
11012		26.436205	-45.522052	45.198113
11013		25.312474	-46.006544	45.973273
11014		24.169468	-46.485919	46.754175
11015		22.995433	-46.957184	47.546065
11016		21.796624	-47.421108	48.347525
11017		20.573740	-47.880652	49.159117
11018		19.329346	-48.333189	49.986490
11019		18.084889	-48.781267	50.824447
11020		16.850335	-49.224932	51.675610
11021		15.620759	-49.661347	52.546114
11022		14.406043	-50.089853	53.425967
11023		13.206411	-50.498881	54.313617
11024		12.015511	-50.890480	55.213396
11025		10.831319	-51.262906	56.118218
11026		9.633602	-51.619543	57.025874
11027		8.418114	-51.952055	57.939418
11028		7.188019	-52.265201	58.850969
11029		5.965051	-52.553819	59.753514
11030		4.773840	-52.823666	60.641620
11031		3.620034	-53.072942	61.518136
11032		2.507107	-53.297615	62.387341
11033		1.465152	-53.502592	63.246487
11034		0.466368	-53.686168	64.114486
11035		-0.475561	-53.845057	64.974283
11036		-1.377555	-53.990281	65.818087
11037		-2.240621	-54.117074	66.640337
11038		-3.060989	-54.231223	67.439974
11039		-3.850952	-54.332426	68.220375
11040		-4.612102	-54.417568	68.977249
11041		-5.347405	-54.487723	69.704628
11042		-6.079589	-54.545014	70.415198
11043		-6.796602	-54.593157	71.095578
11044		-7.506098	-54.621511	71.761419
11045		-8.214950	-54.636546	72.402213
11046		-8.913332	-54.632759	73.029651
11047		-9.594805	-54.615099	73.638003
11048		-10.241972	-54.585450	74.220635
11049		-10.843425	-54.541664	74.782938
11050		-11.401226	-54.487933	75.323620
11051		-11.920072	-54.422095	75.841291
11052		-12.410112	-54.347567	76.340067
11053		-12.882054	-54.260992	76.815210
11054		-13.349864	-54.166126	77.278248
11055		-13.803731	-54.065122	77.714902
11056		-14.261502	-53.958109	78.137638
11057		-14.728534	-53.843107	78.547112
11058		-15.218668	-53.725118	78.948565
11059		-15.719108	-53.610896	79.330129
11060		-16.240519	-53.502509	79.700446
11061		-16.784250	-53.393797	80.068583
11062		-17.319245	-53.292236	80.421563
11063		-17.853842	-53.201904	80.765022
11064		-18.370609	-53.114493	81.110118
11065		-18.885219	-53.034391	81.454734
11066		-19.403817	-52.959921	81.800311
11067		-19.920505	-52.882372	82.144634
11068		-20.435035	-52.812797	82.477589
11069		-20.945255	-52.750658	82.807354
11070		-21.434407	-52.696126	83.121384
11071		-21.919838	-52.650590	83.422163
11072		-22.410666	-52.609222	83.709465
11073		-22.911255	-52.577612	83.984569
11074		-23.421669	-52.560612	84.238371
11075		-23.957493	-52.546718	84.474295
11076		-24.490202	-52.536448	84.686626
11077		-25.014396	-52.536393	84.881617
11078		-25.551574	-52.540280	85.065527
11079		-26.079338	-52.544446	85.242411
11080		-26.598429	-52.545923	85.407335
11081		-27.095579	-52.547090	85.557556
11082		-27.580158	-52.545530	85.690040
11083		-28.047881	-52.545811	85.805998
11084		-28.503347	-52.548289	85.911335
11085		-28.912086	-52.551383	86.000080
11086		-29.287454	-52.562537	86.071936
11087		-29.628100	-52.577639	86.137859
11088		-29.943674	-52.590073	86.207257
11089		-30.235965	-52.600061	86.272045
11090		-30.501483	-52.605645	86.330681
11091		-30.748308	-52.607234	86.390882
11092		-30.985419	-52.609158	86.454421
11093		-31.199058	-52.610024	86.516163
11094		-31.384200	-52.614111	86.573843
11095		-31.546798	-52.620319	86.626788
11096		-31.691969	-52.631016	86.675414
11097		-31.820001	-52.644890	86.718722
11098		-31.951621	-52.664409	86.768704
11099		-32.066001	-52.683406	86.814595
11100		-32.183065	-52.704943	86.869891
11101		-32.298022	-52.728948	86.928500
11102		-32.428051	-52.753096	86.999121
11103		-32.551153	-52.779001	87.065356
11104		-32.681267	-52.803610	87.141413
11105		-32.809807	-52.829665	87.214980
11106		-32.935221	-52.858453	87.292646
11107		-33.053842	-52.886782	87.374905
11108		-33.163280	-52.918141	87.455720
11109		-33.256359	-52.944397	87.531120
11110		-33.356306	-52.973357	87.615965
11111		-33.464647	-53.000520	87.703237
11112		-33.589862	-53.030430	87.799545
11113		-33.722637	-53.063667	87.897832
11114		-33.850192	-53.095618	87.996504
11115		-33.962546	-53.124474	88.099555
11116		-34.070292	-53.157428	88.203922
11117		-34.155464	-53.188167	88.298199
11118		-34.224460	-53.218604	88.382900
11119		-34.284869	-53.247734	88.455243
11120		-34.339043	-53.277995	88.515152
11121		-34.380706	-53.310170	88.557436
11122		-34.412179	-53.339602	88.575898
11123		-34.444211	-53.367877	88.577812
11124		-34.468412	-53.393913	88.565261
11125		-34.474742	-53.419964	88.541982
11126		-34.447950	-53.438030	88.500491
11127		-34.392117	-53.451165	88.442437
11128		-34.310874	-53.461908	88.369085
11129		-34.211100	-53.475617	88.287724
11130		-34.095162	-53.488668	88.195696
11131		-33.965771	-53.503929	88.093280
11132		-33.831557	-53.521980	87.981627
11133		-33.699645	-53.544857	87.860828
11134		-33.571327	-53.571035	87.734017
11135		-33.444395	-53.600697	87.596629
11136		-33.319764	-53.635878	87.453021
11137		-33.181034	-53.675818	87.300690
11138		-33.023691	-53.715720	87.148643
11139		-32.837481	-53.755908	86.991810
11140		-32.627827	-53.794466	86.828213
11141		-32.393106	-53.827218	86.647121
11142		-32.154785	-53.863033	86.456434
11143		-31.912387	-53.895613	86.258192
11144		-31.655149	-53.919345	86.046522
11145		-31.396477	-53.944132	85.817073
11146		-31.138659	-53.978370	85.575356
11147		-30.842293	-54.015755	85.307226
11148		-30.500021	-54.058929	85.021613
11149		-30.100089	-54.109893	84.719000
11150		-29.658945	-54.161140	84.405253
11151		-29.186715	-54.212822	84.067885
11152		-28.713242	-54.267747	83.711670
11153		-28.255296	-54.323238	83.342137
11154		-27.815342	-54.377845	82.959515
11155		-27.375483	-54.433659	82.558665
11156		-26.916457	-54.493753	82.132237
11157		-26.443989	-54.553567	81.693488
11158		-25.946151	-54.608764	81.244315
11159		-25.406614	-54.654991	80.784401
11160		-24.837871	-54.698476	80.313957
11161		-24.244928	-54.741220	79.832010
11162		-23.630559	-54.784083	79.337475
11163		-22.985093	-54.825379	78.834217
11164		-22.317357	-54.863558	78.322552
11165		-21.627198	-54.897701	77.800563
11166		-20.930237	-54.920743	77.272966
11167		-20.225796	-54.938836	76.730635
11168		-19.514694	-54.948408	76.182276
11169		-18.798046	-54.946459	75.631802
11170		-18.073567	-54.931379	75.078549
11171		-17.327136	-54.903541	74.515217
11172		-16.564091	-54.862511	73.938692
11173		-15.799077	-54.810145	73.354637
11174		-15.034558	-54.751050	72.746943
11175		-14.254755	-54.687187	72.112467
11176		-13.458447	-54.616232	71.455240
11177		-12.652271	-54.547423	70.772187
11178		-11.825752	-54.471953	70.059517
11179		-10.963859	-54.387084	69.325802
11180		-10.044499	-54.289228	68.571025
11181		-9.060473	-54.178615	67.791033
11182		-7.982992	-54.058386	66.979212
11183		-6.823199	-53.921326	66.135487
11184		-5.616788	-53.772720	65.261394
11185		-4.402157	-53.618152	64.358719
11186		-3.195027	-53.460942	63.431019
11187		-2.021131	-53.299649	62.490149
11188		-0.885766	-53.131096	61.552445
11189		0.227121	-52.944829	60.620004
11190		1.333707	-52.744638	59.695355
11191		2.451368	-52.531760	58.770670
11192		3.582289	-52.304684	57.843817
11193		4.732674	-52.063393	56.902144
11194		5.897960	-51.813357	55.945296
11195		7.075454	-51.555061	54.963051
11196		8.239092	-51.288066	53.968601
11197		9.393157	-51.008986	52.958720
11198		10.540195	-50.715429	51.934596
11199		11.687595	-50.405998	50.902645
11200		12.843848	-50.079202	49.859085
11201		14.004939	-49.728091	48.820816
11202		15.176362	-49.353488	47.783078
11203		16.364446	-48.958948	46.746955
11204		17.574571	-48.540395	45.714846
11205		18.811062	-48.093887	44.694247
11206		20.086357	-47.621440	43.682835
11207		21.394744	-47.116181	42.684729
11208		22.728649	-46.581449	41.706800
11209		24.068279	-46.018674	40.754490
11210		25.400513	-45.425657	39.830500
11211		26.723021	-44.797690	38.929295
11212		28.032218	-44.143135	38.058348
11213		29.308883	-43.466146	37.215416
11214		30.556052	-42.762949	36.407905
11215		31.783718	-42.035179	35.611887
11216		32.970114	-41.284172	34.832611
11217		34.119280	-40.514295	34.077835
11218		35.250862	-39.731368	33.347062
11219		36.375575	-38.940222	32.644245
11220		37.502208	-38.147001	31.974350
11221		38.630113	-37.350513	31.333549
11222		39.769319	-36.558881	30.723166
11223		40.938464	-35.766996	30.145521
11224		42.143814	-34.983695	29.604175
11225		43.383351	-34.211282	29.092866
11226		44.641228	-33.449110	28.606291
11227		45.899719	-32.703991	28.128966
11228		47.130912	-31.985283	27.658512
11229		48.302905	-31.283850	27.189967
11230		49.398975	-30.602560	26.726515
11231		50.411506	-29.940370	26.273830
11232		51.337659	-29.294866	25.834659
11233		52.191522	-28.662241	25.419082
11234		52.978769	-28.042276	25.031159
11235		53.704920	-27.425507	24.676529
11236		54.373959	-26.818975	24.360023
11237		54.983415	-26.217642	24.084334
11238		55.534108	-25.622984	23.847994
11239		56.048691	-25.036323	23.651167
11240		56.532538	-24.466689	23.494635
11241		56.972119	-23.907967	23.378291
11242		57.357200	-23.362108	23.291136
11243		57.684106	-22.825164	23.229119
11244		57.947143	-22.303458	23.185770
11245		58.152090	-21.789321	23.154273
11246		58.310564	-21.294069	23.133872
11247		58.424461	-20.818127	23.118688
11248		58.506572	-20.362660	23.105705
11249		58.585789	-19.930722	23.092575
11250		58.676935	-19.527310	23.080218
11251		58.791727	-19.146960	23.074673
11252		58.932919	-18.790359	23.071929
11253		59.109144	-18.456603	23.068258
11254		59.304933	-18.147264	23.067163
11255		59.504602	-17.856425	23.065920
11256		59.698591	-17.584408	23.061403
11257		59.870821	-17.330132	23.054518
11258		60.018116	-17.093949	23.042034
11259		60.135037	-16.874466	23.022728
11260		60.232760	-16.671138	23.002321
11261		60.329544	-16.485961	22.980266
11262		60.411665	-16.318236	22.959304
11263		60.484326	-16.166824	22.938913
11264		60.542189	-16.030893	22.919587
11265		60.589965	-15.907373	22.901002
11266		60.627098	-15.800037	22.883253
11267		60.659415	-15.704814	22.864600
11268		60.679982	-15.618913	22.848475
11269		60.687370	-15.540347	22.834388
11270		60.691918	-15.463545	22.817572
11271		60.698842	-15.384364	22.800986
11272		60.713712	-15.300294	22.789697
11273		60.745320	-15.213185	22.778084
11274		60.789843	-15.125011	22.766917
11275		60.844694	-15.037296	22.753254
11276		60.912024	-14.951020	22.738125
11277		60.996559	-14.866701	22.717350
11278		61.090916	-14.782287	22.695022
11279		61.198800	-14.693844	22.675719
11280		61.319571	-14.601773	22.655155
11281		61.461316	-14.493950	22.638798
11282		61.647794	-14.382483	22.630705
11283		61.885358	-14.275137	22.631366
11284		62.135774	-14.165820	22.630885
11285		62.379864	-14.070945	22.627147
11286		62.626283	-13.998957	22.613786
11287		62.848205	-13.955419	22.585787
11288		63.038465	-13.941134	22.564352
11289		63.226111	-13.950009	22.547853
11290		63.377329	-13.974750	22.530203
11291		63.488475	-13.992907	22.532549
11292		63.571544	-14.002786	22.542116
11293		63.636626	-14.001533	22.557900
11294		63.693620	-13.990166	22.572462
11295		63.747073	-13.968068	22.594005
11296		63.809224	-13.954658	22.623318
11297		63.873122	-13.947777	22.660295
11298		63.901745	-13.942015	22.701382
11299		63.881503	-13.929386	22.743434
11300		63.813820	-13.908672	22.793479
11301		63.713328	-13.884907	22.846604
11302		63.606219	-13.858807	22.896450
11303		63.519851	-13.834000	22.940622
11304		63.465475	-13.808748	22.980702
11305		63.443963	-13.789531	23.013523
11306		63.434703	-13.776552	23.040125
11307		63.414155	-13.763555	23.058875
11308		63.370197	-13.753829	23.074345
11309		63.317586	-13.739216	23.081114
11310		63.275580	-13.728480	23.085949
11311		63.259476	-13.720992	23.089441
11312		63.265276	-13.714011	23.090589
11313		63.280280	-13.705098	23.092822
11314		63.292466	-13.695550	23.096262
11315		63.294366	-13.687338	23.101941
11316		63.274683	-13.676554	23.104305
11317		63.252780	-13.666946	23.106918
11318		63.234148	-13.655507	23.114940
11319		63.223091	-13.644403	23.126146
11320		63.210710	-13.635966	23.138780
11321		63.183244	-13.625329	23.150096
11322		63.147895	-13.615702	23.160130
11323		63.108766	-13.605137	23.166256
11324		63.082423	-13.597062	23.172128
11325		63.067193	-13.589407	23.178673
11326		63.057428	-13.583137	23.190107
11327		63.042739	-13.581009	23.198230
11328		63.015140	-13.578403	23.202094
11329		62.984114	-13.572318	23.204052
11330		62.961231	-13.570562	23.208386
11331		62.941427	-13.566235	23.214866
11332		62.924262	-13.567809	23.216168
11333		62.901412	-13.568950	23.217084
11334		62.865555	-13.568098	23.216394
11335		62.827260	-13.568235	23.214719
11336		62.794964	-13.569372	23.215933
11337		62.771469	-13.573272	23.220703
11338		62.736019	-13.576426	23.224277
11339		62.691807	-13.572912	23.224365
11340		62.645616	-13.571991	23.226636
11341		62.604283	-13.568561	23.234629
11342		62.565006	-13.564727	23.237181
11343		62.533218	-13.562582	23.239042
11344		62.503027	-13.563063	23.240573
11345		62.473109	-13.562438	23.243355
11346		62.445955	-13.559390	23.245182
11347		62.424952	-13.558907	23.246513
11348		62.406689	-13.561097	23.251847
11349		62.386295	-13.559816	23.253757
11350		62.367340	-13.560103	23.255407
11351		62.347560	-13.558018	23.257894
11352		62.329544	-13.554162	23.263430
11353		62.316955	-13.549021	23.270042
11354		62.310462	-13.546787	23.274300
11355		62.303704	-13.542622	23.276061
11356		62.298626	-13.537137	23.278283
11357		62.302013	-13.534694	23.280281
11358		62.310874	-13.530055	23.285393
11359		62.318301	-13.526570	23.293883
11360		62.317109	-13.519743	23.301338
11361		62.310120	-13.512585	23.308411
11362		62.298828	-13.504789	23.314292
11363		62.293036	-13.495289	23.323844
11364		62.298257	-13.487881	23.328358
11365		62.305230	-13.478433	23.337803
11366		62.304388	-13.467017	23.352472
11367		62.286209	-13.455618	23.372453
11368		62.252277	-13.438655	23.401624
11369		62.214581	-13.423916	23.440944
11370		62.189257	-13.414214	23.483927
11371		62.180249	-13.404086	23.532696
11372		62.183855	-13.398052	23.590291
11373		62.189041	-13.390025	23.652842
11374		62.181783	-13.382232	23.710907
11375		62.185473	-13.368983	23.759046
11376		62.221610	-13.366310	23.821661
11377		62.272066	-13.360688	23.883395
11378		62.325500	-13.360807	23.930262
11379		62.363892	-13.369042	23.964359
11380		62.375202	-13.384112	23.988939
11381		62.366569	-13.407290	24.004759
11382		62.353756	-13.448421	24.016705
11383		62.330135	-13.503500	24.025974
11384		62.290949	-13.573827	24.037815
11385		62.223918	-13.659902	24.045170
11386		62.141214	-13.765819	24.053108
11387		62.045548	-13.891749	24.065738
11388		61.951265	-14.035357	24.084773
11389		61.869848	-14.198543	24.105051
11390		61.804308	-14.383482	24.124709
11391		61.749167	-14.587470	24.145315
11392		61.705103	-14.811701	24.167335
11393		61.660046	-15.054416	24.192790
11394		61.612203	-15.311679	24.224090
11395		61.547527	-15.581191	24.257297
11396		61.471618	-15.870449	24.295175
11397		61.371436	-16.177903	24.336931
11398		61.249097	-16.509935	24.383478
11399		61.097695	-16.869690	24.437438
11400		60.915960	-17.253925	24.500770
11401		60.701180	-17.661743	24.572380
11402		60.459150	-18.095801	24.652764
11403		60.193895	-18.555364	24.740199
11404		59.904887	-19.041306	24.837722
11405		59.595238	-19.552440	24.947044
11406		59.275796	-20.093982	25.067457
11407		58.940529	-20.661670	25.198042
11408		58.588314	-21.258130	25.342590
11409		58.220309	-21.881890	25.496760
11410		57.825913	-22.530245	25.662110
11411		57.410303	-23.202745	25.835436
11412		56.958180	-23.892670	26.024218
11413		56.486759	-24.601167	26.225686
11414		55.996461	-25.326825	26.441573
11415		55.493601	-26.072583	26.675363
11416		54.967338	-26.832221	26.932339
11417		54.407343	-27.603208	27.211294
11418		53.810860	-28.389424	27.509931
11419		53.171901	-29.187770	27.831444
11420		52.490570	-29.995790	28.178868
11421		51.764911	-30.814876	28.547879
11422		51.002301	-31.635704	28.939934
11423		50.204421	-32.460952	29.353416
11424		49.371233	-33.285809	29.792539
11425		48.510085	-34.112114	30.252476
11426		47.619129	-34.938981	30.732070
11427		46.700740	-35.761831	31.230192
11428		45.754712	-36.584746	31.751441
11429		44.777319	-37.403833	32.289956
11430		43.769527	-38.207903	32.854892
11431		42.739160	-39.002814	33.440181
11432		41.682727	-39.783293	34.048690
11433		40.591978	-40.547785	34.674505
11434		39.457738	-41.298361	35.315306
11435		38.299524	-42.031260	35.981118
11436		37.116283	-42.750445	36.673613
11437		35.923239	-43.451093	37.389358
11438		34.707384	-44.130614	38.127346
11439		33.458226	-44.802976	38.888418
11440		32.169356	-45.464034	39.679180
11441		30.840126	-46.111940	40.491192
11442		29.463734	-46.744337	41.333661
11443		28.017112	-47.361136	42.205999
11444		26.507938	-47.964373	43.094137
11445		24.949697	-48.545108	44.011646
11446		23.377520	-49.107308	44.951144
11447		21.783875	-49.652371	45.917740
11448		20.203771	-50.177072	46.910807
11449		18.659852	-50.679307	47.926060
11450		17.147067	-51.156090	48.964698
11451		15.692047	-51.601685	50.022614
11452		14.281630	-52.023517	51.098811
11453		12.936987	-52.421774	52.181116
11454		11.632185	-52.786756	53.279989
11455		10.352082	-53.126556	54.384799
11456		9.084784	-53.434910	55.495454
11457		7.821519	-53.718867	56.591974
11458		6.566877	-53.984740	57.674777
11459		5.314066	-54.234257	58.744347
11460		4.066143	-54.469271	59.806725
11461		2.842143	-54.673505	60.865925
11462		1.655675	-54.857151	61.919576
11463		0.486212	-55.019905	62.962079
11464		-0.672992	-55.162690	63.987263
11465		-1.824582	-55.298465	64.989262
11466		-2.970234	-55.425618	65.983093
11467		-4.082007	-55.550352	66.951524
11468		-5.141994	-55.656210	67.898343
11469		-6.110490	-55.752098	68.805030
11470		-7.015505	-55.837604	69.679351
11471		-7.858929	-55.901323	70.526839
11472		-8.684439	-55.949314	71.351709
11473		-9.515730	-55.979334	72.154755
11474		-10.345813	-55.975696	72.939999
11475		-11.199324	-55.954662	73.694670
11476		-12.068276	-55.940337	74.405439
11477		-12.927408	-55.933696	75.076382
11478		-13.742507	-55.923806	75.727485
11479		-14.444606	-55.909734	76.356921
11480		-15.056321	-55.893466	76.966832
11481		-15.604608	-55.874514	77.546841
11482		-16.123278	-55.858657	78.101494
11483		-16.630675	-55.848207	78.634224
11484		-17.141461	-55.834500	79.150279
11485		-17.665970	-55.814731	79.644536
11486		-18.208082	-55.778727	80.124910
11487		-18.778647	-55.733348	80.592125
11488		-19.408308	-55.692412	81.043879
11489		-20.061698	-55.655301	81.473935
11490		-20.683312	-55.622476	81.874684
11491		-21.256679	-55.594793	82.252319
11492		-21.792381	-55.569227	82.627344
11493		-22.299833	-55.551792	82.991820
11494		-22.786916	-55.542814	83.341409
11495		-23.268177	-55.544909	83.676388
11496		-23.747614	-55.558648	83.998528
11497		-24.224238	-55.572642	84.315825
11498		-24.697486	-55.570332	84.627062
11499		-25.187501	-55.557955	84.927222
11500		-25.732104	-55.531669	85.223359
11501		-26.318981	-55.504683	85.505367
11502		-26.935594	-55.473718	85.764230
11503		-27.573134	-55.448747	86.016632
11504		-28.169928	-55.423977	86.254794
11505		-28.700290	-55.397469	86.484593
11506		-29.158321	-55.368832	86.702841
11507		-29.551104	-55.339131	86.908630
11508		-29.908100	-55.312490	87.112881
11509		-30.235209	-55.277637	87.305050
11510		-30.559626	-55.244413	87.484083
11511		-30.889355	-55.211587	87.657638
11512		-31.242807	-55.178630	87.835199
11513		-31.596512	-55.147017	88.008352
11514		-31.943633	-55.124479	88.174660
11515		-32.265140	-55.098544	88.331718
11516		-32.558835	-55.081428	88.480325
11517		-32.823724	-55.067465	88.618665
11518		-33.073480	-55.058459	88.755010
11519		-33.292721	-55.051491	88.882773
11520		-33.489038	-55.045686	89.008358
11521		-33.672918	-55.042230	89.131947
11522		-33.850876	-55.039720	89.257766
11523		-34.029761	-55.036798	89.382463
11524		-34.210066	-55.032156	89.503743
11525		-34.405952	-55.028503	89.626121
11526		-34.609995	-55.030059	89.744755
11527		-34.819238	-55.039764	89.866586
11528		-35.023082	-55.050956	89.989405
11529		-35.217106	-55.062496	90.111639
11530		-35.397224	-55.074194	90.232215
11531		-35.555292	-55.083904	90.343514
11532		-35.690691	-55.093339	90.449645
11533		-35.800662	-55.103514	90.546592
11534		-35.890263	-55.114525	90.635931
11535		-35.961859	-55.126905	90.711162
11536		-36.017418	-55.141256	90.770217
11537		-36.045052	-55.161006	90.808809
11538		-36.049547	-55.190498	90.829452
11539		-36.022814	-55.225796	90.832788
11540		-35.974072	-55.274050	90.815833
11541		-35.906838	-55.330727	90.787850
11542		-35.842834	-55.393292	90.758811
11543		-35.762493	-55.446440	90.724896
11544		-35.686661	-55.492479	90.698712
11545		-35.610805	-55.529185	90.673906
11546		-35.550891	-55.559475	90.658805
11547		-35.519069	-55.585030	90.652525
11548		-35.499722	-55.612475	90.654876
11549		-35.475734	-55.639933	90.652900
11550		-35.453539	-55.666226	90.653021
11551		-35.429490	-55.688386	90.646274
