// General information: 
//  MT Manager version: 2022.2.0 
//  XDA version: 2022.2.0 build 7381 rev 124627 built on 2023-07-19
// Device information: 
//  DeviceId: 00B44730
//  ProductCode: MTW2-3A7G6
//  Firmware Version: 4.3.5
//  Hardware Version: 2.0.0
// Device settings: 
//  Filter Profile: human(46.1)
//  Option Flags: Orientation Smoother Disabled, Position/Velocity Smoother Disabled, Continuous Zero Rotation Update Disabled, AHS Disabled, ICC Disabled
// Coordinate system: ENU
PacketCounter	SampleTimeFine	Roll	Pitch	Yaw
08434		5.553336	16.741125	-26.042149
08435		5.542021	16.735967	-26.065103
08436		5.529153	16.731463	-26.087665
08437		5.515068	16.726079	-26.110056
08438		5.498151	16.718700	-26.133061
08439		5.478961	16.711715	-26.153782
08440		5.462099	16.705151	-26.175259
08441		5.448166	16.700912	-26.194045
08442		5.438176	16.698312	-26.212655
08443		5.439056	16.697493	-26.236119
08444		5.450138	16.690851	-26.258181
08445		5.462022	16.682432	-26.275597
08446		5.477220	16.672362	-26.290208
08447		5.491549	16.662241	-26.300985
08448		5.504945	16.650857	-26.310331
08449		5.520554	16.641336	-26.317628
08450		5.538516	16.633467	-26.329329
08451		5.558910	16.629605	-26.338516
08452		5.576355	16.629666	-26.342590
08453		5.587010	16.636510	-26.341989
08454		5.592676	16.641915	-26.334864
08455		5.594714	16.648272	-26.327438
08456		5.594124	16.649636	-26.318775
08457		5.598482	16.649064	-26.310171
08458		5.602858	16.646715	-26.302325
08459		5.610662	16.644827	-26.292871
08460		5.615741	16.639414	-26.286662
08461		5.613858	16.637807	-26.276276
08462		5.601329	16.636994	-26.267830
08463		5.580212	16.640986	-26.257324
08464		5.561616	16.644952	-26.252528
08465		5.561246	16.646662	-26.258736
08466		5.578801	16.645232	-26.279542
08467		5.611668	16.638244	-26.310946
08468		5.654494	16.622688	-26.348989
08469		5.702639	16.599334	-26.391138
08470		5.746942	16.572052	-26.430749
08471		5.783404	16.544157	-26.462300
08472		5.815766	16.519087	-26.485926
08473		5.837625	16.496004	-26.499813
08474		5.852792	16.475356	-26.503977
08475		5.858486	16.452587	-26.500397
08476		5.847978	16.431720	-26.486498
08477		5.824646	16.413135	-26.458116
08478		5.787147	16.392494	-26.420767
08479		5.735026	16.375871	-26.370664
08480		5.680802	16.364455	-26.313272
08481		5.627237	16.361819	-26.255943
08482		5.584214	16.361048	-26.205516
08483		5.553401	16.359523	-26.164191
08484		5.538454	16.358310	-26.131061
08485		5.531233	16.349504	-26.097234
08486		5.519896	16.339532	-26.063971
08487		5.508535	16.325686	-26.028941
08488		5.498502	16.307521	-25.996832
08489		5.491147	16.289478	-25.970345
08490		5.492612	16.269695	-25.950251
08491		5.503546	16.248704	-25.939045
08492		5.520251	16.225772	-25.936559
08493		5.541235	16.200223	-25.933299
08494		5.559590	16.174065	-25.924606
08495		5.570933	16.146118	-25.911508
08496		5.565922	16.119537	-25.890913
08497		5.553812	16.090650	-25.865994
08498		5.536057	16.055376	-25.837357
08499		5.511882	16.018324	-25.804543
08500		5.481906	15.977484	-25.776257
08501		5.450270	15.937344	-25.747841
08502		5.420801	15.896381	-25.722870
08503		5.399798	15.859607	-25.701701
08504		5.385943	15.822789	-25.689592
08505		5.386015	15.781103	-25.682229
08506		5.383798	15.733451	-25.672582
08507		5.373243	15.682463	-25.663747
08508		5.358717	15.634076	-25.653023
08509		5.342448	15.585583	-25.644758
08510		5.324292	15.538688	-25.636488
08511		5.302821	15.498095	-25.627242
08512		5.280299	15.468023	-25.612733
08513		5.248063	15.446522	-25.588930
08514		5.210051	15.423856	-25.555580
08515		5.169468	15.390442	-25.518061
08516		5.128732	15.352711	-25.479854
08517		5.095289	15.309742	-25.438771
08518		5.059724	15.263067	-25.403809
08519		5.025514	15.215914	-25.362727
08520		4.985534	15.173983	-25.319732
08521		4.938287	15.131364	-25.270112
08522		4.886865	15.090836	-25.212932
08523		4.838308	15.055150	-25.148226
08524		4.796356	15.023919	-25.078093
08525		4.759350	14.997485	-24.998724
08526		4.726776	14.965713	-24.916020
08527		4.695984	14.932463	-24.833022
08528		4.664777	14.896888	-24.746140
08529		4.631553	14.860729	-24.656795
08530		4.596524	14.829760	-24.564878
08531		4.561136	14.803842	-24.467215
08532		4.525237	14.779322	-24.365405
08533		4.497093	14.757405	-24.261108
08534		4.469147	14.732528	-24.149331
08535		4.445517	14.704615	-24.036258
08536		4.418390	14.677201	-23.922649
08537		4.385745	14.654198	-23.806610
08538		4.351613	14.623748	-23.682898
08539		4.319645	14.584250	-23.557354
08540		4.282197	14.537867	-23.431297
08541		4.247957	14.483931	-23.307720
08542		4.211904	14.425994	-23.179191
08543		4.174109	14.365085	-23.049371
08544		4.136691	14.298966	-22.914450
08545		4.100279	14.223904	-22.777020
08546		4.065443	14.140622	-22.640095
08547		4.032397	14.047387	-22.503613
08548		4.002061	13.950977	-22.360889
08549		3.972588	13.850989	-22.220192
08550		3.942652	13.744422	-22.074820
08551		3.910557	13.633754	-21.933481
08552		3.878295	13.517450	-21.792779
08553		3.844850	13.399206	-21.648244
08554		3.811192	13.279397	-21.500729
08555		3.779553	13.157409	-21.348904
08556		3.750291	13.035088	-21.195180
08557		3.721051	12.910681	-21.046325
08558		3.689797	12.782815	-20.899194
08559		3.661930	12.650513	-20.758858
08560		3.630511	12.515548	-20.623369
08561		3.596824	12.385075	-20.491010
08562		3.560188	12.259177	-20.358944
08563		3.526495	12.140808	-20.228199
08564		3.491472	12.028043	-20.097591
08565		3.463723	11.915445	-19.962670
08566		3.444260	11.796912	-19.831140
08567		3.427493	11.677812	-19.702876
08568		3.409688	11.556636	-19.584873
08569		3.402621	11.429880	-19.471828
08570		3.394908	11.301475	-19.360370
08571		3.388051	11.170925	-19.247179
08572		3.377680	11.035325	-19.135316
08573		3.363828	10.899542	-19.018558
08574		3.353913	10.749942	-18.904249
08575		3.347246	10.594462	-18.793696
08576		3.343984	10.438211	-18.683316
08577		3.343077	10.271796	-18.567376
08578		3.336639	10.089427	-18.446998
08579		3.329354	9.884293	-18.320980
08580		3.325096	9.657556	-18.191475
08581		3.328554	9.412291	-18.054233
08582		3.343709	9.159591	-17.905395
08583		3.358407	8.896435	-17.753922
08584		3.370583	8.622128	-17.598256
08585		3.382476	8.331510	-17.437531
08586		3.387711	8.024788	-17.269675
08587		3.383722	7.701896	-17.101297
08588		3.379802	7.379378	-16.931630
08589		3.371648	7.059073	-16.759059
08590		3.366610	6.737717	-16.586124
08591		3.362183	6.412838	-16.419674
08592		3.364524	6.085333	-16.258229
08593		3.379627	5.758545	-16.099264
08594		3.407980	5.433376	-15.943432
08595		3.434979	5.115586	-15.787795
08596		3.450664	4.803208	-15.635757
08597		3.467638	4.495571	-15.488536
08598		3.483586	4.193573	-15.346583
08599		3.496794	3.900714	-15.210867
08600		3.510156	3.621623	-15.083730
08601		3.514896	3.357238	-14.959231
08602		3.509088	3.112037	-14.831990
08603		3.489158	2.877716	-14.707137
08604		3.459769	2.651370	-14.582128
08605		3.425294	2.440280	-14.461131
08606		3.387187	2.242308	-14.346621
08607		3.351879	2.055026	-14.234097
08608		3.313972	1.879682	-14.126898
08609		3.281436	1.714071	-14.025553
08610		3.247969	1.555216	-13.931014
08611		3.218595	1.404126	-13.840244
08612		3.203644	1.259765	-13.752384
08613		3.176602	1.127634	-13.663395
08614		3.135232	1.000941	-13.575221
08615		3.085986	0.874586	-13.488628
08616		3.027112	0.751945	-13.404193
08617		2.965187	0.639772	-13.324281
08618		2.910141	0.535789	-13.244187
08619		2.860680	0.433005	-13.163080
08620		2.814835	0.326368	-13.080495
08621		2.775429	0.217937	-13.002354
08622		2.738183	0.111487	-12.932546
08623		2.697635	0.013001	-12.865369
08624		2.660178	-0.078621	-12.805514
08625		2.637412	-0.164691	-12.751111
08626		2.614539	-0.244419	-12.702348
08627		2.602104	-0.320641	-12.655516
08628		2.589114	-0.396957	-12.604610
08629		2.574630	-0.472964	-12.558736
08630		2.560943	-0.546512	-12.516315
08631		2.544638	-0.611247	-12.482814
08632		2.529429	-0.670418	-12.454134
08633		2.519357	-0.727808	-12.430545
08634		2.515920	-0.786171	-12.410900
08635		2.510993	-0.843346	-12.394729
08636		2.496487	-0.896812	-12.374235
08637		2.473833	-0.948197	-12.361057
08638		2.453975	-0.996817	-12.352496
08639		2.440878	-1.038463	-12.345081
08640		2.432258	-1.075972	-12.336958
08641		2.433791	-1.110187	-12.335188
08642		2.442370	-1.137533	-12.334468
08643		2.452013	-1.161505	-12.331542
08644		2.456528	-1.187024	-12.328642
08645		2.454968	-1.211315	-12.328295
08646		2.456157	-1.233287	-12.327732
08647		2.451913	-1.249293	-12.331469
08648		2.448780	-1.259351	-12.335274
08649		2.449305	-1.267471	-12.340043
08650		2.456727	-1.270275	-12.344963
08651		2.471552	-1.264437	-12.348542
08652		2.481048	-1.258447	-12.359456
08653		2.497010	-1.250012	-12.370528
08654		2.512316	-1.237670	-12.384716
08655		2.529133	-1.222367	-12.393567
08656		2.539065	-1.206455	-12.401844
08657		2.549649	-1.186992	-12.410993
08658		2.561097	-1.160312	-12.422082
08659		2.576408	-1.133686	-12.430637
08660		2.596641	-1.105749	-12.437883
08661		2.615643	-1.080235	-12.442890
08662		2.628531	-1.057337	-12.445918
08663		2.634480	-1.042032	-12.449404
08664		2.640171	-1.030639	-12.454015
08665		2.649540	-1.019752	-12.457436
08666		2.659007	-1.012572	-12.459321
08667		2.669510	-1.006118	-12.456960
08668		2.679041	-1.006272	-12.450917
08669		2.686718	-1.012377	-12.438929
08670		2.689865	-1.018659	-12.428123
08671		2.692698	-1.030029	-12.418786
08672		2.693890	-1.045971	-12.412928
08673		2.698812	-1.063621	-12.408337
08674		2.704033	-1.080660	-12.404117
08675		2.710413	-1.096873	-12.395885
08676		2.715823	-1.112554	-12.389401
08677		2.718589	-1.129908	-12.381862
08678		2.716616	-1.142489	-12.378275
08679		2.715662	-1.149369	-12.377727
08680		2.717451	-1.152862	-12.378306
08681		2.721932	-1.150184	-12.377955
08682		2.726578	-1.143258	-12.379937
08683		2.734701	-1.137965	-12.382100
08684		2.741954	-1.127886	-12.384440
08685		2.748826	-1.113596	-12.385414
08686		2.746281	-1.094089	-12.384055
08687		2.741881	-1.069577	-12.378875
08688		2.735142	-1.038951	-12.373800
08689		2.730430	-1.004983	-12.368159
08690		2.731419	-0.975911	-12.359420
08691		2.741756	-0.952903	-12.344531
08692		2.756932	-0.937504	-12.327769
08693		2.771580	-0.935278	-12.308671
08694		2.785737	-0.934556	-12.288393
08695		2.795416	-0.922949	-12.270047
08696		2.810351	-0.898013	-12.253024
08697		2.835655	-0.859416	-12.235988
08698		2.857575	-0.817612	-12.219466
08699		2.870973	-0.786218	-12.209249
08700		2.872534	-0.747673	-12.218086
08701		2.871690	-0.684630	-12.240581
08702		2.881943	-0.594016	-12.286516
08703		2.913463	-0.480835	-12.353137
08704		2.969923	-0.350828	-12.438552
08705		3.052031	-0.207595	-12.533178
08706		3.153583	-0.063603	-12.630608
08707		3.259545	0.076580	-12.730955
08708		3.361252	0.222753	-12.829702
08709		3.438635	0.371001	-12.927618
08710		3.485658	0.530423	-13.029760
08711		3.506825	0.699702	-13.141403
08712		3.530519	0.889891	-13.263296
08713		3.577463	1.096055	-13.390178
08714		3.650597	1.305616	-13.513334
08715		3.741237	1.512573	-13.628114
08716		3.835562	1.713032	-13.738109
08717		3.903324	1.899976	-13.851813
08718		3.949566	2.091268	-13.978379
08719		3.989020	2.295364	-14.121948
08720		4.020779	2.512471	-14.276425
08721		4.054262	2.735584	-14.433913
08722		4.097319	2.957453	-14.593384
08723		4.158711	3.179846	-14.750156
08724		4.230260	3.399866	-14.902414
08725		4.290336	3.608140	-15.053151
08726		4.331302	3.812811	-15.210901
08727		4.367338	4.025882	-15.372975
08728		4.404457	4.241057	-15.539098
08729		4.438161	4.457946	-15.702556
08730		4.490380	4.672346	-15.862943
08731		4.547946	4.884823	-16.020690
08732		4.604006	5.095139	-16.178708
08733		4.660200	5.306492	-16.337104
08734		4.707952	5.517233	-16.500529
08735		4.758303	5.720863	-16.672033
08736		4.808996	5.918960	-16.854409
08737		4.854954	6.116674	-17.046010
08738		4.890713	6.324383	-17.240623
08739		4.929439	6.544190	-17.438250
08740		4.968316	6.775384	-17.641750
08741		5.017203	7.014200	-17.847317
08742		5.080532	7.253061	-18.060282
08743		5.153669	7.487566	-18.275715
08744		5.225207	7.708446	-18.494642
08745		5.294224	7.932325	-18.721748
08746		5.354961	8.168073	-18.955207
08747		5.416351	8.414503	-19.190343
08748		5.482339	8.668632	-19.427747
08749		5.564331	8.913534	-19.664844
08750		5.658632	9.146530	-19.902937
08751		5.758522	9.362231	-20.133683
08752		5.852036	9.565571	-20.364726
08753		5.930972	9.767840	-20.592500
08754		5.989344	9.970269	-20.812072
08755		6.032932	10.169410	-21.028455
08756		6.069449	10.368693	-21.241144
08757		6.111107	10.567205	-21.459449
08758		6.166196	10.763464	-21.682570
08759		6.224804	10.940446	-21.900911
08760		6.279456	11.098956	-22.109854
08761		6.317441	11.237731	-22.311292
08762		6.344171	11.367441	-22.498175
08763		6.364354	11.485114	-22.668891
08764		6.377458	11.584021	-22.830273
08765		6.394527	11.670159	-22.986750
08766		6.416077	11.754794	-23.141692
08767		6.450489	11.853480	-23.296353
08768		6.502578	11.965165	-23.457392
08769		6.558015	12.083114	-23.612605
08770		6.609077	12.197023	-23.758180
08771		6.658833	12.303084	-23.893725
08772		6.715075	12.400411	-24.016099
08773		6.787062	12.491265	-24.136472
08774		6.870170	12.578116	-24.253539
08775		6.960966	12.661956	-24.375377
08776		7.033851	12.751174	-24.487476
08777		7.088828	12.832576	-24.589261
08778		7.123869	12.893040	-24.688133
08779		7.142914	12.936847	-24.777096
08780		7.143709	12.972112	-24.859083
08781		7.133126	13.011134	-24.923260
08782		7.118206	13.052774	-24.981628
08783		7.107685	13.091287	-25.033850
08784		7.097550	13.120703	-25.080653
08785		7.075867	13.140427	-25.122072
08786		7.043452	13.151485	-25.158990
08787		7.000362	13.160889	-25.190640
08788		6.973703	13.170679	-25.221245
08789		6.958007	13.178953	-25.253376
08790		6.949278	13.183582	-25.287936
08791		6.948524	13.185464	-25.325599
08792		6.951887	13.185146	-25.364437
08793		6.962712	13.182732	-25.405971
08794		6.983900	13.176202	-25.451441
08795		7.018444	13.166952	-25.499811
08796		7.063013	13.158633	-25.546840
08797		7.108421	13.142711	-25.593269
08798		7.143895	13.125037	-25.638574
08799		7.174405	13.108580	-25.679863
08800		7.196522	13.095441	-25.718627
08801		7.210560	13.088823	-25.748716
08802		7.223198	13.084613	-25.775135
08803		7.240485	13.088284	-25.799747
08804		7.252658	13.096668	-25.818130
08805		7.262293	13.104481	-25.827208
08806		7.258259	13.117175	-25.831696
08807		7.256996	13.134872	-25.831946
08808		7.252615	13.159724	-25.826543
08809		7.249946	13.187782	-25.818719
08810		7.246006	13.216897	-25.810026
08811		7.238839	13.247575	-25.800393
08812		7.219294	13.275993	-25.790861
08813		7.206968	13.301416	-25.780360
08814		7.197104	13.322810	-25.773078
08815		7.190399	13.344702	-25.765754
08816		7.186236	13.365915	-25.759868
08817		7.183209	13.390815	-25.755750
08818		7.180269	13.414882	-25.757617
08819		7.178159	13.437515	-25.761693
08820		7.175638	13.459969	-25.763698
08821		7.179643	13.484067	-25.770434
08822		7.185391	13.507137	-25.779110
08823		7.195003	13.526296	-25.793793
08824		7.204370	13.544484	-25.809692
08825		7.213768	13.563707	-25.826419
08826		7.231552	13.583932	-25.842593
08827		7.268179	13.603676	-25.856888
08828		7.318566	13.620623	-25.874184
08829		7.377002	13.624842	-25.891621
08830		7.429514	13.619760	-25.917009
08831		7.476000	13.606251	-25.942705
08832		7.512123	13.591764	-25.969668
08833		7.543672	13.579871	-25.994292
08834		7.571283	13.570825	-26.015185
08835		7.594727	13.569724	-26.029197
08836		7.618426	13.569333	-26.041463
08837		7.639858	13.564976	-26.056330
08838		7.658407	13.555705	-26.068230
08839		7.668536	13.546831	-26.083607
08840		7.674406	13.537710	-26.097391
08841		7.675588	13.530049	-26.111141
08842		7.674341	13.526852	-26.126455
08843		7.674290	13.525301	-26.144464
08844		7.677950	13.528367	-26.161788
08845		7.676868	13.534585	-26.176005
08846		7.674926	13.544860	-26.183494
08847		7.667693	13.555627	-26.185857
08848		7.660297	13.561891	-26.190895
08849		7.656486	13.566646	-26.196919
08850		7.652456	13.570043	-26.203873
08851		7.653002	13.569326	-26.212148
08852		7.655570	13.567048	-26.220457
08853		7.661356	13.565384	-26.227574
08854		7.674714	13.562902	-26.236497
08855		7.687208	13.562543	-26.240124
08856		7.698694	13.560988	-26.243354
08857		7.709862	13.561261	-26.248874
08858		7.719060	13.561709	-26.251161
08859		7.725583	13.562036	-26.254109
08860		7.735081	13.563440	-26.254200
08861		7.744334	13.566961	-26.259333
08862		7.754490	13.568078	-26.264645
08863		7.762078	13.570108	-26.271754
08864		7.772488	13.576192	-26.280171
08865		7.781624	13.585960	-26.287306
08866		7.792668	13.595620	-26.293803
08867		7.802866	13.607439	-26.303894
08868		7.813001	13.618325	-26.311628
08869		7.824516	13.628832	-26.322228
08870		7.832164	13.638544	-26.330317
08871		7.839425	13.647586	-26.339068
08872		7.843468	13.655711	-26.345441
08873		7.845549	13.663433	-26.351350
08874		7.845968	13.670812	-26.356588
08875		7.848979	13.679072	-26.361086
08876		7.850237	13.687674	-26.367024
08877		7.851922	13.697593	-26.369810
08878		7.852865	13.705818	-26.373691
08879		7.853479	13.712661	-26.377131
08880		7.853077	13.716247	-26.380306
08881		7.854546	13.717796	-26.381178
08882		7.854837	13.717133	-26.382166
08883		7.857296	13.715584	-26.382431
08884		7.857368	13.712461	-26.379671
08885		7.855182	13.710613	-26.378577
08886		7.850724	13.706757	-26.375500
08887		7.848739	13.705177	-26.371156
08888		7.842987	13.703625	-26.363358
08889		7.837621	13.704409	-26.356160
08890		7.832027	13.701877	-26.347274
08891		7.823337	13.701391	-26.338026
08892		7.813403	13.701140	-26.325675
08893		7.801671	13.706514	-26.308681
08894		7.789256	13.710807	-26.291584
08895		7.775404	13.719850	-26.275055
08896		7.762413	13.722077	-26.258573
08897		7.746869	13.720855	-26.241274
08898		7.729942	13.717676	-26.220785
08899		7.712924	13.715933	-26.199821
08900		7.697012	13.714929	-26.180424
08901		7.681397	13.717371	-26.162333
08902		7.655932	13.719858	-26.138782
08903		7.617170	13.722401	-26.118313
08904		7.572414	13.719209	-26.100976
08905		7.526447	13.703765	-26.080190
08906		7.471061	13.682578	-26.052355
08907		7.410041	13.661368	-26.022963
08908		7.343927	13.641353	-25.989277
08909		7.273123	13.620855	-25.957673
08910		7.195475	13.597456	-25.926523
08911		7.113842	13.570632	-25.895335
08912		7.020116	13.543841	-25.863581
08913		6.925095	13.518015	-25.825384
08914		6.826110	13.495056	-25.785492
08915		6.732083	13.470235	-25.742649
08916		6.645445	13.450241	-25.702680
08917		6.566635	13.428635	-25.663587
08918		6.491441	13.408385	-25.626996
08919		6.424222	13.382953	-25.590440
08920		6.362697	13.350692	-25.548179
08921		6.307579	13.305508	-25.494362
08922		6.251247	13.246564	-25.425823
08923		6.192241	13.183434	-25.339562
08924		6.120548	13.119578	-25.235422
08925		6.037470	13.063201	-25.117425
08926		5.942829	13.017459	-24.987515
08927		5.838344	12.982231	-24.848928
08928		5.728567	12.959148	-24.701664
08929		5.616083	12.941298	-24.547945
08930		5.502603	12.928558	-24.390890
08931		5.390362	12.914216	-24.230877
08932		5.279737	12.897222	-24.069194
08933		5.173569	12.875756	-23.904228
08934		5.079185	12.847086	-23.742364
08935		4.997577	12.809910	-23.578077
08936		4.927618	12.760841	-23.410633
08937		4.870252	12.704174	-23.236648
08938		4.819718	12.642334	-23.059327
08939		4.780144	12.581564	-22.876172
08940		4.729409	12.514952	-22.693367
08941		4.676453	12.444102	-22.509048
08942		4.614175	12.373930	-22.324795
08943		4.552599	12.300128	-22.140332
08944		4.492640	12.224498	-21.954379
08945		4.437033	12.144237	-21.768461
08946		4.381376	12.063793	-21.583396
08947		4.331807	11.982806	-21.401281
08948		4.282650	11.904126	-21.218908
08949		4.234402	11.818669	-21.037983
08950		4.189756	11.727764	-20.860938
08951		4.143966	11.628323	-20.685494
08952		4.093751	11.520850	-20.514617
08953		4.041916	11.409719	-20.345694
08954		3.986569	11.301442	-20.182267
08955		3.937820	11.196295	-20.022233
08956		3.898765	11.093241	-19.864210
08957		3.880972	10.985633	-19.702298
08958		3.888384	10.859476	-19.541886
08959		3.906666	10.714751	-19.378808
08960		3.923251	10.549899	-19.211510
08961		3.937852	10.366075	-19.045768
08962		3.939128	10.178271	-18.875220
08963		3.937507	9.975844	-18.695950
08964		3.933061	9.759500	-18.509620
08965		3.928341	9.530477	-18.309999
08966		3.922985	9.277960	-18.097139
08967		3.925845	9.009533	-17.878016
08968		3.949690	8.732010	-17.656362
08969		3.987472	8.444344	-17.433726
08970		4.027419	8.145348	-17.208255
08971		4.082077	7.839047	-16.986335
08972		4.134128	7.540082	-16.767840
08973		4.187959	7.249630	-16.554187
08974		4.241686	6.960852	-16.343802
08975		4.284152	6.673292	-16.136796
08976		4.312832	6.391170	-15.930368
08977		4.331703	6.106370	-15.728273
08978		4.344385	5.816076	-15.534614
08979		4.348545	5.530019	-15.350958
08980		4.347844	5.254525	-15.171269
08981		4.340161	4.994733	-14.992320
08982		4.316155	4.738582	-14.816039
08983		4.287934	4.481814	-14.649719
08984		4.256590	4.230202	-14.490646
08985		4.222063	3.985174	-14.339032
08986		4.182365	3.743688	-14.190645
08987		4.149125	3.506384	-14.050915
08988		4.122474	3.274806	-13.915173
08989		4.102407	3.052204	-13.793670
08990		4.084266	2.834513	-13.682831
08991		4.062804	2.626545	-13.584878
08992		4.062100	2.439951	-13.495056
08993		4.067978	2.264041	-13.410726
08994		4.069530	2.085870	-13.336053
08995		4.059537	1.898829	-13.274237
08996		4.052637	1.713497	-13.228231
08997		4.054952	1.531489	-13.186565
08998		4.064067	1.353005	-13.150778
08999		4.077143	1.182304	-13.116639
09000		4.089574	1.015805	-13.081658
09001		4.097034	0.849370	-13.049946
09002		4.098901	0.687285	-13.022418
09003		4.091331	0.532917	-12.995891
09004		4.074987	0.382772	-12.976475
09005		4.043430	0.244769	-12.956521
09006		3.997427	0.122358	-12.938166
09007		3.952122	0.011117	-12.926738
09008		3.917267	-0.087581	-12.917073
09009		3.901993	-0.188160	-12.908116
09010		3.898196	-0.289161	-12.902459
09011		3.903408	-0.398565	-12.897356
09012		3.907198	-0.512364	-12.893916
09013		3.909168	-0.624461	-12.892338
09014		3.909921	-0.724242	-12.884966
09015		3.899614	-0.811182	-12.870044
09016		3.882982	-0.892114	-12.851433
09017		3.864531	-0.964697	-12.832010
09018		3.843675	-1.028189	-12.809079
09019		3.827058	-1.086759	-12.789596
09020		3.818867	-1.136535	-12.774805
09021		3.820251	-1.183687	-12.761432
09022		3.836950	-1.229228	-12.752040
09023		3.858890	-1.285247	-12.742710
09024		3.877413	-1.343326	-12.734813
09025		3.887714	-1.404353	-12.726693
09026		3.885763	-1.461203	-12.715830
09027		3.869916	-1.515806	-12.702223
09028		3.838745	-1.563069	-12.688035
09029		3.804733	-1.604638	-12.672085
09030		3.774612	-1.643714	-12.652345
09031		3.755126	-1.689448	-12.633606
09032		3.742768	-1.737065	-12.615857
09033		3.734064	-1.784607	-12.598337
09034		3.724825	-1.833337	-12.581794
09035		3.719806	-1.883780	-12.569390
09036		3.715451	-1.929118	-12.558201
09037		3.714670	-1.976406	-12.545005
09038		3.714001	-2.027138	-12.527451
09039		3.703354	-2.076764	-12.508083
09040		3.694192	-2.124092	-12.493379
09041		3.685066	-2.169658	-12.475875
09042		3.669635	-2.211923	-12.457783
09043		3.651555	-2.248761	-12.438490
09044		3.632840	-2.283258	-12.417810
09045		3.616524	-2.314736	-12.394826
09046		3.608898	-2.349192	-12.374283
09047		3.599617	-2.380900	-12.354948
09048		3.592925	-2.406631	-12.339786
09049		3.590206	-2.426412	-12.325113
09050		3.582131	-2.443242	-12.307759
09051		3.570869	-2.465285	-12.290715
09052		3.550481	-2.486302	-12.273700
09053		3.532533	-2.508121	-12.256902
09054		3.516209	-2.523442	-12.240765
09055		3.503098	-2.531034	-12.223688
09056		3.489840	-2.536758	-12.205861
09057		3.477827	-2.544662	-12.189858
09058		3.469570	-2.550748	-12.175196
09059		3.464907	-2.560470	-12.163602
09060		3.464469	-2.569889	-12.153289
09061		3.463777	-2.578925	-12.144093
09062		3.460688	-2.583295	-12.135442
09063		3.457105	-2.585455	-12.125039
09064		3.453556	-2.589804	-12.114905
09065		3.450430	-2.587982	-12.104515
09066		3.444840	-2.583340	-12.094220
09067		3.433638	-2.577469	-12.084280
09068		3.423092	-2.576012	-12.075059
09069		3.409424	-2.573492	-12.064916
09070		3.399635	-2.568884	-12.054586
09071		3.396442	-2.555310	-12.048343
09072		3.397692	-2.538537	-12.043013
09073		3.401652	-2.526778	-12.039214
09074		3.405636	-2.516636	-12.034774
09075		3.407620	-2.506184	-12.028772
09076		3.409785	-2.494979	-12.021518
09077		3.413153	-2.482783	-12.012631
09078		3.414094	-2.473587	-12.002760
09079		3.419516	-2.469517	-11.994741
09080		3.420900	-2.463583	-11.987144
09081		3.422524	-2.458278	-11.980707
09082		3.423895	-2.450063	-11.976969
09083		3.425493	-2.442825	-11.972544
09084		3.426817	-2.440326	-11.967564
09085		3.427748	-2.438366	-11.968678
09086		3.428014	-2.435085	-11.970393
09087		3.428654	-2.427307	-11.975581
09088		3.426485	-2.420361	-11.981407
09089		3.423532	-2.411365	-11.990141
09090		3.418534	-2.400207	-11.998300
09091		3.412164	-2.386762	-12.007043
09092		3.402798	-2.367241	-12.017433
09093		3.392289	-2.343496	-12.026347
09094		3.386794	-2.321324	-12.036527
09095		3.378693	-2.295924	-12.052362
09096		3.370731	-2.269978	-12.068861
09097		3.363437	-2.241019	-12.087843
09098		3.360579	-2.201511	-12.108396
09099		3.363731	-2.155160	-12.130132
09100		3.373178	-2.107013	-12.146470
09101		3.384892	-2.056319	-12.164602
09102		3.394405	-2.003767	-12.182167
09103		3.402344	-1.944731	-12.202374
09104		3.410554	-1.877307	-12.222157
09105		3.424928	-1.803476	-12.240684
09106		3.441379	-1.728852	-12.260333
09107		3.457499	-1.652521	-12.281443
09108		3.475118	-1.576829	-12.309255
09109		3.498042	-1.497226	-12.337151
09110		3.523628	-1.407729	-12.365101
09111		3.546242	-1.315412	-12.388772
09112		3.567419	-1.219752	-12.409686
09113		3.590244	-1.118241	-12.429818
09114		3.615095	-1.013034	-12.451554
09115		3.636225	-0.902627	-12.478243
09116		3.659944	-0.779325	-12.513560
09117		3.687370	-0.647612	-12.559866
09118		3.715036	-0.503610	-12.614151
09119		3.730611	-0.346436	-12.667561
09120		3.731947	-0.185158	-12.724509
09121		3.724982	-0.014196	-12.788667
09122		3.709959	0.169589	-12.863025
09123		3.693566	0.360907	-12.949616
09124		3.689657	0.551196	-13.056906
09125		3.705617	0.762280	-13.179581
09126		3.703554	1.009657	-13.302640
09127		3.697602	1.293043	-13.424631
09128		3.708995	1.601625	-13.547007
09129		3.743630	1.925018	-13.667839
09130		3.816211	2.246461	-13.788236
09131		3.920808	2.550050	-13.908993
09132		4.018515	2.841545	-14.022640
09133		4.105063	3.119512	-14.139342
09134		4.172357	3.400946	-14.262874
09135		4.231081	3.688648	-14.389134
09136		4.280635	3.984168	-14.515140
09137		4.332667	4.271024	-14.638422
09138		4.391106	4.542985	-14.764946
09139		4.460240	4.800089	-14.895836
09140		4.523861	5.045068	-15.035395
09141		4.580696	5.284423	-15.185088
09142		4.630383	5.513330	-15.349055
09143		4.682469	5.750545	-15.516136
09144		4.739554	5.983028	-15.684946
09145		4.808105	6.204119	-15.849109
09146		4.883633	6.411819	-16.006378
09147		4.966151	6.605659	-16.158442
09148		5.057181	6.781964	-16.308099
09149		5.146390	6.949801	-16.461196
09150		5.224032	7.122944	-16.616953
09151		5.299417	7.296793	-16.781657
09152		5.376931	7.474213	-16.947303
09153		5.447336	7.651765	-17.109811
09154		5.506386	7.830363	-17.265869
09155		5.558448	8.015591	-17.416933
09156		5.603967	8.200240	-17.560246
09157		5.636054	8.378296	-17.701542
09158		5.673769	8.540101	-17.849084
09159		5.719329	8.698868	-18.011366
09160		5.774305	8.866083	-18.184309
09161		5.842772	9.032778	-18.362783
09162		5.906816	9.211600	-18.540080
09163		5.973700	9.396544	-18.715769
09164		6.048380	9.585010	-18.894900
09165		6.125730	9.792864	-19.079896
09166		6.212195	10.009446	-19.266395
09167		6.306764	10.218616	-19.452545
09168		6.401116	10.422926	-19.647485
09169		6.496153	10.616924	-19.849419
09170		6.580111	10.807218	-20.062877
09171		6.648898	11.007556	-20.286664
09172		6.691215	11.210092	-20.509985
09173		6.721506	11.413159	-20.732086
09174		6.741847	11.608317	-20.950291
09175		6.755779	11.788733	-21.164377
09176		6.760630	11.953093	-21.376507
09177		6.756888	12.098565	-21.583890
09178		6.743444	12.226983	-21.785109
09179		6.719476	12.344978	-21.988370
09180		6.685888	12.460978	-22.188425
09181		6.640989	12.567466	-22.380536
09182		6.583545	12.657717	-22.558102
09183		6.503819	12.745728	-22.729255
09184		6.420044	12.831724	-22.891130
09185		6.341721	12.909911	-23.052011
09186		6.266640	12.980070	-23.218082
09187		6.195823	13.055243	-23.384674
09188		6.133971	13.139442	-23.554051
09189		6.075677	13.224323	-23.713190
09190		6.009101	13.315698	-23.868082
09191		5.929447	13.407114	-24.013077
09192		5.854262	13.499740	-24.157324
09193		5.785684	13.583108	-24.305972
09194		5.735819	13.658252	-24.461880
09195		5.697760	13.728964	-24.623728
09196		5.680843	13.796695	-24.797681
09197		5.685424	13.863329	-24.974879
09198		5.702472	13.932006	-25.155430
09199		5.739897	14.001321	-25.333922
09200		5.794549	14.070064	-25.506032
09201		5.849919	14.140127	-25.670603
09202		5.914581	14.212047	-25.832910
09203		5.986654	14.291694	-25.990595
09204		6.074330	14.377341	-26.138207
09205		6.179190	14.458216	-26.280547
09206		6.295221	14.521891	-26.424557
09207		6.413881	14.567671	-26.564247
09208		6.525307	14.599935	-26.695973
09209		6.625673	14.623870	-26.816668
09210		6.714530	14.643742	-26.929032
09211		6.791183	14.668812	-27.033215
09212		6.866417	14.702865	-27.122329
09213		6.936971	14.742573	-27.206709
09214		6.995799	14.787458	-27.285931
09215		7.050640	14.829019	-27.361357
09216		7.106342	14.872312	-27.434275
09217		7.165284	14.912359	-27.500646
09218		7.224833	14.941508	-27.559943
09219		7.275629	14.961191	-27.614072
09220		7.319151	14.976091	-27.657720
09221		7.351851	14.992152	-27.695552
09222		7.369156	15.008907	-27.724296
09223		7.365951	15.033659	-27.746163
09224		7.354446	15.067481	-27.761393
09225		7.358096	15.107841	-27.770167
09226		7.385935	15.148570	-27.777164
09227		7.439003	15.185265	-27.785957
09228		7.509023	15.203572	-27.807533
09229		7.584121	15.204780	-27.842825
09230		7.653462	15.192674	-27.886520
09231		7.718943	15.174172	-27.936556
09232		7.781441	15.154719	-27.988638
09233		7.847188	15.146926	-28.040538
09234		7.917997	15.147443	-28.090574
09235		7.984282	15.155070	-28.134526
09236		8.049045	15.140560	-28.185644
09237		8.126761	15.120899	-28.246481
09238		8.203061	15.095553	-28.314825
09239		8.280574	15.069692	-28.379143
09240		8.353911	15.039748	-28.440401
09241		8.427222	15.008816	-28.493526
09242		8.493317	14.976322	-28.541709
09243		8.549367	14.947655	-28.581504
09244		8.590747	14.924800	-28.614486
09245		8.622085	14.905701	-28.642180
09246		8.644597	14.888435	-28.664035
09247		8.663079	14.877874	-28.682691
09248		8.678168	14.865899	-28.697785
09249		8.692272	14.856746	-28.716296
09250		8.708263	14.842509	-28.737824
09251		8.723533	14.824689	-28.753434
09252		8.734522	14.808215	-28.766682
09253		8.742610	14.794580	-28.769504
09254		8.753249	14.783018	-28.767811
09255		8.762047	14.771581	-28.765182
09256		8.770822	14.763906	-28.759958
09257		8.775586	14.759807	-28.752931
09258		8.776051	14.758938	-28.740412
09259		8.773763	14.763844	-28.723256
09260		8.771016	14.768035	-28.702426
09261		8.766287	14.769185	-28.682345
09262		8.764344	14.762903	-28.658147
09263		8.757242	14.754104	-28.635268
09264		8.750579	14.743451	-28.612709
09265		8.747415	14.734130	-28.591684
09266		8.747370	14.726315	-28.567463
09267		8.735927	14.722744	-28.540314
09268		8.709590	14.725297	-28.511380
09269		8.667846	14.736285	-28.483773
09270		8.626709	14.752639	-28.452720
09271		8.587370	14.770238	-28.417172
09272		8.550375	14.785299	-28.379795
09273		8.517413	14.798019	-28.346020
09274		8.493240	14.802909	-28.322171
09275		8.480641	14.806868	-28.302814
09276		8.470984	14.807806	-28.291537
09277		8.465316	14.805393	-28.285050
09278		8.461397	14.800938	-28.281955
09279		8.455830	14.799213	-28.283463
09280		8.454736	14.798133	-28.286975
09281		8.450837	14.796314	-28.292487
09282		8.447740	14.794562	-28.297193
09283		8.444630	14.796891	-28.300413
09284		8.438315	14.798008	-28.302870
09285		8.430017	14.798544	-28.304611
09286		8.423659	14.799353	-28.303393
09287		8.418807	14.798581	-28.304302
09288		8.415312	14.797550	-28.308168
09289		8.418170	14.796429	-28.312381
09290		8.421635	14.794681	-28.316244
09291		8.427729	14.792685	-28.320470
09292		8.433095	14.788865	-28.325248
09293		8.436724	14.783127	-28.326554
09294		8.441338	14.774017	-28.325306
09295		8.442788	14.766984	-28.322365
09296		8.440670	14.759157	-28.315985
09297		8.432531	14.752373	-28.309008
09298		8.420834	14.745974	-28.300620
09299		8.410077	14.739393	-28.288668
09300		8.392367	14.733611	-28.276843
09301		8.373534	14.731455	-28.261595
09302		8.353496	14.730993	-28.247566
09303		8.331925	14.731114	-28.232557
09304		8.300894	14.737152	-28.217164
09305		8.275183	14.745785	-28.206639
09306		8.256058	14.750742	-28.194412
09307		8.238428	14.750966	-28.178829
09308		8.218305	14.741447	-28.162399
09309		8.191408	14.724195	-28.137443
09310		8.155327	14.705786	-28.106008
09311		8.111214	14.676371	-28.062713
09312		8.050876	14.642445	-28.008763
09313		7.974850	14.612769	-27.946155
09314		7.890295	14.590650	-27.879945
09315		7.803339	14.572101	-27.809042
09316		7.716339	14.550622	-27.730938
09317		7.634257	14.523408	-27.657761
09318		7.568443	14.489466	-27.592634
09319		7.514452	14.449009	-27.528641
09320		7.462966	14.406397	-27.459809
09321		7.407366	14.357605	-27.385888
09322		7.341955	14.306470	-27.301015
09323		7.268119	14.256679	-27.209585
09324		7.188295	14.206484	-27.113599
09325		7.110617	14.160311	-27.015831
09326		7.033076	14.121446	-26.913860
09327		6.952486	14.090192	-26.801821
09328		6.872281	14.061547	-26.682681
09329		6.801162	14.036645	-26.559047
09330		6.740735	14.015420	-26.433495
09331		6.690915	13.991385	-26.308602
09332		6.653166	13.958578	-26.178837
09333		6.616900	13.918481	-26.055150
09334		6.590318	13.867340	-25.932905
09335		6.573720	13.803741	-25.810161
09336		6.561239	13.734963	-25.683846
09337		6.550409	13.665734	-25.552983
09338		6.538536	13.603869	-25.411627
09339		6.516887	13.547736	-25.257435
09340		6.478860	13.500414	-25.087078
09341		6.429480	13.448643	-24.907408
09342		6.375407	13.387407	-24.722703
09343		6.320455	13.318106	-24.532619
09344		6.267266	13.239433	-24.342396
09345		6.216714	13.148795	-24.154596
09346		6.170137	13.049226	-23.965054
09347		6.121562	12.945611	-23.775665
09348		6.075263	12.840739	-23.587537
09349		6.041979	12.735960	-23.393684
09350		6.022414	12.623035	-23.197910
09351		6.005097	12.500254	-22.998813
09352		5.985907	12.364683	-22.799224
09353		5.968055	12.218457	-22.596102
09354		5.951422	12.061593	-22.392459
09355		5.938738	11.897743	-22.190699
09356		5.928266	11.737016	-21.992095
09357		5.914894	11.580329	-21.795311
09358		5.900403	11.418784	-21.598777
09359		5.876190	11.257039	-21.399423
09360		5.848276	11.093650	-21.204354
09361		5.822044	10.925837	-21.008680
09362		5.794359	10.756271	-20.811128
09363		5.773004	10.589916	-20.616336
09364		5.753591	10.421882	-20.423138
09365		5.741531	10.242723	-20.232735
09366		5.730649	10.052744	-20.047679
09367		5.727245	9.854371	-19.869040
09368		5.723906	9.646751	-19.692114
09369		5.721273	9.429308	-19.518296
09370		5.714482	9.208778	-19.344841
09371		5.705087	8.983181	-19.171415
09372		5.686818	8.752380	-18.995320
09373		5.668693	8.514163	-18.827777
09374		5.650750	8.275115	-18.664934
09375		5.640090	8.030041	-18.510150
09376		5.632367	7.785038	-18.359528
09377		5.624992	7.543571	-18.212795
09378		5.621079	7.305997	-18.070294
09379		5.612845	7.070322	-17.932028
09380		5.589995	6.843117	-17.792570
09381		5.569673	6.620262	-17.650551
09382		5.553683	6.403894	-17.506936
09383		5.548710	6.183059	-17.363146
09384		5.550203	5.953218	-17.217326
09385		5.553028	5.714114	-17.073104
09386		5.557424	5.473798	-16.930529
09387		5.563866	5.238927	-16.795989
09388		5.563223	5.009909	-16.673566
09389		5.553036	4.792463	-16.555300
09390		5.531670	4.595025	-16.437794
09391		5.508435	4.409076	-16.317055
09392		5.486158	4.227776	-16.194697
09393		5.458670	4.047594	-16.070545
09394		5.434907	3.871596	-15.951880
09395		5.420745	3.702352	-15.844648
09396		5.409882	3.543406	-15.740966
09397		5.396120	3.380543	-15.641457
09398		5.377468	3.217871	-15.547882
09399		5.347512	3.054402	-15.460405
09400		5.314544	2.902735	-15.373638
09401		5.281742	2.758349	-15.288660
09402		5.256130	2.622161	-15.206465
09403		5.235235	2.491702	-15.128067
09404		5.217585	2.360809	-15.053944
09405		5.201348	2.233131	-14.986586
09406		5.187598	2.106593	-14.926439
09407		5.173151	1.984179	-14.874137
09408		5.161116	1.867705	-14.830419
09409		5.147957	1.758775	-14.790029
09410		5.132632	1.657671	-14.752115
09411		5.118399	1.567820	-14.716037
09412		5.092964	1.486397	-14.681233
09413		5.066253	1.417933	-14.642421
09414		5.039569	1.363487	-14.598470
09415		5.012228	1.312433	-14.552827
09416		4.980152	1.260517	-14.503509
09417		4.950046	1.207656	-14.457044
09418		4.926686	1.157471	-14.416625
09419		4.917176	1.112394	-14.380128
09420		4.912735	1.074898	-14.346436
09421		4.913904	1.046796	-14.310240
09422		4.918608	1.016687	-14.271219
09423		4.929159	0.981554	-14.231736
09424		4.939111	0.943194	-14.191661
09425		4.946304	0.899004	-14.153134
09426		4.949860	0.853188	-14.117931
09427		4.955956	0.808176	-14.087892
09428		4.962248	0.759116	-14.060248
09429		4.966133	0.711947	-14.034510
09430		4.974919	0.663414	-14.006980
09431		4.976848	0.614852	-13.979161
09432		4.977066	0.558680	-13.954997
09433		4.972682	0.492923	-13.934542
09434		4.966707	0.427332	-13.917994
09435		4.964801	0.365425	-13.900321
09436		4.964895	0.305749	-13.882156
09437		4.962364	0.243830	-13.868531
09438		4.958906	0.183420	-13.854105
09439		4.952599	0.121157	-13.840999
09440		4.933478	0.060490	-13.827093
09441		4.908644	0.000044	-13.813718
09442		4.884492	-0.057430	-13.802201
09443		4.867302	-0.111176	-13.789668
09444		4.849479	-0.166880	-13.777112
09445		4.836583	-0.223365	-13.765573
09446		4.828552	-0.275605	-13.755782
09447		4.816458	-0.325268	-13.743668
09448		4.797875	-0.370201	-13.734409
09449		4.777993	-0.410661	-13.725232
09450		4.760810	-0.447802	-13.715267
09451		4.745642	-0.489804	-13.703463
09452		4.726475	-0.532757	-13.688458
09453		4.702308	-0.579953	-13.675083
09454		4.687726	-0.625813	-13.666713
09455		4.676803	-0.667762	-13.659455
09456		4.658766	-0.711707	-13.650521
09457		4.637370	-0.754625	-13.642644
09458		4.622895	-0.792236	-13.637017
09459		4.610949	-0.827132	-13.630207
09460		4.597025	-0.858911	-13.628069
09461		4.585819	-0.890155	-13.624300
09462		4.574727	-0.918674	-13.626719
09463		4.563507	-0.939201	-13.628432
09464		4.554132	-0.954964	-13.629880
09465		4.544804	-0.970176	-13.629721
09466		4.538205	-0.985895	-13.631301
09467		4.534871	-1.008463	-13.632389
09468		4.526659	-1.028945	-13.633584
09469		4.515407	-1.045132	-13.632084
09470		4.504086	-1.057874	-13.636892
09471		4.487133	-1.065471	-13.638457
09472		4.468632	-1.071349	-13.640518
09473		4.454275	-1.075530	-13.644105
09474		4.437244	-1.080520	-13.649741
09475		4.424524	-1.081775	-13.654686
09476		4.419230	-1.083855	-13.659958
09477		4.416322	-1.081434	-13.663214
09478		4.414427	-1.076100	-13.663163
09479		4.405035	-1.067179	-13.659684
09480		4.386263	-1.053957	-13.655579
09481		4.367280	-1.036013	-13.655293
09482		4.353436	-1.011242	-13.657083
09483		4.350207	-0.982328	-13.657871
09484		4.345903	-0.955765	-13.661755
09485		4.346917	-0.932776	-13.667180
09486		4.342870	-0.901620	-13.673169
09487		4.336079	-0.870239	-13.679980
09488		4.330144	-0.837406	-13.691548
09489		4.327560	-0.804423	-13.704152
09490		4.324390	-0.769802	-13.718829
09491		4.319573	-0.732655	-13.734493
09492		4.315800	-0.692709	-13.748231
09493		4.313196	-0.650990	-13.764376
09494		4.310043	-0.601503	-13.784057
09495		4.301741	-0.549589	-13.806482
09496		4.296084	-0.498430	-13.836046
09497		4.293541	-0.443133	-13.873158
09498		4.290450	-0.382238	-13.914518
09499		4.291149	-0.318657	-13.959083
09500		4.300391	-0.241890	-14.006470
09501		4.321152	-0.160493	-14.050137
09502		4.327958	-0.078813	-14.087993
09503		4.328540	0.015726	-14.124852
09504		4.332917	0.134658	-14.154203
09505		4.336404	0.274681	-14.177723
09506		4.341154	0.430232	-14.191287
09507		4.350764	0.592652	-14.197952
09508		4.361372	0.758011	-14.200033
09509		4.374069	0.929072	-14.195090
09510		4.385105	1.098762	-14.188660
09511		4.384202	1.274920	-14.182565
09512		4.377962	1.451486	-14.181136
09513		4.361625	1.626703	-14.186213
09514		4.344161	1.806374	-14.198292
09515		4.329717	1.990686	-14.212686
09516		4.313039	2.181128	-14.229446
09517		4.301420	2.384176	-14.250191
09518		4.301467	2.593546	-14.275734
09519		4.309387	2.799182	-14.311957
09520		4.322716	2.999465	-14.358391
09521		4.349154	3.213246	-14.411216
09522		4.372808	3.433785	-14.466383
09523		4.388040	3.649952	-14.527306
09524		4.400685	3.866841	-14.591204
09525		4.411619	4.079749	-14.664288
09526		4.413622	4.294863	-14.739700
09527		4.414963	4.521090	-14.820359
09528		4.409431	4.763210	-14.902337
09529		4.411182	5.006294	-14.995550
09530		4.421534	5.264283	-15.098732
09531		4.424860	5.559927	-15.193477
09532		4.431671	5.874564	-15.284921
09533		4.437898	6.207048	-15.379053
09534		4.463496	6.563586	-15.480271
09535		4.525559	6.925600	-15.589588
09536		4.616904	7.275664	-15.705767
09537		4.733084	7.600967	-15.834970
09538		4.865902	7.900140	-15.972450
09539		4.998407	8.170756	-16.125028
09540		5.109903	8.433806	-16.294700
09541		5.201377	8.704165	-16.483483
09542		5.283254	8.996453	-16.684766
09543		5.365021	9.301723	-16.890465
09544		5.449265	9.602068	-17.100396
09545		5.533839	9.890077	-17.316431
09546		5.624565	10.172677	-17.539566
09547		5.707535	10.454875	-17.771991
09548		5.776061	10.738786	-18.010982
09549		5.835137	11.034595	-18.262930
09550		5.891123	11.341765	-18.527746
09551		5.952559	11.660405	-18.803437
09552		6.025628	11.979409	-19.089381
09553		6.117570	12.282838	-19.381206
09554		6.222408	12.569956	-19.679145
09555		6.328747	12.833463	-19.988390
09556		6.435645	13.073392	-20.301180
09557		6.536310	13.286377	-20.624855
09558		6.634696	13.481574	-20.961425
09559		6.722206	13.659312	-21.305463
09560		6.809667	13.819196	-21.655998
09561		6.901684	13.970534	-21.996543
09562		6.987299	14.108672	-22.314697
09563		7.040478	14.251826	-22.600768
09564		7.084469	14.356121	-22.858553
09565		7.106762	14.438959	-23.087606
09566		7.115955	14.489861	-23.294330
09567		7.096968	14.517666	-23.489691
09568		7.062717	14.525616	-23.671164
09569		7.016186	14.522854	-23.841039
09570		6.961815	14.533270	-24.003141
09571		6.904055	14.560762	-24.155196
09572		6.860447	14.597613	-24.308018
09573		6.825027	14.639020	-24.455261
09574		6.779040	14.684352	-24.603363
09575		6.736123	14.730457	-24.745465
09576		6.691043	14.764411	-24.884530
09577		6.637390	14.786264	-25.025608
09578		6.576568	14.805428	-25.168287
09579		6.503640	14.830352	-25.312159
09580		6.436624	14.864578	-25.454645
09581		6.373600	14.928015	-25.589506
09582		6.315450	15.007307	-25.714689
09583		6.267963	15.094289	-25.838116
09584		6.237656	15.175295	-25.956137
09585		6.218867	15.249731	-26.072948
09586		6.205404	15.314816	-26.186521
09587		6.206916	15.369270	-26.297754
09588		6.219574	15.421427	-26.414139
09589		6.250499	15.466130	-26.529514
09590		6.280897	15.503786	-26.641913
09591		6.318293	15.535548	-26.750504
09592		6.354450	15.564821	-26.851045
09593		6.399335	15.588685	-26.944914
09594		6.447333	15.612388	-27.037625
09595		6.498988	15.639941	-27.129607
09596		6.560107	15.669674	-27.221798
09597		6.625642	15.700173	-27.313143
09598		6.686381	15.726381	-27.401070
09599		6.742518	15.747729	-27.484323
09600		6.789710	15.764898	-27.561454
09601		6.834031	15.777134	-27.629685
09602		6.874272	15.780333	-27.693111
09603		6.906519	15.778333	-27.746884
09604		6.927083	15.766178	-27.795565
09605		6.939398	15.755557	-27.835339
09606		6.943666	15.739458	-27.867056
09607		6.934451	15.722214	-27.892014
09608		6.915216	15.706971	-27.906045
09609		6.886681	15.692988	-27.908579
09610		6.848729	15.677700	-27.904238
09611		6.805431	15.663337	-27.892778
09612		6.761310	15.650548	-27.876756
09613		6.715992	15.641569	-27.854534
09614		6.672157	15.631234	-27.831191
09615		6.634683	15.626035	-27.806762
09616		6.594248	15.621181	-27.777906
09617		6.544828	15.611806	-27.745205
09618		6.484544	15.599138	-27.707391
09619		6.418956	15.580461	-27.665641
09620		6.347019	15.563541	-27.617840
09621		6.271835	15.550744	-27.570635
09622		6.207519	15.542144	-27.522468
09623		6.176046	15.529840	-27.474879
09624		6.182747	15.514035	-27.427304
09625		6.225155	15.495998	-27.390739
09626		6.289426	15.481118	-27.368898
09627		6.355178	15.459018	-27.358447
09628		6.405983	15.423729	-27.350890
09629		6.437246	15.379899	-27.337837
09630		6.451466	15.332967	-27.316736
09631		6.449336	15.292365	-27.280764
09632		6.442590	15.258002	-27.232373
09633		6.436218	15.225320	-27.175438
09634		6.433679	15.193436	-27.109993
09635		6.436217	15.158969	-27.046277
09636		6.441429	15.122098	-26.985679
09637		6.444834	15.081514	-26.937439
09638		6.448859	15.037359	-26.894389
09639		6.452607	14.989594	-26.860180
09640		6.458149	14.937903	-26.832566
09641		6.470668	14.888321	-26.809232
09642		6.486627	14.843231	-26.790759
09643		6.504128	14.801133	-26.775188
09644		6.516601	14.765145	-26.758791
09645		6.528986	14.730025	-26.740505
09646		6.531825	14.699136	-26.723795
09647		6.530086	14.673480	-26.707145
09648		6.519170	14.652180	-26.690284
09649		6.506014	14.634322	-26.672559
09650		6.487261	14.621427	-26.656984
09651		6.472147	14.612095	-26.642433
09652		6.463978	14.604656	-26.628989
09653		6.454954	14.599991	-26.620322
09654		6.443965	14.597724	-26.611535
09655		6.433543	14.596743	-26.606379
09656		6.418243	14.594079	-26.604257
09657		6.408372	14.586769	-26.607451
09658		6.404636	14.578275	-26.613290
09659		6.406347	14.568940	-26.616611
09660		6.404856	14.562783	-26.618567
09661		6.393233	14.558838	-26.616178
09662		6.363602	14.560104	-26.610503
09663		6.328158	14.566017	-26.603949
09664		6.296386	14.576486	-26.595381
09665		6.265215	14.591082	-26.586763
09666		6.235314	14.604108	-26.578940
09667		6.207762	14.612182	-26.578258
09668		6.180292	14.618972	-26.579567
09669		6.148496	14.626295	-26.587241
09670		6.119558	14.634412	-26.595095
09671		6.092910	14.639137	-26.597035
09672		6.065389	14.635513	-26.592396
09673		6.037448	14.624993	-26.581715
09674		6.010162	14.614381	-26.570491
09675		5.987320	14.600412	-26.559676
09676		5.964662	14.585615	-26.549064
09677		5.945592	14.568866	-26.540058
09678		5.926129	14.549709	-26.531515
09679		5.909660	14.530746	-26.524227
09680		5.898021	14.511341	-26.516344
09681		5.892931	14.491093	-26.508799
09682		5.893318	14.470142	-26.503792
09683		5.898223	14.452272	-26.499519
09684		5.903934	14.433577	-26.494126
09685		5.905422	14.417639	-26.486356
09686		5.896467	14.410735	-26.477036
09687		5.881049	14.411711	-26.460402
09688		5.859805	14.415151	-26.438557
09689		5.824109	14.416041	-26.411009
09690		5.778588	14.412946	-26.380121
09691		5.735938	14.402453	-26.346206
09692		5.694884	14.389584	-26.309667
09693		5.657564	14.374587	-26.277165
09694		5.617582	14.367016	-26.243789
09695		5.578153	14.361897	-26.209748
09696		5.535721	14.352440	-26.174675
09697		5.487154	14.339031	-26.137197
09698		5.439135	14.321669	-26.096798
09699		5.390905	14.298287	-26.056127
09700		5.347253	14.272440	-26.013781
09701		5.307002	14.245531	-25.974568
09702		5.266626	14.218198	-25.939186
09703		5.228848	14.192426	-25.902071
09704		5.183347	14.166495	-25.863120
09705		5.134206	14.139428	-25.821469
09706		5.085476	14.111818	-25.783318
09707		5.039670	14.085832	-25.746722
09708		5.004685	14.059611	-25.714181
09709		4.987583	14.029719	-25.685842
09710		4.987174	14.007184	-25.663324
09711		5.001343	13.997584	-25.638827
09712		5.011447	13.990732	-25.616162
09713		5.014880	13.976338	-25.596971
09714		5.010933	13.959223	-25.579936
09715		5.001073	13.938992	-25.563947
09716		4.979949	13.919188	-25.545855
09717		4.950492	13.889561	-25.521611
09718		4.918055	13.852287	-25.494600
09719		4.891087	13.806554	-25.460606
09720		4.862540	13.760019	-25.422099
09721		4.837547	13.718768	-25.378357
09722		4.806198	13.684911	-25.328318
09723		4.772833	13.653855	-25.265606
09724		4.736522	13.626239	-25.192576
09725		4.696503	13.593392	-25.110520
09726		4.654904	13.552045	-25.024772
09727		4.624705	13.500454	-24.938200
09728		4.592447	13.445582	-24.848468
09729		4.552098	13.385805	-24.749471
09730		4.502588	13.327477	-24.641233
09731		4.447253	13.268893	-24.527047
09732		4.393911	13.207588	-24.409411
09733		4.349627	13.138438	-24.289524
09734		4.313577	13.066961	-24.171261
09735		4.285005	12.993744	-24.052805
09736		4.259946	12.919989	-23.934125
09737		4.231351	12.842391	-23.812892
09738		4.194177	12.757963	-23.685558
09739		4.150489	12.673745	-23.553133
09740		4.101535	12.585505	-23.413202
09741		4.052774	12.493842	-23.271318
09742		4.003999	12.404510	-23.129887
09743		3.961675	12.316074	-22.987471
09744		3.922672	12.232059	-22.846355
09745		3.886990	12.153042	-22.705366
09746		3.847724	12.078144	-22.563397
09747		3.805507	12.006502	-22.420076
09748		3.768170	11.926688	-22.278477
09749		3.733686	11.836202	-22.133152
09750		3.703045	11.736626	-21.990034
09751		3.674098	11.627071	-21.847225
09752		3.656946	11.517029	-21.707108
09753		3.645497	11.409546	-21.567426
09754		3.634774	11.300393	-21.426902
09755		3.629532	11.185532	-21.284897
09756		3.630982	11.069874	-21.140371
09757		3.638120	10.950134	-20.993773
09758		3.653926	10.821976	-20.843153
09759		3.671202	10.690152	-20.696947
09760		3.682250	10.556719	-20.548609
09761		3.689388	10.418098	-20.396672
09762		3.692301	10.275607	-20.243944
09763		3.691233	10.122167	-20.090906
09764		3.682785	9.964660	-19.938380
09765		3.668116	9.809512	-19.782678
09766		3.652251	9.656746	-19.634647
09767		3.634890	9.504230	-19.486281
09768		3.618743	9.347636	-19.339989
09769		3.605216	9.187244	-19.197034
09770		3.594904	9.027713	-19.060405
09771		3.599144	8.867494	-18.927592
09772		3.612826	8.702157	-18.802832
09773		3.642863	8.528824	-18.678509
09774		3.682411	8.349609	-18.558872
09775		3.721835	8.165233	-18.439833
09776		3.761550	7.976389	-18.321145
09777		3.796101	7.782696	-18.205878
09778		3.824582	7.592453	-18.093216
09779		3.850847	7.404792	-17.981562
09780		3.873141	7.220910	-17.864855
09781		3.894997	7.032183	-17.739707
09782		3.911705	6.837479	-17.616579
09783		3.921704	6.639486	-17.494146
09784		3.934424	6.439168	-17.374723
09785		3.934479	6.241933	-17.257616
09786		3.922503	6.047550	-17.142859
09787		3.899082	5.855108	-17.028943
09788		3.871942	5.670250	-16.920044
09789		3.843582	5.489789	-16.814832
09790		3.825387	5.316616	-16.718379
09791		3.821810	5.143127	-16.625082
09792		3.827089	4.961733	-16.536796
09793		3.848116	4.775305	-16.450644
09794		3.868627	4.589061	-16.365819
09795		3.880194	4.401301	-16.278874
09796		3.873345	4.215301	-16.190585
09797		3.851812	4.041216	-16.098390
09798		3.826445	3.881462	-16.003463
09799		3.793691	3.734348	-15.905139
09800		3.759378	3.594157	-15.809694
09801		3.722170	3.465325	-15.718652
09802		3.682447	3.349646	-15.634714
09803		3.639924	3.245374	-15.551874
09804		3.594138	3.143012	-15.470715
09805		3.542274	3.036850	-15.392989
09806		3.494470	2.930635	-15.320634
09807		3.450601	2.832812	-15.255515
09808		3.420037	2.743820	-15.196732
09809		3.404995	2.667488	-15.140914
09810		3.401805	2.605426	-15.088392
09811		3.400947	2.539403	-15.039494
09812		3.402081	2.469220	-14.997759
09813		3.401287	2.408922	-14.961904
09814		3.401387	2.357954	-14.926107
09815		3.403519	2.309148	-14.892069
09816		3.405751	2.256779	-14.862445
09817		3.401974	2.198661	-14.831858
09818		3.388701	2.144791	-14.801798
09819		3.366609	2.094537	-14.777535
09820		3.346653	2.050386	-14.755067
09821		3.331679	2.011241	-14.734251
09822		3.321410	1.970171	-14.712913
09823		3.315945	1.922008	-14.694425
09824		3.308843	1.868413	-14.677564
09825		3.303318	1.811517	-14.663467
09826		3.295646	1.755798	-14.649314
09827		3.291504	1.697006	-14.627042
09828		3.283580	1.638485	-14.609349
09829		3.272463	1.581048	-14.588252
09830		3.259605	1.524941	-14.568955
09831		3.244104	1.466736	-14.551755
09832		3.228045	1.399472	-14.533375
09833		3.208257	1.330924	-14.514914
09834		3.193250	1.269637	-14.496307
09835		3.186913	1.214737	-14.480270
09836		3.190705	1.163977	-14.465204
09837		3.202130	1.116305	-14.445377
09838		3.218287	1.065318	-14.421920
09839		3.236907	1.010722	-14.395780
09840		3.247402	0.956130	-14.365739
09841		3.247541	0.903374	-14.333945
09842		3.242338	0.852102	-14.300152
09843		3.226037	0.804617	-14.268657
09844		3.209210	0.765400	-14.239207
09845		3.192514	0.729471	-14.212871
09846		3.185266	0.696057	-14.194394
09847		3.183120	0.660317	-14.177172
09848		3.174637	0.623868	-14.167300
09849		3.160548	0.589511	-14.166709
09850		3.148968	0.562335	-14.173109
09851		3.143563	0.541939	-14.183357
09852		3.140871	0.525391	-14.191492
09853		3.140312	0.510203	-14.200536
09854		3.137668	0.492145	-14.208626
09855		3.129495	0.474663	-14.215738
09856		3.125438	0.457371	-14.226548
09857		3.125444	0.440654	-14.238286
09858		3.129589	0.427445	-14.248107
09859		3.134440	0.409974	-14.258667
09860		3.142869	0.395217	-14.267880
09861		3.159062	0.388311	-14.273784
09862		3.172906	0.383099	-14.275187
09863		3.178638	0.378360	-14.269273
09864		3.183149	0.372369	-14.261855
09865		3.190314	0.367739	-14.251736
09866		3.194667	0.367360	-14.237586
09867		3.197616	0.370652	-14.218977
09868		3.201389	0.379223	-14.206522
09869		3.208709	0.397271	-14.195876
09870		3.213338	0.421333	-14.184876
09871		3.218379	0.443163	-14.176568
09872		3.220728	0.461065	-14.170646
09873		3.220694	0.480864	-14.165955
09874		3.224302	0.509799	-14.162146
09875		3.234706	0.544079	-14.158854
09876		3.246742	0.584284	-14.154825
09877		3.264271	0.623599	-14.153105
09878		3.280773	0.667595	-14.158238
09879		3.293690	0.715345	-14.170716
09880		3.301735	0.768237	-14.192199
09881		3.307453	0.825429	-14.223673
09882		3.314264	0.892312	-14.262438
09883		3.330755	0.969335	-14.307460
09884		3.348546	1.054433	-14.358056
09885		3.371340	1.145731	-14.412988
09886		3.393987	1.245820	-14.474521
09887		3.416337	1.350012	-14.538889
09888		3.443997	1.459550	-14.608185
09889		3.479412	1.574753	-14.679246
09890		3.518382	1.701810	-14.751047
09891		3.558371	1.833197	-14.822212
09892		3.593222	1.963740	-14.892528
09893		3.617639	2.092317	-14.973047
09894		3.639689	2.230061	-15.062070
09895		3.666436	2.378841	-15.158927
09896		3.695534	2.537246	-15.260707
09897		3.734798	2.701627	-15.362904
09898		3.788398	2.866744	-15.464679
09899		3.847764	3.026714	-15.563340
09900		3.897240	3.177621	-15.658674
09901		3.941958	3.313011	-15.768787
09902		3.985914	3.449193	-15.891983
09903		4.029923	3.598872	-16.022854
09904		4.066868	3.769825	-16.160967
09905		4.114713	3.943378	-16.300068
09906		4.161613	4.115936	-16.435599
09907		4.201628	4.286572	-16.569257
09908		4.233357	4.456159	-16.706713
09909		4.254816	4.634542	-16.850078
09910		4.264096	4.824210	-16.998052
09911		4.272305	5.016525	-17.151317
09912		4.281675	5.213503	-17.306093
09913		4.305583	5.409057	-17.463566
09914		4.331990	5.590265	-17.617686
09915		4.373942	5.782158	-17.761395
09916		4.422902	5.973233	-17.896366
09917		4.465943	6.155386	-18.027858
09918		4.498545	6.340113	-18.150723
09919		4.529648	6.520103	-18.273110
09920		4.568659	6.700263	-18.393206
09921		4.610440	6.888019	-18.510984
09922		4.647698	7.078929	-18.621584
09923		4.680413	7.260675	-18.727790
09924		4.708117	7.438541	-18.832603
09925		4.736057	7.615074	-18.936260
09926		4.764814	7.777739	-19.039083
09927		4.788918	7.920941	-19.144489
09928		4.806132	8.053899	-19.256228
09929		4.821071	8.192348	-19.369693
09930		4.843786	8.337823	-19.487504
09931		4.881877	8.479125	-19.601850
09932		4.912402	8.625344	-19.715015
09933		4.945428	8.779407	-19.822643
09934		4.986938	8.932747	-19.930131
09935		5.026874	9.088043	-20.043102
09936		5.061158	9.243839	-20.161559
09937		5.093651	9.410795	-20.287033
09938		5.128496	9.592943	-20.423878
09939		5.172682	9.796515	-20.569047
09940		5.223647	10.015843	-20.715319
09941		5.285183	10.238134	-20.856012
09942		5.349786	10.450170	-20.992415
09943		5.417947	10.652615	-21.124022
09944		5.493127	10.849168	-21.258569
09945		5.566767	11.044992	-21.395735
09946		5.636358	11.242587	-21.532890
09947		5.704523	11.439393	-21.667518
09948		5.777067	11.620432	-21.804316
09949		5.851569	11.789617	-21.940047
09950		5.930735	11.946422	-22.076918
09951		6.005530	12.096467	-22.215544
09952		6.078296	12.241267	-22.356250
09953		6.140513	12.386925	-22.494481
09954		6.194484	12.529193	-22.621739
09955		6.240155	12.664394	-22.743012
09956		6.275837	12.798039	-22.857745
09957		6.302877	12.926862	-22.970564
09958		6.331644	13.051588	-23.086534
09959		6.356990	13.173321	-23.203543
09960		6.380730	13.288635	-23.323557
09961		6.401966	13.394804	-23.442490
09962		6.415760	13.494999	-23.557978
09963		6.421318	13.592426	-23.667118
09964		6.421103	13.683845	-23.766745
09965		6.422501	13.767828	-23.864310
09966		6.424312	13.840059	-23.956893
09967		6.426552	13.904211	-24.045257
09968		6.429162	13.965174	-24.136380
09969		6.432891	14.019480	-24.231797
09970		6.438007	14.070955	-24.329219
09971		6.446941	14.123565	-24.425652
09972		6.449339	14.176296	-24.522300
09973		6.448396	14.231124	-24.617467
09974		6.447113	14.290291	-24.707372
09975		6.443172	14.345680	-24.789453
09976		6.436199	14.396312	-24.865955
09977		6.423745	14.441210	-24.935604
09978		6.405157	14.481411	-25.001495
09979		6.385351	14.521372	-25.063820
09980		6.361965	14.556429	-25.125207
09981		6.347476	14.588419	-25.188676
09982		6.334626	14.623863	-25.252108
09983		6.329389	14.661048	-25.315244
09984		6.328933	14.704672	-25.376425
09985		6.328185	14.750704	-25.428906
09986		6.327908	14.793566	-25.474818
09987		6.325973	14.828580	-25.516773
09988		6.322650	14.854448	-25.551962
09989		6.315920	14.876796	-25.588047
09990		6.304362	14.895866	-25.624688
09991		6.290579	14.921073	-25.662723
09992		6.279336	14.949469	-25.701304
09993		6.265294	14.980859	-25.744459
09994		6.259241	15.014521	-25.792384
09995		6.257544	15.046928	-25.841970
09996		6.260154	15.080644	-25.895396
09997		6.269550	15.114992	-25.950138
09998		6.286139	15.150046	-26.005230
09999		6.311257	15.187408	-26.065747
10000		6.338682	15.224529	-26.123876
10001		6.363177	15.261064	-26.179794
10002		6.383415	15.298290	-26.230886
10003		6.401150	15.334885	-26.278764
10004		6.416117	15.370448	-26.327364
10005		6.429562	15.408037	-26.372459
10006		6.443831	15.444029	-26.413998
10007		6.453226	15.481846	-26.456664
10008		6.463602	15.520871	-26.496072
10009		6.471635	15.559901	-26.536306
10010		6.482637	15.598404	-26.577227
10011		6.496941	15.632627	-26.622954
10012		6.512224	15.665537	-26.669259
10013		6.530100	15.697478	-26.717598
10014		6.546731	15.725140	-26.761082
10015		6.553758	15.745349	-26.802127
10016		6.560438	15.762852	-26.841743
10017		6.568328	15.777937	-26.879083
10018		6.579891	15.793014	-26.913001
10019		6.593414	15.809840	-26.946242
10020		6.609569	15.824205	-26.975204
10021		6.629807	15.836420	-27.005403
10022		6.652899	15.847504	-27.031425
10023		6.678554	15.850950	-27.052683
10024		6.693657	15.852749	-27.070656
10025		6.695322	15.853961	-27.084233
10026		6.690776	15.853806	-27.092384
10027		6.677782	15.852189	-27.096755
10028		6.667041	15.848462	-27.097536
10029		6.652212	15.841290	-27.095807
10030		6.633815	15.837071	-27.093508
10031		6.607945	15.833917	-27.084513
10032		6.580368	15.830309	-27.070784
10033		6.549082	15.826520	-27.053805
10034		6.512547	15.823298	-27.030400
10035		6.466210	15.821615	-26.998609
10036		6.419318	15.815432	-26.970177
10037		6.393321	15.805969	-26.945805
10038		6.395603	15.799119	-26.919769
10039		6.410726	15.796407	-26.893095
10040		6.440828	15.778185	-26.878900
10041		6.480406	15.759813	-26.870245
10042		6.514743	15.733334	-26.868244
10043		6.543727	15.699823	-26.870758
10044		6.569269	15.664717	-26.873077
10045		6.583244	15.634359	-26.872743
10046		6.595837	15.611352	-26.863388
10047		6.607076	15.594451	-26.847087
10048		6.615462	15.579212	-26.830791
10049		6.621899	15.561385	-26.815931
10050		6.629838	15.541186	-26.804202
10051		6.635771	15.523347	-26.799887
10052		6.645310	15.512146	-26.796656
10053		6.651721	15.504373	-26.796302
10054		6.665899	15.497336	-26.795951
10055		6.679653	15.494831	-26.794492
10056		6.695165	15.493909	-26.795313
10057		6.711058	15.490264	-26.799261
10058		6.726540	15.484737	-26.803554
10059		6.741455	15.477716	-26.809494
10060		6.756279	15.473197	-26.816651
10061		6.769897	15.473289	-26.821154
10062		6.781887	15.475448	-26.824031
10063		6.792808	15.480478	-26.829568
10064		6.798325	15.485163	-26.837456
10065		6.803830	15.487739	-26.847453
10066		6.809015	15.487659	-26.858017
10067		6.816006	15.482677	-26.868618
10068		6.822991	15.473913	-26.882504
10069		6.831741	15.467008	-26.890654
10070		6.837016	15.462946	-26.896755
10071		6.842684	15.460179	-26.898078
10072		6.844543	15.459681	-26.896087
10073		6.845043	15.455194	-26.890982
10074		6.841553	15.447926	-26.883780
10075		6.835765	15.438496	-26.876276
10076		6.826544	15.429863	-26.864928
10077		6.816456	15.421950	-26.852235
10078		6.806874	15.417199	-26.844030
10079		6.796440	15.415838	-26.835226
10080		6.785309	15.410743	-26.824245
10081		6.770940	15.400866	-26.809269
10082		6.747442	15.385350	-26.791935
10083		6.721162	15.364112	-26.767609
10084		6.688156	15.337313	-26.745339
10085		6.658586	15.307331	-26.724233
10086		6.630771	15.280138	-26.704547
10087		6.601198	15.252627	-26.687344
10088		6.568466	15.226826	-26.665736
10089		6.529960	15.192824	-26.648521
10090		6.495457	15.155971	-26.632874
10091		6.470496	15.114205	-26.617107
10092		6.451709	15.067663	-26.604810
10093		6.443298	15.017291	-26.597650
10094		6.443565	14.965544	-26.589407
10095		6.440319	14.920358	-26.585785
10096		6.438977	14.880132	-26.580076
10097		6.434985	14.843907	-26.570805
10098		6.426911	14.808118	-26.555870
10099		6.412340	14.768398	-26.536975
10100		6.393801	14.725803	-26.515236
10101		6.364208	14.685815	-26.496275
10102		6.335963	14.647602	-26.478431
10103		6.312134	14.610689	-26.466078
10104		6.295042	14.580195	-26.457513
10105		6.289889	14.556134	-26.451368
10106		6.292656	14.537179	-26.447469
10107		6.303203	14.513867	-26.445177
10108		6.312733	14.489892	-26.442318
10109		6.318195	14.458240	-26.432961
10110		6.320514	14.432609	-26.422313
10111		6.322944	14.407720	-26.406834
10112		6.315386	14.380638	-26.382250
10113		6.298492	14.351904	-26.349657
10114		6.271438	14.323401	-26.310208
10115		6.238206	14.296728	-26.263048
10116		6.191288	14.270656	-26.214124
10117		6.145275	14.243452	-26.161437
10118		6.096524	14.221213	-26.105712
10119		6.046984	14.205789	-26.041306
10120		5.993989	14.194155	-25.970605
10121		5.940948	14.180827	-25.897574
10122		5.896279	14.171782	-25.826728
10123		5.865031	14.162104	-25.756955
10124		5.841203	14.149580	-25.684268
10125		5.822218	14.139358	-25.611415
10126		5.805203	14.128161	-25.538808
10127		5.785835	14.119082	-25.464456
10128		5.762466	14.116669	-25.389850
10129		5.732181	14.113585	-25.312506
10130		5.701606	14.108289	-25.230551
10131		5.670082	14.103252	-25.145271
10132		5.639900	14.098058	-25.053553
10133		5.606864	14.098398	-24.958643
10134		5.571753	14.102144	-24.857433
10135		5.533382	14.107425	-24.750838
10136		5.491081	14.109613	-24.640656
10137		5.443142	14.110378	-24.528219
10138		5.389084	14.109211	-24.410002
10139		5.329912	14.104537	-24.287456
10140		5.271200	14.102290	-24.162036
10141		5.219108	14.103983	-24.035000
10142		5.170825	14.112926	-23.903495
10143		5.119894	14.114297	-23.769457
10144		5.066618	14.107372	-23.633523
10145		5.010551	14.092273	-23.497002
10146		4.962409	14.076943	-23.365359
10147		4.919707	14.063270	-23.233749
10148		4.866994	14.046194	-23.099178
10149		4.809061	14.019397	-22.960332
10150		4.752479	13.991692	-22.823143
10151		4.701206	13.958559	-22.683311
10152		4.655497	13.919886	-22.543611
10153		4.613946	13.876478	-22.405137
10154		4.576657	13.831176	-22.269724
10155		4.537442	13.785012	-22.142524
10156		4.501377	13.740780	-22.010759
10157		4.459200	13.697039	-21.878025
10158		4.420612	13.644061	-21.742442
10159		4.386165	13.582675	-21.604985
10160		4.356226	13.511130	-21.467944
10161		4.325933	13.433387	-21.329923
10162		4.291739	13.360961	-21.189350
10163		4.263655	13.291466	-21.045810
10164		4.239859	13.220761	-20.899081
10165		4.222300	13.140255	-20.751923
10166		4.202195	13.055517	-20.610592
10167		4.186139	12.970975	-20.471377
10168		4.171426	12.884819	-20.336969
10169		4.161182	12.798924	-20.206432
10170		4.147127	12.718010	-20.076474
10171		4.131069	12.636848	-19.945917
10172		4.109199	12.552660	-19.810949
10173		4.084750	12.470766	-19.675602
10174		4.057805	12.393679	-19.543606
10175		4.032452	12.313301	-19.410833
10176		4.010239	12.226106	-19.278708
10177		3.994065	12.131540	-19.152254
10178		3.982685	12.039805	-19.028832
10179		3.975047	11.948738	-18.903936
10180		3.966965	11.858619	-18.781948
10181		3.953759	11.771458	-18.655359
10182		3.937442	11.678955	-18.534381
10183		3.917527	11.581304	-18.417624
10184		3.904265	11.480446	-18.303492
10185		3.898321	11.376784	-18.190911
10186		3.907031	11.277154	-18.084663
10187		3.927924	11.180024	-17.976283
10188		3.949076	11.070373	-17.857403
10189		3.964412	10.946960	-17.739479
10190		3.972429	10.827335	-17.627364
10191		3.983413	10.712525	-17.521206
10192		4.005934	10.594597	-17.423552
10193		4.030921	10.470203	-17.330512
10194		4.051021	10.339627	-17.240816
10195		4.074509	10.203723	-17.159109
10196		4.098622	10.072338	-17.078467
10197		4.124833	9.944292	-17.000404
10198		4.152456	9.821408	-16.920789
10199		4.187807	9.689525	-16.840970
10200		4.223327	9.556513	-16.765259
10201		4.255116	9.421188	-16.690124
10202		4.283374	9.278979	-16.616502
10203		4.307983	9.139063	-16.547353
10204		4.323568	9.003352	-16.481316
10205		4.334574	8.866337	-16.419569
10206		4.343874	8.734421	-16.355795
10207		4.352575	8.605750	-16.293337
10208		4.351762	8.486348	-16.227092
10209		4.343634	8.368349	-16.159504
10210		4.333169	8.252237	-16.094950
10211		4.324632	8.146373	-16.036299
10212		4.319067	8.053775	-15.981312
10213		4.315225	7.963688	-15.928721
10214		4.317356	7.873252	-15.879442
10215		4.325483	7.783484	-15.833448
10216		4.338226	7.695278	-15.787920
10217		4.344809	7.606993	-15.741506
10218		4.344135	7.520115	-15.696053
10219		4.343261	7.438391	-15.649719
10220		4.335217	7.366057	-15.602816
10221		4.329257	7.303679	-15.556518
10222		4.321435	7.248635	-15.512731
10223		4.320394	7.199256	-15.476873
10224		4.317682	7.154600	-15.444078
10225		4.313741	7.111156	-15.412739
10226		4.310559	7.068927	-15.382037
10227		4.304144	7.022399	-15.349750
10228		4.292327	6.972025	-15.320745
10229		4.287209	6.920995	-15.294553
10230		4.286463	6.873009	-15.269298
10231		4.283659	6.821110	-15.246135
10232		4.284276	6.770180	-15.222162
10233		4.285391	6.727092	-15.196729
10234		4.288824	6.683947	-15.167908
10235		4.293633	6.634175	-15.136212
10236		4.296255	6.583749	-15.103431
10237		4.300819	6.529508	-15.071094
10238		4.303459	6.477871	-15.041082
10239		4.300935	6.424601	-15.009572
10240		4.293989	6.373979	-14.977923
10241		4.284935	6.324185	-14.947836
10242		4.276052	6.276874	-14.917612
10243		4.269945	6.231824	-14.887533
10244		4.272792	6.189100	-14.853078
10245		4.282759	6.138947	-14.816655
10246		4.293199	6.080768	-14.772259
10247		4.298535	6.011549	-14.732535
10248		4.301137	5.946006	-14.691858
10249		4.301676	5.890861	-14.651758
10250		4.293571	5.838884	-14.612666
10251		4.284479	5.785924	-14.580228
10252		4.280360	5.737763	-14.549808
10253		4.279691	5.693345	-14.520436
10254		4.283054	5.651267	-14.491923
10255		4.278123	5.604547	-14.465531
10256		4.276359	5.565163	-14.444353
10257		4.275576	5.537202	-14.426544
10258		4.276938	5.517735	-14.413307
10259		4.274235	5.499539	-14.404833
10260		4.272016	5.486334	-14.404060
10261		4.274636	5.487886	-14.407454
10262		4.286043	5.493904	-14.411151
10263		4.292010	5.487265	-14.413172
10264		4.296545	5.486210	-14.415702
10265		4.296366	5.492347	-14.419232
10266		4.290874	5.505259	-14.425300
10267		4.290154	5.522379	-14.434268
10268		4.297380	5.540160	-14.445824
10269		4.307226	5.558656	-14.455163
10270		4.318297	5.573203	-14.461511
10271		4.329423	5.583704	-14.468745
10272		4.337591	5.597962	-14.476357
10273		4.344766	5.615025	-14.485920
10274		4.354288	5.637024	-14.496985
10275		4.370323	5.661061	-14.510333
10276		4.381805	5.679470	-14.528817
10277		4.380897	5.692082	-14.548208
10278		4.377521	5.713087	-14.570674
10279		4.386025	5.742124	-14.597870
10280		4.397935	5.771062	-14.626754
10281		4.406685	5.790197	-14.658061
10282		4.415960	5.808588	-14.691548
10283		4.425793	5.833574	-14.725639
10284		4.440058	5.868731	-14.766709
10285		4.455815	5.907030	-14.807847
10286		4.459901	5.949050	-14.850327
10287		4.460286	5.990372	-14.891726
10288		4.468312	6.037920	-14.935573
10289		4.486288	6.091159	-14.980572
10290		4.500009	6.148889	-15.022704
10291		4.509944	6.207020	-15.066640
10292		4.526821	6.276400	-15.114618
10293		4.538765	6.359448	-15.171326
10294		4.548070	6.454651	-15.232170
10295		4.560352	6.556117	-15.292282
10296		4.578848	6.662651	-15.354545
10297		4.604626	6.770586	-15.418795
10298		4.637332	6.876791	-15.483770
10299		4.679268	6.978238	-15.553351
10300		4.725957	7.073428	-15.621532
10301		4.762165	7.169421	-15.696041
10302		4.786175	7.277583	-15.778477
10303		4.805837	7.399234	-15.864891
10304		4.821394	7.529613	-15.956660
10305		4.830722	7.655790	-16.056863
10306		4.838845	7.777910	-16.168238
10307		4.856324	7.910843	-16.287591
10308		4.886503	8.075213	-16.407247
10309		4.925738	8.255666	-16.529724
10310		4.975147	8.437096	-16.653183
10311		5.027475	8.607917	-16.779137
10312		5.087286	8.776470	-16.914946
10313		5.150127	8.957120	-17.055862
10314		5.222636	9.148565	-17.197915
10315		5.299416	9.345489	-17.339545
10316		5.371576	9.535428	-17.473552
10317		5.439646	9.723308	-17.603441
10318		5.496419	9.913733	-17.734371
10319		5.554286	10.112002	-17.870998
10320		5.610871	10.307875	-18.008223
10321		5.668837	10.496298	-18.146015
10322		5.728744	10.668000	-18.283850
10323		5.789509	10.823603	-18.423284
10324		5.863978	10.968318	-18.564843
10325		5.946743	11.103700	-18.709443
10326		6.018707	11.233298	-18.855386
10327		6.089920	11.372940	-19.009428
10328		6.166577	11.513940	-19.165659
10329		6.245307	11.643556	-19.320520
10330		6.323058	11.765478	-19.477650
10331		6.397289	11.890206	-19.637262
10332		6.471117	12.018948	-19.806080
10333		6.550350	12.156054	-19.973491
10334		6.629386	12.296011	-20.145231
10335		6.711813	12.428830	-20.319595
10336		6.795768	12.553470	-20.493444
10337		6.878747	12.665142	-20.663952
10338		6.942240	12.757665	-20.831393
10339		7.001062	12.837399	-20.996907
10340		7.050455	12.917079	-21.161452
10341		7.096887	13.006581	-21.317308
10342		7.138517	13.101772	-21.468307
10343		7.165806	13.192625	-21.608096
10344		7.186285	13.276745	-21.743126
10345		7.207639	13.347204	-21.874814
10346		7.227541	13.403473	-22.010761
10347		7.252914	13.454672	-22.148138
10348		7.279898	13.493906	-22.289380
10349		7.301580	13.525337	-22.432339
10350		7.310804	13.556932	-22.575575
10351		7.315603	13.590441	-22.717011
10352		7.326763	13.621379	-22.847208
10353		7.337316	13.640890	-22.976539
10354		7.356398	13.649892	-23.109046
10355		7.389840	13.655544	-23.252729
10356		7.430716	13.658789	-23.401472
10357		7.461597	13.662462	-23.548059
10358		7.488407	13.670863	-23.686791
10359		7.498810	13.685723	-23.818136
10360		7.495660	13.700009	-23.940930
10361		7.485296	13.716862	-24.054750
10362		7.474345	13.737641	-24.162629
10363		7.463605	13.761921	-24.263082
10364		7.445305	13.790929	-24.361399
10365		7.428491	13.821459	-24.456578
10366		7.409018	13.850225	-24.552026
10367		7.389879	13.874546	-24.652214
10368		7.376795	13.894470	-24.755594
10369		7.369633	13.908554	-24.863184
10370		7.366343	13.916617	-24.972125
10371		7.371527	13.916460	-25.078822
10372		7.377182	13.919529	-25.181548
10373		7.383807	13.924356	-25.280033
10374		7.395833	13.932081	-25.373407
10375		7.401465	13.936927	-25.460632
10376		7.403349	13.941283	-25.542476
10377		7.407632	13.947236	-25.622076
10378		7.410192	13.949887	-25.699894
10379		7.410638	13.948785	-25.778990
10380		7.409076	13.947690	-25.857313
10381		7.410104	13.944648	-25.936355
10382		7.405365	13.943085	-26.016398
10383		7.399045	13.944094	-26.092616
10384		7.388271	13.952686	-26.160735
10385		7.371511	13.964562	-26.221500
10386		7.352588	13.974592	-26.275946
10387		7.328474	13.981253	-26.329546
10388		7.310453	13.986169	-26.381556
10389		7.290590	13.995070	-26.436209
10390		7.281509	13.997472	-26.489255
10391		7.283025	13.993058	-26.549088
10392		7.286079	13.984188	-26.610938
10393		7.291425	13.971095	-26.671686
10394		7.296336	13.956706	-26.730863
10395		7.296609	13.943968	-26.785095
10396		7.294248	13.935596	-26.837472
10397		7.294963	13.934119	-26.882220
10398		7.302151	13.934017	-26.919786
10399		7.308925	13.936116	-26.949772
10400		7.313063	13.935751	-26.979460
10401		7.311511	13.932441	-27.010962
10402		7.308911	13.927587	-27.040454
10403		7.304418	13.924022	-27.071636
10404		7.297267	13.918108	-27.105407
10405		7.289786	13.911488	-27.133616
10406		7.283458	13.910304	-27.161508
10407		7.276372	13.914746	-27.186647
10408		7.256751	13.928723	-27.207660
10409		7.239383	13.933601	-27.234604
10410		7.231953	13.944632	-27.261037
10411		7.229986	13.951823	-27.285743
10412		7.233463	13.956147	-27.317506
10413		7.243721	13.959563	-27.352423
10414		7.255882	13.958361	-27.390643
10415		7.267788	13.953698	-27.428689
10416		7.280305	13.948864	-27.465820
10417		7.294615	13.943182	-27.500814
10418		7.306547	13.937789	-27.536562
10419		7.322834	13.932217	-27.572181
10420		7.347737	13.933059	-27.609634
10421		7.372388	13.935422	-27.650813
10422		7.400852	13.940192	-27.695031
10423		7.436046	13.941106	-27.739206
10424		7.471713	13.937765	-27.783335
10425		7.484520	13.927471	-27.820264
10426		7.478492	13.919997	-27.851968
10427		7.480147	13.916187	-27.879009
10428		7.497108	13.914301	-27.904181
10429		7.533190	13.919327	-27.929052
10430		7.587417	13.923125	-27.953499
10431		7.646192	13.920690	-27.981329
10432		7.696524	13.907103	-28.013175
10433		7.736221	13.892194	-28.046525
10434		7.766613	13.878554	-28.078709
10435		7.792400	13.866064	-28.109216
10436		7.820579	13.856569	-28.133755
10437		7.849595	13.849879	-28.152970
10438		7.878216	13.841322	-28.167929
10439		7.903065	13.829281	-28.181454
10440		7.920804	13.813956	-28.193874
10441		7.936210	13.796982	-28.208856
10442		7.949185	13.778535	-28.225224
10443		7.961781	13.763890	-28.240505
10444		7.975225	13.752935	-28.258614
10445		7.985654	13.744629	-28.274975
10446		8.000322	13.736223	-28.285740
10447		8.013481	13.729129	-28.292399
10448		8.026569	13.721878	-28.295694
10449		8.033832	13.714573	-28.294052
10450		8.038483	13.707290	-28.289171
10451		8.041562	13.700563	-28.282695
10452		8.051590	13.693220	-28.273088
10453		8.057358	13.687580	-28.263352
10454		8.068797	13.682975	-28.251773
10455		8.078891	13.679477	-28.241049
10456		8.085819	13.677671	-28.228085
10457		8.089121	13.679471	-28.211405
10458		8.087315	13.684100	-28.195085
10459		8.087520	13.692103	-28.176536
10460		8.085154	13.698047	-28.164009
10461		8.087610	13.702223	-28.151455
10462		8.086096	13.705140	-28.142557
10463		8.086432	13.706490	-28.135210
10464		8.088148	13.709247	-28.128910
10465		8.090747	13.712841	-28.121972
10466		8.094789	13.715065	-28.112113
10467		8.096865	13.717313	-28.101794
10468		8.099901	13.716459	-28.094835
10469		8.101402	13.714430	-28.084939
10470		8.097264	13.713559	-28.074599
10471		8.091423	13.709371	-28.064177
10472		8.082724	13.706467	-28.053766
10473		8.072338	13.703765	-28.043387
10474		8.061339	13.702630	-28.032153
10475		8.051070	13.702547	-28.022389
10476		8.040534	13.702255	-28.012664
10477		8.030828	13.700378	-28.008062
10478		8.024881	13.696384	-28.002694
10479		8.017894	13.692392	-27.999825
10480		8.010774	13.687550	-27.998741
10481		8.002955	13.679967	-27.999139
10482		7.993502	13.673647	-28.002238
10483		7.982540	13.669342	-28.004571
10484		7.970982	13.669176	-28.009310
10485		7.956962	13.667938	-28.011560
10486		7.948550	13.669984	-28.013985
10487		7.945506	13.672051	-28.019637
10488		7.947065	13.674534	-28.028815
10489		7.957228	13.673248	-28.041213
10490		7.971579	13.667451	-28.055470
10491		7.983649	13.660572	-28.066434
10492		7.987046	13.651771	-28.072792
10493		7.984012	13.647926	-28.074373
10494		7.980199	13.646222	-28.072711
10495		7.974113	13.645552	-28.067774
10496		7.967280	13.648752	-28.063316
10497		7.961766	13.652361	-28.057959
10498		7.953915	13.653206	-28.051302
10499		7.941587	13.656117	-28.042376
10500		7.926533	13.660612	-28.036549
10501		7.914120	13.663793	-28.026431
10502		7.901719	13.662512	-28.017782
10503		7.889637	13.658727	-28.008379
10504		7.877500	13.657159	-27.997680
10505		7.864461	13.659278	-27.982996
10506		7.843072	13.663908	-27.961598
10507		7.813652	13.666787	-27.938069
10508		7.787785	13.670627	-27.916596
10509		7.764761	13.669468	-27.896236
10510		7.744598	13.661804	-27.875854
10511		7.717086	13.650024	-27.851814
10512		7.673146	13.633051	-27.821011
10513		7.613254	13.612441	-27.786181
10514		7.550125	13.589349	-27.750411
10515		7.484608	13.567283	-27.716507
10516		7.433312	13.548339	-27.680049
10517		7.394001	13.532492	-27.644859
10518		7.350756	13.522298	-27.607160
10519		7.303933	13.516755	-27.565612
10520		7.256770	13.517046	-27.521163
10521		7.206727	13.521150	-27.469651
10522		7.157358	13.526047	-27.410230
10523		7.107899	13.531519	-27.345287
10524		7.059468	13.538865	-27.277196
10525		7.003239	13.549460	-27.205638
10526		6.956100	13.560938	-27.130887
10527		6.913578	13.572956	-27.054846
10528		6.873423	13.585977	-26.976891
10529		6.838251	13.597217	-26.896758
10530		6.810889	13.602953	-26.812950
10531		6.790408	13.600344	-26.729168
10532		6.772103	13.596898	-26.642364
10533		6.749720	13.590693	-26.550555
10534		6.724105	13.581272	-26.455110
10535		6.693196	13.569945	-26.353330
10536		6.659353	13.554770	-26.244985
10537		6.623089	13.540861	-26.130174
10538		6.586439	13.530219	-26.008537
10539		6.546004	13.522451	-25.876750
10540		6.493178	13.513977	-25.738700
10541		6.441833	13.504965	-25.595528
10542		6.389119	13.496666	-25.445075
10543		6.329854	13.486444	-25.292040
10544		6.264570	13.474186	-25.136639
10545		6.199997	13.457630	-24.979183
10546		6.133079	13.437283	-24.821391
10547		6.066682	13.419193	-24.658250
10548		5.997256	13.393557	-24.493980
10549		5.932798	13.368228	-24.327452
10550		5.875397	13.342150	-24.163261
10551		5.824271	13.311860	-23.995803
10552		5.776208	13.273232	-23.826153
10553		5.737642	13.230261	-23.657887
10554		5.710664	13.181320	-23.491556
10555		5.686110	13.127206	-23.324362
10556		5.654883	13.069781	-23.149368
10557		5.619095	13.013629	-22.970518
10558		5.582796	12.960886	-22.791317
10559		5.550339	12.908425	-22.608984
10560		5.523446	12.853167	-22.430364
10561		5.494002	12.799323	-22.255570
10562		5.458149	12.748094	-22.086086
10563		5.420341	12.697898	-21.922788
10564		5.383546	12.653870	-21.763288
10565		5.345990	12.612492	-21.606757
10566		5.318446	12.566397	-21.451953
10567		5.298145	12.512563	-21.298340
10568		5.286237	12.450356	-21.151852
10569		5.281168	12.384672	-21.010468
10570		5.281672	12.315989	-20.872783
10571		5.285736	12.245374	-20.739240
10572		5.291283	12.178398	-20.606801
10573		5.296581	12.112801	-20.475531
10574		5.303210	12.045018	-20.344402
10575		5.307804	11.969302	-20.215720
10576		5.312099	11.881754	-20.086308
10577		5.314007	11.783433	-19.956079
10578		5.316690	11.681581	-19.829062
10579		5.314408	11.578162	-19.702630
10580		5.305073	11.478259	-19.577367
10581		5.289706	11.377271	-19.455786
10582		5.284568	11.270712	-19.334411
10583		5.288141	11.152610	-19.216750
10584		5.298448	11.028829	-19.097830
10585		5.314099	10.903419	-18.979436
10586		5.324826	10.779696	-18.863641
10587		5.341563	10.655596	-18.748530
10588		5.369113	10.525958	-18.639324
10589		5.396493	10.396469	-18.525897
10590		5.411873	10.261373	-18.413231
10591		5.414315	10.119706	-18.297764
10592		5.412010	9.979018	-18.185209
10593		5.416161	9.839461	-18.070397
10594		5.410861	9.706502	-17.951193
10595		5.399645	9.576418	-17.830710
10596		5.383040	9.449473	-17.706132
10597		5.366770	9.328767	-17.583840
10598		5.353796	9.212610	-17.461710
10599		5.342864	9.091571	-17.339523
10600		5.337247	8.969675	-17.216021
10601		5.340128	8.841970	-17.095511
10602		5.343812	8.711238	-16.980957
10603		5.343179	8.576916	-16.869955
10604		5.341290	8.450407	-16.761386
10605		5.338766	8.324212	-16.657695
10606		5.340358	8.201958	-16.560252
10607		5.348188	8.080123	-16.468344
10608		5.360546	7.958277	-16.377082
10609		5.377661	7.833214	-16.288074
10610		5.396519	7.703691	-16.202516
10611		5.417643	7.569354	-16.120829
10612		5.432589	7.437477	-16.038255
10613		5.440277	7.299558	-15.959417
10614		5.437981	7.168593	-15.881335
10615		5.427412	7.035968	-15.804540
10616		5.407449	6.908235	-15.726426
10617		5.389488	6.780325	-15.649650
10618		5.372712	6.660005	-15.573817
10619		5.357874	6.547545	-15.504308
10620		5.345592	6.440989	-15.441523
10621		5.323195	6.346425	-15.393366
10622		5.323658	6.278168	-15.343628
10623		5.329810	6.183205	-15.295944
10624		5.337509	6.059807	-15.249487
10625		5.331928	5.941408	-15.199645
10626		5.314886	5.829733	-15.149448
10627		5.289289	5.735365	-15.105879
10628		5.255677	5.661269	-15.069248
10629		5.225557	5.605468	-15.035139
10630		5.204249	5.558189	-14.997121
10631		5.194245	5.501606	-14.957345
10632		5.190426	5.436415	-14.919187
10633		5.188099	5.368304	-14.885129
10634		5.184021	5.304788	-14.855244
10635		5.179022	5.244498	-14.828666
10636		5.171183	5.187762	-14.802972
10637		5.171062	5.133678	-14.778158
10638		5.163064	5.083485	-14.751060
10639		5.151667	5.029491	-14.723356
10640		5.136924	4.974840	-14.694949
10641		5.119910	4.917455	-14.665104
10642		5.100627	4.863272	-14.634670
10643		5.084749	4.812243	-14.608254
10644		5.075992	4.768203	-14.578693
10645		5.068020	4.725872	-14.550065
10646		5.060512	4.680193	-14.521591
10647		5.052003	4.632847	-14.489686
10648		5.043914	4.584843	-14.459150
10649		5.034429	4.534385	-14.431148
10650		5.023708	4.485536	-14.408431
10651		5.016384	4.437981	-14.386554
10652		5.014321	4.392954	-14.365093
10653		5.015677	4.350531	-14.341787
10654		5.011512	4.311640	-14.314159
10655		5.006272	4.269264	-14.286021
10656		5.001613	4.227448	-14.254465
10657		4.998759	4.190782	-14.222769
10658		4.989763	4.155020	-14.190122
10659		4.977422	4.121616	-14.158504
10660		4.970000	4.089665	-14.127780
10661		4.961011	4.058447	-14.102447
10662		4.957803	4.031371	-14.080535
10663		4.958520	4.002263	-14.057252
10664		4.963181	3.974701	-14.034706
10665		4.970353	3.948158	-14.011829
10666		4.973325	3.922096	-13.988602
10667		4.970481	3.897202	-13.966777
10668		4.957010	3.872497	-13.948795
10669		4.947636	3.852299	-13.935842
10670		4.937139	3.843241	-13.922348
10671		4.931262	3.834495	-13.906574
10672		4.919614	3.822979	-13.889485
10673		4.908958	3.809091	-13.875392
10674		4.896832	3.798097	-13.864331
10675		4.883196	3.789070	-13.856306
10676		4.871831	3.785289	-13.848993
10677		4.864748	3.783632	-13.840784
10678		4.854547	3.779509	-13.832379
10679		4.844790	3.772506	-13.826567
10680		4.828460	3.770636	-13.822454
10681		4.813883	3.776674	-13.819662
10682		4.804977	3.787549	-13.816634
10683		4.796301	3.794085	-13.814460
10684		4.792611	3.801828	-13.815176
10685		4.799055	3.813151	-13.821681
10686		4.805488	3.824715	-13.826772
10687		4.803136	3.834472	-13.831778
10688		4.802968	3.842882	-13.838977
10689		4.807458	3.849261	-13.846506
10690		4.812741	3.857989	-13.854325
10691		4.813776	3.865621	-13.859821
10692		4.816523	3.883491	-13.867089
10693		4.823555	3.904658	-13.876271
10694		4.827854	3.932279	-13.890579
10695		4.832020	3.956656	-13.904675
10696		4.831944	3.972597	-13.919738
10697		4.827821	3.984321	-13.936220
10698		4.826596	4.003586	-13.951296
10699		4.825524	4.031278	-13.967675
10700		4.829029	4.067576	-13.984025
10701		4.837621	4.104272	-14.003782
10702		4.843975	4.140416	-14.026442
10703		4.856432	4.175650	-14.051303
10704		4.867575	4.208377	-14.073641
10705		4.873631	4.243349	-14.094828
10706		4.878292	4.282983	-14.117604
10707		4.884763	4.326057	-14.138380
10708		4.888737	4.373894	-14.162867
10709		4.893232	4.420701	-14.189126
10710		4.896949	4.469785	-14.218586
10711		4.906847	4.522532	-14.249690
10712		4.915574	4.574170	-14.285914
10713		4.924950	4.624030	-14.324783
10714		4.935291	4.674386	-14.367338
10715		4.944860	4.721767	-14.412595
10716		4.952363	4.771314	-14.457385
10717		4.960015	4.825176	-14.505613
10718		4.971713	4.884109	-14.554015
10719		4.976174	4.946890	-14.599065
10720		4.972870	5.011060	-14.640487
10721		4.964937	5.081328	-14.677901
10722		4.958690	5.163892	-14.711518
10723		4.959119	5.254141	-14.744548
10724		4.967783	5.343082	-14.779447
10725		4.985654	5.432807	-14.810205
10726		5.006777	5.526613	-14.843741
10727		5.032829	5.614335	-14.874888
10728		5.059575	5.701637	-14.906921
10729		5.078622	5.788793	-14.937767
10730		5.087218	5.876297	-14.968784
10731		5.083164	5.962493	-15.004984
10732		5.075601	6.054533	-15.048970
10733		5.072252	6.162458	-15.095650
10734		5.081743	6.282920	-15.143507
10735		5.099240	6.409549	-15.190909
10736		5.126855	6.533547	-15.236485
10737		5.154910	6.649905	-15.283113
10738		5.176707	6.756073	-15.335701
10739		5.192608	6.856436	-15.398702
10740		5.206714	6.965858	-15.466002
10741		5.228393	7.089781	-15.538377
10742		5.256409	7.231240	-15.610681
10743		5.290135	7.383102	-15.677451
10744		5.328732	7.533777	-15.741589
10745		5.369859	7.672972	-15.811530
10746		5.414899	7.800336	-15.889676
10747		5.453773	7.924935	-15.981275
10748		5.495942	8.070235	-16.075531
10749		5.536947	8.233562	-16.178164
10750		5.577330	8.402426	-16.287350
10751		5.628267	8.559657	-16.406371
10752		5.689191	8.704061	-16.539118
10753		5.762662	8.852190	-16.686619
10754		5.837874	9.012253	-16.845572
10755		5.916967	9.186316	-17.011352
10756		5.997311	9.378839	-17.181310
10757		6.087286	9.584755	-17.354750
10758		6.191743	9.791869	-17.532311
10759		6.294729	9.996378	-17.710684
10760		6.390808	10.188938	-17.897908
10761		6.482231	10.373254	-18.094295
10762		6.562487	10.555375	-18.293305
10763		6.634824	10.728912	-18.488949
10764		6.699169	10.899840	-18.680769
10765		6.754499	11.080869	-18.867122
10766		6.815445	11.261845	-19.048723
10767		6.875588	11.432602	-19.231583
10768		6.944910	11.593952	-19.410683
10769		7.021207	11.746757	-19.592693
10770		7.106625	11.895019	-19.776643
10771		7.181973	12.024154	-19.962000
10772		7.243652	12.146505	-20.142808
10773		7.288914	12.274628	-20.324711
10774		7.330068	12.395751	-20.501997
10775		7.373130	12.500835	-20.677891
10776		7.432694	12.579536	-20.850878
10777		7.498833	12.651500	-21.022539
10778		7.558511	12.718018	-21.192782
10779		7.609513	12.787414	-21.360388
10780		7.650029	12.869525	-21.530704
10781		7.689869	12.955323	-21.700245
10782		7.729739	13.034819	-21.861605
10783		7.768841	13.108280	-22.016606
10784		7.820450	13.164398	-22.171764
10785		7.876822	13.211479	-22.332720
10786		7.928241	13.261490	-22.495234
10787		7.966387	13.321201	-22.654586
10788		8.003677	13.386919	-22.805884
10789		8.037169	13.446546	-22.960301
10790		8.054044	13.508964	-23.118522
10791		8.075644	13.572589	-23.268384
10792		8.100376	13.629297	-23.420411
10793		8.126006	13.674607	-23.572675
10794		8.159874	13.709065	-23.726335
10795		8.191729	13.742634	-23.879900
10796		8.229442	13.775708	-24.031697
10797		8.265363	13.811099	-24.180330
10798		8.295045	13.842588	-24.323644
10799		8.315906	13.872803	-24.464173
10800		8.326925	13.887586	-24.595529
10801		8.332770	13.906223	-24.728392
10802		8.334872	13.926253	-24.858924
10803		8.330268	13.948154	-24.986064
10804		8.322273	13.972578	-25.105873
10805		8.312056	13.998206	-25.223750
10806		8.297784	14.019454	-25.341954
10807		8.286923	14.040084	-25.460826
10808		8.272662	14.060476	-25.579496
10809		8.262641	14.071428	-25.696427
10810		8.253170	14.082439	-25.809240
10811		8.236746	14.099981	-25.921746
10812		8.227850	14.113362	-26.029048
10813		8.213644	14.126413	-26.135208
10814		8.193933	14.136384	-26.237581
10815		8.175301	14.146697	-26.335737
10816		8.156973	14.154818	-26.430673
10817		8.142904	14.156841	-26.521997
10818		8.133367	14.151971	-26.611013
10819		8.131064	14.145855	-26.701249
10820		8.133009	14.138555	-26.792136
10821		8.135003	14.134557	-26.878101
10822		8.137363	14.132129	-26.951351
10823		8.132677	14.132116	-27.016289
10824		8.120236	14.130867	-27.070712
10825		8.108695	14.126390	-27.118461
10826		8.097374	14.122046	-27.162053
10827		8.088643	14.121204	-27.207069
10828		8.081837	14.122779	-27.253260
10829		8.071430	14.129971	-27.301456
10830		8.056940	14.138155	-27.345020
10831		8.043677	14.144379	-27.383751
10832		8.036436	14.145532	-27.415655
10833		8.030288	14.145498	-27.445774
10834		8.027035	14.139063	-27.472586
10835		8.026549	14.131192	-27.497465
10836		8.026375	14.124528	-27.521277
10837		8.028034	14.122278	-27.543487
10838		8.033207	14.119142	-27.564045
10839		8.036232	14.121629	-27.577869
10840		8.040537	14.124759	-27.591693
10841		8.042215	14.128077	-27.601063
10842		8.042371	14.131162	-27.609918
10843		8.044077	14.131361	-27.617894
10844		8.040303	14.129539	-27.627220
10845		8.039041	14.126576	-27.638758
10846		8.034085	14.124893	-27.651792
10847		8.031032	14.121105	-27.659935
10848		8.029364	14.115117	-27.670997
10849		8.029189	14.108956	-27.682018
10850		8.029773	14.103959	-27.693299
10851		8.031421	14.101506	-27.707102
10852		8.036149	14.104564	-27.718293
10853		8.037115	14.112976	-27.729134
10854		8.039950	14.124216	-27.734714
10855		8.035312	14.136880	-27.738984
10856		8.026325	14.149768	-27.740960
10857		8.017787	14.158867	-27.743900
10858		8.012846	14.163920	-27.748497
10859		8.016389	14.167601	-27.754043
10860		8.026156	14.168785	-27.762869
10861		8.044280	14.165904	-27.777543
10862		8.069631	14.158778	-27.793571
10863		8.097113	14.152378	-27.807164
10864		8.125613	14.148559	-27.817013
10865		8.150653	14.146190	-27.826674
10866		8.172109	14.145969	-27.834720
10867		8.187751	14.147142	-27.842265
10868		8.196827	14.149068	-27.846589
10869		8.202465	14.152376	-27.845476
10870		8.207560	14.157272	-27.847474
10871		8.210360	14.160056	-27.850507
10872		8.212123	14.160428	-27.858300
10873		8.214779	14.157939	-27.869798
10874		8.214384	14.153038	-27.886596
10875		8.217084	14.147668	-27.905121
10876		8.218511	14.143790	-27.920984
10877		8.220944	14.142041	-27.935313
10878		8.223639	14.140021	-27.946886
10879		8.224972	14.141226	-27.953308
10880		8.229903	14.142301	-27.958599
10881		8.231423	14.142768	-27.958988
10882		8.230055	14.143852	-27.957060
10883		8.225086	14.145238	-27.952998
10884		8.221461	14.144936	-27.951329
10885		8.218526	14.149308	-27.947212
10886		8.219159	14.154680	-27.946692
10887		8.227892	14.158022	-27.950221
10888		8.233178	14.160162	-27.951087
10889		8.233923	14.162845	-27.950354
10890		8.235082	14.167497	-27.947165
10891		8.235310	14.171656	-27.945683
10892		8.233016	14.178009	-27.944986
10893		8.231891	14.186106	-27.943644
10894		8.230258	14.195946	-27.947836
10895		8.224624	14.205315	-27.947828
10896		8.211722	14.216308	-27.945702
10897		8.195466	14.226640	-27.938945
10898		8.177414	14.235011	-27.931788
10899		8.159511	14.238254	-27.925275
10900		8.143114	14.241479	-27.917595
10901		8.129238	14.241805	-27.907610
10902		8.114344	14.243908	-27.901107
10903		8.102933	14.243109	-27.894442
10904		8.093221	14.240119	-27.887824
10905		8.082902	14.236123	-27.880642
10906		8.071986	14.233714	-27.874252
10907		8.064479	14.230487	-27.868131
10908		8.059034	14.229503	-27.859191
10909		8.053700	14.225887	-27.852810
10910		8.045044	14.223462	-27.848350
10911		8.038971	14.222063	-27.844052
10912		8.031903	14.220214	-27.838649
10913		8.022753	14.218792	-27.832922
10914		8.014273	14.217849	-27.826942
10915		8.005820	14.217343	-27.820525
10916		7.996981	14.214394	-27.813561
10917		7.990803	14.213250	-27.808075
10918		7.985249	14.211725	-27.802116
10919		7.983206	14.210530	-27.798933
10920		7.982912	14.208592	-27.796922
10921		7.984488	14.208824	-27.795298
10922		7.983038	14.209905	-27.792009
10923		7.979315	14.210513	-27.786020
10924		7.972174	14.211195	-27.781913
10925		7.966733	14.210964	-27.778941
10926		7.963279	14.212670	-27.775693
10927		7.957139	14.217299	-27.768981
10928		7.949286	14.222930	-27.761844
10929		7.941453	14.229605	-27.757536
10930		7.934908	14.236922	-27.754870
10931		7.932071	14.243964	-27.751354
10932		7.923594	14.252519	-27.748266
10933		7.913634	14.259352	-27.742222
10934		7.898186	14.267175	-27.735768
10935		7.879879	14.274373	-27.727149
10936		7.858152	14.284137	-27.717198
10937		7.834813	14.293877	-27.703995
10938		7.810576	14.305064	-27.686956
10939		7.787851	14.318869	-27.671277
10940		7.764022	14.332344	-27.650658
10941		7.740622	14.347914	-27.629871
10942		7.706116	14.362470	-27.605103
10943		7.671815	14.379618	-27.575288
10944		7.624687	14.401071	-27.540117
10945		7.570789	14.421217	-27.500392
10946		7.516390	14.427886	-27.458207
10947		7.462068	14.428211	-27.415201
10948		7.407516	14.423693	-27.372186
10949		7.355369	14.417688	-27.331333
10950		7.299662	14.414958	-27.287484
10951		7.243735	14.416620	-27.238946
10952		7.183993	14.418051	-27.180158
10953		7.120795	14.422243	-27.115004
10954		7.060132	14.429053	-27.046779
10955		6.996703	14.436436	-26.971540
10956		6.929807	14.442816	-26.888308
10957		6.860752	14.453756	-26.793519
10958		6.791273	14.469469	-26.688600
10959		6.717360	14.484747	-26.574820
10960		6.638245	14.496494	-26.456204
10961		6.557764	14.503440	-26.336393
10962		6.473604	14.512232	-26.223591
10963		6.390988	14.525527	-26.107439
10964		6.313180	14.538587	-25.988770
10965		6.241912	14.551184	-25.864305
10966		6.179381	14.555328	-25.740767
10967		6.121415	14.552372	-25.615736
10968		6.066448	14.546890	-25.490843
10969		6.015382	14.537932	-25.360368
10970		5.966154	14.522513	-25.224860
10971		5.918265	14.499573	-25.083784
10972		5.865333	14.471624	-24.938699
10973		5.812347	14.444348	-24.793183
10974		5.766853	14.421131	-24.640776
10975		5.721630	14.396992	-24.486632
10976		5.673253	14.368758	-24.333811
10977		5.624394	14.339250	-24.182774
10978		5.577088	14.306649	-24.033536
10979		5.528091	14.273215	-23.880788
10980		5.473474	14.241208	-23.730877
10981		5.412081	14.209924	-23.574140
10982		5.342589	14.176879	-23.418590
10983		5.266484	14.139268	-23.264198
10984		5.195536	14.101839	-23.113604
10985		5.130023	14.062192	-22.961037
10986		5.069950	14.022302	-22.805664
10987		5.020234	13.979426	-22.646920
10988		4.973566	13.938692	-22.487540
10989		4.929505	13.889215	-22.328059
10990		4.889802	13.837908	-22.168864
10991		4.851390	13.785314	-22.010868
10992		4.814117	13.733440	-21.854369
10993		4.776261	13.677989	-21.701079
10994		4.744131	13.622501	-21.550799
10995		4.713720	13.568377	-21.400201
10996		4.684542	13.510462	-21.248797
10997		4.656439	13.449644	-21.094159
10998		4.633519	13.380699	-20.937998
10999		4.613438	13.304409	-20.784587
11000		4.598711	13.226806	-20.635152
11001		4.587170	13.147804	-20.486248
11002		4.579869	13.060110	-20.342551
11003		4.584458	12.959346	-20.203274
11004		4.593616	12.851163	-20.070587
11005		4.610620	12.741217	-19.939283
11006		4.625748	12.632845	-19.812902
11007		4.642163	12.518981	-19.683999
11008		4.651625	12.399614	-19.555401
11009		4.656359	12.276894	-19.426238
11010		4.655518	12.154905	-19.301760
11011		4.653118	12.031268	-19.181224
11012		4.657093	11.904289	-19.062017
11013		4.662277	11.772414	-18.943048
11014		4.670345	11.632116	-18.823325
11015		4.677069	11.486968	-18.704078
11016		4.684926	11.349623	-18.587113
11017		4.693485	11.212064	-18.475737
11018		4.693255	11.077909	-18.366244
11019		4.690882	10.946248	-18.260738
11020		4.694112	10.819608	-18.157224
11021		4.700580	10.695104	-18.053891
11022		4.713692	10.570533	-17.952008
11023		4.723918	10.440963	-17.850571
11024		4.733319	10.310402	-17.752326
11025		4.745927	10.178276	-17.655879
11026		4.761809	10.046423	-17.561536
11027		4.780672	9.918780	-17.464282
11028		4.806713	9.789440	-17.369273
11029		4.836330	9.666684	-17.277047
11030		4.860859	9.549486	-17.191849
11031		4.881965	9.436414	-17.103760
11032		4.891798	9.323525	-17.016500
11033		4.890304	9.205681	-16.928500
11034		4.886810	9.086130	-16.842421
11035		4.882935	8.971866	-16.754135
11036		4.876335	8.858421	-16.662334
11037		4.871159	8.745543	-16.569567
11038		4.866730	8.638290	-16.475474
11039		4.867915	8.525755	-16.382033
11040		4.870638	8.413710	-16.296702
11041		4.873677	8.304553	-16.213291
11042		4.880807	8.196861	-16.130216
11043		4.894281	8.088425	-16.047005
11044		4.912814	7.974754	-15.958842
11045		4.937125	7.854531	-15.865226
11046		4.960497	7.733768	-15.771913
11047		4.974142	7.609846	-15.679922
11048		4.972933	7.488435	-15.591732
11049		4.956471	7.371304	-15.507373
11050		4.928189	7.258419	-15.428879
11051		4.899625	7.146803	-15.356641
11052		4.869374	7.033222	-15.289419
11053		4.838590	6.919479	-15.222927
11054		4.812583	6.808310	-15.163568
11055		4.792011	6.701784	-15.104984
11056		4.770700	6.594794	-15.051449
11057		4.754428	6.487325	-15.003588
11058		4.744475	6.386418	-14.962060
11059		4.740686	6.284977	-14.921256
11060		4.737679	6.187935	-14.883900
11061		4.735299	6.092283	-14.848806
11062		4.733829	5.998331	-14.816466
11063		4.736657	5.901622	-14.782809
11064		4.734060	5.805356	-14.745605
11065		4.731472	5.708564	-14.710198
11066		4.728030	5.617233	-14.677355
11067		4.723935	5.528165	-14.643177
11068		4.719646	5.440854	-14.610121
11069		4.717275	5.351953	-14.575466
11070		4.720591	5.263874	-14.543312
11071		4.727948	5.178457	-14.512729
11072		4.733664	5.095979	-14.483322
11073		4.738422	5.013685	-14.453684
11074		4.741107	4.936862	-14.425984
11075		4.738400	4.863891	-14.399047
11076		4.735110	4.796088	-14.377336
11077		4.737513	4.730180	-14.360708
11078		4.746615	4.660082	-14.347462
11079		4.755400	4.589641	-14.334998
11080		4.764673	4.518723	-14.322080
11081		4.773354	4.447848	-14.308887
11082		4.775887	4.381957	-14.296052
11083		4.781168	4.319416	-14.284149
11084		4.786848	4.264119	-14.272719
11085		4.788741	4.211271	-14.257245
11086		4.783549	4.157406	-14.243250
11087		4.771982	4.100117	-14.232171
11088		4.753725	4.045322	-14.222039
11089		4.737034	3.994576	-14.211520
11090		4.723111	3.954726	-14.202988
11091		4.711466	3.917535	-14.196139
11092		4.702912	3.886275	-14.186081
11093		4.700175	3.852910	-14.177211
11094		4.698201	3.823527	-14.169148
11095		4.690977	3.791356	-14.158548
11096		4.679986	3.764966	-14.150593
11097		4.666868	3.743624	-14.146543
11098		4.655626	3.731572	-14.148392
11099		4.645982	3.728146	-14.149032
11100		4.638841	3.727966	-14.149707
11101		4.635204	3.727280	-14.147523
11102		4.628238	3.720185	-14.146879
11103		4.619451	3.715924	-14.145745
11104		4.615532	3.713565	-14.146458
11105		4.618185	3.713924	-14.147443
11106		4.620500	3.712213	-14.147803
11107		4.613627	3.703692	-14.147585
11108		4.608417	3.695367	-14.146950
11109		4.607590	3.688218	-14.148749
11110		4.614321	3.678891	-14.149161
11111		4.619831	3.664644	-14.145315
11112		4.613650	3.644758	-14.140879
11113		4.607347	3.626076	-14.138987
11114		4.602639	3.613796	-14.134977
11115		4.594798	3.602207	-14.131542
11116		4.588143	3.586992	-14.123986
11117		4.585702	3.571259	-14.118595
11118		4.580402	3.549482	-14.111936
11119		4.577776	3.530147	-14.107552
11120		4.575706	3.513387	-14.101137
11121		4.573614	3.495661	-14.095746
11122		4.574522	3.480679	-14.093528
11123		4.574415	3.469542	-14.095325
11124		4.571233	3.462077	-14.094242
11125		4.565839	3.453418	-14.096839
11126		4.563497	3.450450	-14.103930
11127		4.567543	3.450517	-14.112961
11128		4.566565	3.455907	-14.122016
11129		4.569712	3.463755	-14.134104
11130		4.574746	3.472950	-14.147111
11131		4.579801	3.483932	-14.162170
11132		4.585514	3.498000	-14.177811
11133		4.592935	3.517658	-14.192670
11134		4.602804	3.539341	-14.207172
11135		4.616276	3.565208	-14.223415
11136		4.628006	3.590909	-14.241400
11137		4.641468	3.619807	-14.261083
11138		4.654976	3.651280	-14.284875
11139		4.670853	3.687961	-14.309954
11140		4.687959	3.733705	-14.333773
11141		4.710531	3.777010	-14.358820
11142		4.731690	3.819645	-14.386470
11143		4.750047	3.864737	-14.412459
11144		4.764665	3.908947	-14.438954
11145		4.778882	3.956723	-14.467429
11146		4.793368	4.009012	-14.498719
11147		4.805556	4.064102	-14.529717
11148		4.815069	4.120846	-14.562478
11149		4.828767	4.182476	-14.598727
11150		4.849864	4.250122	-14.636911
11151		4.871563	4.322677	-14.674513
11152		4.894484	4.392797	-14.713406
11153		4.919021	4.462580	-14.753948
11154		4.945779	4.532922	-14.795839
11155		4.972598	4.608457	-14.839820
11156		4.998948	4.680620	-14.889984
11157		5.020730	4.756710	-14.941956
11158		5.035440	4.832066	-14.992941
11159		5.048894	4.912724	-15.043201
11160		5.064729	5.000901	-15.092710
11161		5.087996	5.090102	-15.141090
11162		5.116563	5.177269	-15.187754
11163		5.150665	5.271188	-15.236128
11164		5.190639	5.380909	-15.285541
11165		5.227193	5.503015	-15.336012
11166		5.260677	5.628253	-15.385470
11167		5.289640	5.747446	-15.430012
11168		5.316698	5.853776	-15.477398
11169		5.342589	5.954731	-15.525645
11170		5.371868	6.056533	-15.576823
11171		5.403490	6.160922	-15.630001
11172		5.438838	6.265032	-15.682563
11173		5.477908	6.368494	-15.739612
11174		5.522233	6.478014	-15.797857
11175		5.564053	6.582461	-15.856734
11176		5.598383	6.677107	-15.916859
11177		5.625170	6.764761	-15.981517
11178		5.642280	6.848750	-16.053818
11179		5.657383	6.930874	-16.129532
11180		5.675735	7.013977	-16.212190
11181		5.702117	7.110381	-16.292628
11182		5.733922	7.210112	-16.370877
11183		5.766617	7.317902	-16.444389
11184		5.804634	7.431853	-16.520213
11185		5.840892	7.541692	-16.596845
11186		5.864205	7.647264	-16.678027
11187		5.882520	7.763650	-16.770794
11188		5.896044	7.904189	-16.873032
11189		5.911857	8.062992	-16.978600
11190		5.933921	8.224457	-17.081394
11191		5.963850	8.386684	-17.175394
11192		6.003770	8.542072	-17.268921
11193		6.054083	8.690835	-17.362390
11194		6.102003	8.824819	-17.456405
11195		6.141229	8.940047	-17.558177
11196		6.172882	9.053636	-17.674040
11197		6.200172	9.174206	-17.813083
11198		6.221895	9.312856	-17.968573
11199		6.254545	9.462109	-18.136710
11200		6.303895	9.621369	-18.313763
11201		6.362432	9.786159	-18.488451
11202		6.427762	9.955215	-18.656995
11203		6.504304	10.118746	-18.819631
11204		6.580460	10.269970	-18.980172
11205		6.655852	10.410871	-19.136357
11206		6.728780	10.546379	-19.299405
11207		6.802165	10.676327	-19.469798
11208		6.861153	10.805820	-19.646621
11209		6.906125	10.931672	-19.827833
11210		6.947374	11.066202	-20.011526
11211		6.992365	11.204437	-20.197293
11212		7.028595	11.334951	-20.382732
11213		7.054037	11.461829	-20.567722
11214		7.075175	11.586812	-20.754773
11215		7.089086	11.712336	-20.945829
11216		7.103652	11.829913	-21.138938
11217		7.117659	11.941094	-21.335372
11218		7.135404	12.044824	-21.534257
11219		7.147459	12.142903	-21.739047
11220		7.151063	12.244019	-21.943509
11221		7.165084	12.347613	-22.141716
11222		7.175802	12.455294	-22.347159
11223		7.190615	12.567895	-22.552854
11224		7.206472	12.679972	-22.753362
11225		7.222977	12.790942	-22.948275
11226		7.243621	12.902796	-23.143633
11227		7.265650	13.022772	-23.341689
11228		7.291548	13.147363	-23.537796
11229		7.325188	13.273325	-23.742398
11230		7.366762	13.406630	-23.953006
11231		7.413330	13.534271	-24.166390
11232		7.456923	13.662337	-24.373013
11233		7.469575	13.780943	-24.574242
11234		7.485896	13.888331	-24.771317
11235		7.513585	13.988942	-24.952978
11236		7.532796	14.075043	-25.122655
11237		7.543925	14.145087	-25.280977
11238		7.541578	14.204317	-25.431681
11239		7.523689	14.252782	-25.576174
11240		7.505446	14.295174	-25.715501
11241		7.482714	14.336758	-25.846191
11242		7.457940	14.379657	-25.968909
11243		7.428361	14.420787	-26.086769
11244		7.405061	14.461935	-26.195867
11245		7.377773	14.500076	-26.300022
11246		7.344714	14.527745	-26.397292
11247		7.310664	14.547780	-26.493520
11248		7.278039	14.557698	-26.584426
11249		7.247275	14.564073	-26.675000
11250		7.219985	14.569674	-26.763833
11251		7.196955	14.574378	-26.855562
11252		7.172864	14.583041	-26.944899
11253		7.153029	14.595620	-27.030170
11254		7.133984	14.615172	-27.110004
11255		7.119577	14.631821	-27.185141
11256		7.105593	14.647957	-27.256212
11257		7.097278	14.664066	-27.323733
11258		7.093897	14.679796	-27.388721
11259		7.093325	14.693817	-27.450183
11260		7.095437	14.703885	-27.505290
11261		7.104145	14.714510	-27.561069
11262		7.116143	14.715707	-27.616220
11263		7.128250	14.716171	-27.666402
11264		7.136919	14.713514	-27.709971
11265		7.144813	14.710399	-27.749408
11266		7.152901	14.704803	-27.781303
11267		7.163620	14.698764	-27.809971
11268		7.175611	14.695493	-27.832407
11269		7.191054	14.692899	-27.850381
11270		7.201488	14.692491	-27.864167
11271		7.211032	14.691250	-27.873189
11272		7.211389	14.688184	-27.876965
11273		7.210232	14.684303	-27.877352
11274		7.206609	14.677580	-27.875437
11275		7.200179	14.670684	-27.871409
11276		7.189121	14.664054	-27.868640
11277		7.178498	14.660389	-27.866989
11278		7.167207	14.656159	-27.861800
11279		7.155687	14.651814	-27.856486
11280		7.145653	14.649592	-27.850647
11281		7.138125	14.645671	-27.845155
11282		7.132217	14.640242	-27.843071
11283		7.127217	14.635444	-27.842816
11284		7.119916	14.631376	-27.841454
11285		7.107105	14.630765	-27.837498
11286		7.085858	14.631068	-27.832136
11287		7.061500	14.636384	-27.824413
11288		7.039696	14.642871	-27.819773
11289		7.033008	14.648577	-27.818090
11290		7.032488	14.651296	-27.817673
11291		7.037650	14.652971	-27.817498
11292		7.051084	14.652947	-27.824493
11293		7.067025	14.648307	-27.832791
11294		7.083700	14.639747	-27.843828
11295		7.095610	14.632058	-27.854934
11296		7.103379	14.624530	-27.866926
11297		7.106713	14.617749	-27.879670
11298		7.104056	14.614424	-27.889013
11299		7.094550	14.613857	-27.892778
11300		7.083582	14.614293	-27.893970
11301		7.071229	14.615605	-27.894139
11302		7.058439	14.612604	-27.894581
11303		7.053209	14.608822	-27.899150
11304		7.047818	14.603772	-27.905359
11305		7.044593	14.594810	-27.915668
11306		7.039657	14.586350	-27.929410
11307		7.039242	14.578662	-27.944696
11308		7.036861	14.570000	-27.961148
11309		7.032012	14.566024	-27.976450
11310		7.035174	14.561083	-27.991025
11311		7.036640	14.556344	-27.999823
11312		7.035555	14.549785	-28.007814
11313		7.029873	14.544607	-28.015454
11314		7.022087	14.538980	-28.021847
11315		7.013982	14.534434	-28.025437
11316		7.005062	14.531863	-28.025184
11317		6.997684	14.527967	-28.026065
11318		6.988656	14.525286	-28.027831
11319		6.980228	14.518314	-28.026489
11320		6.981518	14.511155	-28.026825
11321		6.988253	14.502576	-28.026890
11322		6.993601	14.494948	-28.026888
11323		6.995419	14.488154	-28.022860
11324		6.991932	14.481582	-28.020006
11325		6.990207	14.472863	-28.013710
11326		6.993166	14.467325	-28.008872
11327		6.995675	14.461438	-28.004138
11328		6.993729	14.455963	-27.996997
11329		6.989796	14.453181	-27.987781
11330		6.983704	14.449695	-27.979906
11331		6.979493	14.447658	-27.970325
11332		6.978952	14.446181	-27.966730
11333		6.982171	14.443836	-27.958669
11334		6.985413	14.446145	-27.955236
11335		6.991122	14.446335	-27.955782
11336		6.997820	14.446430	-27.957567
11337		7.008727	14.444091	-27.962570
11338		7.017900	14.442912	-27.964523
11339		7.023485	14.443343	-27.963887
11340		7.026622	14.442557	-27.963034
11341		7.023651	14.443632	-27.962039
11342		7.022239	14.443655	-27.960056
11343		7.021474	14.447212	-27.958120
11344		7.018597	14.451125	-27.953587
11345		7.014008	14.453501	-27.949024
11346		7.005574	14.456226	-27.944191
11347		6.998377	14.457108	-27.939025
11348		6.992702	14.459904	-27.936042
11349		6.991180	14.459384	-27.930258
11350		6.989027	14.460942	-27.927638
11351		6.984291	14.460932	-27.924517
11352		6.981241	14.459250	-27.922142
11353		6.980642	14.456524	-27.920636
11354		6.981875	14.454616	-27.920354
11355		6.987861	14.454064	-27.921260
11356		6.991779	14.447393	-27.922840
11357		6.989122	14.441686	-27.921462
11358		6.986217	14.435418	-27.918649
11359		6.982231	14.432901	-27.911448
11360		6.973748	14.433401	-27.899546
11361		6.957391	14.438522	-27.883514
11362		6.935897	14.445419	-27.867363
11363		6.907169	14.456363	-27.854309
11364		6.869217	14.472115	-27.838844
11365		6.826032	14.487765	-27.817133
11366		6.770847	14.495698	-27.790479
11367		6.712482	14.498341	-27.768550
11368		6.653312	14.491102	-27.745174
11369		6.592112	14.477835	-27.719391
11370		6.529306	14.458619	-27.693188
11371		6.463678	14.431293	-27.667131
11372		6.396939	14.404444	-27.637911
11373		6.331373	14.379614	-27.610416
11374		6.270403	14.356692	-27.583978
11375		6.217140	14.331906	-27.552247
11376		6.178952	14.305594	-27.521773
11377		6.154759	14.278248	-27.491506
11378		6.141893	14.248130	-27.461211
11379		6.135690	14.214254	-27.433278
11380		6.131690	14.181726	-27.402125
11381		6.123654	14.146563	-27.370090
11382		6.108478	14.115509	-27.332708
11383		6.086954	14.084876	-27.290896
11384		6.063790	14.060719	-27.242730
11385		6.038472	14.042768	-27.192483
11386		6.018189	14.027183	-27.141986
11387		6.002255	14.014996	-27.091350
11388		5.994964	14.005430	-27.042352
11389		5.991496	13.998952	-26.989486
11390		5.995503	13.994147	-26.934013
11391		5.999081	13.987310	-26.873169
11392		6.001343	13.985558	-26.806862
11393		5.999209	13.987227	-26.730945
11394		5.987590	13.996209	-26.644937
11395		5.969595	14.008097	-26.549296
11396		5.946503	14.017865	-26.446693
11397		5.917812	14.026065	-26.340189
11398		5.884172	14.032583	-26.235155
11399		5.848433	14.043076	-26.129367
11400		5.806690	14.057668	-26.019021
11401		5.758599	14.072754	-25.905623
11402		5.705441	14.091211	-25.794304
11403		5.654211	14.111985	-25.677714
11404		5.606886	14.133123	-25.560243
11405		5.564104	14.147510	-25.445283
11406		5.532712	14.154138	-25.332947
11407		5.503206	14.150667	-25.219449
11408		5.478300	14.143034	-25.108193
11409		5.459281	14.133032	-24.996747
11410		5.439719	14.123378	-24.881616
11411		5.417249	14.115676	-24.760465
11412		5.384248	14.108317	-24.633058
11413		5.342881	14.098464	-24.497434
11414		5.299937	14.086904	-24.359196
11415		5.249541	14.067819	-24.215737
11416		5.203657	14.044090	-24.074986
11417		5.165003	14.020546	-23.934186
11418		5.131251	13.996205	-23.793715
11419		5.104183	13.964771	-23.652232
11420		5.074800	13.933275	-23.509694
11421		5.045082	13.902408	-23.366727
11422		5.017706	13.870148	-23.226266
11423		4.981692	13.833429	-23.073880
11424		4.936918	13.787714	-22.913574
11425		4.891983	13.736391	-22.751171
11426		4.850214	13.683670	-22.589076
11427		4.815295	13.628480	-22.426247
11428		4.791469	13.567850	-22.259749
11429		4.770752	13.505200	-22.097265
11430		4.743297	13.446589	-21.935450
11431		4.715511	13.387614	-21.770001
11432		4.679359	13.323697	-21.605670
11433		4.650467	13.252979	-21.442036
11434		4.623971	13.173174	-21.280203
11435		4.606842	13.081580	-21.117675
11436		4.602333	12.980450	-20.955029
11437		4.606648	12.869787	-20.795031
11438		4.609813	12.754725	-20.638188
11439		4.611953	12.638518	-20.482032
11440		4.617309	12.520670	-20.329194
11441		4.624222	12.406862	-20.175700
11442		4.627946	12.295966	-20.026010
11443		4.623599	12.186547	-19.874455
11444		4.611893	12.075393	-19.723043
11445		4.595593	11.957746	-19.572300
11446		4.579695	11.840902	-19.426599
11447		4.566060	11.719891	-19.282254
11448		4.549620	11.597202	-19.144163
11449		4.541011	11.477157	-19.010380
11450		4.536306	11.355088	-18.875861
11451		4.532549	11.231950	-18.739432
11452		4.532480	11.109125	-18.606105
11453		4.537574	10.983825	-18.478822
11454		4.545460	10.858969	-18.358369
11455		4.555545	10.735226	-18.241324
11456		4.566682	10.617800	-18.124250
11457		4.578147	10.500199	-18.012811
11458		4.590122	10.376031	-17.905301
11459		4.605332	10.243761	-17.801050
11460		4.627559	10.106729	-17.698953
11461		4.641770	9.960221	-17.597843
11462		4.655173	9.811181	-17.497535
11463		4.676754	9.664587	-17.404897
11464		4.705920	9.520420	-17.314281
11465		4.734426	9.371326	-17.221303
11466		4.763369	9.216487	-17.133745
11467		4.792592	9.056603	-17.048837
11468		4.818545	8.903793	-16.962306
11469		4.841764	8.749279	-16.878265
11470		4.862085	8.594340	-16.798872
11471		4.883291	8.433797	-16.717876
11472		4.901344	8.276444	-16.638567
11473		4.907026	8.120595	-16.561284
11474		4.905091	7.967930	-16.488577
11475		4.899206	7.820376	-16.419067
11476		4.891517	7.677386	-16.348553
11477		4.876476	7.531124	-16.277662
11478		4.855092	7.388115	-16.205494
11479		4.829864	7.252461	-16.126138
11480		4.805712	7.124725	-16.044487
11481		4.780530	7.007106	-15.961158
11482		4.756620	6.898074	-15.882042
11483		4.744323	6.788336	-15.804347
11484		4.739947	6.680190	-15.729624
11485		4.741300	6.568738	-15.655571
11486		4.744633	6.458106	-15.584855
11487		4.742416	6.351339	-15.516339
11488		4.739317	6.245075	-15.451390
11489		4.737054	6.146179	-15.388796
11490		4.738964	6.050877	-15.324928
11491		4.741843	5.952716	-15.259595
11492		4.744604	5.858665	-15.195236
11493		4.741798	5.767527	-15.136704
11494		4.739522	5.684244	-15.080010
11495		4.729870	5.605708	-15.027473
11496		4.721375	5.529918	-14.981691
11497		4.721052	5.455085	-14.942250
11498		4.724802	5.377128	-14.906586
11499		4.732105	5.294833	-14.874606
11500		4.745209	5.214215	-14.840632
11501		4.762553	5.130637	-14.807922
11502		4.777568	5.045751	-14.776691
11503		4.792119	4.961247	-14.745253
11504		4.803314	4.876237	-14.715235
11505		4.810700	4.801384	-14.683260
11506		4.816464	4.728949	-14.650959
11507		4.820047	4.657512	-14.619048
11508		4.820549	4.590374	-14.587059
11509		4.821602	4.522557	-14.556834
11510		4.820391	4.458010	-14.527977
11511		4.820174	4.396630	-14.503725
11512		4.815145	4.339829	-14.474739
11513		4.807855	4.282412	-14.443781
11514		4.796381	4.226949	-14.411867
11515		4.788863	4.173484	-14.378716
11516		4.788440	4.122465	-14.349909
11517		4.786183	4.077028	-14.321247
11518		4.784139	4.026189	-14.294813
11519		4.776020	3.974621	-14.272099
11520		4.769102	3.927154	-14.249362
11521		4.763689	3.882751	-14.227083
11522		4.755993	3.842280	-14.205630
11523		4.747156	3.800983	-14.184486
11524		4.742506	3.762450	-14.165291
11525		4.739390	3.727148	-14.148651
11526		4.737131	3.694152	-14.130952
11527		4.737585	3.657601	-14.116219
11528		4.735420	3.622419	-14.103240
11529		4.730706	3.589785	-14.091676
11530		4.720246	3.561138	-14.084646
11531		4.715429	3.537572	-14.081396
11532		4.717485	3.519816	-14.077666
11533		4.727117	3.501513	-14.071022
11534		4.739020	3.485721	-14.066892
11535		4.741140	3.467484	-14.063073
11536		4.734937	3.452290	-14.062979
11537		4.721105	3.446424	-14.066337
11538		4.698806	3.452300	-14.077686
11539		4.673980	3.465643	-14.094517
11540		4.654969	3.489329	-14.112981
11541		4.644722	3.511455	-14.130600
11542		4.649078	3.531805	-14.144695
11543		4.663045	3.557232	-14.155588
11544		4.677556	3.592568	-14.159634
11545		4.693356	3.640231	-14.159502
11546		4.708334	3.693304	-14.158890
11547		4.722694	3.752163	-14.156870
11548		4.735903	3.808872	-14.156544
11549		4.748773	3.866100	-14.155804
11550		4.767194	3.925000	-14.155071
11551		4.772850	3.979912	-14.151212
11552		4.768290	4.029464	-14.144904
11553		4.761435	4.072216	-14.142792
11554		4.760237	4.108946	-14.141402
11555		4.763273	4.143116	-14.140687
11556		4.769098	4.170548	-14.139945
11557		4.777779	4.194795	-14.143462
11558		4.785635	4.218988	-14.148380
11559		4.790486	4.240354	-14.155522
11560		4.789038	4.254186	-14.160535
11561		4.785192	4.258332	-14.163088
11562		4.778949	4.256790	-14.165441
11563		4.777812	4.254854	-14.165602
11564		4.780332	4.252015	-14.163054
11565		4.779656	4.251218	-14.161418
11566		4.774971	4.249744	-14.159303
11567		4.775187	4.251155	-14.159292
11568		4.779245	4.257169	-14.161179
11569		4.787667	4.264117	-14.162172
11570		4.796496	4.272605	-14.162667
11571		4.802260	4.283478	-14.164161
11572		4.799135	4.298497	-14.163877
11573		4.796170	4.315015	-14.167454
11574		4.790582	4.341533	-14.175469
11575		4.785450	4.371445	-14.186463
11576		4.779918	4.411635	-14.202132
11577		4.778729	4.459004	-14.219802
11578		4.784860	4.513226	-14.240328
11579		4.791330	4.567644	-14.263441
11580		4.799045	4.624222	-14.291884
11581		4.807493	4.686267	-14.328780
11582		4.818639	4.762340	-14.371006
11583		4.827128	4.847949	-14.417249
11584		4.829039	4.940751	-14.469902
11585		4.827032	5.033896	-14.529036
11586		4.821432	5.133389	-14.595314
11587		4.814698	5.242020	-14.669651
11588		4.807483	5.359807	-14.746826
11589		4.797334	5.494549	-14.834158
11590		4.789265	5.649061	-14.924430
11591		4.782121	5.826036	-15.024329
11592		4.781888	6.017185	-15.124347
11593		4.795809	6.223536	-15.229050
11594		4.830398	6.440610	-15.340901
11595		4.881612	6.666196	-15.457925
11596		4.950816	6.897284	-15.581136
11597		5.018571	7.134618	-15.705546
11598		5.082216	7.380510	-15.836812
11599		5.148581	7.632888	-15.970471
11600		5.207209	7.899275	-16.105781
11601		5.264393	8.165344	-16.244370
11602		5.318575	8.428868	-16.386064
11603		5.376013	8.692076	-16.528199
11604		5.442387	8.947480	-16.666674
11605		5.507513	9.195383	-16.808040
11606		5.571223	9.442307	-16.949193
11607		5.644496	9.681911	-17.088753
11608		5.716088	9.906532	-17.229878
11609		5.771784	10.116447	-17.372624
11610		5.818907	10.313522	-17.514841
11611		5.872428	10.505711	-17.657967
11612		5.929275	10.687689	-17.795810
11613		5.986827	10.849718	-17.929057
11614		6.047923	10.996413	-18.059643
11615		6.116333	11.137773	-18.188096
11616		6.196014	11.282004	-18.318094
11617		6.275620	11.415580	-18.444668
11618		6.341000	11.533170	-18.572230
11619		6.404893	11.633993	-18.709819
11620		6.471041	11.731570	-18.848146
11621		6.540971	11.823532	-18.988183
11622		6.606271	11.910337	-19.132247
11623		6.671966	12.001934	-19.275968
11624		6.735872	12.097225	-19.426739
11625		6.795259	12.193641	-19.578041
11626		6.849497	12.283876	-19.728301
11627		6.898418	12.364994	-19.873886
11628		6.941169	12.434857	-20.019564
11629		6.979651	12.502035	-20.161783
11630		7.006275	12.569994	-20.304623
11631		7.027629	12.637004	-20.444695
11632		7.051580	12.704205	-20.585616
11633		7.078314	12.765265	-20.726706
11634		7.106926	12.821054	-20.871503
11635		7.135232	12.868755	-21.015937
11636		7.160557	12.921652	-21.166256
11637		7.192333	12.981995	-21.314023
11638		7.224725	13.037992	-21.462915
11639		7.245173	13.092570	-21.609075
11640		7.264310	13.144954	-21.759628
11641		7.283539	13.200432	-21.912131
11642		7.305855	13.255702	-22.065830
11643		7.331608	13.304926	-22.218214
11644		7.359856	13.348133	-22.376601
11645		7.389482	13.388962	-22.538375
11646		7.415385	13.422396	-22.710008
11647		7.437937	13.450964	-22.884544
11648		7.454129	13.488879	-23.050034
11649		7.470902	13.534144	-23.207965
11650		7.480266	13.584739	-23.360185
11651		7.479228	13.636202	-23.505803
11652		7.464250	13.684206	-23.646963
11653		7.439333	13.740129	-23.789366
11654		7.410498	13.786248	-23.923378
11655		7.389387	13.819656	-24.069698
11656		7.378265	13.858101	-24.220756
11657		7.371162	13.889518	-24.370808
11658		7.371394	13.910062	-24.523355
11659		7.375470	13.928445	-24.673896
11660		7.381609	13.943174	-24.817551
11661		7.386322	13.956542	-24.957145
11662		7.389069	13.970066	-25.093800
11663		7.384277	13.984041	-25.221889
11664		7.374375	13.997596	-25.342255
11665		7.356243	14.004960	-25.458812
11666		7.330394	14.011209	-25.576044
11667		7.300843	14.016903	-25.687165
11668		7.264669	14.019580	-25.797634
11669		7.226124	14.028346	-25.900835
11670		7.186819	14.034052	-26.001045
11671		7.153024	14.041822	-26.093856
11672		7.125419	14.046864	-26.184131
11673		7.090740	14.034699	-26.273007
11674		7.056283	14.023187	-26.361389
11675		7.038020	14.022335	-26.441093
11676		7.028110	14.024289	-26.512959
11677		7.015765	14.018985	-26.579736
11678		7.002177	14.014209	-26.649631
11679		6.988428	14.012902	-26.716562
11680		6.975023	14.016116	-26.784928
11681		6.965396	14.020154	-26.847538
11682		6.961138	14.027981	-26.907578
11683		6.961767	14.034914	-26.966735
11684		6.970889	14.043959	-27.023443
11685		6.981780	14.045139	-27.081113
11686		6.991858	14.047063	-27.136689
11687		7.009386	14.046672	-27.191368
11688		7.027701	14.046367	-27.246261
11689		7.043774	14.046563	-27.297795
11690		7.061615	14.047489	-27.347376
11691		7.077649	14.050621	-27.398271
