// General information: 
//  MT Manager version: 2022.2.0 
//  XDA version: 2022.2.0 build 7381 rev 124627 built on 2023-07-19
// Device information: 
//  DeviceId: 00B447F1
//  ProductCode: MTW2-3A7G6
//  Firmware Version: 4.3.5
//  Hardware Version: 2.0.0
// Device settings: 
//  Filter Profile: human(46.1)
//  Option Flags: Orientation Smoother Disabled, Position/Velocity Smoother Disabled, Continuous Zero Rotation Update Disabled, AHS Disabled, ICC Disabled
// Coordinate system: ENU
PacketCounter	SampleTimeFine	Roll	Pitch	Yaw
08434		15.509003	72.046074	-6.034967
08435		15.510932	72.057342	-6.050754
08436		15.511356	72.065316	-6.062528
08437		15.500611	72.073440	-6.080911
08438		15.488748	72.083076	-6.097414
08439		15.478852	72.092339	-6.111119
08440		15.460509	72.096228	-6.138840
08441		15.431499	72.092302	-6.179589
08442		15.397829	72.079410	-6.228129
08443		15.355297	72.059744	-6.280390
08444		15.329173	72.040903	-6.317287
08445		15.304822	72.021844	-6.351498
08446		15.290782	71.998059	-6.375391
08447		15.292232	71.981932	-6.390702
08448		15.298565	71.972553	-6.406334
08449		15.308619	71.967300	-6.417913
08450		15.308440	71.958809	-6.438237
08451		15.306201	71.946560	-6.452067
08452		15.298310	71.933577	-6.465650
08453		15.299151	71.924502	-6.466923
08454		15.298072	71.919795	-6.464491
08455		15.297473	71.920037	-6.464481
08456		15.292728	71.917695	-6.467123
08457		15.278797	71.913332	-6.481331
08458		15.269551	71.909710	-6.493484
08459		15.256509	71.908661	-6.510754
08460		15.243874	71.903520	-6.527776
08461		15.223859	71.893099	-6.559893
08462		15.205985	71.876837	-6.589049
08463		15.181840	71.854166	-6.621086
08464		15.154318	71.818736	-6.654160
08465		15.139883	71.770672	-6.674999
08466		15.131915	71.709249	-6.687555
08467		15.141112	71.643728	-6.686312
08468		15.155720	71.572364	-6.683886
08469		15.182045	71.504656	-6.677234
08470		15.202533	71.436968	-6.684318
08471		15.223666	71.370523	-6.692437
08472		15.227251	71.305941	-6.711505
08473		15.210932	71.247105	-6.742644
08474		15.160539	71.194448	-6.797443
08475		15.082574	71.154009	-6.866344
08476		14.978444	71.124715	-6.952158
08477		14.876848	71.108707	-7.028514
08478		14.772010	71.098624	-7.104964
08479		14.667363	71.092511	-7.176684
08480		14.560207	71.084571	-7.248299
08481		14.448788	71.069717	-7.319348
08482		14.343049	71.045402	-7.387482
08483		14.231524	71.010808	-7.461669
08484		14.135076	70.969818	-7.528474
08485		14.063343	70.930985	-7.571927
08486		14.017541	70.891076	-7.592398
08487		14.006299	70.851070	-7.587218
08488		14.023589	70.813656	-7.568051
08489		14.052985	70.781853	-7.549060
08490		14.084856	70.751278	-7.537210
08491		14.120705	70.724157	-7.529517
08492		14.141517	70.695649	-7.536347
08493		14.185265	70.663301	-7.526559
08494		14.227585	70.625022	-7.523083
08495		14.277518	70.589152	-7.514400
08496		14.333186	70.553744	-7.500450
08497		14.392150	70.524788	-7.479369
08498		14.442255	70.492480	-7.466486
08499		14.475370	70.458580	-7.463820
08500		14.498590	70.424441	-7.461853
08501		14.502205	70.387205	-7.469309
08502		14.505612	70.340318	-7.471505
08503		14.512581	70.283685	-7.467305
08504		14.527229	70.215891	-7.451398
08505		14.548945	70.144662	-7.422266
08506		14.572241	70.072988	-7.384534
08507		14.593012	70.002245	-7.343004
08508		14.626290	69.933236	-7.294737
08509		14.647680	69.864361	-7.262337
08510		14.665647	69.791511	-7.238175
08511		14.664562	69.717706	-7.235217
08512		14.649344	69.637742	-7.237772
08513		14.630665	69.545601	-7.235038
08514		14.615153	69.434008	-7.219713
08515		14.625739	69.309531	-7.175590
08516		14.652483	69.176781	-7.109496
08517		14.693462	69.048826	-7.018200
08518		14.741018	68.931905	-6.918528
08519		14.791039	68.828730	-6.810275
08520		14.833582	68.730533	-6.703888
08521		14.874441	68.626526	-6.585761
08522		14.930798	68.509006	-6.445319
08523		15.018657	68.371696	-6.263275
08524		15.130576	68.218291	-6.039600
08525		15.241517	68.056596	-5.796000
08526		15.348365	67.890252	-5.538830
08527		15.464896	67.721216	-5.256780
08528		15.590654	67.545692	-4.955415
08529		15.737482	67.363599	-4.626049
08530		15.902776	67.170480	-4.271959
08531		16.080820	66.969466	-3.895632
08532		16.257526	66.757112	-3.510608
08533		16.434277	66.528874	-3.128750
08534		16.607249	66.286409	-2.758153
08535		16.781243	66.029448	-2.377820
08536		16.947461	65.756447	-1.989795
08537		17.090693	65.464864	-1.610451
08538		17.213835	65.153640	-1.240599
08539		17.323310	64.819718	-0.881191
08540		17.430341	64.461851	-0.528863
08541		17.525954	64.090114	-0.197876
08542		17.630923	63.702073	0.129202
08543		17.732552	63.297256	0.442975
08544		17.839867	62.880561	0.747847
08545		17.947716	62.453532	1.038084
08546		18.057066	62.008377	1.317324
08547		18.185382	61.564864	1.610345
08548		18.324759	61.129009	1.921320
08549		18.472024	60.696193	2.238802
08550		18.619516	60.237735	2.531508
08551		18.771614	59.764269	2.799019
08552		18.921068	59.291861	3.038394
08553		19.064372	58.827300	3.263072
08554		19.212102	58.377595	3.487650
08555		19.366012	57.936545	3.719069
08556		19.511729	57.505859	3.921818
08557		19.665581	57.057396	4.094705
08558		19.784214	56.598944	4.234642
08559		19.900639	56.145142	4.371103
08560		19.992684	55.718358	4.499173
08561		20.077712	55.288838	4.635871
08562		20.182385	54.854111	4.783596
08563		20.260149	54.438284	4.923149
08564		20.358833	53.986246	5.063660
08565		20.463016	53.555782	5.199539
08566		20.576425	53.090255	5.327756
08567		20.689994	52.653730	5.455160
08568		20.817105	52.185107	5.581416
08569		20.929339	51.752439	5.715651
08570		21.073001	51.275567	5.844712
08571		21.162764	50.837695	5.968526
08572		21.301038	50.360192	6.093446
08573		21.405833	49.865614	6.205947
08574		21.499165	49.374997	6.317442
08575		21.598862	48.871249	6.424387
08576		21.741831	48.317601	6.512797
08577		21.791918	47.806990	6.613180
08578		21.853682	47.278595	6.717877
08579		21.903390	46.739416	6.810507
08580		22.017589	46.121451	6.874332
08581		22.016909	45.551929	6.942759
08582		22.007332	44.965308	7.010231
08583		22.016348	44.353866	7.057318
08584		22.059862	43.677364	7.063229
08585		22.014174	43.064610	7.112485
08586		21.948321	42.441432	7.153127
08587		21.908130	41.809352	7.169892
08588		21.884187	41.151883	7.166838
08589		21.813893	40.545224	7.189275
08590		21.755939	39.937106	7.219442
08591		21.724045	39.325971	7.262025
08592		21.774532	38.676865	7.285930
08593		21.780340	38.059072	7.325300
08594		21.776973	37.462831	7.375860
08595		21.749542	36.888823	7.429374
08596		21.759536	36.313215	7.483242
08597		21.781061	35.746238	7.547477
08598		21.822280	35.189695	7.609352
08599		21.978994	34.590166	7.621478
08600		22.002096	34.090327	7.692510
08601		22.017852	33.610148	7.760984
08602		22.035682	33.146798	7.829617
08603		22.049843	32.705836	7.907114
08604		22.066091	32.282808	7.986383
08605		22.083989	31.875757	8.073333
08606		22.193942	31.436033	8.126828
08607		22.193191	31.066446	8.192861
08608		22.166104	30.723495	8.274807
08609		22.145990	30.402382	8.357687
08610		22.105972	30.103981	8.437130
08611		22.056574	29.818720	8.520657
08612		22.003792	29.554006	8.608337
08613		21.944865	29.310993	8.700835
08614		22.049113	29.010776	8.763068
08615		21.955509	28.793386	8.861118
08616		21.899509	28.587457	8.972848
08617		21.838933	28.398426	9.094667
08618		21.778940	28.219391	9.222947
08619		21.727027	28.044673	9.356226
08620		21.680886	27.882498	9.488389
08621		21.632927	27.724018	9.621082
08622		21.591867	27.566943	9.751474
08623		21.556965	27.414607	9.880796
08624		21.586664	27.243094	9.989001
08625		21.673982	27.032852	10.067094
08626		21.668843	26.868134	10.184013
08627		21.665009	26.709370	10.297907
08628		21.657965	26.548431	10.410305
08629		21.653658	26.389950	10.514347
08630		21.641833	26.236801	10.613203
08631		21.624652	26.092291	10.703300
08632		21.607290	25.953622	10.788726
08633		21.590347	25.821318	10.867246
08634		21.578615	25.696642	10.940141
08635		21.574579	25.580385	11.004243
08636		21.551624	25.480788	11.058892
08637		21.553581	25.374683	11.105243
08638		21.556665	25.271925	11.140678
08639		21.563969	25.177025	11.169092
08640		21.566972	25.089389	11.187712
08641		21.570037	25.007584	11.201517
08642		21.572585	24.930432	11.208257
08643		21.566441	24.860776	11.206952
08644		21.560261	24.802826	11.201006
08645		21.553621	24.756433	11.193705
08646		21.544276	24.722532	11.179945
08647		21.532036	24.698481	11.163498
08648		21.520830	24.682676	11.145590
08649		21.516728	24.672372	11.124699
08650		21.509343	24.665123	11.103931
08651		21.509376	24.667267	11.079324
08652		21.519541	24.670315	11.064140
08653		21.530766	24.681269	11.047471
08654		21.547575	24.696835	11.034797
08655		21.565735	24.716169	11.026020
08656		21.583605	24.738558	11.020312
08657		21.602785	24.763115	11.018180
08658		21.625085	24.785810	11.020404
08659		21.649950	24.807933	11.025315
08660		21.665068	24.827004	11.029151
08661		21.680608	24.847697	11.033501
08662		21.702220	24.866527	11.042536
08663		21.719478	24.886680	11.052689
08664		21.739602	24.907479	11.064133
08665		21.756985	24.927530	11.079534
08666		21.770210	24.949310	11.101375
08667		21.784325	24.966159	11.126954
08668		21.797054	24.972932	11.149968
08669		21.802346	24.970832	11.164750
08670		21.795870	24.962359	11.173468
08671		21.785663	24.951089	11.180126
08672		21.771317	24.937657	11.185532
08673		21.750475	24.926131	11.192157
08674		21.728981	24.913868	11.197503
08675		21.713443	24.900866	11.205141
08676		21.699868	24.888041	11.208411
08677		21.691465	24.880308	11.209603
08678		21.692808	24.871366	11.211036
08679		21.698979	24.865232	11.208930
08680		21.711479	24.861244	11.205475
08681		21.729935	24.859698	11.202332
08682		21.749764	24.864056	11.198310
08683		21.774848	24.873389	11.197424
08684		21.795765	24.889359	11.196161
08685		21.809642	24.910532	11.194820
08686		21.818792	24.938526	11.191183
08687		21.827526	24.970672	11.188225
08688		21.834410	25.004847	11.184926
08689		21.841346	25.041454	11.181294
08690		21.856021	25.082236	11.176479
08691		21.874863	25.134646	11.169687
08692		21.891706	25.197889	11.160838
08693		21.898701	25.278278	11.139368
08694		21.896584	25.374678	11.107087
08695		21.883361	25.490065	11.058632
08696		21.858073	25.630126	10.991336
08697		21.822272	25.803792	10.903442
08698		21.781332	26.014151	10.790151
08699		21.738248	26.260021	10.653541
08700		21.688162	26.531436	10.495718
08701		21.638613	26.815786	10.317368
08702		21.589676	27.104391	10.127094
08703		21.548031	27.399946	9.926701
08704		21.520388	27.705538	9.720665
08705		21.507404	28.018421	9.510618
08706		21.501290	28.346237	9.296746
08707		21.507872	28.688594	9.073199
08708		21.518124	29.046356	8.835613
08709		21.530634	29.415520	8.587845
08710		21.548110	29.801053	8.329797
08711		21.560731	30.202556	8.068338
08712		21.569981	30.619289	7.806513
08713		21.586385	31.044455	7.550140
08714		21.615283	31.484070	7.296411
08715		21.652107	31.931951	7.050490
08716		21.693644	32.392993	6.805441
08717		21.745187	32.866101	6.563746
08718		21.799796	33.343916	6.329590
08719		21.853329	33.818566	6.104142
08720		21.915210	34.289478	5.887351
08721		21.983123	34.760721	5.690171
08722		22.049329	35.231079	5.510046
08723		22.115692	35.699989	5.341958
08724		22.178697	36.175232	5.176157
08725		22.234808	36.658563	5.004902
08726		22.294946	37.153894	4.837115
08727		22.354066	37.650388	4.670770
08728		22.414877	38.161617	4.510201
08729		22.476351	38.682186	4.362736
08730		22.533132	39.208637	4.221142
08731		22.582774	39.739249	4.074698
08732		22.612999	40.271416	3.919153
08733		22.622631	40.805358	3.758862
08734		22.625269	41.348043	3.599536
08735		22.629138	41.897237	3.436874
08736		22.634139	42.454107	3.263611
08737		22.642279	43.016729	3.083868
08738		22.650992	43.598154	2.902008
08739		22.667698	44.192131	2.737065
08740		22.705066	44.796738	2.591384
08741		22.779176	45.411324	2.464753
08742		22.881210	46.033419	2.340921
08743		23.006831	46.658325	2.226481
08744		23.141851	47.288775	2.114154
08745		23.293104	47.929954	2.005518
08746		23.451591	48.574850	1.896779
08747		23.615798	49.220161	1.802822
08748		23.796817	49.860472	1.724788
08749		23.985707	50.495270	1.659217
08750		24.187031	51.132288	1.609946
08751		24.396196	51.770563	1.561999
08752		24.611706	52.403473	1.505679
08753		24.828852	53.040976	1.435017
08754		25.015198	53.680628	1.354773
08755		25.158254	54.318101	1.266437
08756		25.264399	54.944088	1.170670
08757		25.319248	55.561910	1.050710
08758		25.340115	56.175868	0.917810
08759		25.339351	56.774290	0.778488
08760		25.322702	57.358808	0.611528
08761		25.301527	57.930639	0.407115
08762		25.285121	58.483463	0.197169
08763		25.256518	59.022136	-0.015946
08764		25.190398	59.570087	-0.253531
08765		25.076881	60.121211	-0.506962
08766		24.897693	60.664804	-0.796800
08767		24.678737	61.194392	-1.116968
08768		24.426143	61.705354	-1.464542
08769		24.141381	62.190071	-1.836820
08770		23.833710	62.665592	-2.226889
08771		23.516698	63.128586	-2.630306
08772		23.170427	63.569907	-3.059655
08773		22.791863	64.005355	-3.526353
08774		22.371037	64.425748	-4.025966
08775		21.939356	64.828912	-4.521186
08776		21.502740	65.235442	-5.035642
08777		21.071545	65.630658	-5.558623
08778		20.611558	66.004592	-6.102811
08779		20.145671	66.368038	-6.646886
08780		19.651195	66.718372	-7.181915
08781		19.141989	67.047753	-7.703819
08782		18.624671	67.365428	-8.204915
08783		18.122835	67.665766	-8.691046
08784		17.636678	67.937005	-9.169674
08785		17.163649	68.180115	-9.648209
08786		16.698448	68.395191	-10.121502
08787		16.240276	68.588453	-10.580257
08788		15.784743	68.760685	-11.026741
08789		15.357209	68.912632	-11.435977
08790		14.950744	69.040025	-11.816596
08791		14.569894	69.147173	-12.174561
08792		14.227808	69.234856	-12.500581
08793		13.923375	69.306619	-12.811140
08794		13.640209	69.359613	-13.110639
08795		13.383410	69.393166	-13.385890
08796		13.136199	69.417075	-13.650995
08797		12.917478	69.436521	-13.894472
08798		12.700048	69.458390	-14.136167
08799		12.494700	69.486769	-14.365402
08800		12.311731	69.521529	-14.580630
08801		12.126668	69.564707	-14.795133
08802		11.950662	69.618316	-15.000952
08803		11.789495	69.679931	-15.187776
08804		11.659133	69.753596	-15.352396
08805		11.530995	69.834142	-15.519590
08806		11.406196	69.914234	-15.687201
08807		11.289180	69.991683	-15.852424
08808		11.161743	70.070541	-16.020297
08809		11.021829	70.150208	-16.199033
08810		10.863651	70.232279	-16.383556
08811		10.703380	70.320079	-16.568626
08812		10.536264	70.403490	-16.757408
08813		10.364341	70.484435	-16.947483
08814		10.194248	70.561209	-17.125471
08815		10.033582	70.634646	-17.275965
08816		9.880481	70.710142	-17.416159
08817		9.731056	70.789862	-17.554724
08818		9.582954	70.871990	-17.693433
08819		9.454943	70.948773	-17.814598
08820		9.352473	71.027372	-17.919308
08821		9.257181	71.104818	-18.025626
08822		9.176267	71.180124	-18.131906
08823		9.100347	71.257118	-18.239647
08824		9.050786	71.328743	-18.319259
08825		9.038900	71.390897	-18.347366
08826		9.050243	71.442861	-18.331211
08827		9.078587	71.474005	-18.283852
08828		9.153602	71.480075	-18.212474
08829		9.239475	71.468394	-18.155252
08830		9.313466	71.451324	-18.119843
08831		9.369457	71.447729	-18.092801
08832		9.405328	71.453722	-18.072205
08833		9.409455	71.460403	-18.064803
08834		9.379537	71.457008	-18.075307
08835		9.308815	71.445296	-18.113113
08836		9.200149	71.433672	-18.188324
08837		9.081215	71.418778	-18.282325
08838		8.972712	71.410765	-18.374409
08839		8.870066	71.413548	-18.459150
08840		8.772654	71.424863	-18.535496
08841		8.679056	71.438966	-18.599603
08842		8.590773	71.452756	-18.658181
08843		8.493554	71.469718	-18.726638
08844		8.394865	71.485686	-18.798307
08845		8.298876	71.501849	-18.874434
08846		8.216846	71.525364	-18.940105
08847		8.144190	71.551031	-18.997855
08848		8.092015	71.578378	-19.036170
08849		8.047383	71.609512	-19.065769
08850		8.003485	71.634987	-19.094225
08851		7.954171	71.658358	-19.130776
08852		7.913917	71.679323	-19.164586
08853		7.872356	71.695317	-19.197596
08854		7.814301	71.708391	-19.247598
08855		7.760621	71.718365	-19.293504
08856		7.704379	71.727781	-19.340803
08857		7.650176	71.737862	-19.386255
08858		7.604919	71.750073	-19.425092
08859		7.572095	71.762782	-19.452506
08860		7.537967	71.774538	-19.482976
08861		7.520104	71.789031	-19.501702
08862		7.505476	71.801599	-19.518644
08863		7.499575	71.813180	-19.531629
08864		7.495416	71.824322	-19.542669
08865		7.498842	71.837077	-19.546461
08866		7.509599	71.852540	-19.541351
08867		7.523831	71.866250	-19.532374
08868		7.546947	71.881191	-19.514595
08869		7.578833	71.899845	-19.483802
08870		7.608150	71.915777	-19.455914
08871		7.638543	71.933703	-19.426464
08872		7.667784	71.954153	-19.394654
08873		7.696329	71.974942	-19.360665
08874		7.718880	71.996102	-19.328726
08875		7.741030	72.020738	-19.295041
08876		7.759826	72.047128	-19.265100
08877		7.768054	72.071583	-19.245494
08878		7.786933	72.092500	-19.217219
08879		7.799736	72.112511	-19.198000
08880		7.810781	72.133733	-19.184824
08881		7.823236	72.153875	-19.164973
08882		7.834373	72.174335	-19.144439
08883		7.848794	72.194114	-19.121494
08884		7.857538	72.212865	-19.105010
08885		7.861893	72.228172	-19.096289
08886		7.856628	72.240218	-19.094471
08887		7.851554	72.249090	-19.091785
08888		7.840402	72.255052	-19.091484
08889		7.831749	72.257351	-19.087856
08890		7.820094	72.259237	-19.085090
08891		7.806531	72.258636	-19.078678
08892		7.794961	72.258507	-19.072318
08893		7.778910	72.257462	-19.066298
08894		7.751947	72.255560	-19.069062
08895		7.720589	72.249473	-19.072324
08896		7.692410	72.240502	-19.071626
08897		7.671683	72.228764	-19.066825
08898		7.645239	72.217995	-19.072043
08899		7.626388	72.206652	-19.071505
08900		7.610642	72.194440	-19.070592
08901		7.599221	72.178967	-19.070667
08902		7.585482	72.156410	-19.072386
08903		7.583399	72.128973	-19.068287
08904		7.599143	72.094171	-19.050393
08905		7.632190	72.053592	-19.012623
08906		7.671141	72.008921	-18.956686
08907		7.720110	71.964464	-18.884586
08908		7.758816	71.915906	-18.816804
08909		7.822924	71.860451	-18.726718
08910		7.900178	71.798574	-18.623746
08911		7.975660	71.728805	-18.510564
08912		8.046117	71.653969	-18.388014
08913		8.118289	71.571448	-18.251715
08914		8.199847	71.474801	-18.096343
08915		8.302199	71.364815	-17.905415
08916		8.429638	71.242239	-17.674708
08917		8.582846	71.101582	-17.393970
08918		8.728878	70.938285	-17.092429
08919		8.873900	70.760662	-16.763562
08920		9.023766	70.562155	-16.405946
08921		9.189752	70.350622	-16.012802
08922		9.375916	70.122020	-15.579098
08923		9.581403	69.880557	-15.109412
08924		9.786659	69.621930	-14.616473
08925		9.979863	69.353764	-14.116765
08926		10.177419	69.073155	-13.592070
08927		10.371867	68.777460	-13.055908
08928		10.578760	68.465769	-12.497679
08929		10.793637	68.129762	-11.932571
08930		11.006444	67.767173	-11.365246
08931		11.238666	67.389237	-10.789868
08932		11.475255	66.982480	-10.216311
08933		11.719393	66.545412	-9.643373
08934		11.978147	66.087507	-9.069021
08935		12.252418	65.611682	-8.494657
08936		12.544707	65.118045	-7.909858
08937		12.843648	64.603629	-7.331966
08938		13.135241	64.076107	-6.776873
08939		13.422771	63.541764	-6.235094
08940		13.694749	62.989086	-5.714244
08941		13.947162	62.420352	-5.212955
08942		14.177958	61.836055	-4.727493
08943		14.391844	61.243849	-4.256815
08944		14.589720	60.639119	-3.797982
08945		14.773436	60.021073	-3.357698
08946		14.954899	59.384753	-2.917436
08947		15.135640	58.730482	-2.473731
08948		15.295574	58.052271	-2.035434
08949		15.443055	57.335103	-1.597481
08950		15.570813	56.618081	-1.170257
08951		15.679732	55.897156	-0.768121
08952		15.779966	55.176002	-0.385126
08953		15.872005	54.451609	-0.014556
08954		15.952374	53.720279	0.344091
08955		16.025438	52.964816	0.684890
08956		16.098818	52.187630	1.014045
08957		16.176734	51.388585	1.335730
08958		16.259233	50.564669	1.659627
08959		16.355696	49.732821	1.972407
08960		16.458511	48.909753	2.268666
08961		16.571382	48.082415	2.543286
08962		16.677488	47.252066	2.805157
08963		16.791588	46.432960	3.060247
08964		16.915236	45.608524	3.315163
08965		17.038752	44.806997	3.552889
08966		17.197543	43.979047	3.784932
08967		17.342373	43.180380	4.012458
08968		17.466028	42.410536	4.236694
08969		17.615445	41.622894	4.454792
08970		17.728192	40.869886	4.655664
08971		17.873124	40.093639	4.852069
08972		17.996126	39.345473	5.051257
08973		18.160283	38.571305	5.247783
08974		18.297506	37.837276	5.447713
08975		18.488751	37.075531	5.642818
08976		18.612367	36.370671	5.829940
08977		18.745505	35.678491	6.011174
08978		18.896059	34.976243	6.182603
08979		19.006065	34.319305	6.346768
08980		19.109941	33.670909	6.498887
08981		19.213139	33.017901	6.643289
08982		19.301541	32.411747	6.782527
08983		19.417938	31.808651	6.918513
08984		19.491645	31.249976	7.038146
08985		19.572940	30.704600	7.154950
08986		19.646489	30.169982	7.268173
08987		19.787276	29.604413	7.367484
08988		19.836139	29.096304	7.457767
08989		19.890715	28.603386	7.550296
08990		19.939409	28.122099	7.631582
08991		20.079360	27.601425	7.690558
08992		20.093286	27.153812	7.752490
08993		20.132545	26.708096	7.823416
08994		20.178580	26.281674	7.881942
08995		20.239177	25.874894	7.927705
08996		20.313258	25.476950	7.969736
08997		20.396315	25.090745	7.991366
08998		20.458462	24.711201	8.011617
08999		20.502606	24.345978	8.034880
09000		20.557550	23.974846	8.047764
09001		20.556205	23.658669	8.066903
09002		20.544943	23.364276	8.077510
09003		20.538754	23.084397	8.085759
09004		20.543607	22.816502	8.089158
09005		20.570266	22.566079	8.084193
09006		20.620475	22.323776	8.072278
09007		20.682176	22.079359	8.051150
09008		20.741285	21.836340	8.032067
09009		20.786940	21.599310	8.017581
09010		20.822346	21.372929	8.004636
09011		20.849560	21.159254	7.996022
09012		20.866649	20.961973	7.998361
09013		20.887163	20.779270	8.001177
09014		20.918755	20.610716	8.006348
09015		20.968387	20.457809	8.014075
09016		21.042806	20.320331	8.019991
09017		21.146436	20.190702	8.021094
09018		21.258705	20.059765	8.017588
09019		21.376633	19.929957	8.009587
09020		21.486878	19.793484	8.001066
09021		21.568955	19.649415	7.985980
09022		21.618252	19.503868	7.974628
09023		21.636720	19.358752	7.969779
09024		21.629064	19.226637	7.975198
09025		21.622372	19.107528	7.987329
09026		21.616704	18.995742	8.007836
09027		21.613670	18.895800	8.024438
09028		21.621946	18.798856	8.038932
09029		21.637329	18.699463	8.054008
09030		21.657429	18.607308	8.069397
09031		21.683191	18.514741	8.082582
09032		21.712705	18.418269	8.093198
09033		21.746573	18.315992	8.101171
09034		21.784834	18.213687	8.109915
09035		21.822060	18.113542	8.121164
09036		21.855475	18.014028	8.131165
09037		21.883669	17.916938	8.149822
09038		21.902555	17.817016	8.173230
09039		21.910208	17.722884	8.201120
09040		21.918873	17.637076	8.231486
09041		21.924097	17.550871	8.259768
09042		21.929923	17.468225	8.287987
09043		21.938542	17.385090	8.313788
09044		21.956676	17.297222	8.340655
09045		21.975734	17.210180	8.366309
09046		21.990287	17.128168	8.391118
09047		21.998445	17.047373	8.416412
09048		22.006116	16.968816	8.442745
09049		22.019715	16.896218	8.472043
09050		22.033201	16.828278	8.501136
09051		22.043679	16.770590	8.528069
09052		22.052405	16.718019	8.556818
09053		22.062102	16.669583	8.584798
09054		22.066186	16.628376	8.606721
09055		22.073069	16.589226	8.623122
09056		22.085483	16.550779	8.635625
09057		22.098304	16.517523	8.644735
09058		22.109541	16.486139	8.652702
09059		22.121633	16.464749	8.659788
09060		22.135409	16.444197	8.670986
09061		22.141903	16.426818	8.681759
09062		22.144439	16.411916	8.696591
09063		22.142535	16.401847	8.711378
09064		22.134563	16.398336	8.724088
09065		22.124729	16.398176	8.732350
09066		22.106842	16.395262	8.734860
09067		22.083943	16.395653	8.737768
09068		22.065739	16.402826	8.739853
09069		22.051158	16.411688	8.740033
09070		22.046179	16.422549	8.742154
09071		22.048489	16.435538	8.749676
09072		22.060800	16.454602	8.758142
09073		22.082630	16.475190	8.769319
09074		22.107653	16.497156	8.781828
09075		22.134024	16.516384	8.794451
09076		22.163551	16.527820	8.810530
09077		22.195151	16.538023	8.823778
09078		22.229567	16.547209	8.839598
09079		22.258307	16.554070	8.852249
09080		22.284157	16.559173	8.863640
09081		22.306617	16.563759	8.872916
09082		22.326217	16.569905	8.881401
09083		22.346403	16.574328	8.889859
09084		22.358832	16.580912	8.897575
09085		22.366270	16.589783	8.908959
09086		22.367416	16.603875	8.913734
09087		22.364808	16.616669	8.917848
09088		22.360866	16.632266	8.921884
09089		22.354904	16.652716	8.924190
09090		22.348332	16.677500	8.923486
09091		22.339548	16.703803	8.923070
09092		22.327469	16.734458	8.916989
09093		22.314117	16.764662	8.912101
09094		22.299195	16.801168	8.903295
09095		22.285094	16.839907	8.895962
09096		22.273232	16.882091	8.889074
09097		22.263299	16.926203	8.882314
09098		22.259565	16.975133	8.875066
09099		22.263290	17.027624	8.871028
09100		22.279336	17.089731	8.869421
09101		22.298201	17.158542	8.863050
09102		22.321349	17.234415	8.854211
09103		22.346527	17.316364	8.840282
09104		22.378982	17.402834	8.824647
09105		22.415792	17.494581	8.808110
09106		22.450469	17.593493	8.792011
09107		22.495926	17.696612	8.775549
09108		22.541465	17.809583	8.757404
09109		22.587948	17.927885	8.738955
09110		22.627615	18.057207	8.716530
09111		22.664143	18.188114	8.690901
09112		22.700974	18.324687	8.661419
09113		22.733686	18.469640	8.628622
09114		22.767025	18.630760	8.592144
09115		22.798956	18.812472	8.551211
09116		22.827909	19.019429	8.505220
09117		22.860903	19.250015	8.458440
09118		22.896674	19.511273	8.409179
09119		22.932413	19.803558	8.353326
09120		22.971434	20.128444	8.296030
09121		23.020051	20.486693	8.241963
09122		23.081292	20.878499	8.191862
09123		23.167147	21.311762	8.149162
09124		23.291525	21.792501	8.114590
09125		23.444704	22.302514	8.073514
09126		23.611150	22.816380	8.017754
09127		23.788936	23.306732	7.964018
09128		23.985077	23.792312	7.924781
09129		24.202801	24.285608	7.901943
09130		24.435963	24.804015	7.893634
09131		24.676612	25.347864	7.885536
09132		24.904386	25.914238	7.859870
09133		25.106971	26.478040	7.820539
09134		25.287187	27.038838	7.767169
09135		25.450598	27.593242	7.711361
09136		25.608607	28.141628	7.659564
09137		25.766989	28.686780	7.617824
09138		25.928661	29.235990	7.589119
09139		26.099624	29.788817	7.562425
09140		26.274132	30.345674	7.532410
09141		26.458420	30.904425	7.495340
09142		26.651229	31.472664	7.455117
09143		26.844395	32.041430	7.408983
09144		27.034718	32.610607	7.364887
09145		27.217453	33.167479	7.326003
09146		27.388434	33.717547	7.292752
09147		27.555722	34.276121	7.265191
09148		27.718556	34.848346	7.238335
09149		27.880479	35.431111	7.208697
09150		28.037074	36.026824	7.175985
09151		28.185994	36.631766	7.148266
09152		28.323615	37.246029	7.128020
09153		28.447776	37.871576	7.109402
09154		28.559062	38.514747	7.095191
09155		28.661268	39.167971	7.089654
09156		28.763714	39.841948	7.092310
09157		28.884680	40.540108	7.116085
09158		29.020723	41.275567	7.157328
09159		29.177155	42.040246	7.221124
09160		29.351718	42.841150	7.299944
09161		29.559467	43.667349	7.382152
09162		29.804210	44.515734	7.454230
09163		30.092664	45.373414	7.517151
09164		30.425313	46.246856	7.558362
09165		30.785459	47.124088	7.560880
09166		31.185068	48.006570	7.558008
09167		31.589794	48.879358	7.545782
09168		31.985307	49.757104	7.499152
09169		32.352723	50.638723	7.420751
09170		32.672594	51.519066	7.298001
09171		32.931613	52.387929	7.135049
09172		33.138177	53.238022	6.932215
09173		33.268012	54.066583	6.692308
09174		33.312837	54.880797	6.427391
09175		33.254946	55.655817	6.115800
09176		33.097184	56.399506	5.759406
09177		32.861612	57.115316	5.366314
09178		32.549720	57.809520	4.931775
09179		32.165010	58.479378	4.448845
09180		31.711183	59.120424	3.906028
09181		31.196623	59.744088	3.320851
09182		30.643976	60.346637	2.696532
09183		30.037910	60.921829	2.039373
09184		29.384178	61.493180	1.373939
09185		28.714693	62.045779	0.703157
09186		28.029042	62.578150	0.032217
09187		27.342200	63.086865	-0.632507
09188		26.688428	63.585198	-1.272409
09189		26.059849	64.071982	-1.891127
09190		25.460490	64.544916	-2.496011
09191		24.913006	64.995137	-3.072235
09192		24.422062	65.425156	-3.607501
09193		23.972791	65.824377	-4.100909
09194		23.582251	66.192777	-4.539365
09195		23.231020	66.527766	-4.930735
09196		22.910906	66.833363	-5.269217
09197		22.628925	67.093269	-5.555848
09198		22.370001	67.310638	-5.798719
09199		22.151140	67.488887	-5.993713
09200		21.984081	67.641559	-6.128596
09201		21.867396	67.771226	-6.202263
09202		21.797768	67.885439	-6.215140
09203		21.773660	67.985722	-6.185089
09204		21.801168	68.079360	-6.107086
09205		21.879439	68.164881	-6.006608
09206		22.005855	68.240917	-5.880216
09207		22.181348	68.312853	-5.747201
09208		22.378145	68.382618	-5.607012
09209		22.593964	68.453223	-5.454275
09210		22.820406	68.528388	-5.287612
09211		23.025428	68.601971	-5.119213
09212		23.203453	68.676402	-4.944592
09213		23.353536	68.752758	-4.791792
09214		23.469904	68.831445	-4.674164
09215		23.554438	68.904352	-4.590417
09216		23.620709	68.974125	-4.530998
09217		23.670620	69.042332	-4.493954
09218		23.705521	69.118078	-4.473524
09219		23.714285	69.192217	-4.483255
09220		23.714936	69.273351	-4.499505
09221		23.691238	69.355629	-4.530687
09222		23.647032	69.438854	-4.575346
09223		23.579271	69.512735	-4.624548
09224		23.512665	69.570621	-4.644265
09225		23.457568	69.601534	-4.632022
09226		23.430525	69.603447	-4.596366
09227		23.445315	69.590317	-4.542441
09228		23.490256	69.575238	-4.477654
09229		23.538139	69.556772	-4.410322
09230		23.605752	69.537416	-4.324741
09231		23.695440	69.516175	-4.220775
09232		23.777720	69.490253	-4.121884
09233		23.816463	69.458388	-4.053412
09234		23.797417	69.416812	-4.022243
09235		23.739829	69.371565	-4.018007
09236		23.697973	69.321565	-4.000575
09237		23.665571	69.280465	-3.965928
09238		23.632238	69.234974	-3.936931
09239		23.567934	69.189711	-3.930216
09240		23.475978	69.151600	-3.947722
09241		23.369940	69.118995	-3.974876
09242		23.280407	69.096802	-3.995824
09243		23.210377	69.082727	-4.015591
09244		23.153899	69.077798	-4.038908
09245		23.115376	69.076028	-4.061407
09246		23.093604	69.074917	-4.079112
09247		23.092499	69.076915	-4.087194
09248		23.092815	69.083024	-4.091564
09249		23.098588	69.087337	-4.087230
09250		23.111952	69.088965	-4.074345
09251		23.121305	69.090084	-4.059549
09252		23.122025	69.097990	-4.041706
09253		23.101727	69.104440	-4.035770
09254		23.066008	69.109724	-4.037718
09255		23.028160	69.109653	-4.038691
09256		22.984627	69.111260	-4.043530
09257		22.933078	69.115716	-4.056349
09258		22.881027	69.125188	-4.070679
09259		22.830702	69.133569	-4.092350
09260		22.782841	69.140528	-4.123117
09261		22.747742	69.148357	-4.146565
09262		22.717064	69.160423	-4.166383
09263		22.679857	69.173297	-4.193201
09264		22.637593	69.185030	-4.230673
09265		22.593897	69.189984	-4.273205
09266		22.538056	69.192579	-4.329173
09267		22.455290	69.192341	-4.410739
09268		22.356654	69.195573	-4.514999
09269		22.262317	69.199353	-4.625438
09270		22.185623	69.197780	-4.725713
09271		22.122020	69.190961	-4.799575
09272		22.063800	69.178999	-4.844234
09273		22.017799	69.163614	-4.864810
09274		21.990051	69.154841	-4.871473
09275		21.985598	69.146788	-4.865225
09276		21.999451	69.142635	-4.846365
09277		22.014792	69.137365	-4.830010
09278		22.030545	69.131233	-4.814829
09279		22.041553	69.126635	-4.809087
09280		22.041190	69.128823	-4.814214
09281		22.038719	69.135251	-4.818685
09282		22.033323	69.146253	-4.825986
09283		22.028410	69.156320	-4.829757
09284		22.018514	69.166433	-4.839335
09285		22.006818	69.180814	-4.853029
09286		21.995197	69.194313	-4.863151
09287		21.990423	69.208339	-4.865731
09288		21.992229	69.220217	-4.861936
09289		22.001041	69.229907	-4.851794
09290		22.009204	69.237748	-4.841620
09291		22.017555	69.242239	-4.832684
09292		22.009618	69.244675	-4.839415
09293		21.999023	69.242049	-4.843735
09294		21.974506	69.244322	-4.855964
09295		21.946213	69.246207	-4.871100
09296		21.909797	69.249410	-4.895541
09297		21.869945	69.249705	-4.933081
09298		21.829142	69.249960	-4.982519
09299		21.788740	69.249484	-5.032599
09300		21.736908	69.244738	-5.088869
09301		21.692364	69.233761	-5.140531
09302		21.647844	69.224557	-5.187328
09303		21.613323	69.214624	-5.223071
09304		21.583222	69.201003	-5.262376
09305		21.557215	69.181448	-5.309487
09306		21.534598	69.159621	-5.349375
09307		21.516103	69.135321	-5.378615
09308		21.481903	69.104775	-5.424974
09309		21.443063	69.076830	-5.471779
09310		21.389360	69.043556	-5.532046
09311		21.309111	69.002864	-5.601185
09312		21.194347	68.950976	-5.680829
09313		21.042430	68.893468	-5.777404
09314		20.865206	68.829027	-5.874212
09315		20.667962	68.754569	-5.966468
09316		20.462077	68.671938	-6.048889
09317		20.267790	68.581551	-6.113642
09318		20.080069	68.486667	-6.173428
09319		19.909308	68.385072	-6.227685
09320		19.760171	68.270470	-6.271872
09321		19.633125	68.127120	-6.296684
09322		19.524496	67.961345	-6.308131
09323		19.419396	67.780664	-6.308019
09324		19.297101	67.585482	-6.285328
09325		19.163679	67.383022	-6.236861
09326		19.027458	67.167650	-6.151368
09327		18.893814	66.934056	-6.035312
09328		18.779695	66.678642	-5.886770
09329		18.698682	66.398474	-5.699404
09330		18.652552	66.089794	-5.488787
09331		18.654916	65.745011	-5.244218
09332		18.686298	65.360472	-4.976928
09333		18.741985	64.948341	-4.688582
09334		18.815239	64.512682	-4.380717
09335		18.903806	64.054396	-4.055617
09336		18.984026	63.578297	-3.729036
09337		19.049705	63.078752	-3.422058
09338		19.113204	62.561418	-3.115392
09339		19.159682	62.039200	-2.810686
09340		19.194348	61.498910	-2.526174
09341		19.229896	60.952174	-2.239562
09342		19.282528	60.389772	-1.958291
09343		19.325041	59.816470	-1.687715
09344		19.372241	59.234164	-1.418925
09345		19.415788	58.636564	-1.161236
09346		19.463428	58.025902	-0.905544
09347		19.501223	57.398868	-0.660173
09348		19.534567	56.776241	-0.419197
09349		19.563891	56.140301	-0.181303
09350		19.584214	55.503771	0.048293
09351		19.615073	54.860171	0.282135
09352		19.644097	54.209354	0.514055
09353		19.673413	53.563320	0.746655
09354		19.706095	52.915345	0.971976
09355		19.748512	52.263740	1.197324
09356		19.787000	51.609576	1.418079
09357		19.829331	50.957446	1.647342
09358		19.868514	50.315204	1.884736
09359		19.906819	49.673708	2.123059
09360		19.948855	49.034383	2.364992
09361		20.003491	48.386380	2.598338
09362		20.058169	47.727024	2.822331
09363		20.104859	47.086346	3.042859
09364		20.181994	46.415270	3.267718
09365		20.268252	45.744398	3.479941
09366		20.333744	45.101273	3.673564
09367		20.413913	44.440638	3.861604
09368		20.514541	43.774134	4.047999
09369		20.557475	43.127748	4.209158
09370		20.649594	42.459841	4.374564
09371		20.692302	41.813290	4.520215
09372		20.754789	41.169864	4.668415
09373		20.815549	40.499773	4.811204
09374		20.862535	39.864492	4.959166
09375		20.932507	39.218686	5.113412
09376		20.979074	38.577043	5.259790
09377		21.032553	37.954878	5.402998
09378		21.093680	37.331449	5.540369
09379		21.165380	36.712825	5.668375
09380		21.238707	36.104597	5.777226
09381		21.299382	35.496195	5.876688
09382		21.346469	34.876948	5.973528
09383		21.381842	34.254278	6.076913
09384		21.414491	33.656823	6.184945
09385		21.445449	33.100753	6.291328
09386		21.467637	32.578210	6.392615
09387		21.484065	32.087536	6.491264
09388		21.503420	31.619626	6.592100
09389		21.544548	31.162595	6.687374
09390		21.569427	30.728530	6.782074
09391		21.591245	30.293405	6.873052
09392		21.603254	29.846828	6.960505
09393		21.598399	29.402580	7.050698
09394		21.566796	28.973749	7.141496
09395		21.541980	28.555264	7.231084
09396		21.482544	28.181703	7.315375
09397		21.428116	27.831410	7.395269
09398		21.382943	27.496805	7.470569
09399		21.351732	27.177316	7.537181
09400		21.331679	26.872397	7.592563
09401		21.308568	26.570803	7.637260
09402		21.281495	26.268567	7.679193
09403		21.265190	25.946339	7.724098
09404		21.213152	25.667737	7.768832
09405		21.165402	25.407068	7.806522
09406		21.134285	25.168660	7.834534
09407		21.114531	24.951239	7.855326
09408		21.107520	24.759714	7.877774
09409		21.163868	24.554435	7.902312
09410		21.161721	24.400174	7.925465
09411		21.175540	24.256699	7.954275
09412		21.188080	24.117947	7.981865
09413		21.190152	23.974804	8.007831
09414		21.182953	23.835389	8.041794
09415		21.183663	23.708810	8.080917
09416		21.177731	23.594689	8.118946
09417		21.252855	23.435300	8.146921
09418		21.243923	23.347636	8.191567
09419		21.246253	23.260993	8.237785
09420		21.245912	23.179607	8.277132
09421		21.250476	23.094589	8.319618
09422		21.267815	23.002959	8.360097
09423		21.282082	22.906581	8.402793
09424		21.290745	22.810736	8.442452
09425		21.299321	22.711722	8.479920
09426		21.306601	22.613705	8.511950
09427		21.317970	22.516156	8.545016
09428		21.418296	22.377626	8.560437
09429		21.422651	22.284152	8.576209
09430		21.458653	22.190062	8.596107
09431		21.508916	22.095332	8.612375
09432		21.561889	22.002933	8.622450
09433		21.609943	21.907894	8.625035
09434		21.649691	21.800711	8.619422
09435		21.665140	21.687312	8.612380
09436		21.657181	21.576861	8.610112
09437		21.639533	21.471394	8.605067
09438		21.617641	21.373333	8.600565
09439		21.595465	21.279304	8.596864
09440		21.586207	21.184117	8.593000
09441		21.585367	21.085036	8.589380
09442		21.579531	20.988035	8.585003
09443		21.570552	20.887054	8.579692
09444		21.561672	20.789208	8.571582
09445		21.545608	20.700420	8.565810
09446		21.521356	20.617794	8.561313
09447		21.498138	20.539635	8.557313
09448		21.473861	20.463337	8.554072
09449		21.450653	20.387446	8.556577
09450		21.437150	20.309720	8.559983
09451		21.432651	20.231121	8.560922
09452		21.431376	20.159688	8.560898
09453		21.428697	20.087745	8.562066
09454		21.426057	20.019028	8.562904
09455		21.413145	19.952211	8.563622
09456		21.400501	19.889366	8.565076
09457		21.386795	19.823517	8.565744
09458		21.378123	19.760368	8.566208
09459		21.380111	19.697499	8.562418
09460		21.385806	19.636901	8.558666
09461		21.394277	19.579453	8.556604
09462		21.402804	19.525285	8.554186
09463		21.414239	19.471039	8.550412
09464		21.434031	19.416198	8.547955
09465		21.458675	19.365533	8.547279
09466		21.480033	19.322259	8.550736
09467		21.498640	19.286906	8.551129
09468		21.506399	19.259487	8.550303
09469		21.512701	19.237962	8.551681
09470		21.517677	19.223420	8.550206
09471		21.522444	19.212865	8.546842
09472		21.527392	19.206400	8.546679
09473		21.531088	19.208158	8.550034
09474		21.532317	19.214738	8.557403
09475		21.536208	19.222067	8.562601
09476		21.534790	19.229376	8.570782
09477		21.538056	19.244034	8.583762
09478		21.541666	19.262815	8.597460
09479		21.550999	19.284679	8.610553
09480		21.566201	19.313189	8.624348
09481		21.589523	19.345658	8.642028
09482		21.618830	19.377441	8.662670
09483		21.646242	19.410332	8.682902
09484		21.669485	19.446140	8.705358
09485		21.691086	19.481449	8.722120
09486		21.717258	19.518115	8.739094
09487		21.737454	19.557038	8.753428
09488		21.759118	19.603011	8.767748
09489		21.783206	19.653748	8.779703
09490		21.810201	19.713584	8.789169
09491		21.829560	19.774478	8.797724
09492		21.841428	19.840939	8.800857
09493		21.852945	19.909638	8.804404
09494		21.868329	19.985538	8.806397
09495		21.893429	20.067327	8.807444
09496		21.935776	20.157350	8.813285
09497		21.993387	20.257996	8.824728
09498		22.070157	20.372805	8.835286
09499		22.161874	20.506267	8.848754
09500		22.272888	20.677728	8.863525
09501		22.411126	20.878394	8.893732
09502		22.565928	21.092589	8.935696
09503		22.745842	21.302736	8.992631
09504		22.950630	21.507813	9.068419
09505		23.177294	21.713401	9.160853
09506		23.417128	21.927435	9.263572
09507		23.665790	22.148871	9.368242
09508		23.908457	22.380958	9.479330
09509		24.144421	22.619203	9.594248
09510		24.376794	22.870694	9.711284
09511		24.599956	23.129115	9.830449
09512		24.821797	23.398708	9.946405
09513		25.049883	23.678575	10.065364
09514		25.280283	23.965192	10.186265
09515		25.509090	24.259589	10.308928
09516		25.745332	24.570305	10.430677
09517		25.985067	24.895257	10.548166
09518		26.225370	25.225464	10.655837
09519		26.462127	25.557321	10.752182
09520		26.692741	25.892078	10.832358
09521		26.915068	26.229271	10.899917
09522		27.134044	26.584432	10.966899
09523		27.360838	26.960486	11.042004
09524		27.598019	27.359434	11.119219
09525		27.845887	27.781968	11.205074
09526		28.096205	28.235791	11.293310
09527		28.349249	28.725785	11.397831
09528		28.606087	29.263135	11.529521
09529		28.883262	29.860984	11.689862
09530		29.195225	30.527686	11.855738
09531		29.521859	31.229905	12.001541
09532		29.858458	31.935051	12.118445
09533		30.214319	32.635319	12.227233
09534		30.604513	33.345903	12.336870
09535		31.034070	34.065051	12.458428
09536		31.489504	34.800399	12.590570
09537		31.953114	35.569298	12.721954
09538		32.411508	36.370472	12.830333
09539		32.859251	37.197901	12.898867
09540		33.294314	38.044265	12.935544
09541		33.727010	38.902711	12.953924
09542		34.159958	39.772773	12.988879
09543		34.586668	40.653437	13.040734
09544		35.003008	41.540567	13.099378
09545		35.409984	42.430336	13.158026
09546		35.800001	43.320539	13.200340
09547		36.176413	44.205115	13.216364
09548		36.545467	45.091613	13.216276
09549		36.919607	45.973365	13.193033
09550		37.286534	46.846883	13.144995
09551		37.648357	47.706790	13.082376
09552		38.002776	48.551804	13.006738
09553		38.371528	49.372567	12.923153
09554		38.740870	50.179376	12.814791
09555		39.096176	50.971789	12.683997
09556		39.425603	51.745270	12.552063
09557		39.718001	52.494164	12.396398
09558		39.979872	53.203692	12.209081
09559		40.184662	53.874409	11.978473
09560		40.319385	54.524525	11.722792
09561		40.391322	55.156864	11.459751
09562		40.381827	55.753431	11.165381
09563		40.272999	56.312681	10.824555
09564		40.081186	56.854624	10.445871
09565		39.818696	57.377542	10.045503
09566		39.465691	57.882244	9.622391
09567		39.015085	58.355176	9.162668
09568		38.501040	58.821766	8.685380
09569		37.946108	59.286834	8.214482
09570		37.353141	59.738821	7.732407
09571		36.735928	60.175525	7.242334
09572		36.110591	60.595622	6.742137
09573		35.488944	60.995046	6.231632
09574		34.879079	61.375805	5.706943
09575		34.267395	61.743832	5.185534
09576		33.664020	62.107238	4.660895
09577		33.068034	62.464355	4.145966
09578		32.508942	62.814920	3.643757
09579		31.962065	63.154109	3.155481
09580		31.443670	63.481370	2.696342
09581		30.937036	63.790950	2.266562
09582		30.441703	64.085773	1.859562
09583		29.956357	64.366088	1.473191
09584		29.507529	64.642202	1.138188
09585		29.123518	64.912478	0.872580
09586		28.818811	65.173221	0.667239
09587		28.601509	65.428419	0.518487
09588		28.460971	65.679473	0.399730
09589		28.402014	65.923702	0.317940
09590		28.409632	66.155999	0.263074
09591		28.447723	66.367515	0.221795
09592		28.518602	66.560648	0.186285
09593		28.614759	66.736434	0.176456
09594		28.724575	66.895498	0.190108
09595		28.824026	67.038489	0.205342
09596		28.893577	67.158958	0.214731
09597		28.947647	67.266241	0.218736
09598		28.988858	67.356964	0.228370
09599		29.018507	67.433983	0.233606
09600		29.019083	67.502039	0.227254
09601		29.001458	67.560456	0.205790
09602		28.953448	67.615117	0.171111
09603		28.877044	67.666081	0.124737
09604		28.773770	67.720566	0.066868
09605		28.645688	67.777221	-0.002541
09606		28.491557	67.841834	-0.088754
09607		28.329621	67.906984	-0.173049
09608		28.159062	67.976620	-0.258811
09609		27.983489	68.052418	-0.353326
09610		27.811866	68.140721	-0.451757
09611		27.641334	68.237556	-0.550349
09612		27.476427	68.339721	-0.650413
09613		27.320131	68.447069	-0.752350
09614		27.161398	68.560866	-0.864130
09615		27.012015	68.680142	-0.966993
09616		26.878763	68.806768	-1.060216
09617		26.745589	68.939017	-1.151836
09618		26.618474	69.071432	-1.238146
09619		26.506738	69.190556	-1.314004
09620		26.400699	69.299082	-1.371222
09621		26.320178	69.387780	-1.398157
09622		26.262128	69.449695	-1.394823
09623		26.226020	69.482034	-1.387753
09624		26.205177	69.493339	-1.368187
09625		26.200965	69.492828	-1.331232
09626		26.206035	69.498292	-1.272053
09627		26.200777	69.515728	-1.206045
09628		26.184044	69.539313	-1.147831
09629		26.145826	69.566763	-1.116337
09630		26.071931	69.594982	-1.131887
09631		25.938690	69.618529	-1.214266
09632		25.730908	69.636785	-1.372248
09633		25.471302	69.652025	-1.584884
09634		25.175979	69.669635	-1.835956
09635		24.876352	69.693528	-2.090050
09636		24.586623	69.725660	-2.331990
09637		24.278264	69.761249	-2.581565
09638		23.978851	69.795240	-2.816545
09639		23.672794	69.823501	-3.056036
09640		23.369454	69.844036	-3.305033
09641		23.092765	69.858073	-3.544102
09642		22.834274	69.865077	-3.778254
09643		22.596690	69.868057	-4.000733
09644		22.379281	69.868531	-4.205174
09645		22.179547	69.875603	-4.388483
09646		22.007925	69.887893	-4.544521
09647		21.849909	69.904254	-4.679851
09648		21.700701	69.926603	-4.795356
09649		21.557515	69.952048	-4.897556
09650		21.431383	69.981973	-4.983435
09651		21.318820	70.005850	-5.065529
09652		21.229060	70.026896	-5.132903
09653		21.156692	70.051104	-5.189745
09654		21.098730	70.079897	-5.239066
09655		21.059220	70.109945	-5.271231
09656		21.042831	70.137078	-5.284254
09657		21.044805	70.158936	-5.281707
09658		21.049123	70.180677	-5.277608
09659		21.063422	70.201955	-5.270610
09660		21.050100	70.218826	-5.291313
09661		21.021964	70.237749	-5.317458
09662		20.969971	70.259744	-5.357069
09663		20.902670	70.278755	-5.407532
09664		20.828174	70.295794	-5.461571
09665		20.754763	70.307364	-5.506250
09666		20.682821	70.316113	-5.540457
09667		20.621342	70.321396	-5.564444
09668		20.568880	70.323898	-5.579510
09669		20.539068	70.319968	-5.584574
09670		20.520423	70.307324	-5.585288
09671		20.511132	70.290430	-5.578747
09672		20.499112	70.273615	-5.563611
09673		20.475318	70.257559	-5.545409
09674		20.432227	70.246739	-5.537603
09675		20.377117	70.241109	-5.538221
09676		20.312846	70.237272	-5.555514
09677		20.251387	70.233217	-5.577195
09678		20.177647	70.226780	-5.616696
09679		20.112654	70.213959	-5.657202
09680		20.047193	70.196937	-5.706216
09681		19.994039	70.178628	-5.746715
09682		19.947463	70.161156	-5.782653
09683		19.922451	70.146995	-5.808969
09684		19.904195	70.134920	-5.830843
09685		19.877040	70.121824	-5.866734
09686		19.857679	70.106316	-5.891968
09687		19.841182	70.091643	-5.912615
09688		19.828093	70.074871	-5.925073
09689		19.814817	70.054773	-5.934005
09690		19.815056	70.031275	-5.923193
09691		19.822431	70.002684	-5.893857
09692		19.833794	69.967584	-5.849575
09693		19.835095	69.927611	-5.810330
09694		19.812874	69.877402	-5.787149
09695		19.782323	69.821842	-5.771205
09696		19.737745	69.763068	-5.765446
09697		19.694913	69.697803	-5.759514
09698		19.662610	69.623687	-5.739588
09699		19.644899	69.532415	-5.697719
09700		19.640428	69.438871	-5.636583
09701		19.641584	69.343299	-5.560057
09702		19.638134	69.241891	-5.482455
09703		19.621571	69.131532	-5.410785
09704		19.607385	69.011224	-5.331969
09705		19.591187	68.875133	-5.255338
09706		19.591852	68.721859	-5.161210
09707		19.601496	68.553301	-5.057145
09708		19.636711	68.363438	-4.926668
09709		19.681787	68.154435	-4.779104
09710		19.746006	67.922108	-4.612012
09711		19.818333	67.665368	-4.430128
09712		19.886638	67.389884	-4.237636
09713		19.943659	67.096141	-4.038879
09714		19.968404	66.779607	-3.848496
09715		19.958523	66.432367	-3.666615
09716		19.912463	66.052891	-3.501343
09717		19.852639	65.647991	-3.322123
09718		19.768748	65.225354	-3.127566
09719		19.662076	64.787962	-2.920944
09720		19.543505	64.342585	-2.698060
09721		19.412850	63.891352	-2.461420
09722		19.283873	63.429335	-2.214506
09723		19.154561	62.963522	-1.960014
09724		19.048111	62.491722	-1.704627
09725		18.947746	62.010639	-1.459007
09726		18.853077	61.527513	-1.229161
09727		18.770543	61.032982	-1.014223
09728		18.696534	60.529898	-0.816881
09729		18.625004	60.016652	-0.629742
09730		18.551574	59.499630	-0.447597
09731		18.471481	58.973069	-0.276436
09732		18.402780	58.439912	-0.097936
09733		18.339194	57.896036	0.083178
09734		18.292973	57.351253	0.273729
09735		18.256799	56.808022	0.466745
09736		18.232593	56.261375	0.663371
09737		18.207594	55.719051	0.853678
09738		18.198538	55.182893	1.058109
09739		18.199998	54.645494	1.272923
09740		18.205681	54.108709	1.480747
09741		18.213245	53.581723	1.681610
09742		18.216005	53.064692	1.858110
09743		18.213101	52.545963	2.018304
09744		18.206686	52.035126	2.176103
09745		18.207776	51.527639	2.337962
09746		18.225181	51.009779	2.511074
09747		18.246409	50.498755	2.692154
09748		18.276697	50.006950	2.885842
09749		18.321229	49.515830	3.084515
09750		18.375012	49.028943	3.279003
09751		18.445478	48.531592	3.473904
09752		18.532804	48.021091	3.670208
09753		18.638191	47.504903	3.874364
09754		18.747769	46.983564	4.087811
09755		18.871053	46.461740	4.308254
09756		19.000317	45.930855	4.529996
09757		19.130194	45.403401	4.754097
09758		19.250710	44.887230	4.973572
09759		19.396271	44.348607	5.188593
09760		19.519455	43.836455	5.401019
09761		19.695189	43.299541	5.616908
09762		19.836941	42.778135	5.817279
09763		19.952351	42.301756	6.015490
09764		20.094063	41.799042	6.206940
09765		20.212926	41.322643	6.395239
09766		20.340822	40.826681	6.573697
09767		20.446602	40.363142	6.739626
09768		20.595397	39.833123	6.895646
09769		20.677718	39.359413	7.040673
09770		20.763111	38.875631	7.181918
09771		20.849796	38.386665	7.319072
09772		20.962655	37.854941	7.447801
09773		21.040909	37.368884	7.571937
09774		21.124783	36.878509	7.689630
09775		21.210374	36.396278	7.793200
09776		21.337051	35.883159	7.876850
09777		21.413714	35.410816	7.961531
09778		21.478230	34.935619	8.043739
09779		21.524403	34.461388	8.121550
09780		21.549269	33.991555	8.191262
09781		21.588109	33.503277	8.247242
09782		21.580803	33.056709	8.311356
09783		21.565882	32.614199	8.374413
09784		21.553518	32.186474	8.433362
09785		21.548603	31.769596	8.484230
09786		21.549791	31.362348	8.528411
09787		21.610770	30.912152	8.556452
09788		21.612918	30.500245	8.591307
09789		21.617965	30.083347	8.629275
09790		21.611589	29.665553	8.664615
09791		21.595281	29.251065	8.694139
09792		21.565588	28.841510	8.715809
09793		21.522918	28.448283	8.738716
09794		21.467395	28.079100	8.767257
09795		21.407549	27.725062	8.798897
09796		21.341440	27.379178	8.834350
09797		21.261926	27.041692	8.873925
09798		21.174575	26.712875	8.921871
09799		21.079991	26.397849	8.974578
09800		20.967614	26.106410	9.031996
09801		20.853066	25.840696	9.092092
09802		20.748950	25.599318	9.155492
09803		20.669544	25.379307	9.216433
09804		20.621789	25.175336	9.274623
09805		20.593315	24.982633	9.320089
09806		20.587934	24.806748	9.359632
09807		20.603436	24.643315	9.394764
09808		20.624348	24.485852	9.424122
09809		20.647816	24.337832	9.454178
09810		20.674546	24.201072	9.479412
09811		20.708852	24.072501	9.499422
09812		20.738388	23.954244	9.516074
09813		20.764155	23.845594	9.533237
09814		20.784308	23.743625	9.551073
09815		20.800507	23.649015	9.568011
09816		20.811252	23.561130	9.580530
09817		20.814761	23.476067	9.586402
09818		20.813680	23.392077	9.587076
09819		20.807263	23.308067	9.582207
09820		20.790258	23.225128	9.576514
09821		20.770358	23.139173	9.565737
09822		20.750028	23.054731	9.555072
09823		20.727908	22.973241	9.539264
09824		20.690644	22.890100	9.523686
09825		20.692738	22.792756	9.504705
09826		20.646327	22.708781	9.492247
09827		20.594216	22.620888	9.480336
09828		20.546901	22.533091	9.472201
09829		20.496106	22.442370	9.462309
09830		20.449777	22.351043	9.457636
09831		20.409238	22.264546	9.453053
09832		20.374842	22.175466	9.451385
09833		20.348888	22.079503	9.449501
09834		20.322719	21.973926	9.455216
09835		20.316083	21.860808	9.468548
09836		20.303363	21.749051	9.488293
09837		20.274874	21.643776	9.516846
09838		20.249147	21.543068	9.550851
09839		20.223361	21.444754	9.587222
09840		20.197090	21.352717	9.624580
09841		20.177267	21.270129	9.656960
09842		20.160544	21.193821	9.677918
09843		20.149894	21.123950	9.691407
09844		20.148975	21.065736	9.695296
09845		20.158203	21.016870	9.691215
09846		20.173589	20.973485	9.679272
09847		20.184701	20.935363	9.660626
09848		20.192531	20.902848	9.636408
09849		20.192781	20.875706	9.603340
09850		20.189524	20.853451	9.563626
09851		20.176473	20.835425	9.526912
09852		20.161682	20.821004	9.484892
09853		20.146814	20.809086	9.438240
09854		20.132259	20.800960	9.392296
09855		20.118670	20.788697	9.341831
09856		20.106833	20.778246	9.294873
09857		20.092611	20.768425	9.251504
09858		20.082477	20.762185	9.212867
09859		20.068715	20.752117	9.180833
09860		20.058275	20.739475	9.158151
09861		20.046933	20.726223	9.145424
09862		20.043018	20.714069	9.145165
09863		20.040578	20.700719	9.149680
09864		20.041152	20.691274	9.160255
09865		20.042779	20.684677	9.177863
09866		20.048733	20.680096	9.197428
09867		20.064393	20.674505	9.220759
09868		20.082109	20.673090	9.248966
09869		20.107869	20.671906	9.277072
09870		20.135606	20.677328	9.307019
09871		20.163032	20.690699	9.339224
09872		20.188134	20.709476	9.369650
09873		20.206083	20.730935	9.396123
09874		20.218505	20.759507	9.416401
09875		20.228243	20.790363	9.433567
09876		20.242855	20.829554	9.443730
09877		20.259338	20.877050	9.440773
09878		20.276541	20.939608	9.423508
09879		20.299181	21.023697	9.396131
09880		20.324782	21.133218	9.360766
09881		20.351376	21.258974	9.317029
09882		20.375593	21.394857	9.267403
09883		20.396615	21.540099	9.205720
09884		20.416248	21.693569	9.136558
09885		20.441678	21.853845	9.066338
09886		20.465304	22.027899	8.988755
09887		20.497513	22.212680	8.905298
09888		20.534405	22.408663	8.815116
09889		20.571891	22.606371	8.716810
09890		20.612530	22.816376	8.612375
09891		20.652475	23.031452	8.501779
09892		20.691867	23.260453	8.385702
09893		20.731291	23.503529	8.266583
09894		20.761870	23.756276	8.145456
09895		20.788659	24.016132	8.021774
09896		20.809265	24.288750	7.899584
09897		20.826204	24.574523	7.785559
09898		20.834168	24.873609	7.671163
09899		20.839725	25.179135	7.552269
09900		20.845053	25.497879	7.421637
09901		20.859479	25.827757	7.291898
09902		20.874472	26.170535	7.154348
09903		20.893193	26.526294	7.015209
09904		20.913426	26.893155	6.876951
09905		20.932365	27.272492	6.737537
09906		20.959452	27.673458	6.606358
09907		20.995278	28.091337	6.485851
09908		21.041101	28.524142	6.368299
09909		21.091220	28.956450	6.248074
09910		21.150314	29.389777	6.136448
09911		21.208011	29.825672	6.032074
09912		21.269700	30.263061	5.935833
09913		21.345246	30.701098	5.848650
09914		21.434649	31.142182	5.769068
09915		21.533740	31.586396	5.699195
09916		21.643230	32.039454	5.630475
09917		21.753760	32.494340	5.562192
09918		21.858141	32.954083	5.485198
09919		21.960093	33.418755	5.414468
09920		22.051507	33.888240	5.351068
09921		22.133634	34.357482	5.290543
09922		22.214126	34.830969	5.235729
09923		22.290612	35.308198	5.185906
09924		22.370941	35.790024	5.144778
09925		22.457789	36.273945	5.107094
09926		22.552161	36.767028	5.066723
09927		22.641640	37.279613	5.027812
09928		22.725108	37.807198	4.991120
09929		22.799970	38.338885	4.950007
09930		22.888579	38.870268	4.922004
09931		22.985148	39.414704	4.900145
09932		23.102783	39.970984	4.878443
09933		23.244439	40.541411	4.872229
09934		23.412604	41.123910	4.883669
09935		23.585264	41.723003	4.907247
09936		23.761526	42.329487	4.941152
09937		23.942855	42.953465	4.981814
09938		24.144832	43.592970	5.029822
09939		24.367039	44.243808	5.084819
09940		24.610580	44.895588	5.153157
09941		24.890462	45.542419	5.221357
09942		25.199141	46.210230	5.303953
09943		25.528454	46.882642	5.388562
09944		25.864791	47.552299	5.459647
09945		26.201007	48.212134	5.513153
09946		26.526132	48.856120	5.556480
09947		26.849677	49.497738	5.598853
09948		27.184825	50.138455	5.652678
09949		27.518692	50.777068	5.710032
09950		27.851531	51.411576	5.768162
09951		28.190240	52.039773	5.827517
09952		28.523620	52.658731	5.887069
09953		28.838228	53.276776	5.948946
09954		29.136900	53.879429	6.004136
09955		29.424058	54.462778	6.046820
09956		29.690059	55.039733	6.089104
09957		29.936592	55.599991	6.107529
09958		30.165644	56.143367	6.106766
09959		30.368426	56.675096	6.086165
09960		30.541643	57.197232	6.061180
09961		30.688257	57.699592	6.014993
09962		30.813376	58.186338	5.947660
09963		30.916599	58.651660	5.859836
09964		31.005302	59.101965	5.764730
09965		31.072329	59.537615	5.651220
09966		31.120525	59.957792	5.532168
09967		31.133314	60.354553	5.404956
09968		31.129084	60.729575	5.275371
09969		31.093031	61.091707	5.146071
09970		31.032006	61.434881	5.013496
09971		30.957971	61.761572	4.882169
09972		30.861292	62.068594	4.734291
09973		30.753592	62.361524	4.569161
09974		30.636291	62.650523	4.403334
09975		30.513734	62.932601	4.234337
09976		30.381819	63.201579	4.067285
09977		30.238853	63.461597	3.898895
09978		30.096119	63.716186	3.734763
09979		29.948095	63.964486	3.574304
09980		29.786543	64.201811	3.398449
09981		29.616030	64.432432	3.220558
09982		29.446849	64.657362	3.045911
09983		29.272505	64.873658	2.869404
09984		29.100868	65.082966	2.690627
09985		28.940967	65.290398	2.515990
09986		28.797402	65.497223	2.349108
09987		28.659391	65.697979	2.184310
09988		28.523497	65.893445	2.011067
09989		28.382104	66.083573	1.840856
09990		28.222972	66.266499	1.653898
09991		28.061953	66.442486	1.481138
09992		27.901078	66.611874	1.318667
09993		27.742757	66.765762	1.175953
09994		27.600224	66.908185	1.053309
09995		27.474869	67.042786	0.951947
09996		27.384533	67.173226	0.884105
09997		27.325538	67.298027	0.834918
09998		27.288372	67.416309	0.789131
09999		27.255158	67.524639	0.735432
10000		27.241240	67.633644	0.687947
10001		27.235511	67.740314	0.645165
10002		27.230785	67.850700	0.615957
10003		27.228878	67.961759	0.586310
10004		27.231709	68.073385	0.570686
10005		27.237895	68.182409	0.554948
10006		27.244037	68.292309	0.541178
10007		27.256361	68.396719	0.528809
10008		27.270066	68.498107	0.520783
10009		27.278415	68.591739	0.511211
10010		27.278324	68.679822	0.496663
10011		27.277359	68.762399	0.484528
10012		27.265646	68.843533	0.466117
10013		27.249698	68.919395	0.446662
10014		27.219287	68.993763	0.421254
10015		27.180312	69.065391	0.386766
10016		27.128517	69.136966	0.337447
10017		27.061089	69.208185	0.285598
10018		26.988364	69.278294	0.227773
10019		26.893596	69.347474	0.150903
10020		26.793690	69.411986	0.072112
10021		26.682037	69.477966	-0.016928
10022		26.584386	69.541036	-0.098162
10023		26.481592	69.605528	-0.186022
10024		26.377497	69.672889	-0.277802
10025		26.284163	69.740817	-0.352818
10026		26.193726	69.809253	-0.422884
10027		26.084393	69.872553	-0.496630
10028		25.967651	69.937449	-0.563870
10029		25.847183	70.002513	-0.628865
10030		25.719386	70.072182	-0.688994
10031		25.592958	70.142392	-0.761168
10032		25.453969	70.211322	-0.843586
10033		25.307010	70.279613	-0.931917
10034		25.155090	70.341606	-1.023685
10035		25.007847	70.395336	-1.101709
10036		24.867893	70.439549	-1.158826
10037		24.749259	70.469486	-1.180894
10038		24.638749	70.484746	-1.194276
10039		24.540996	70.482742	-1.209139
10040		24.453138	70.477899	-1.228579
10041		24.366732	70.473617	-1.254906
10042		24.284059	70.470192	-1.283722
10043		24.200766	70.470958	-1.318291
10044		24.112011	70.479227	-1.360073
10045		23.994336	70.489049	-1.424344
10046		23.851595	70.497603	-1.515630
10047		23.683570	70.502150	-1.633652
10048		23.514242	70.508186	-1.760448
10049		23.359487	70.518385	-1.870489
10050		23.229547	70.535503	-1.955969
10051		23.118725	70.553457	-2.020325
10052		23.029112	70.571487	-2.064194
10053		22.959059	70.589133	-2.092352
10054		22.907131	70.606918	-2.104181
10055		22.884702	70.625078	-2.103762
10056		22.887614	70.645186	-2.090403
10057		22.916885	70.666828	-2.064146
10058		22.961945	70.692772	-2.027984
10059		23.018535	70.717294	-1.978868
10060		23.083037	70.742262	-1.924859
10061		23.134546	70.766228	-1.881777
10062		23.192745	70.791007	-1.832045
10063		23.241307	70.816317	-1.792256
10064		23.285970	70.844105	-1.756913
10065		23.329276	70.873245	-1.724354
10066		23.379467	70.900378	-1.687363
10067		23.426992	70.922163	-1.651889
10068		23.472698	70.937081	-1.621703
10069		23.521515	70.947257	-1.591433
10070		23.554675	70.954553	-1.572154
10071		23.575101	70.956220	-1.559382
10072		23.591871	70.955445	-1.542500
10073		23.597956	70.953963	-1.531200
10074		23.599828	70.953374	-1.521230
10075		23.595946	70.951577	-1.514808
10076		23.583769	70.946566	-1.511864
10077		23.562320	70.937696	-1.518480
10078		23.540927	70.926401	-1.521338
10079		23.508707	70.911945	-1.535486
10080		23.476188	70.895377	-1.549387
10081		23.448313	70.877622	-1.558366
10082		23.415344	70.859611	-1.568277
10083		23.360413	70.837345	-1.597403
10084		23.293183	70.810730	-1.633791
10085		23.208030	70.782395	-1.683847
10086		23.104626	70.756457	-1.745687
10087		22.990362	70.734527	-1.817445
10088		22.868394	70.712338	-1.898942
10089		22.755647	70.686085	-1.978417
10090		22.655739	70.660960	-2.050259
10091		22.564449	70.637442	-2.115856
10092		22.467071	70.611815	-2.194274
10093		22.372573	70.584877	-2.277742
10094		22.276447	70.555051	-2.363167
10095		22.202926	70.520862	-2.425753
10096		22.131261	70.479234	-2.480546
10097		22.070666	70.432059	-2.515653
10098		22.029261	70.383825	-2.519700
10099		22.000898	70.339117	-2.506243
10100		21.988677	70.287823	-2.469667
10101		21.991273	70.231821	-2.406663
10102		22.018130	70.158419	-2.308678
10103		22.056924	70.070087	-2.187775
10104		22.104487	69.963551	-2.047316
10105		22.158515	69.832969	-1.892341
10106		22.237419	69.681012	-1.705774
10107		22.346001	69.511121	-1.485603
10108		22.471812	69.322254	-1.243072
10109		22.616965	69.117296	-0.973564
10110		22.758963	68.896561	-0.689502
10111		22.901557	68.655477	-0.388913
10112		23.040977	68.395609	-0.082141
10113		23.171055	68.118167	0.229650
10114		23.292671	67.821700	0.551980
10115		23.418341	67.514894	0.876757
10116		23.535871	67.198491	1.198716
10117		23.622587	66.866449	1.518695
10118		23.713857	66.520036	1.855503
10119		23.792847	66.163165	2.201877
10120		23.871006	65.789377	2.537482
10121		23.946005	65.398783	2.872847
10122		24.023732	64.992246	3.209429
10123		24.100369	64.562612	3.546753
10124		24.198215	64.114222	3.899787
10125		24.305750	63.666224	4.279403
10126		24.434220	63.206384	4.669463
10127		24.568757	62.746048	5.056119
10128		24.711602	62.282821	5.443111
10129		24.848355	61.814954	5.814490
10130		24.997438	61.339190	6.183136
10131		25.155467	60.853421	6.536822
10132		25.314032	60.365798	6.889010
10133		25.479089	59.872304	7.242986
10134		25.643232	59.371732	7.584820
10135		25.795703	58.870605	7.917089
10136		25.949626	58.365892	8.246108
10137		26.100635	57.851944	8.559857
10138		26.244778	57.336958	8.850127
10139		26.387170	56.818301	9.129859
10140		26.514790	56.290725	9.393915
10141		26.645604	55.760669	9.663094
10142		26.776094	55.228855	9.929918
10143		26.892156	54.697549	10.187475
10144		26.993305	54.176495	10.440282
10145		27.092860	53.667951	10.686889
10146		27.188993	53.157553	10.921261
10147		27.281358	52.639305	11.137840
10148		27.383831	52.119794	11.343248
10149		27.487089	51.606241	11.539084
10150		27.593565	51.093110	11.724901
10151		27.703131	50.580019	11.903303
10152		27.798017	50.061909	12.072523
10153		27.883338	49.547799	12.242587
10154		27.956984	49.039431	12.409139
10155		28.027824	48.550373	12.572688
10156		28.097285	48.059204	12.735953
10157		28.171071	47.575235	12.901338
10158		28.248362	47.102760	13.064566
10159		28.354471	46.646914	13.231020
10160		28.456296	46.183220	13.379155
10161		28.559257	45.726849	13.519932
10162		28.677859	45.272575	13.669683
10163		28.761478	44.799350	13.809874
10164		28.843598	44.354298	13.945553
10165		28.937216	43.865816	14.077400
10166		28.994271	43.432406	14.206085
10167		29.074943	42.996175	14.339211
10168		29.146093	42.550389	14.459820
10169		29.210634	42.160850	14.584810
10170		29.273287	41.771511	14.702729
10171		29.342298	41.361865	14.810598
10172		29.398514	40.993442	14.916697
10173		29.469642	40.599282	15.016746
10174		29.503361	40.241209	15.118299
10175		29.529808	39.885038	15.218632
10176		29.592024	39.488910	15.314324
10177		29.569015	39.158975	15.406280
10178		29.559050	38.839179	15.503719
10179		29.584129	38.500765	15.600160
10180		29.568216	38.192892	15.686390
10181		29.559279	37.904276	15.778417
10182		29.551851	37.623923	15.864884
10183		29.584063	37.318895	15.950439
10184		29.553005	37.040489	16.029100
10185		29.524984	36.752907	16.110313
10186		29.488077	36.465461	16.191560
10187		29.457899	36.169594	16.265517
10188		29.406887	35.873494	16.331334
10189		29.343884	35.578920	16.398646
10190		29.275793	35.279187	16.459372
10191		29.213954	34.978475	16.518265
10192		29.164052	34.678182	16.577503
10193		29.147386	34.376256	16.628114
10194		29.127921	34.073789	16.670601
10195		29.096711	33.784762	16.718277
10196		29.067819	33.491365	16.757631
10197		29.043206	33.186967	16.794504
10198		29.017424	32.876713	16.827725
10199		28.978296	32.562437	16.861672
10200		28.932096	32.246401	16.893785
10201		28.879860	31.935099	16.920664
10202		28.821873	31.633350	16.943323
10203		28.849704	31.308771	16.944046
10204		28.776172	31.034008	16.961047
10205		28.720795	30.763368	16.979900
10206		28.664724	30.500684	16.996550
10207		28.614363	30.248703	17.013641
10208		28.569907	30.002107	17.023968
10209		28.522898	29.766096	17.032583
10210		28.473997	29.541290	17.044522
10211		28.431695	29.321750	17.054342
10212		28.391522	29.106543	17.069129
10213		28.370074	28.903367	17.082427
10214		28.354652	28.708790	17.099520
10215		28.340610	28.531303	17.116034
10216		28.330193	28.368872	17.135127
10217		28.325054	28.215351	17.152084
10218		28.319751	28.068399	17.167606
10219		28.319192	27.927717	17.187030
10220		28.312631	27.792039	17.201282
10221		28.306145	27.662049	17.217580
10222		28.298963	27.538625	17.235683
10223		28.296798	27.421000	17.253064
10224		28.292885	27.312827	17.270715
10225		28.287330	27.208421	17.283361
10226		28.278654	27.107136	17.293529
10227		28.272531	27.014010	17.304119
10228		28.269114	26.925636	17.315846
10229		28.275772	26.839465	17.330162
10230		28.323631	26.739318	17.334144
10231		28.308318	26.656274	17.344988
10232		28.298916	26.569624	17.358824
10233		28.284531	26.481036	17.374089
10234		28.269105	26.394689	17.389506
10235		28.252941	26.313620	17.406286
10236		28.236145	26.231853	17.427994
10237		28.215461	26.140726	17.441310
10238		28.199532	26.051055	17.458546
10239		28.185924	25.967857	17.478217
10240		28.168645	25.881694	17.495975
10241		28.152719	25.791578	17.512519
10242		28.140644	25.701200	17.529229
10243		28.119480	25.601976	17.551428
10244		28.101637	25.503898	17.577603
10245		28.079959	25.403790	17.601349
10246		28.057123	25.308142	17.627686
10247		28.038499	25.215458	17.652743
10248		28.015500	25.123267	17.675685
10249		27.992151	25.037151	17.698582
10250		27.971791	24.955178	17.720626
10251		27.959832	24.874697	17.741271
10252		27.948360	24.797040	17.759328
10253		27.940305	24.724328	17.775262
10254		27.932320	24.659642	17.786201
10255		27.930822	24.599821	17.792902
10256		27.928715	24.542974	17.791846
10257		27.928279	24.494815	17.789694
10258		27.930578	24.458859	17.787812
10259		27.934836	24.426032	17.783374
10260		27.939751	24.402460	17.776342
10261		27.940962	24.384257	17.772684
10262		27.943530	24.374421	17.772939
10263		27.953736	24.368027	17.770936
10264		27.962810	24.368678	17.771169
10265		27.973985	24.378929	17.775357
10266		27.990397	24.388080	17.776357
10267		28.012228	24.401174	17.777771
10268		28.032663	24.415898	17.780652
10269		28.050345	24.429333	17.785514
10270		28.066774	24.447041	17.789011
10271		28.078508	24.464413	17.791919
10272		28.087186	24.483672	17.791832
10273		28.091031	24.507224	17.793332
10274		28.088770	24.532748	17.793926
10275		28.081955	24.560716	17.797550
10276		28.072338	24.594711	17.795843
10277		28.068664	24.633467	17.784117
10278		28.068946	24.671053	17.766692
10279		28.068133	24.706920	17.749256
10280		28.072377	24.748769	17.730610
10281		28.072593	24.791455	17.704767
10282		28.080200	24.836264	17.675999
10283		28.083802	24.885743	17.649409
10284		28.100189	24.949332	17.624435
10285		28.111294	25.023585	17.601848
10286		28.134052	25.110911	17.579143
10287		28.163318	25.205477	17.558627
10288		28.195654	25.311929	17.540523
10289		28.229986	25.430021	17.519975
10290		28.273685	25.561506	17.495708
10291		28.321989	25.707377	17.471372
10292		28.377916	25.862035	17.439370
10293		28.434598	26.029510	17.412249
10294		28.491554	26.207082	17.382279
10295		28.547908	26.387557	17.349002
10296		28.601044	26.572405	17.319308
10297		28.649447	26.774962	17.295092
10298		28.703320	26.995304	17.275282
10299		28.765474	27.237172	17.254062
10300		28.834392	27.509151	17.234090
10301		28.912327	27.809373	17.202229
10302		28.994491	28.142452	17.165436
10303		29.081679	28.499185	17.127400
10304		29.182333	28.878485	17.091441
10305		29.310022	29.276406	17.058460
10306		29.468959	29.685973	17.028512
10307		29.649218	30.107614	17.008902
10308		29.852956	30.533080	17.006876
10309		30.087389	30.968366	17.022494
10310		30.357039	31.408943	17.055862
10311		30.666734	31.858241	17.098833
10312		31.009388	32.312693	17.150524
10313		31.388650	32.765378	17.210908
10314		31.788890	33.210170	17.271625
10315		32.201400	33.653430	17.325326
10316		32.616930	34.101682	17.371965
10317		33.025828	34.557123	17.412608
10318		33.440961	35.027932	17.437459
10319		33.853402	35.507575	17.467012
10320		34.282636	36.009830	17.507449
10321		34.713852	36.530817	17.551633
10322		35.138160	37.059031	17.595367
10323		35.565015	37.595087	17.633528
10324		35.974305	38.136854	17.650959
10325		36.380516	38.685615	17.649832
10326		36.767150	39.248934	17.630493
10327		37.150436	39.816342	17.600948
10328		37.524612	40.379505	17.562909
10329		37.880189	40.938007	17.519076
10330		38.216626	41.498043	17.465360
10331		38.547966	42.061150	17.391093
10332		38.864606	42.617520	17.304657
10333		39.163054	43.183241	17.212362
10334		39.447262	43.742648	17.120174
10335		39.687586	44.293212	17.015405
10336		39.904002	44.841933	16.911929
10337		40.096641	45.386964	16.794560
10338		40.268790	45.929776	16.660765
10339		40.423818	46.478495	16.509416
10340		40.550274	47.025515	16.344160
10341		40.645356	47.558649	16.163873
10342		40.705195	48.081876	15.974095
10343		40.730168	48.617354	15.794765
10344		40.744663	49.154518	15.630326
10345		40.742368	49.679925	15.452865
10346		40.705317	50.197070	15.256235
10347		40.653981	50.704086	15.051417
10348		40.576754	51.205534	14.826530
10349		40.473580	51.694139	14.591989
10350		40.356442	52.175176	14.347556
10351		40.237798	52.646045	14.108253
10352		40.094035	53.102290	13.861559
10353		39.934372	53.544626	13.614912
10354		39.747378	53.970536	13.375665
10355		39.538272	54.379987	13.134845
10356		39.299643	54.784921	12.885613
10357		39.048601	55.185570	12.640482
10358		38.788429	55.580313	12.385588
10359		38.528669	55.967995	12.114862
10360		38.265019	56.352314	11.816842
10361		37.994643	56.731196	11.506888
10362		37.730426	57.104172	11.183687
10363		37.458139	57.471301	10.851496
10364		37.169912	57.825392	10.510984
10365		36.885632	58.172234	10.166573
10366		36.599393	58.518043	9.840937
10367		36.316232	58.858405	9.532842
10368		36.042486	59.190708	9.242323
10369		35.770145	59.513935	8.958215
10370		35.505590	59.827235	8.674907
10371		35.245948	60.131688	8.398303
10372		34.991041	60.426338	8.119335
10373		34.728651	60.716745	7.823912
10374		34.465851	60.994603	7.515452
10375		34.188119	61.262696	7.200039
10376		33.904735	61.525657	6.877629
10377		33.619202	61.781643	6.562384
10378		33.330403	62.030082	6.265866
10379		33.031343	62.273986	5.974802
10380		32.745906	62.510421	5.699794
10381		32.460472	62.745970	5.421012
10382		32.187326	62.973681	5.143606
10383		31.926516	63.195568	4.861775
10384		31.674790	63.406956	4.589089
10385		31.446425	63.608118	4.323255
10386		31.230518	63.803007	4.075019
10387		31.027997	63.992917	3.839671
10388		30.848520	64.173109	3.614975
10389		30.661968	64.346494	3.386010
10390		30.482731	64.512006	3.169778
10391		30.311647	64.667133	2.954263
10392		30.146897	64.813021	2.737442
10393		29.973173	64.951970	2.516442
10394		29.801725	65.085206	2.296281
10395		29.617832	65.212900	2.064958
10396		29.419431	65.332783	1.829244
10397		29.209194	65.440845	1.579388
10398		28.993328	65.541513	1.325775
10399		28.767313	65.635618	1.070665
10400		28.541899	65.726905	0.825131
10401		28.318823	65.818874	0.596103
10402		28.103619	65.909111	0.379646
10403		27.898730	66.003995	0.171450
10404		27.717483	66.101274	-0.015326
10405		27.543672	66.195250	-0.202969
10406		27.384097	66.286509	-0.387701
10407		27.227323	66.373857	-0.574776
10408		27.083302	66.456467	-0.748691
10409		26.949031	66.536817	-0.901933
10410		26.842853	66.613706	-1.030852
10411		26.751103	66.689442	-1.148935
10412		26.676170	66.762755	-1.245192
10413		26.625519	66.832663	-1.332323
10414		26.575330	66.904321	-1.409115
10415		26.527155	66.972782	-1.485133
10416		26.467195	67.041759	-1.571134
10417		26.396529	67.110049	-1.657632
10418		26.321402	67.178090	-1.749561
10419		26.222767	67.248282	-1.846489
10420		26.122080	67.316782	-1.946064
10421		26.011613	67.387406	-2.062213
10422		25.903197	67.459944	-2.176675
10423		25.805107	67.536211	-2.291740
10424		25.713918	67.613422	-2.400968
10425		25.632593	67.681206	-2.494888
10426		25.584636	67.736101	-2.538545
10427		25.581830	67.777449	-2.535192
10428		25.588727	67.799845	-2.509322
10429		25.615139	67.801661	-2.477159
10430		25.645064	67.800154	-2.449804
10431		25.678071	67.798144	-2.420241
10432		25.718515	67.796514	-2.377075
10433		25.762482	67.794592	-2.322122
10434		25.807835	67.790897	-2.265328
10435		25.834807	67.785322	-2.221679
10436		25.829577	67.778853	-2.207456
10437		25.773933	67.772725	-2.241480
10438		25.691480	67.764910	-2.304369
10439		25.596896	67.759019	-2.384141
10440		25.504761	67.757162	-2.466448
10441		25.424204	67.760717	-2.538291
10442		25.347813	67.767839	-2.601621
10443		25.266349	67.771550	-2.659115
10444		25.182577	67.775121	-2.716861
10445		25.111888	67.776917	-2.770102
10446		25.049778	67.778755	-2.824827
10447		25.003990	67.781373	-2.870314
10448		24.972294	67.784982	-2.905775
10449		24.946932	67.788976	-2.931841
10450		24.932147	67.795935	-2.939663
10451		24.921425	67.803887	-2.935432
10452		24.913057	67.810531	-2.923374
10453		24.903188	67.814542	-2.912236
10454		24.893928	67.821416	-2.899093
10455		24.878208	67.828318	-2.893559
10456		24.858959	67.837462	-2.892126
10457		24.838271	67.847014	-2.893287
10458		24.814834	67.854188	-2.898710
10459		24.793169	67.861614	-2.903426
10460		24.777488	67.872163	-2.901755
10461		24.755867	67.881950	-2.901868
10462		24.732377	67.890467	-2.906631
10463		24.704651	67.892683	-2.921389
10464		24.685063	67.893379	-2.934655
10465		24.670500	67.894174	-2.943872
10466		24.652803	67.899451	-2.953226
10467		24.633695	67.900756	-2.964117
10468		24.606818	67.901985	-2.982876
10469		24.584993	67.904335	-2.993708
10470		24.561374	67.909117	-3.003854
10471		24.541425	67.914036	-3.005197
10472		24.525565	67.917486	-3.004065
10473		24.512417	67.919284	-3.000821
10474		24.501155	67.926269	-2.995843
10475		24.493091	67.932169	-2.982251
10476		24.480883	67.937028	-2.980802
10477		24.472737	67.939877	-2.978853
10478		24.465948	67.942972	-2.980685
10479		24.461453	67.947231	-2.978423
10480		24.456038	67.952670	-2.980433
10481		24.448262	67.954027	-2.993109
10482		24.442259	67.952489	-3.008401
10483		24.439477	67.953547	-3.023091
10484		24.437156	67.955784	-3.033480
10485		24.438044	67.954230	-3.036654
10486		24.438446	67.950376	-3.039766
10487		24.441590	67.944863	-3.040736
10488		24.449277	67.937438	-3.036617
10489		24.470666	67.930243	-3.020674
10490		24.493830	67.921496	-3.006637
10491		24.509234	67.913795	-3.004851
10492		24.526936	67.909486	-2.999466
10493		24.536903	67.905563	-3.000008
10494		24.543232	67.903202	-2.998466
10495		24.538191	67.901501	-3.005592
10496		24.526294	67.899146	-3.018503
10497		24.503480	67.897329	-3.040618
10498		24.480654	67.894430	-3.062477
10499		24.457817	67.888559	-3.086732
10500		24.448173	67.879871	-3.102000
10501		24.448105	67.870461	-3.108390
10502		24.449821	67.856136	-3.111792
10503		24.455164	67.838240	-3.111698
10504		24.456848	67.817852	-3.111655
10505		24.455784	67.793866	-3.111524
10506		24.454242	67.762164	-3.114141
10507		24.460290	67.719791	-3.101397
10508		24.470315	67.671573	-3.071940
10509		24.478822	67.618061	-3.044817
10510		24.494101	67.561306	-3.022299
10511		24.518563	67.498122	-2.990945
10512		24.531591	67.430710	-2.955855
10513		24.535154	67.353997	-2.910731
10514		24.550353	67.266200	-2.843884
10515		24.573728	67.170089	-2.762547
10516		24.625944	67.067856	-2.640031
10517		24.695541	66.956909	-2.485275
10518		24.751426	66.830106	-2.335390
10519		24.774407	66.677511	-2.216671
10520		24.774495	66.503603	-2.121020
10521		24.771257	66.314165	-2.023637
10522		24.767516	66.114561	-1.903369
10523		24.759879	65.911923	-1.765274
10524		24.751045	65.708757	-1.611358
10525		24.737980	65.484883	-1.449829
10526		24.716018	65.233635	-1.288893
10527		24.703054	64.964965	-1.103247
10528		24.700803	64.682336	-0.890940
10529		24.707091	64.379600	-0.660642
10530		24.726301	64.053991	-0.416511
10531		24.742219	63.705549	-0.174797
10532		24.779129	63.334477	0.087122
10533		24.815753	62.948115	0.359528
10534		24.835494	62.535831	0.629444
10535		24.847934	62.104389	0.897896
10536		24.853016	61.658514	1.174050
10537		24.851809	61.202609	1.460324
10538		24.851371	60.736675	1.755405
10539		24.864721	60.262689	2.064983
10540		24.889752	59.786219	2.381863
10541		24.927461	59.305337	2.701519
10542		24.976039	58.810816	3.021358
10543		25.030965	58.312266	3.327698
10544		25.099366	57.807374	3.634607
10545		25.178487	57.293808	3.941387
10546		25.262338	56.779039	4.245705
10547		25.355679	56.261408	4.546746
10548		25.454472	55.740873	4.843255
10549		25.546339	55.222482	5.136517
10550		25.646070	54.700479	5.433384
10551		25.746361	54.182145	5.733076
10552		25.843474	53.662323	6.025435
10553		25.932543	53.141781	6.306695
10554		26.020564	52.627118	6.585706
10555		26.107253	52.113536	6.860904
10556		26.205659	51.594528	7.136440
10557		26.309525	51.068266	7.408074
10558		26.410220	50.551388	7.668223
10559		26.512146	50.045659	7.916509
10560		26.608039	49.550666	8.145036
10561		26.693599	49.056950	8.350977
10562		26.773250	48.568966	8.540032
10563		26.860935	48.088395	8.714787
10564		26.952843	47.605564	8.882484
10565		27.049359	47.128482	9.046365
10566		27.145644	46.662335	9.217138
10567		27.249298	46.206086	9.378226
10568		27.355234	45.745997	9.528314
10569		27.457626	45.292943	9.672180
10570		27.555518	44.842823	9.814705
10571		27.652136	44.390184	9.952618
10572		27.749837	43.939216	10.093135
10573		27.835817	43.491093	10.222973
10574		27.912402	43.046602	10.346129
10575		27.982810	42.605211	10.460667
10576		28.033029	42.176104	10.572243
10577		28.085757	41.735963	10.677441
10578		28.123048	41.316354	10.787948
10579		28.162708	40.897204	10.898541
10580		28.199291	40.469696	11.015417
10581		28.238150	40.036124	11.130588
10582		28.289000	39.606667	11.250241
10583		28.335198	39.184392	11.372671
10584		28.396478	38.746581	11.495177
10585		28.469995	38.301967	11.612318
10586		28.504123	37.881943	11.731949
10587		28.567538	37.438648	11.853634
10588		28.591355	37.023188	11.977360
10589		28.644092	36.595419	12.101125
10590		28.669976	36.188609	12.224195
10591		28.708375	35.792383	12.350404
10592		28.720100	35.422059	12.469999
10593		28.755621	35.045717	12.577296
10594		28.781300	34.670971	12.670892
10595		28.761200	34.313705	12.769265
10596		28.760280	33.940293	12.867310
10597		28.746120	33.571549	12.960420
10598		28.739051	33.198867	13.041837
10599		28.689195	32.866972	13.131693
10600		28.678922	32.525909	13.212759
10601		28.623064	32.220870	13.300560
10602		28.603899	31.908232	13.381665
10603		28.562178	31.619992	13.461035
10604		28.554810	31.316307	13.524027
10605		28.522193	31.015517	13.581448
10606		28.494417	30.716167	13.632528
10607		28.507158	30.392531	13.677098
10608		28.459372	30.087693	13.728243
10609		28.431546	29.788310	13.776680
10610		28.398751	29.490166	13.823676
10611		28.348765	29.214301	13.872888
10612		28.319145	28.934585	13.911854
10613		28.252427	28.676672	13.954097
10614		28.190797	28.423869	13.995493
10615		28.154945	28.166618	14.030071
10616		28.095500	27.923053	14.062140
10617		28.044063	27.682920	14.089785
10618		28.001096	27.451197	14.110304
10619		27.968681	27.222975	14.124960
10620		27.949419	26.997378	14.139202
10621		27.913858	26.788617	14.159254
10622		27.883579	26.594536	14.188002
10623		27.865314	26.417547	14.220866
10624		27.878582	26.243318	14.245060
10625		27.930058	26.068672	14.246247
10626		27.935789	25.942447	14.270654
10627		27.946812	25.812538	14.295169
10628		27.968306	25.686350	14.319325
10629		27.990975	25.556682	14.337885
10630		28.010798	25.429735	14.355782
10631		28.025825	25.304826	14.372807
10632		28.030797	25.186714	14.388340
10633		28.027624	25.072520	14.403587
10634		28.094259	24.921741	14.400382
10635		28.070861	24.826787	14.414394
10636		28.064784	24.736064	14.433458
10637		28.061303	24.652376	14.447200
10638		28.054399	24.571484	14.463506
10639		28.045606	24.499792	14.476305
10640		28.037667	24.432058	14.488890
10641		28.030884	24.364849	14.505044
10642		28.027273	24.293686	14.521671
10643		28.027121	24.215112	14.542562
10644		28.024542	24.128692	14.567025
10645		28.018442	24.041653	14.589635
10646		28.008813	23.955932	14.614340
10647		27.990559	23.878211	14.639703
10648		27.975406	23.802860	14.665559
10649		27.967731	23.729513	14.688892
10650		27.965680	23.661445	14.714827
10651		27.973827	23.592114	14.737794
10652		27.980084	23.526134	14.760667
10653		27.985043	23.463167	14.785649
10654		27.983738	23.399132	14.806118
10655		27.981675	23.334051	14.827833
10656		27.974804	23.268669	14.848702
10657		27.962608	23.203976	14.868959
10658		27.954120	23.142639	14.885741
10659		27.941714	23.078816	14.905338
10660		27.926703	23.018352	14.928059
10661		27.915322	22.959488	14.949675
10662		27.905679	22.909080	14.971785
10663		27.900333	22.861649	14.992597
10664		27.892195	22.820929	15.015548
10665		27.882295	22.782669	15.031230
10666		27.876617	22.749007	15.045771
10667		27.868251	22.717597	15.058788
10668		27.857485	22.686906	15.068866
10669		27.841388	22.655809	15.081624
10670		27.813951	22.624522	15.092001
10671		27.787851	22.594289	15.107104
10672		27.763897	22.565892	15.124616
10673		27.739811	22.540213	15.142960
10674		27.723424	22.525141	15.159960
10675		27.710364	22.512391	15.177643
10676		27.695207	22.504930	15.193783
10677		27.679743	22.503520	15.209766
10678		27.667964	22.504035	15.221732
10679		27.652905	22.506479	15.229083
10680		27.638154	22.509252	15.236548
10681		27.624136	22.509905	15.242144
10682		27.611087	22.512274	15.247669
10683		27.602052	22.515457	15.250207
10684		27.603039	22.519942	15.249079
10685		27.605896	22.527727	15.251761
10686		27.608772	22.537690	15.253105
10687		27.617887	22.549675	15.255646
10688		27.632088	22.564381	15.257793
10689		27.643158	22.582916	15.259547
10690		27.659370	22.605259	15.257638
10691		27.676897	22.625302	15.253233
10692		27.690223	22.642191	15.243855
10693		27.700501	22.658049	15.234592
10694		27.718273	22.678038	15.226572
10695		27.738222	22.706475	15.216786
10696		27.758089	22.744817	15.208671
10697		27.775098	22.788633	15.198102
10698		27.791396	22.832854	15.182649
10699		27.808237	22.881061	15.167894
10700		27.829196	22.928951	15.155052
10701		27.854398	22.981023	15.143992
10702		27.889704	23.035284	15.136865
10703		27.926504	23.090211	15.128246
10704		27.966955	23.149978	15.119194
10705		28.010848	23.213420	15.111444
10706		28.058588	23.278373	15.104248
10707		28.107398	23.343185	15.096965
10708		28.153874	23.410348	15.087263
10709		28.199943	23.475532	15.077078
10710		28.250448	23.544933	15.070353
10711		28.307970	23.612730	15.065369
10712		28.373166	23.683743	15.062602
10713		28.447265	23.762040	15.060726
10714		28.526107	23.839888	15.060320
10715		28.608160	23.920701	15.060203
10716		28.685645	24.004412	15.060323
10717		28.764956	24.095968	15.064168
10718		28.855052	24.195810	15.071789
10719		28.953976	24.302403	15.076809
10720		29.057696	24.415895	15.080338
10721		29.159326	24.528766	15.082262
10722		29.257548	24.636853	15.086413
10723		29.355086	24.742445	15.095371
10724		29.454033	24.858116	15.106527
10725		29.549679	24.978420	15.123288
10726		29.641519	25.101828	15.143566
10727		29.739452	25.238803	15.164878
10728		29.846457	25.386100	15.182123
10729		29.947795	25.545288	15.194502
10730		30.046549	25.722377	15.207009
10731		30.148047	25.913484	15.218371
10732		30.264175	26.118620	15.223230
10733		30.379691	26.318489	15.227107
10734		30.494434	26.519952	15.238769
10735		30.605402	26.722051	15.256718
10736		30.729313	26.933317	15.275780
10737		30.860085	27.161401	15.296673
10738		31.002984	27.415248	15.318865
10739		31.157413	27.684983	15.342211
10740		31.324937	27.967534	15.359094
10741		31.496375	28.255814	15.371468
10742		31.673035	28.547018	15.387510
10743		31.847777	28.845760	15.400915
10744		32.023194	29.156606	15.419640
10745		32.193633	29.485587	15.440651
10746		32.360473	29.835312	15.464314
10747		32.521082	30.207638	15.478190
10748		32.683704	30.591148	15.492253
10749		32.845617	30.979044	15.496032
10750		33.019377	31.379766	15.503373
10751		33.202543	31.797843	15.512975
10752		33.396152	32.239710	15.519583
10753		33.597987	32.702000	15.512937
10754		33.806093	33.176997	15.477603
10755		34.014621	33.654794	15.422113
10756		34.223552	34.139606	15.364167
10757		34.437787	34.632604	15.310268
10758		34.661814	35.145035	15.267331
10759		34.900350	35.672297	15.229093
10760		35.151702	36.222669	15.189564
10761		35.414151	36.801450	15.137574
10762		35.667527	37.399704	15.065773
10763		35.903948	38.013254	14.984099
10764		36.136657	38.639768	14.891475
10765		36.365934	39.269684	14.795491
10766		36.571359	39.901340	14.706237
10767		36.764822	40.522502	14.617316
10768		36.941088	41.149037	14.525009
10769		37.095067	41.780511	14.439561
10770		37.232650	42.414028	14.349171
10771		37.346776	43.055082	14.247330
10772		37.449980	43.694735	14.124964
10773		37.540789	44.333203	13.985702
10774		37.626883	44.961817	13.834428
10775		37.702260	45.573481	13.677144
10776		37.754943	46.175599	13.524464
10777		37.800918	46.776817	13.371129
10778		37.820343	47.370115	13.204246
10779		37.816314	47.964495	13.027512
10780		37.797324	48.545884	12.833023
10781		37.758053	49.125385	12.639219
10782		37.714821	49.697995	12.459164
10783		37.674243	50.265830	12.290710
10784		37.633456	50.830558	12.120977
10785		37.585831	51.391440	11.935573
10786		37.517145	51.942073	11.728983
10787		37.436872	52.481994	11.508377
10788		37.353608	53.010834	11.278600
10789		37.265425	53.526464	11.043283
10790		37.159768	54.029721	10.787538
10791		37.042463	54.524108	10.518939
10792		36.899374	55.010073	10.246539
10793		36.737467	55.481685	9.956505
10794		36.552979	55.947338	9.666933
10795		36.363289	56.402317	9.371129
10796		36.163429	56.850247	9.068469
10797		35.953880	57.295363	8.757833
10798		35.738204	57.734398	8.438813
10799		35.507080	58.163501	8.108996
10800		35.263567	58.584551	7.776371
10801		35.003111	58.990613	7.437887
10802		34.726758	59.384444	7.092925
10803		34.432488	59.769118	6.748609
10804		34.132108	60.148637	6.407665
10805		33.834015	60.513587	6.067381
10806		33.534545	60.865029	5.726001
10807		33.240107	61.205810	5.387924
10808		32.947334	61.536280	5.052934
10809		32.659699	61.857590	4.718799
10810		32.372428	62.170897	4.384692
10811		32.084157	62.471017	4.049287
10812		31.798535	62.757324	3.720750
10813		31.516107	63.029396	3.403594
10814		31.232075	63.291298	3.092021
10815		30.947614	63.542921	2.787005
10816		30.666041	63.783519	2.484010
10817		30.380045	64.013901	2.184429
10818		30.094822	64.235039	1.886240
10819		29.820192	64.442219	1.600420
10820		29.537732	64.639026	1.313600
10821		29.259773	64.828984	1.038302
10822		28.982215	65.010798	0.765658
10823		28.707008	65.183852	0.497630
10824		28.430730	65.347066	0.239341
10825		28.156320	65.499664	-0.008254
10826		27.889885	65.640488	-0.245727
10827		27.631334	65.771868	-0.472863
10828		27.390909	65.896305	-0.676619
10829		27.169578	66.014039	-0.865446
10830		26.964110	66.121187	-1.035429
10831		26.773957	66.221364	-1.203541
10832		26.596494	66.313172	-1.364827
10833		26.427992	66.400225	-1.518934
10834		26.267975	66.482317	-1.665169
10835		26.117818	66.558791	-1.798996
10836		25.974556	66.631648	-1.927935
10837		25.835213	66.701137	-2.052102
10838		25.706291	66.769895	-2.169494
10839		25.590199	66.835086	-2.284272
10840		25.473408	66.898721	-2.384944
10841		25.374149	66.961003	-2.479747
10842		25.284924	67.020711	-2.561577
10843		25.202708	67.078478	-2.633762
10844		25.136311	67.130601	-2.696627
10845		25.063176	67.183978	-2.765668
10846		24.991196	67.236657	-2.830226
10847		24.920770	67.294379	-2.888234
10848		24.853331	67.351933	-2.940012
10849		24.779033	67.406718	-3.000229
10850		24.685796	67.455359	-3.077287
10851		24.585882	67.499065	-3.157994
10852		24.474099	67.535695	-3.247088
10853		24.356476	67.569049	-3.320874
10854		24.236363	67.598561	-3.388049
10855		24.124434	67.619618	-3.439788
10856		24.037097	67.631959	-3.468443
10857		23.983423	67.635509	-3.474048
10858		23.954952	67.638670	-3.455823
10859		23.948999	67.631520	-3.414268
10860		23.959816	67.622816	-3.360319
10861		23.980238	67.615254	-3.303015
10862		23.998445	67.600944	-3.249461
10863		24.021092	67.585371	-3.192124
10864		24.043407	67.570986	-3.139489
10865		24.049045	67.558510	-3.102302
10866		24.035332	67.550150	-3.081701
10867		23.990214	67.543884	-3.090612
10868		23.918638	67.541248	-3.125322
10869		23.835330	67.539308	-3.180460
10870		23.747250	67.535333	-3.247190
10871		23.663056	67.530960	-3.315047
10872		23.586115	67.532842	-3.383105
10873		23.522370	67.536602	-3.441238
10874		23.470168	67.545485	-3.491824
10875		23.415299	67.551927	-3.541508
10876		23.363471	67.558981	-3.590257
10877		23.304818	67.565313	-3.639662
10878		23.244159	67.569837	-3.687571
10879		23.186727	67.572099	-3.730655
10880		23.134464	67.574744	-3.765414
10881		23.092484	67.578690	-3.787922
10882		23.052259	67.586879	-3.800303
10883		23.008846	67.597469	-3.815496
10884		22.972057	67.606424	-3.821434
10885		22.927790	67.616216	-3.839374
10886		22.889467	67.625586	-3.856265
10887		22.849142	67.634739	-3.881378
10888		22.822044	67.644654	-3.902400
10889		22.809223	67.655268	-3.918302
10890		22.791343	67.667555	-3.940769
10891		22.772089	67.678095	-3.960135
10892		22.741250	67.688241	-3.984002
10893		22.704593	67.696092	-4.010221
10894		22.669324	67.700986	-4.035334
10895		22.629469	67.708947	-4.064852
10896		22.586934	67.720934	-4.092849
10897		22.535398	67.732417	-4.128937
10898		22.483286	67.744747	-4.166814
10899		22.433819	67.751361	-4.203788
10900		22.380910	67.761520	-4.245075
10901		22.332283	67.767552	-4.280020
10902		22.274957	67.774103	-4.324993
10903		22.214086	67.780453	-4.373580
10904		22.158584	67.786175	-4.417529
10905		22.108684	67.790124	-4.455362
10906		22.066825	67.795128	-4.487245
10907		22.024837	67.797123	-4.520661
10908		21.993397	67.797923	-4.548140
10909		21.964180	67.799773	-4.571550
10910		21.944532	67.800671	-4.588011
10911		21.929984	67.801598	-4.600322
10912		21.917022	67.805170	-4.612624
10913		21.902597	67.810027	-4.623650
10914		21.883490	67.814418	-4.636229
10915		21.867496	67.819315	-4.642665
10916		21.851064	67.823711	-4.651471
10917		21.839770	67.826478	-4.653633
10918		21.832876	67.830545	-4.652594
10919		21.824266	67.833322	-4.650974
10920		21.818164	67.832905	-4.649121
10921		21.820536	67.831382	-4.643533
10922		21.824375	67.833848	-4.637337
10923		21.827701	67.835392	-4.625275
10924		21.826680	67.839356	-4.617161
10925		21.826286	67.842790	-4.610380
10926		21.823248	67.843611	-4.604638
10927		21.820710	67.845253	-4.599638
10928		21.822014	67.847991	-4.587823
10929		21.821052	67.851231	-4.577437
10930		21.822860	67.853849	-4.566112
10931		21.831852	67.854687	-4.553253
10932		21.831725	67.859755	-4.545512
10933		21.837589	67.864318	-4.531544
10934		21.833917	67.868265	-4.527174
10935		21.832289	67.872995	-4.528163
10936		21.831798	67.880470	-4.528595
10937		21.828562	67.886907	-4.527485
10938		21.826755	67.891722	-4.524510
10939		21.829234	67.892151	-4.512015
10940		21.849583	67.890282	-4.481693
10941		21.879464	67.889031	-4.441776
10942		21.925775	67.880850	-4.387544
10943		21.972596	67.865202	-4.334191
10944		22.016829	67.850511	-4.277475
10945		22.052037	67.835618	-4.219620
10946		22.085733	67.816437	-4.151938
10947		22.129384	67.791400	-4.068563
10948		22.177695	67.759814	-3.963319
10949		22.232506	67.717476	-3.838529
10950		22.272439	67.653692	-3.708350
10951		22.318408	67.574476	-3.554797
10952		22.359086	67.478534	-3.384940
10953		22.386687	67.365824	-3.206651
10954		22.400358	67.240083	-3.018476
10955		22.401265	67.102790	-2.820480
10956		22.408224	66.949187	-2.602581
10957		22.411510	66.778898	-2.374497
10958		22.414292	66.597762	-2.131189
10959		22.423502	66.405529	-1.876841
10960		22.441564	66.201430	-1.608771
10961		22.466156	65.983819	-1.326679
10962		22.491597	65.744092	-1.041568
10963		22.523785	65.477163	-0.742691
10964		22.562380	65.187530	-0.428279
10965		22.599759	64.877796	-0.103324
10966		22.628602	64.543670	0.217376
10967		22.652584	64.187771	0.546839
10968		22.666869	63.811556	0.874477
10969		22.674647	63.417746	1.205360
10970		22.674217	63.006216	1.531380
10971		22.664099	62.584994	1.849141
10972		22.646405	62.148583	2.163364
10973		22.626684	61.704661	2.471426
10974		22.596132	61.249639	2.764060
10975		22.568753	60.782682	3.046419
10976		22.537977	60.305107	3.310015
10977		22.510367	59.824291	3.566171
10978		22.490248	59.335622	3.821570
10979		22.481775	58.840012	4.084909
10980		22.483403	58.351136	4.348923
10981		22.497322	57.865645	4.612659
10982		22.510587	57.383200	4.853568
10983		22.513280	56.893431	5.060459
10984		22.519590	56.403365	5.251943
10985		22.531581	55.905074	5.438606
10986		22.554187	55.419022	5.639591
10987		22.585415	54.939408	5.858449
10988		22.623681	54.466384	6.088692
10989		22.671915	53.990203	6.316728
10990		22.729410	53.517926	6.553674
10991		22.787288	53.049761	6.792827
10992		22.850770	52.577955	7.026131
10993		22.913534	52.102599	7.253003
10994		22.974544	51.630978	7.471580
10995		23.029990	51.152573	7.679874
10996		23.082394	50.665642	7.885474
10997		23.137983	50.186118	8.089063
10998		23.193176	49.703097	8.276861
10999		23.252541	49.227659	8.452953
11000		23.332650	48.747612	8.624957
11001		23.412078	48.256260	8.782902
11002		23.494234	47.768855	8.938945
11003		23.572169	47.284247	9.090127
11004		23.653924	46.797895	9.239290
11005		23.735195	46.308706	9.382737
11006		23.801143	45.816874	9.514029
11007		23.858956	45.328094	9.637389
11008		23.905198	44.837530	9.753337
11009		23.937154	44.365585	9.865920
11010		23.977465	43.875634	9.969242
11011		24.026657	43.386524	10.067754
11012		24.054054	42.908663	10.155444
11013		24.083508	42.434818	10.243994
11014		24.114073	41.967858	10.324705
11015		24.148388	41.506582	10.397484
11016		24.183992	41.065757	10.466910
11017		24.227260	40.622725	10.527429
11018		24.262926	40.181894	10.581215
11019		24.317405	39.741169	10.638954
11020		24.369004	39.312228	10.693869
11021		24.421814	38.893360	10.756163
11022		24.463275	38.497091	10.825801
11023		24.506238	38.111652	10.895303
11024		24.571214	37.725598	10.965658
11025		24.635612	37.340103	11.034926
11026		24.696397	36.974837	11.107036
11027		24.802116	36.576192	11.168739
11028		24.839466	36.212291	11.236959
11029		24.875358	35.863656	11.314224
11030		24.933562	35.495597	11.380884
11031		24.951954	35.144293	11.447802
11032		24.969647	34.817918	11.524204
11033		25.020099	34.483503	11.596475
11034		25.020029	34.179663	11.665220
11035		25.016412	33.887609	11.741201
11036		25.035269	33.585565	11.811560
11037		25.018510	33.296868	11.880948
11038		24.993042	33.019765	11.951953
11039		24.965108	32.752998	12.023252
11040		24.938825	32.490046	12.092271
11041		24.961502	32.205292	12.144414
11042		24.921542	31.952416	12.197362
11043		24.896499	31.709062	12.244994
11044		24.859590	31.474332	12.285965
11045		24.822215	31.248359	12.319658
11046		24.777831	31.027861	12.336871
11047		24.696279	30.833028	12.352250
11048		24.592986	30.650653	12.358545
11049		24.475463	30.481837	12.356822
11050		24.414397	30.294230	12.335569
11051		24.290051	30.137605	12.308803
11052		24.156360	30.007823	12.298344
11053		24.010971	29.885680	12.279285
11054		23.869587	29.767276	12.253472
11055		23.745575	29.637280	12.215451
11056		23.617919	29.506363	12.172984
11057		23.473778	29.386099	12.137046
11058		23.333929	29.260308	12.101281
11059		23.197853	29.131577	12.063708
11060		23.068071	29.003401	12.030074
11061		22.939746	28.869889	11.996194
11062		22.854809	28.721842	11.955565
11063		22.729828	28.583386	11.922084
11064		22.620577	28.444441	11.892664
11065		22.511327	28.307164	11.867799
11066		22.407956	28.166872	11.847243
11067		22.309752	28.021617	11.830205
11068		22.213106	27.872208	11.820208
11069		22.123901	27.723242	11.812909
11070		22.040402	27.571261	11.812428
11071		21.960533	27.422350	11.811628
11072		21.892073	27.268478	11.804960
11073		21.832817	27.116190	11.796767
11074		21.788726	26.969233	11.782921
11075		21.752213	26.827331	11.767556
11076		21.729227	26.690345	11.751620
11077		21.712178	26.555901	11.732560
11078		21.702476	26.425041	11.713796
11079		21.699160	26.295046	11.693387
11080		21.692611	26.163985	11.672908
11081		21.684462	26.035217	11.650733
11082		21.669290	25.909458	11.628599
11083		21.649913	25.784975	11.612035
11084		21.629233	25.665067	11.592580
11085		21.612165	25.552795	11.573614
11086		21.601637	25.455720	11.557424
11087		21.602388	25.372629	11.539106
11088		21.603088	25.296038	11.520637
11089		21.598088	25.222763	11.504805
11090		21.592081	25.156956	11.491231
11091		21.587742	25.091670	11.480507
11092		21.579459	25.028537	11.473633
11093		21.568451	24.970149	11.470325
11094		21.558575	24.916519	11.465184
11095		21.551891	24.866843	11.460977
11096		21.547570	24.825319	11.458132
11097		21.550592	24.788892	11.455862
11098		21.561573	24.758266	11.457033
11099		21.577489	24.737202	11.458742
11100		21.594935	24.721653	11.457182
11101		21.608867	24.703368	11.460400
11102		21.619795	24.688753	11.462092
11103		21.633719	24.670463	11.465304
11104		21.649811	24.650631	11.466394
11105		21.668684	24.632497	11.469392
11106		21.691913	24.618274	11.471829
11107		21.716530	24.602330	11.475516
11108		21.741176	24.584576	11.480378
11109		21.772187	24.561341	11.488816
11110		21.802816	24.539499	11.497286
11111		21.831830	24.519030	11.507227
11112		21.860083	24.494717	11.517438
11113		21.885733	24.466667	11.529984
11114		21.912986	24.440260	11.541818
11115		21.944755	24.408140	11.555404
11116		21.974966	24.376191	11.569897
11117		22.002362	24.344370	11.586731
11118		22.031934	24.317970	11.599689
11119		22.062830	24.295246	11.611729
11120		22.090212	24.273979	11.625819
11121		22.111962	24.252358	11.635476
11122		22.138282	24.233201	11.641656
11123		22.175411	24.216680	11.644201
11124		22.212551	24.203199	11.642088
11125		22.246104	24.197779	11.640461
11126		22.273547	24.195550	11.635654
11127		22.302332	24.195469	11.629570
11128		22.329394	24.201004	11.624817
11129		22.352276	24.210190	11.620025
11130		22.377205	24.225420	11.617628
11131		22.399725	24.245383	11.613697
11132		22.428200	24.268230	11.606209
11133		22.459834	24.293992	11.602971
11134		22.493886	24.327420	11.597469
11135		22.530469	24.367201	11.590666
11136		22.569864	24.411436	11.582748
11137		22.618329	24.464686	11.574827
11138		22.671558	24.519600	11.564304
11139		22.720148	24.573761	11.550708
11140		22.767624	24.629493	11.540402
11141		22.813162	24.689389	11.537558
11142		22.858966	24.755150	11.535428
11143		22.902726	24.827773	11.530891
11144		22.939653	24.902827	11.529694
11145		22.971991	24.979211	11.529512
11146		23.002045	25.061365	11.531410
11147		23.039837	25.151141	11.536891
11148		23.096183	25.252632	11.533658
11149		23.167488	25.350737	11.528615
11150		23.248231	25.453498	11.526985
11151		23.329536	25.563698	11.525537
11152		23.422115	25.679082	11.519896
11153		23.520303	25.796051	11.510206
11154		23.616935	25.918664	11.499718
11155		23.701377	26.046709	11.495691
11156		23.789553	26.191616	11.495006
11157		23.874398	26.344370	11.490263
11158		23.967955	26.502166	11.482928
11159		24.058512	26.659126	11.477175
11160		24.146918	26.819347	11.476781
11161		24.233908	26.985108	11.477139
11162		24.326172	27.155218	11.478318
11163		24.424586	27.326633	11.475151
11164		24.520175	27.504823	11.469377
11165		24.615420	27.691106	11.466720
11166		24.709576	27.880852	11.456184
11167		24.804637	28.069745	11.437150
11168		24.895262	28.264586	11.409247
11169		24.972801	28.465273	11.378815
11170		25.035056	28.665889	11.340517
11171		25.091778	28.864308	11.296757
11172		25.136333	29.060217	11.245911
11173		25.172933	29.252937	11.193975
11174		25.208219	29.451161	11.138072
11175		25.251357	29.655358	11.076073
11176		25.301592	29.874499	11.012658
11177		25.354111	30.109690	10.952300
11178		25.410055	30.361487	10.891051
11179		25.470962	30.622692	10.828078
11180		25.535046	30.887138	10.765083
11181		25.598964	31.156218	10.706491
11182		25.669546	31.436468	10.647391
11183		25.747412	31.734079	10.590127
11184		25.829529	32.052939	10.534790
11185		25.916371	32.393425	10.479176
11186		26.012346	32.753894	10.417951
11187		26.106051	33.131846	10.354124
11188		26.197119	33.527596	10.286248
11189		26.288155	33.926168	10.214721
11190		26.369795	34.335045	10.124953
11191		26.462069	34.745766	10.040987
11192		26.545626	35.165429	9.955139
11193		26.633156	35.599569	9.871765
11194		26.716223	36.059613	9.779311
11195		26.798971	36.532923	9.683345
11196		26.889189	37.037991	9.587404
11197		26.978177	37.561444	9.475447
11198		27.074017	38.102890	9.362801
11199		27.183711	38.658385	9.252588
11200		27.307007	39.224308	9.150332
11201		27.438568	39.801384	9.044019
11202		27.573241	40.383758	8.934954
11203		27.714284	40.971992	8.815500
11204		27.858516	41.561259	8.684999
11205		27.997719	42.167456	8.547805
11206		28.135579	42.797422	8.406707
11207		28.265682	43.439701	8.257302
11208		28.379987	44.105282	8.089656
11209		28.475606	44.778257	7.906986
11210		28.545273	45.450677	7.712113
11211		28.595802	46.130915	7.508365
11212		28.645293	46.813870	7.313495
11213		28.679501	47.500785	7.109474
11214		28.707823	48.194137	6.910042
11215		28.717770	48.879044	6.708252
11216		28.723637	49.555959	6.496630
11217		28.711675	50.224449	6.263948
11218		28.690391	50.888372	6.011402
11219		28.668736	51.549336	5.757306
11220		28.632929	52.221976	5.499347
11221		28.580680	52.898094	5.236397
11222		28.518575	53.571279	4.952558
11223		28.445079	54.236427	4.659520
11224		28.366649	54.891136	4.354127
11225		28.281351	55.542454	4.044753
11226		28.217206	56.197930	3.755128
11227		28.159760	56.846608	3.479701
11228		28.121995	57.482029	3.205031
11229		28.095183	58.101764	2.933134
11230		28.084034	58.703565	2.651616
11231		28.078555	59.284851	2.357998
11232		28.069327	59.851982	2.045299
11233		28.061773	60.411332	1.722310
11234		28.034357	60.960658	1.381453
11235		27.967650	61.494468	1.025789
11236		27.858919	62.006367	0.647842
11237		27.695646	62.503938	0.259326
11238		27.470454	62.983609	-0.151786
11239		27.183352	63.437088	-0.585077
11240		26.825482	63.867600	-1.039170
11241		26.402450	64.278842	-1.507726
11242		25.936939	64.662491	-1.990367
11243		25.443565	65.018157	-2.487987
11244		24.936351	65.352178	-2.989726
11245		24.417358	65.654494	-3.508017
11246		23.895198	65.932902	-4.025439
11247		23.372552	66.192740	-4.533549
11248		22.866022	66.438457	-5.020332
11249		22.365210	66.665029	-5.487315
11250		21.882883	66.874890	-5.936296
11251		21.413545	67.075291	-6.372723
11252		20.979619	67.261921	-6.782747
11253		20.584007	67.436237	-7.169070
11254		20.215745	67.596880	-7.526019
11255		19.892717	67.741895	-7.846305
11256		19.607437	67.869172	-8.126740
11257		19.365033	67.981192	-8.363799
11258		19.156675	68.079440	-8.574021
11259		18.977348	68.159449	-8.747309
11260		18.841370	68.230382	-8.883186
11261		18.727727	68.291287	-8.998057
11262		18.646803	68.342171	-9.080099
11263		18.590166	68.381301	-9.138770
11264		18.555762	68.409256	-9.170034
11265		18.533323	68.429720	-9.182252
11266		18.525966	68.444617	-9.175641
11267		18.531213	68.456708	-9.147233
11268		18.538581	68.467413	-9.116307
11269		18.558753	68.472365	-9.073062
11270		18.566722	68.471203	-9.040010
11271		18.578298	68.469320	-9.005181
11272		18.588792	68.470147	-8.974080
11273		18.599956	68.472757	-8.944765
11274		18.611896	68.479621	-8.914501
11275		18.628010	68.490140	-8.876618
11276		18.641194	68.509152	-8.843543
11277		18.653054	68.530991	-8.816596
11278		18.660260	68.560726	-8.796103
11279		18.663738	68.591857	-8.785968
11280		18.663379	68.621799	-8.783628
11281		18.650539	68.650131	-8.800014
11282		18.636232	68.678987	-8.823148
11283		18.619752	68.713077	-8.848627
11284		18.602442	68.748891	-8.869093
11285		18.584230	68.787509	-8.883878
11286		18.573637	68.824574	-8.885291
11287		18.574315	68.855991	-8.869793
11288		18.597921	68.878991	-8.828875
11289		18.634732	68.890165	-8.779107
11290		18.685061	68.893156	-8.717793
11291		18.738713	68.882778	-8.655405
11292		18.784920	68.866514	-8.595275
11293		18.829934	68.844871	-8.523885
11294		18.867487	68.824668	-8.451156
11295		18.894135	68.804545	-8.380379
11296		18.910991	68.788257	-8.312198
11297		18.908536	68.777943	-8.253803
11298		18.888959	68.766921	-8.207670
11299		18.842345	68.751629	-8.187410
11300		18.768632	68.735100	-8.195772
11301		18.684535	68.720100	-8.221363
11302		18.599819	68.709926	-8.247555
11303		18.520613	68.703767	-8.273090
11304		18.461845	68.702859	-8.289035
11305		18.419849	68.703624	-8.301562
11306		18.385887	68.708340	-8.319074
11307		18.351624	68.711857	-8.343919
11308		18.309114	68.710898	-8.382487
11309		18.277769	68.707712	-8.413253
11310		18.236588	68.704209	-8.456127
11311		18.196298	68.703731	-8.500837
11312		18.154461	68.706997	-8.545844
11313		18.108167	68.715012	-8.594419
11314		18.064339	68.720229	-8.640860
11315		18.013535	68.719897	-8.695399
11316		17.964863	68.718108	-8.747403
11317		17.909765	68.718948	-8.801437
11318		17.855387	68.720188	-8.854790
11319		17.801541	68.717897	-8.906867
11320		17.753403	68.711542	-8.953204
11321		17.720738	68.706010	-8.982766
11322		17.695750	68.703307	-9.004998
11323		17.670672	68.701030	-9.025366
11324		17.641057	68.701147	-9.049860
11325		17.613858	68.699603	-9.071534
11326		17.588215	68.695762	-9.093163
11327		17.572307	68.691349	-9.105699
11328		17.558372	68.693105	-9.115424
11329		17.541926	68.698619	-9.124415
11330		17.522072	68.702201	-9.135442
11331		17.509448	68.702535	-9.141460
11332		17.507826	68.700922	-9.139845
11333		17.512368	68.701338	-9.132336
11334		17.514579	68.704359	-9.124650
11335		17.520385	68.706455	-9.112047
11336		17.530432	68.705397	-9.098523
11337		17.548332	68.701932	-9.077452
11338		17.569000	68.701934	-9.054247
11339		17.586055	68.705251	-9.035498
11340		17.593482	68.710762	-9.016743
11341		17.606497	68.713376	-8.991632
11342		17.614913	68.718091	-8.967536
11343		17.621488	68.722647	-8.943250
11344		17.632123	68.731655	-8.917785
11345		17.634282	68.740550	-8.898977
11346		17.635565	68.750170	-8.878091
11347		17.626065	68.754428	-8.868228
11348		17.627570	68.756695	-8.850726
11349		17.629428	68.758358	-8.834827
11350		17.632633	68.760552	-8.821786
11351		17.624364	68.765135	-8.819026
11352		17.610240	68.766314	-8.822588
11353		17.601943	68.761365	-8.826121
11354		17.598762	68.756530	-8.826462
11355		17.603796	68.755868	-8.822366
11356		17.600362	68.757703	-8.825435
11357		17.600103	68.759036	-8.826183
11358		17.589393	68.760070	-8.838659
11359		17.575628	68.755206	-8.853041
11360		17.555557	68.752760	-8.867151
11361		17.526988	68.749947	-8.884770
11362		17.494019	68.746615	-8.903678
11363		17.455479	68.739481	-8.925457
11364		17.421030	68.727900	-8.946203
11365		17.387248	68.713839	-8.962628
11366		17.335166	68.692460	-8.999457
11367		17.267869	68.659426	-9.046375
11368		17.181111	68.613793	-9.094006
11369		17.077101	68.556410	-9.143386
11370		16.985011	68.487413	-9.178974
11371		16.902368	68.406755	-9.204355
11372		16.808868	68.323421	-9.227804
11373		16.708804	68.227292	-9.245817
11374		16.610868	68.119271	-9.256868
11375		16.529734	67.998871	-9.245672
11376		16.479823	67.866421	-9.198396
11377		16.462828	67.730770	-9.120414
11378		16.466154	67.599131	-9.026325
11379		16.483412	67.477980	-8.923131
11380		16.502120	67.365255	-8.818073
11381		16.527317	67.263253	-8.709609
11382		16.568230	67.160414	-8.587732
11383		16.615083	67.059512	-8.462115
11384		16.679096	66.960542	-8.319069
11385		16.745341	66.865797	-8.172441
11386		16.818501	66.774456	-8.017224
11387		16.895304	66.678106	-7.848531
11388		16.994502	66.581045	-7.656379
11389		17.117246	66.474710	-7.437555
11390		17.261349	66.364071	-7.198645
11391		17.425226	66.249751	-6.942445
11392		17.597085	66.131901	-6.672773
11393		17.762244	66.014609	-6.405723
11394		17.917430	65.900163	-6.139971
11395		18.058286	65.775856	-5.876930
11396		18.195252	65.635494	-5.606413
11397		18.323665	65.480830	-5.331398
11398		18.463103	65.314942	-5.037653
11399		18.597971	65.129933	-4.737101
11400		18.733068	64.922527	-4.420720
11401		18.873723	64.691262	-4.085549
11402		19.021514	64.437443	-3.730192
11403		19.173612	64.157712	-3.356401
11404		19.334344	63.851302	-2.965808
11405		19.490828	63.520920	-2.565634
11406		19.647619	63.162213	-2.160669
11407		19.800245	62.780318	-1.748924
11408		19.951181	62.372135	-1.337731
11409		20.101218	61.943959	-0.926457
11410		20.252217	61.501672	-0.515924
11411		20.396490	61.042734	-0.119579
11412		20.541577	60.567751	0.270104
11413		20.683674	60.073764	0.648206
11414		20.825730	59.567240	1.023441
11415		20.961033	59.046593	1.385295
11416		21.091087	58.518314	1.739785
11417		21.226608	57.977943	2.090965
11418		21.363853	57.430369	2.430918
11419		21.508831	56.875881	2.765025
11420		21.662639	56.310048	3.094378
11421		21.812196	55.742032	3.411677
11422		21.964407	55.162090	3.721347
11423		22.110333	54.574032	4.013199
11424		22.261766	53.977883	4.304810
11425		22.417001	53.380222	4.598237
11426		22.576960	52.778260	4.889334
11427		22.729021	52.180097	5.181798
11428		22.875586	51.575132	5.465565
11429		23.008303	50.957547	5.733378
11430		23.134494	50.357913	5.998418
11431		23.263331	49.740920	6.255109
11432		23.391664	49.135255	6.504973
11433		23.524799	48.529676	6.755938
11434		23.670886	47.913966	7.006091
11435		23.811843	47.311274	7.242885
11436		23.957339	46.726080	7.478627
11437		24.098642	46.154140	7.704956
11438		24.240155	45.565631	7.921634
11439		24.363589	44.973335	8.117652
11440		24.483048	44.413428	8.319281
11441		24.598498	43.860964	8.506538
11442		24.691392	43.322273	8.676655
11443		24.758876	42.811115	8.846073
11444		24.807508	42.311595	9.010164
11445		24.866928	41.814804	9.157904
11446		24.908874	41.331751	9.299439
11447		24.958585	40.846727	9.429233
11448		24.995178	40.369057	9.546895
11449		25.020746	39.928630	9.671550
11450		25.050605	39.491026	9.788598
11451		25.078104	39.063370	9.905064
11452		25.078039	38.660671	10.015891
11453		25.127913	38.236125	10.108463
11454		25.142378	37.822316	10.196117
11455		25.120340	37.430845	10.286148
11456		25.128235	37.021247	10.363676
11457		25.118442	36.627238	10.444639
11458		25.105297	36.232750	10.519603
11459		25.081653	35.862253	10.597706
11460		25.089804	35.470989	10.658796
11461		25.067573	35.106858	10.720005
11462		25.107679	34.706237	10.751984
11463		25.071181	34.348860	10.807856
11464		25.108570	33.959028	10.838241
11465		25.074535	33.605847	10.877671
11466		25.064956	33.262401	10.921171
11467		25.087095	32.907270	10.945030
11468		25.067496	32.566317	10.976884
11469		25.061802	32.235492	11.009047
11470		25.068828	31.922922	11.039157
11471		25.105561	31.608184	11.044351
11472		25.096592	31.325062	11.062934
11473		25.077390	31.048749	11.075237
11474		25.058409	30.769227	11.089877
11475		25.030263	30.491567	11.105949
11476		24.976382	30.243244	11.139036
11477		24.909763	30.012765	11.169926
11478		24.849336	29.798272	11.204054
11479		24.829239	29.573500	11.219346
11480		24.777860	29.371461	11.258396
11481		24.739013	29.173593	11.297504
11482		24.715970	28.981034	11.337787
11483		24.704142	28.798246	11.377258
11484		24.695600	28.618195	11.421422
11485		24.685318	28.436797	11.461062
11486		24.701744	28.242010	11.482353
11487		24.683999	28.046375	11.509695
11488		24.647636	27.852063	11.545235
11489		24.604812	27.652982	11.582451
11490		24.560488	27.455244	11.618827
11491		24.524811	27.262794	11.654100
11492		24.502554	27.082634	11.684856
11493		24.482313	26.912098	11.711221
11494		24.470838	26.752063	11.736873
11495		24.466111	26.592237	11.754169
11496		24.477370	26.430598	11.764598
11497		24.498580	26.269082	11.764752
11498		24.528151	26.103582	11.755021
11499		24.553420	25.932451	11.736302
11500		24.569556	25.762004	11.716576
11501		24.568507	25.596242	11.692995
11502		24.551291	25.434724	11.669341
11503		24.530112	25.281498	11.644613
11504		24.512449	25.135167	11.619451
11505		24.488081	24.996999	11.596981
11506		24.463713	24.869597	11.578581
11507		24.446887	24.754107	11.557219
11508		24.429036	24.645868	11.540940
11509		24.405638	24.544631	11.529291
11510		24.388106	24.448905	11.517836
11511		24.361374	24.348487	11.507568
11512		24.330993	24.250797	11.502360
11513		24.297600	24.158689	11.500053
11514		24.263892	24.066903	11.501199
11515		24.240926	23.975873	11.505650
11516		24.224422	23.893283	11.510438
11517		24.212946	23.811791	11.514773
11518		24.204754	23.737328	11.520898
11519		24.207685	23.665835	11.529285
11520		24.215051	23.596594	11.536927
11521		24.222491	23.531940	11.548677
11522		24.227697	23.470826	11.558389
11523		24.229617	23.408630	11.568062
11524		24.230395	23.346332	11.580543
11525		24.228371	23.286102	11.588812
11526		24.230130	23.225859	11.599763
11527		24.236396	23.172282	11.608809
11528		24.246358	23.125022	11.617781
11529		24.255833	23.080395	11.627385
11530		24.272681	23.036432	11.636341
11531		24.287601	22.987196	11.643936
11532		24.305367	22.942859	11.654147
11533		24.329055	22.907036	11.662764
11534		24.352499	22.878637	11.673106
11535		24.368668	22.856513	11.682516
11536		24.384663	22.847865	11.695320
11537		24.406283	22.846700	11.712290
11538		24.434315	22.856779	11.737157
11539		24.467782	22.878753	11.769975
11540		24.522590	22.924893	11.802396
11541		24.574121	22.978480	11.844299
11542		24.631991	23.048379	11.886750
11543		24.693726	23.130286	11.928634
11544		24.746737	23.208347	11.972918
11545		24.804011	23.286780	12.016300
11546		24.846981	23.356967	12.061478
11547		24.873095	23.427539	12.109893
11548		24.890009	23.503457	12.163812
11549		24.894214	23.575252	12.212051
11550		24.895907	23.648476	12.259268
11551		24.899540	23.723103	12.301052
11552		24.901488	23.789254	12.336770
11553		24.902221	23.847050	12.367056
11554		24.917568	23.905841	12.393549
11555		24.923565	23.945529	12.417936
11556		24.931610	23.980092	12.438212
11557		24.940642	24.006632	12.449812
11558		24.946100	24.025705	12.460783
11559		24.955898	24.039895	12.470150
11560		24.968093	24.048734	12.477278
11561		24.984013	24.053372	12.487110
11562		25.004418	24.058842	12.495794
11563		25.027469	24.054506	12.504121
11564		25.052700	24.054019	12.510962
11565		25.077065	24.054834	12.516141
11566		25.100935	24.055486	12.523496
11567		25.132815	24.058413	12.531456
11568		25.163897	24.056596	12.542776
11569		25.199239	24.056731	12.553539
11570		25.238960	24.061552	12.563337
11571		25.278772	24.067278	12.572765
11572		25.319316	24.081873	12.581418
11573		25.361507	24.104639	12.588212
11574		25.404843	24.137539	12.596613
11575		25.444043	24.175095	12.601783
11576		25.483609	24.221782	12.604326
11577		25.524437	24.277361	12.606873
11578		25.568432	24.344252	12.607181
11579		25.622329	24.427138	12.609809
11580		25.686642	24.528114	12.612618
11581		25.763100	24.646271	12.611520
11582		25.857390	24.778588	12.611862
11583		25.960153	24.922873	12.610392
11584		26.069016	25.085496	12.612703
11585		26.184407	25.268551	12.619466
11586		26.317680	25.479676	12.634435
11587		26.462945	25.718011	12.661254
11588		26.624202	25.994547	12.699159
11589		26.808905	26.305293	12.757482
11590		27.023799	26.649684	12.825657
11591		27.259560	27.022584	12.903553
11592		27.515077	27.415596	12.988616
11593		27.787459	27.818804	13.077131
11594		28.081001	28.243487	13.166280
11595		28.393151	28.693783	13.253945
11596		28.709519	29.182682	13.342438
11597		29.029272	29.703586	13.423391
11598		29.357065	30.245480	13.500661
11599		29.684407	30.811072	13.574195
11600		30.016521	31.389198	13.649545
11601		30.350347	31.973776	13.710443
11602		30.686491	32.567832	13.763861
11603		31.016510	33.172883	13.815096
11604		31.320462	33.771787	13.869005
11605		31.611481	34.370973	13.924749
11606		31.883671	34.993915	13.969542
11607		32.170664	35.587186	14.025653
11608		32.451532	36.178997	14.080441
11609		32.749676	36.777261	14.139008
11610		33.063906	37.378533	14.181644
11611		33.380443	37.968797	14.229150
11612		33.682020	38.557059	14.283072
11613		33.972867	39.125421	14.328151
11614		34.245995	39.669638	14.350569
11615		34.510932	40.202852	14.363714
11616		34.757734	40.734839	14.364747
11617		34.999480	41.258426	14.358517
11618		35.235102	41.772884	14.337328
11619		35.457572	42.290323	14.318784
11620		35.654236	42.807084	14.317667
11621		35.817495	43.306867	14.303368
11622		35.953750	43.782533	14.261196
11623		36.068738	44.242957	14.183048
11624		36.162978	44.711636	14.095756
11625		36.244241	45.172652	13.998605
11626		36.310785	45.627621	13.876809
11627		36.352076	46.079964	13.738310
11628		36.373697	46.534603	13.589423
11629		36.369376	46.980417	13.430875
11630		36.335917	47.417409	13.257118
11631		36.278937	47.848981	13.069048
11632		36.213315	48.279477	12.880639
11633		36.125209	48.707361	12.683383
11634		36.020539	49.141243	12.478269
11635		35.901486	49.567508	12.247732
11636		35.768421	49.998765	12.004598
11637		35.629434	50.428612	11.752649
11638		35.484261	50.858421	11.479250
11639		35.340963	51.289444	11.201004
11640		35.199462	51.722213	10.921214
11641		35.054122	52.152011	10.637591
11642		34.905876	52.577779	10.347279
11643		34.745536	53.000425	10.050039
11644		34.573571	53.420982	9.742938
11645		34.378203	53.839428	9.426563
11646		34.161088	54.265334	9.101941
11647		33.928736	54.688061	8.758307
11648		33.681082	55.114178	8.401367
11649		33.418780	55.542215	8.039584
11650		33.149207	55.975133	7.675599
11651		32.863031	56.408567	7.297607
11652		32.567195	56.842497	6.920543
11653		32.253918	57.274264	6.534710
11654		31.925916	57.704635	6.147157
11655		31.585493	58.131824	5.757289
11656		31.234760	58.553054	5.359697
11657		30.868498	58.968582	4.950781
11658		30.495066	59.382492	4.529701
11659		30.103983	59.782252	4.082468
11660		29.689532	60.164951	3.616833
11661		29.248350	60.526146	3.135478
11662		28.774015	60.871653	2.635523
11663		28.277841	61.199486	2.137348
11664		27.763458	61.513780	1.638361
11665		27.225924	61.815488	1.144550
11666		26.675082	62.104327	0.652492
11667		26.104100	62.386840	0.168010
11668		25.533924	62.656298	-0.305475
11669		24.975033	62.911865	-0.767683
11670		24.436511	63.158678	-1.214625
11671		23.912338	63.392868	-1.661271
11672		23.408404	63.616151	-2.102904
11673		22.930450	63.828053	-2.537853
11674		22.476683	64.028993	-2.967975
11675		22.047339	64.220154	-3.389237
11676		21.641294	64.404358	-3.803373
11677		21.260877	64.577987	-4.199834
11678		20.913627	64.741267	-4.574979
11679		20.581570	64.899067	-4.932908
11680		20.275495	65.050404	-5.270545
11681		19.995827	65.192495	-5.585862
11682		19.737161	65.328518	-5.874581
11683		19.496407	65.457035	-6.144971
11684		19.277715	65.581834	-6.392471
11685		19.082393	65.705785	-6.620697
11686		18.917488	65.825775	-6.820486
11687		18.773980	65.943341	-7.009007
11688		18.650644	66.058891	-7.183329
11689		18.535696	66.175087	-7.345841
11690		18.428818	66.291540	-7.499866
11691		18.329391	66.405822	-7.646631
11692		18.227796	66.526155	-7.784225
