// General information: 
//  MT Manager version: 2022.2.0 
//  XDA version: 2022.2.0 build 7381 rev 124627 built on 2023-07-19
// Device information: 
//  DeviceId: 00B447FD
//  ProductCode: MTW2-3A7G6
//  Firmware Version: 4.3.5
//  Hardware Version: 2.0.0
// Device settings: 
//  Filter Profile: human(46.1)
//  Option Flags: Orientation Smoother Disabled, Position/Velocity Smoother Disabled, Continuous Zero Rotation Update Disabled, AHS Disabled, ICC Disabled
// Coordinate system: ENU
PacketCounter	SampleTimeFine	Roll	Pitch	Yaw
08434		60.025626	-7.115833	7.380298
08435		59.990681	-7.110131	7.389247
08436		59.957392	-7.095380	7.417001
08437		59.930333	-7.069227	7.456129
08438		59.915490	-7.031504	7.512080
08439		59.918150	-6.974088	7.596839
08440		59.930421	-6.906845	7.707303
08441		59.949214	-6.838476	7.823129
08442		59.975445	-6.784553	7.929417
08443		60.003221	-6.754861	7.989217
08444		60.037495	-6.737200	8.006638
08445		60.080564	-6.733202	8.009270
08446		60.117942	-6.732879	8.007113
08447		60.145087	-6.726778	8.014159
08448		60.158203	-6.712645	8.032613
08449		60.164020	-6.692280	8.058619
08450		60.164672	-6.676265	8.079998
08451		60.160885	-6.658990	8.099171
08452		60.154365	-6.646806	8.108702
08453		60.146164	-6.636238	8.110412
08454		60.127103	-6.627599	8.114864
08455		60.101411	-6.617636	8.118970
08456		60.069643	-6.610190	8.123543
08457		60.038269	-6.603504	8.126075
08458		60.008263	-6.598776	8.128110
08459		59.986782	-6.596579	8.128919
08460		59.968917	-6.592841	8.132304
08461		59.963235	-6.584461	8.131528
08462		59.963081	-6.574628	8.128108
08463		59.960898	-6.563604	8.124110
08464		59.951107	-6.553072	8.119816
08465		59.926575	-6.543731	8.118594
08466		59.881156	-6.537547	8.125085
08467		59.816158	-6.539102	8.142911
08468		59.733208	-6.544520	8.170363
08469		59.639003	-6.558912	8.203036
08470		59.541145	-6.580831	8.235479
08471		59.456941	-6.601299	8.267923
08472		59.393952	-6.617921	8.302578
08473		59.358562	-6.627575	8.334417
08474		59.355202	-6.633605	8.360481
08475		59.381500	-6.634961	8.374541
08476		59.434860	-6.631193	8.376980
08477		59.506485	-6.624307	8.366713
08478		59.579004	-6.616575	8.347557
08479		59.639870	-6.611901	8.324431
08480		59.669230	-6.612297	8.300695
08481		59.665493	-6.612824	8.286364
08482		59.626096	-6.611133	8.284892
08483		59.552801	-6.608929	8.289101
08484		59.456161	-6.614333	8.286746
08485		59.359439	-6.618917	8.277624
08486		59.273247	-6.623177	8.261421
08487		59.203813	-6.621074	8.243798
08488		59.157815	-6.609080	8.225241
08489		59.145197	-6.583991	8.203834
08490		59.160355	-6.552250	8.178724
08491		59.200285	-6.524206	8.146822
08492		59.253553	-6.500531	8.115098
08493		59.311169	-6.482753	8.084315
08494		59.359499	-6.470312	8.059415
08495		59.395844	-6.463123	8.035611
08496		59.419785	-6.450833	8.016152
08497		59.437641	-6.433126	7.997800
08498		59.458850	-6.412723	7.975043
08499		59.491609	-6.383657	7.948330
08500		59.538017	-6.351809	7.919260
08501		59.581540	-6.316404	7.900130
08502		59.610345	-6.300629	7.860806
08503		59.621172	-6.299380	7.819755
08504		59.607412	-6.308997	7.783897
08505		59.563251	-6.328448	7.747430
08506		59.496065	-6.347981	7.719841
08507		59.414550	-6.364462	7.697820
08508		59.334140	-6.367232	7.685498
08509		59.271676	-6.354849	7.680379
08510		59.236200	-6.329331	7.676689
08511		59.235431	-6.293077	7.665404
08512		59.266949	-6.247839	7.642918
08513		59.327849	-6.200152	7.600025
08514		59.412548	-6.161487	7.533396
08515		59.523394	-6.121918	7.448246
08516		59.682344	-6.089928	7.329233
08517		59.881416	-6.081988	7.166768
08518		60.068347	-6.071642	7.000025
08519		60.320134	-6.173196	6.837445
08520		60.647252	-6.272507	6.788339
08521		60.930701	-6.354021	6.740966
08522		61.070021	-6.411902	6.733001
08523		61.072299	-6.487498	6.741675
08524		60.968908	-6.596338	6.774795
08525		60.838939	-6.755608	6.826053
08526		60.737186	-6.966077	6.875302
08527		60.681404	-7.217839	6.910499
08528		60.667193	-7.499758	6.933784
08529		60.683507	-7.808568	6.955885
08530		60.718037	-8.152156	6.993473
08531		60.752516	-8.542166	7.048680
08532		60.764023	-8.986718	7.116231
08533		60.745487	-9.476178	7.191150
08534		60.703223	-10.008330	7.270483
08535		60.650114	-10.589735	7.354149
08536		60.592077	-11.217076	7.447686
08537		60.523980	-11.878335	7.557460
08538		60.433573	-12.565929	7.683707
08539		60.336485	-13.279611	7.827774
08540		60.239836	-14.024472	7.988789
08541		60.138279	-14.787023	8.157227
08542		60.034184	-15.570065	8.326641
08543		59.929574	-16.369990	8.499091
08544		59.828022	-17.184638	8.677783
08545		59.733784	-18.008603	8.862355
08546		59.650172	-18.837721	9.059134
08547		59.564864	-19.687515	9.258655
08548		59.460643	-20.562496	9.457776
08549		59.340673	-21.462358	9.653412
08550		59.263550	-22.368081	9.864987
08551		59.300992	-23.246978	10.103503
08552		59.482300	-24.069743	10.369919
08553		59.786088	-24.821141	10.654378
08554		60.134324	-25.519560	10.948635
08555		60.413529	-26.209219	11.230419
08556		60.560456	-26.959606	11.478893
08557		60.564350	-27.793165	11.699602
08558		60.473762	-28.693006	11.892708
08559		60.379895	-29.642695	12.068035
08560		60.312899	-30.612542	12.226493
08561		60.277662	-31.581910	12.377046
08562		60.237419	-32.537396	12.537490
08563		60.163440	-33.477689	12.717431
08564		60.039896	-34.409912	12.920309
08565		59.878599	-35.332411	13.136712
08566		59.682206	-36.254860	13.362321
08567		59.470000	-37.171092	13.597913
08568		59.255096	-38.070199	13.857181
08569		59.047248	-38.952985	14.143977
08570		58.822220	-39.819836	14.455016
08571		58.562297	-40.690426	14.781725
08572		58.259998	-41.589292	15.110108
08573		57.905881	-42.524435	15.444076
08574		57.497759	-43.495497	15.789660
08575		57.039135	-44.491200	16.167543
08576		56.528502	-45.502774	16.581532
08577		55.964162	-46.525288	17.031239
08578		55.355013	-47.551242	17.514632
08579		54.723197	-48.569239	18.042123
08580		54.084443	-49.576308	18.613048
08581		53.433762	-50.564923	19.251447
08582		52.740293	-51.550581	19.957913
08583		51.989279	-52.556383	20.731110
08584		51.175718	-53.582324	21.545934
08585		50.296652	-54.630671	22.378394
08586		49.364164	-55.703628	23.223335
08587		48.400885	-56.790796	24.073469
08588		47.426287	-57.885349	24.933425
08589		46.440770	-58.969684	25.817004
08590		45.465053	-60.020196	26.734465
08591		44.485936	-61.024269	27.703882
08592		43.498918	-61.983487	28.715064
08593		42.488849	-62.903364	29.761495
08594		41.432779	-63.797363	30.840765
08595		40.309511	-64.683015	31.955168
08596		39.128769	-65.565678	33.096300
08597		37.879886	-66.446859	34.276059
08598		36.597793	-67.317820	35.480425
08599		35.292052	-68.149939	36.714373
08600		33.956201	-68.930160	37.992364
08601		32.591789	-69.657641	39.334205
08602		31.215596	-70.330250	40.718408
08603		29.822879	-70.962981	42.137614
08604		28.397437	-71.564517	43.593158
08605		26.883888	-72.146106	45.105476
08606		25.265804	-72.713811	46.661552
08607		23.518486	-73.281318	48.266191
08608		21.622980	-73.855021	49.968429
08609		19.579082	-74.431127	51.803253
08610		17.391825	-74.993775	53.781625
08611		15.081150	-75.525055	55.894945
08612		12.666626	-76.016895	58.116369
08613		10.172824	-76.480715	60.423295
08614		7.542426	-76.918061	62.880007
08615		4.770325	-77.344000	65.480750
08616		1.881482	-77.756981	68.202563
08617		-1.123409	-78.156706	71.048808
08618		-4.230341	-78.538454	74.011008
08619		-7.454934	-78.898323	77.121196
08620		-10.736956	-79.233019	80.318265
08621		-14.083529	-79.527034	83.587216
08622		-17.487267	-79.766030	86.912847
08623		-20.937460	-79.942541	90.268468
08624		-24.415149	-80.054284	93.633162
08625		-27.867254	-80.119349	96.954525
08626		-31.287559	-80.154890	100.236552
08627		-34.652612	-80.168252	103.484316
08628		-37.977026	-80.172807	106.717406
08629		-41.292248	-80.168898	109.967681
08630		-44.578085	-80.157827	113.203771
08631		-47.839266	-80.139451	116.411107
08632		-51.031019	-80.106090	119.525041
08633		-54.107776	-80.045144	122.498952
08634		-57.019354	-79.943276	125.290315
08635		-59.666792	-79.811155	127.808644
08636		-62.009472	-79.658206	130.022810
08637		-63.957450	-79.498866	131.845649
08638		-65.547501	-79.340782	133.321115
08639		-66.760592	-79.196248	134.449910
08640		-67.638348	-79.070695	135.286453
08641		-68.226442	-78.961420	135.872108
08642		-68.615723	-78.858651	136.279461
08643		-68.889044	-78.771681	136.569949
08644		-69.119359	-78.689450	136.799280
08645		-69.389590	-78.619107	137.046634
08646		-69.693407	-78.555160	137.299542
08647		-70.010716	-78.502155	137.541262
08648		-70.312570	-78.461225	137.755068
08649		-70.512838	-78.433001	137.872828
08650		-70.583932	-78.414651	137.884905
08651		-70.501542	-78.410530	137.784727
08652		-70.335168	-78.414607	137.629099
08653		-70.151846	-78.435842	137.470255
08654		-69.984480	-78.461247	137.321286
08655		-69.872133	-78.493813	137.211124
08656		-69.808897	-78.524312	137.138311
08657		-69.811840	-78.556782	137.115609
08658		-69.860929	-78.586228	137.133787
08659		-69.908435	-78.613667	137.153769
08660		-69.938499	-78.639580	137.163756
08661		-69.996831	-78.667069	137.215983
08662		-70.056210	-78.690191	137.275812
08663		-70.137925	-78.715745	137.352835
08664		-70.216609	-78.736382	137.420701
08665		-70.229646	-78.747766	137.417904
08666		-70.128060	-78.734051	137.286452
08667		-69.942384	-78.692523	137.041607
08668		-69.766977	-78.623484	136.772522
08669		-69.660093	-78.545448	136.552618
08670		-69.665795	-78.465254	136.455978
08671		-69.759884	-78.388629	136.477520
08672		-69.920011	-78.321839	136.591509
08673		-70.078425	-78.264790	136.716852
08674		-70.194696	-78.213754	136.801042
08675		-70.230136	-78.172790	136.798641
08676		-70.188729	-78.137640	136.712929
08677		-70.072713	-78.116499	136.552914
08678		-69.888419	-78.105601	136.328114
08679		-69.645964	-78.111444	136.046666
08680		-69.355304	-78.130954	135.732708
08681		-69.035761	-78.167347	135.402847
08682		-68.732967	-78.212969	135.100804
08683		-68.458884	-78.267608	134.832183
08684		-68.215801	-78.324864	134.585201
08685		-67.966887	-78.392967	134.320824
08686		-67.671408	-78.463646	134.011877
08687		-67.296538	-78.541289	133.628230
08688		-66.833619	-78.618466	133.167150
08689		-66.282585	-78.704233	132.637699
08690		-65.630532	-78.798860	132.038862
08691		-64.831122	-78.910835	131.319823
08692		-63.940383	-79.036588	130.521649
08693		-63.051286	-79.176610	129.724305
08694		-62.251922	-79.323225	128.996767
08695		-61.614465	-79.472672	128.389204
08696		-61.134069	-79.623404	127.885711
08697		-60.749725	-79.773425	127.428759
08698		-60.341856	-79.925385	126.910391
08699		-59.772492	-80.085225	126.207647
08700		-58.896534	-80.252930	125.202349
08701		-57.622704	-80.424591	123.822642
08702		-55.941167	-80.595105	122.053964
08703		-53.787436	-80.760366	119.832667
08704		-51.126208	-80.912169	117.121576
08705		-47.932123	-81.046492	113.888654
08706		-44.305597	-81.155797	110.230232
08707		-40.312091	-81.237744	106.200216
08708		-36.055709	-81.290430	101.903963
08709		-31.559691	-81.314127	97.362226
08710		-26.880533	-81.292532	92.648776
08711		-21.966926	-81.215900	87.735385
08712		-16.809433	-81.059938	82.621723
08713		-11.461065	-80.813874	77.383789
08714		-6.039616	-80.477384	72.132478
08715		-0.678122	-80.059496	66.980309
08716		4.429942	-79.572749	62.104507
08717		9.191636	-79.027415	57.562854
08718		13.563020	-78.427481	53.396053
08719		17.572034	-77.778455	49.594814
08720		21.289879	-77.081860	46.122770
08721		24.754793	-76.338747	42.930795
08722		27.928921	-75.557773	40.032016
08723		30.815363	-74.740448	37.406878
08724		33.368414	-73.893592	35.087518
08725		35.661155	-73.014210	33.019610
08726		37.752385	-72.091995	31.164725
08727		39.688190	-71.108125	29.504374
08728		41.501358	-70.075420	28.021763
08729		43.193280	-69.012111	26.681943
08730		44.729984	-67.953336	25.462375
08731		46.096082	-66.906168	24.327831
08732		47.257187	-65.891956	23.280291
08733		48.237189	-64.910368	22.311891
08734		49.065145	-63.959222	21.437714
08735		49.810494	-63.018926	20.638406
08736		50.514472	-62.054838	19.920283
08737		51.234962	-61.028031	19.280662
08738		52.002486	-59.925149	18.710754
08739		52.817807	-58.762474	18.174775
08740		53.656647	-57.582519	17.635491
08741		54.483271	-56.415108	17.065786
08742		55.276242	-55.283473	16.445969
08743		56.032539	-54.188573	15.774692
08744		56.756203	-53.128933	15.081322
08745		57.468840	-52.076224	14.382332
08746		58.178464	-51.008265	13.713621
08747		58.891763	-49.918798	13.099508
08748		59.602214	-48.800910	12.547566
08749		60.313125	-47.652449	12.055728
08750		61.020229	-46.477730	11.614137
08751		61.710626	-45.291092	11.207923
08752		62.349503	-44.100070	10.834252
08753		62.915089	-42.925049	10.492576
08754		63.384426	-41.782267	10.166335
08755		63.759384	-40.682939	9.843013
08756		64.036495	-39.636871	9.531941
08757		64.233841	-38.628990	9.231467
08758		64.371209	-37.653296	8.961207
08759		64.498222	-36.690437	8.731842
08760		64.647128	-35.712563	8.544307
08761		64.852019	-34.692017	8.402565
08762		65.113047	-33.620867	8.302751
08763		65.410099	-32.506440	8.248538
08764		65.694319	-31.361730	8.232564
08765		65.938113	-30.223135	8.242335
08766		66.130112	-29.121197	8.255765
08767		66.287207	-28.078933	8.251904
08768		66.435284	-27.093540	8.230380
08769		66.594184	-26.142721	8.190973
08770		66.776378	-25.222591	8.142792
08771		66.959999	-24.320403	8.087838
08772		67.108520	-23.436676	8.039685
08773		67.184190	-22.577791	7.999886
08774		67.175645	-21.753790	7.959386
08775		67.105526	-20.971924	7.906832
08776		67.018940	-20.241751	7.829493
08777		66.960777	-19.550195	7.717106
08778		66.942299	-18.869114	7.580486
08779		66.975338	-18.177606	7.448483
08780		67.030494	-17.455405	7.346824
08781		67.087769	-16.711814	7.298598
08782		67.110772	-15.961513	7.291742
08783		67.083599	-15.230620	7.301973
08784		67.010326	-14.537850	7.304290
08785		66.915111	-13.892685	7.285271
08786		66.829319	-13.308793	7.248309
08787		66.771165	-12.772699	7.199387
08788		66.734398	-12.278520	7.137367
08789		66.699762	-11.820257	7.071544
08790		66.652925	-11.399683	7.011137
08791		66.599738	-11.023030	6.952983
08792		66.532705	-10.685840	6.893909
08793		66.456607	-10.383639	6.823943
08794		66.380523	-10.113321	6.753143
08795		66.306886	-9.859383	6.689180
08796		66.241557	-9.627984	6.644958
08797		66.179970	-9.407986	6.616448
08798		66.126987	-9.199775	6.602271
08799		66.087671	-9.008748	6.590315
08800		66.047397	-8.826237	6.565453
08801		66.003191	-8.642131	6.522669
08802		65.950024	-8.456103	6.461252
08803		65.881849	-8.270989	6.371587
08804		65.804773	-8.091572	6.277531
08805		65.710456	-7.925260	6.166352
08806		65.602536	-7.773724	6.050000
08807		65.489647	-7.625403	5.931603
08808		65.371056	-7.468434	5.819587
08809		65.263433	-7.287983	5.724651
08810		65.190168	-7.081177	5.659098
08811		65.158750	-6.845285	5.628429
08812		65.153469	-6.588340	5.625592
08813		65.170532	-6.310327	5.641094
08814		65.210344	-6.011652	5.674950
08815		65.282750	-5.696807	5.721799
08816		65.374788	-5.377711	5.773233
08817		65.464465	-5.058880	5.822967
08818		65.534918	-4.754256	5.865410
08819		65.580539	-4.460563	5.905903
08820		65.596088	-4.189348	5.936017
08821		65.608281	-3.941117	5.946396
08822		65.623072	-3.746361	5.936040
08823		65.675048	-3.688068	5.961129
08824		65.621167	-3.794521	5.941534
08825		65.615814	-4.002128	5.900595
08826		65.687345	-4.176270	5.880453
08827		65.695399	-4.247302	5.887879
08828		65.651012	-4.242882	5.923491
08829		65.600064	-4.194631	5.967052
08830		65.561954	-4.124357	5.991611
08831		65.546376	-4.060276	5.997894
08832		65.547539	-4.026177	6.001595
08833		65.539429	-4.013651	6.013654
08834		65.515208	-4.019166	6.036486
08835		65.474715	-4.028567	6.077066
08836		65.407448	-4.044599	6.130283
08837		65.322758	-4.068462	6.190509
08838		65.223814	-4.100393	6.249203
08839		65.125333	-4.143280	6.295355
08840		65.026975	-4.194877	6.329415
08841		64.935404	-4.253733	6.352674
08842		64.852696	-4.322208	6.366723
08843		64.770802	-4.392544	6.374711
08844		64.694829	-4.462380	6.374699
08845		64.621766	-4.522765	6.373905
08846		64.552573	-4.575276	6.365779
08847		64.484013	-4.616819	6.356199
08848		64.411446	-4.653238	6.342695
08849		64.331950	-4.685240	6.327362
08850		64.242244	-4.716477	6.318764
08851		64.142072	-4.743763	6.317772
08852		64.028279	-4.771924	6.322004
08853		63.906410	-4.797962	6.332330
08854		63.786462	-4.829869	6.339295
08855		63.669270	-4.865961	6.343141
08856		63.561294	-4.902400	6.345235
08857		63.465928	-4.931274	6.350844
08858		63.383320	-4.954525	6.355509
08859		63.320137	-4.973360	6.362151
08860		63.274508	-4.990156	6.366010
08861		63.249404	-5.002947	6.366550
08862		63.239942	-5.012507	6.365991
08863		63.246151	-5.020782	6.360527
08864		63.259562	-5.031632	6.349984
08865		63.269877	-5.041297	6.339936
08866		63.272989	-5.053161	6.333193
08867		63.264190	-5.061974	6.333918
08868		63.246418	-5.076884	6.336025
08869		63.214685	-5.097420	6.337725
08870		63.175729	-5.119057	6.338071
08871		63.137430	-5.150204	6.328011
08872		63.093076	-5.190715	6.310363
08873		63.041459	-5.235150	6.293299
08874		62.978983	-5.282713	6.282353
08875		62.911110	-5.325084	6.282019
08876		62.841648	-5.366422	6.286626
08877		62.776932	-5.401832	6.292450
08878		62.712014	-5.436743	6.301329
08879		62.654068	-5.468810	6.310122
08880		62.600635	-5.497958	6.317974
08881		62.561638	-5.522701	6.319048
08882		62.526640	-5.548583	6.317525
08883		62.495020	-5.569771	6.316038
08884		62.464895	-5.590012	6.314485
08885		62.436616	-5.602793	6.320046
08886		62.411320	-5.611746	6.328688
08887		62.396884	-5.613705	6.338390
08888		62.389868	-5.610445	6.348412
08889		62.388384	-5.602451	6.356631
08890		62.394165	-5.590671	6.364264
08891		62.406376	-5.572196	6.371053
08892		62.419775	-5.555662	6.375959
08893		62.430138	-5.533271	6.381730
08894		62.436746	-5.510660	6.386544
08895		62.438092	-5.486694	6.393688
08896		62.435398	-5.463530	6.401103
08897		62.430469	-5.437051	6.409969
08898		62.425264	-5.413619	6.416844
08899		62.423863	-5.392404	6.420558
08900		62.424417	-5.367918	6.423864
08901		62.434771	-5.333929	6.423154
08902		62.447764	-5.294133	6.426205
08903		62.472565	-5.242614	6.428609
08904		62.514210	-5.170811	6.435014
08905		62.580306	-5.073653	6.442004
08906		62.672858	-4.958940	6.449766
08907		62.797253	-4.826062	6.456376
08908		62.955202	-4.681183	6.460593
08909		63.137416	-4.525110	6.461255
08910		63.351867	-4.361097	6.450044
08911		63.582990	-4.182363	6.445553
08912		63.818678	-4.018382	6.439954
08913		64.186124	-3.998415	6.525841
08914		64.477862	-3.975284	6.610253
08915		64.690758	-3.924434	6.664134
08916		64.805180	-3.879715	6.716788
08917		64.856324	-3.889310	6.746502
08918		64.891941	-3.965650	6.789058
08919		64.924431	-4.097418	6.839879
08920		64.967383	-4.260804	6.894814
08921		65.043449	-4.431200	6.962323
08922		65.162629	-4.601004	7.042172
08923		65.321814	-4.770812	7.134216
08924		65.501734	-4.944090	7.232470
08925		65.682684	-5.127781	7.335042
08926		65.852304	-5.337682	7.436953
08927		65.992086	-5.585493	7.534071
08928		66.086739	-5.893384	7.626320
08929		66.127667	-6.265153	7.713555
08930		66.120768	-6.710924	7.793031
08931		66.084366	-7.216323	7.867384
08932		66.031571	-7.760560	7.945046
08933		65.974704	-8.323960	8.032544
08934		65.912101	-8.910241	8.141527
08935		65.844661	-9.506093	8.274538
08936		65.773305	-10.117726	8.428432
08937		65.705641	-10.739783	8.593101
08938		65.649815	-11.382061	8.766362
08939		65.599336	-12.046148	8.945840
08940		65.552581	-12.737426	9.130951
08941		65.510080	-13.463301	9.323986
08942		65.456151	-14.235506	9.535916
08943		65.373460	-15.047283	9.758586
08944		65.249753	-15.910045	9.989550
08945		65.082087	-16.816943	10.221356
08946		64.872384	-17.771689	10.448818
08947		64.620700	-18.773159	10.676460
08948		64.335210	-19.840078	10.901587
08949		64.035114	-20.974099	11.126922
08950		63.710962	-22.163210	11.347253
08951		63.363526	-23.394876	11.567063
08952		63.009342	-24.665245	11.793869
08953		62.645177	-25.968498	12.032538
08954		62.262124	-27.309213	12.297179
08955		61.828535	-28.679642	12.589909
08956		61.328089	-30.076591	12.918804
08957		60.764455	-31.504882	13.285114
08958		60.141473	-32.965951	13.692304
08959		59.456870	-34.444883	14.132841
08960		58.725853	-35.946672	14.596135
08961		57.978169	-37.474628	15.067627
08962		57.227971	-39.027144	15.527717
08963		56.498464	-40.593550	15.963342
08964		55.792522	-42.155435	16.381380
08965		55.127534	-43.699683	16.774856
08966		54.504058	-45.218286	17.163643
08967		53.923451	-46.702711	17.569016
08968		53.362412	-48.143499	18.002123
08969		52.806847	-49.525359	18.472730
08970		52.257290	-50.843565	18.986544
08971		51.722054	-52.095525	19.563896
08972		51.188544	-53.290201	20.198771
08973		50.657265	-54.435248	20.880639
08974		50.098788	-55.542748	21.607733
08975		49.521626	-56.633760	22.357416
08976		48.921468	-57.722478	23.119463
08977		48.297145	-58.812841	23.886461
08978		47.635804	-59.904658	24.657446
08979		46.916376	-60.993630	25.440851
08980		46.123231	-62.078122	26.262819
08981		45.251166	-63.152748	27.136253
08982		44.300240	-64.214293	28.073884
08983		43.277653	-65.252380	29.078439
08984		42.189427	-66.261994	30.150212
08985		41.058504	-67.249284	31.261241
08986		39.873364	-68.225819	32.429397
08987		38.615342	-69.189466	33.684092
08988		37.246173	-70.143712	35.045923
08989		35.715942	-71.082829	36.562217
08990		33.969336	-72.003232	38.264736
08991		31.892104	-72.907064	40.268514
08992		29.359774	-73.801691	42.702507
08993		26.234153	-74.685584	45.725250
08994		22.389573	-75.544336	49.478765
08995		17.791894	-76.337905	53.980122
08996		12.450012	-77.029694	59.203652
08997		6.749397	-77.587701	64.704133
08998		1.312792	-78.035143	69.776400
08999		-3.830049	-78.396781	74.497575
09000		-8.816491	-78.689667	79.119839
09001		-13.813097	-78.901203	83.879261
09002		-18.903986	-79.008706	88.852280
09003		-24.117011	-78.990484	94.026870
09004		-29.430411	-78.810656	99.349859
09005		-34.790854	-78.451461	104.741463
09006		-39.929625	-77.941951	109.871180
09007		-44.637521	-77.388625	114.423270
09008		-48.924046	-76.850984	118.369516
09009		-52.935430	-76.346299	121.925896
09010		-56.752448	-75.872230	125.228615
09011		-60.393943	-75.414299	128.368953
09012		-63.808565	-74.932110	131.369368
09013		-66.910009	-74.405127	134.179909
09014		-69.625104	-73.814231	136.736705
09015		-71.906326	-73.144658	138.971454
09016		-73.769569	-72.375581	140.876305
09017		-75.246659	-71.509286	142.442141
09018		-76.478213	-70.582248	143.735445
09019		-77.647502	-69.674514	144.846130
09020		-78.941826	-68.829224	145.922986
09021		-80.457623	-68.105604	147.026232
09022		-82.172892	-67.501055	148.173995
09023		-83.967877	-66.961017	149.361471
09024		-85.689082	-66.429129	150.552775
09025		-87.248099	-65.883378	151.707123
09026		-88.620370	-65.330638	152.790029
09027		-89.785988	-64.795757	153.749275
09028		-90.764552	-64.252996	154.582806
09029		-91.568940	-63.690854	155.276143
09030		-92.264372	-63.102092	155.864898
09031		-92.895008	-62.499711	156.355582
09032		-93.539008	-61.883275	156.791275
09033		-94.222984	-61.255776	157.195058
09034		-94.942263	-60.617270	157.587985
09035		-95.652093	-59.983249	157.958319
09036		-96.352322	-59.366935	158.336361
09037		-97.031128	-58.795688	158.714037
09038		-97.690577	-58.260024	159.093724
09039		-98.316221	-57.746107	159.473488
09040		-98.886466	-57.240803	159.833564
09041		-99.387082	-56.739732	160.155286
09042		-99.835689	-56.217765	160.450429
09043		-100.289017	-55.671793	160.736862
09044		-100.782256	-55.101752	161.017292
09045		-101.334743	-54.528518	161.307009
09046		-101.923153	-53.970211	161.592021
09047		-102.492999	-53.445499	161.850102
09048		-103.010992	-52.947994	162.076662
09049		-103.457245	-52.481900	162.275212
09050		-103.831374	-52.045191	162.443087
09051		-104.120199	-51.635871	162.571853
09052		-104.342552	-51.251030	162.665825
09053		-104.488098	-50.892622	162.710059
09054		-104.563131	-50.554296	162.702884
09055		-104.578031	-50.236216	162.654519
09056		-104.541709	-49.936375	162.569703
09057		-104.460465	-49.662481	162.455647
09058		-104.340619	-49.409969	162.326854
09059		-104.184451	-49.184607	162.187057
09060		-104.022294	-48.971117	162.052364
09061		-103.875760	-48.767352	161.928578
09062		-103.772347	-48.567657	161.834206
09063		-103.699132	-48.375182	161.759629
09064		-103.675960	-48.194736	161.724109
09065		-103.702218	-48.044034	161.728446
09066		-103.763930	-47.922234	161.765997
09067		-103.852170	-47.843942	161.833377
09068		-103.932217	-47.800553	161.911184
09069		-103.975721	-47.790228	161.990303
09070		-103.986441	-47.806934	162.058592
09071		-103.988781	-47.850483	162.128093
09072		-104.004295	-47.919662	162.204381
09073		-104.028388	-48.016094	162.281504
09074		-104.044166	-48.132686	162.354632
09075		-104.038993	-48.267218	162.417998
09076		-104.015639	-48.399612	162.466170
09077		-103.989466	-48.530823	162.506177
09078		-103.988712	-48.654698	162.541548
09079		-104.024223	-48.765970	162.576239
09080		-104.083959	-48.856553	162.613442
09081		-104.149447	-48.929956	162.651584
09082		-104.213402	-48.986259	162.694370
09083		-104.265851	-49.039849	162.743033
09084		-104.301720	-49.096369	162.792795
09085		-104.320784	-49.172600	162.849890
09086		-104.313365	-49.258587	162.895578
09087		-104.276452	-49.353380	162.920369
09088		-104.206609	-49.449264	162.915017
09089		-104.102410	-49.547527	162.879825
09090		-103.972701	-49.644827	162.822047
09091		-103.821929	-49.746519	162.746070
09092		-103.662844	-49.853979	162.669093
09093		-103.486519	-49.982078	162.587880
09094		-103.273106	-50.136557	162.496841
09095		-102.998937	-50.326928	162.392361
09096		-102.643178	-50.550157	162.269685
09097		-102.192798	-50.811686	162.115035
09098		-101.661602	-51.108703	161.930892
09099		-101.072005	-51.445182	161.710997
09100		-100.449721	-51.813351	161.462162
09101		-99.799370	-52.213592	161.165487
09102		-99.140264	-52.642728	160.838904
09103		-98.466110	-53.099903	160.477948
09104		-97.776225	-53.586167	160.081292
09105		-97.061366	-54.102932	159.649260
09106		-96.317613	-54.638657	159.186225
09107		-95.536846	-55.192316	158.691629
09108		-94.724537	-55.748820	158.169043
09109		-93.903077	-56.319411	157.617807
09110		-93.108554	-56.906518	157.055044
09111		-92.334801	-57.504712	156.482827
09112		-91.565044	-58.101919	155.897028
09113		-90.772363	-58.703596	155.288045
09114		-89.941561	-59.306470	154.647667
09115		-89.068739	-59.915801	153.970923
09116		-88.148914	-60.535031	153.240773
09117		-87.209369	-61.182540	152.457207
09118		-86.269680	-61.874695	151.628513
09119		-85.305697	-62.616702	150.735460
09120		-84.275958	-63.387656	149.757107
09121		-83.136005	-64.183819	148.674630
09122		-81.857999	-64.988528	147.468612
09123		-80.423053	-65.791417	146.122153
09124		-78.834116	-66.601430	144.627576
09125		-77.062057	-67.429584	142.945583
09126		-75.088706	-68.299028	141.052893
09127		-72.853802	-69.204062	138.896336
09128		-70.325797	-70.116880	136.462975
09129		-67.429006	-71.022947	133.702883
09130		-64.086086	-71.901703	130.555936
09131		-60.241739	-72.733814	126.977460
09132		-55.885473	-73.501993	122.935290
09133		-51.026476	-74.206624	118.420723
09134		-45.684261	-74.800890	113.420097
09135		-39.964577	-75.265859	108.018753
09136		-33.938655	-75.577306	102.269492
09137		-27.731737	-75.705263	96.293104
09138		-21.526912	-75.644663	90.282363
09139		-15.443935	-75.409958	84.371678
09140		-9.646794	-75.031679	78.749796
09141		-4.195288	-74.532217	73.513461
09142		0.893281	-73.948759	68.684109
09143		5.758280	-73.305406	64.119659
09144		10.395836	-72.599435	59.826701
09145		14.814263	-71.830879	55.804557
09146		18.979079	-70.998712	52.079733
09147		22.862102	-70.098881	48.669257
09148		26.432103	-69.143271	45.602164
09149		29.730670	-68.143812	42.839649
09150		32.788191	-67.112304	40.342026
09151		35.668824	-66.049333	38.047992
09152		38.423997	-64.946772	35.878206
09153		41.066296	-63.791424	33.807654
09154		43.587353	-62.589203	31.841077
09155		45.989529	-61.340617	29.966739
09156		48.239494	-60.058630	28.196051
09157		50.306851	-58.743269	26.537794
09158		52.184238	-57.412046	24.991604
09159		53.871788	-56.066739	23.550369
09160		55.347493	-54.722067	22.213337
09161		56.621848	-53.352767	20.979498
09162		57.731156	-51.943291	19.822313
09163		58.758964	-50.484102	18.706425
09164		59.745172	-48.976688	17.678096
09165		60.725581	-47.404983	16.729248
09166		61.697042	-45.777928	15.853049
09167		62.628437	-44.109584	15.054493
09168		63.486188	-42.427818	14.324668
09169		64.252193	-40.751442	13.647011
09170		64.927732	-39.104084	12.992284
09171		65.521619	-37.490522	12.345632
09172		66.093261	-35.890762	11.725535
09173		66.707603	-34.269468	11.147905
09174		67.414585	-32.619463	10.627968
09175		68.186733	-30.924266	10.180489
09176		68.971118	-29.203193	9.806367
09177		69.700920	-27.486508	9.511223
09178		70.308932	-25.826398	9.279790
09179		70.745402	-24.246578	9.098561
09180		70.982788	-22.774398	8.963143
09181		71.065960	-21.413963	8.863158
09182		71.047104	-20.150749	8.787190
09183		71.011657	-18.945203	8.719432
09184		71.018736	-17.782914	8.657212
09185		71.074250	-16.647357	8.590260
09186		71.167126	-15.526832	8.512031
09187		71.281089	-14.426397	8.432231
09188		71.401958	-13.360006	8.331463
09189		71.512497	-12.335597	8.215348
09190		71.617880	-11.375243	8.083461
09191		71.718327	-10.492582	7.947400
09192		71.814712	-9.685186	7.806728
09193		71.911274	-8.938796	7.653183
09194		72.013788	-8.254769	7.480158
09195		72.088800	-7.624636	7.285540
09196		72.101262	-7.051490	7.064161
09197		72.035272	-6.542850	6.813408
09198		71.914694	-6.126145	6.559213
09199		71.780370	-5.805435	6.321980
09200		71.666882	-5.554176	6.135197
09201		71.588268	-5.338122	6.021397
09202		71.531975	-5.120516	5.973566
09203		71.467567	-4.889649	5.970742
09204		71.374614	-4.648969	5.986329
09205		71.250548	-4.418909	5.987985
09206		71.112398	-4.228507	5.954664
09207		70.985632	-4.081459	5.882563
09208		70.878176	-3.974596	5.772139
09209		70.788889	-3.876454	5.640992
09210		70.719930	-3.767877	5.507909
09211		70.678790	-3.634125	5.403266
09212		70.671207	-3.486133	5.339441
09213		70.651149	-3.317518	5.323764
09214		70.596303	-3.144804	5.344551
09215		70.505512	-2.971674	5.383763
09216		70.395589	-2.810651	5.426784
09217		70.282628	-2.662983	5.460638
09218		70.172539	-2.526225	5.486414
09219		70.058415	-2.372150	5.500672
09220		69.960754	-2.182961	5.515009
09221		69.811727	-2.134754	5.492428
09222		69.365482	-2.349839	5.546331
09223		68.955868	-2.767794	5.427222
09224		68.821265	-3.158795	5.330347
09225		68.712671	-3.346193	5.277208
09226		68.523014	-3.401729	5.259570
09227		68.296689	-3.395541	5.273918
09228		68.102444	-3.358116	5.275958
09229		67.956855	-3.316633	5.240643
09230		67.858179	-3.288402	5.178019
09231		67.765650	-3.268506	5.117820
09232		67.636845	-3.263125	5.076838
09233		67.444321	-3.290270	5.053263
09234		67.186250	-3.341747	5.058109
09235		66.861248	-3.396166	5.084679
09236		66.483921	-3.455483	5.135846
09237		66.049947	-3.532359	5.197765
09238		65.592607	-3.637519	5.266009
09239		65.148491	-3.770539	5.328680
09240		64.747560	-3.919805	5.364549
09241		64.418169	-4.062450	5.386962
09242		64.172552	-4.186399	5.397745
09243		64.013605	-4.286371	5.402155
09244		63.946522	-4.358268	5.397312
09245		63.950462	-4.399966	5.386440
09246		64.013859	-4.418463	5.370748
09247		64.103173	-4.418829	5.352104
09248		64.194446	-4.412468	5.337918
09249		64.257832	-4.405198	5.324231
09250		64.287202	-4.403500	5.317798
09251		64.278658	-4.410992	5.319344
09252		64.230238	-4.434652	5.324138
09253		64.147984	-4.467214	5.334318
09254		64.045384	-4.513506	5.344410
09255		63.941780	-4.563506	5.349785
09256		63.849284	-4.616713	5.349468
09257		63.768287	-4.662685	5.348534
09258		63.701270	-4.699374	5.355091
09259		63.641705	-4.718266	5.367562
09260		63.593694	-4.723309	5.370654
09261		63.568822	-4.718287	5.372684
09262		63.562563	-4.704269	5.365224
09263		63.562905	-4.678840	5.362246
09264		63.562307	-4.652534	5.357322
09265		63.559220	-4.627812	5.347060
09266		63.553692	-4.614275	5.329722
09267		63.545195	-4.598104	5.313013
09268		63.532329	-4.577080	5.304249
09269		63.523854	-4.537017	5.301701
09270		63.530975	-4.476114	5.309604
09271		63.564971	-4.393315	5.317617
09272		63.625890	-4.300340	5.319877
09273		63.713602	-4.200119	5.310058
09274		63.815867	-4.105295	5.277807
09275		63.927659	-4.020124	5.227167
09276		64.037894	-3.950230	5.172584
09277		64.121589	-3.885303	5.120764
09278		64.177520	-3.834754	5.087562
09279		64.209614	-3.796006	5.068745
09280		64.222875	-3.778237	5.058989
09281		64.222393	-3.774461	5.054772
09282		64.222744	-3.788907	5.046316
09283		64.228751	-3.809193	5.035926
09284		64.247975	-3.835740	5.019661
09285		64.279903	-3.860988	5.000608
09286		64.315468	-3.883761	4.982485
09287		64.352372	-3.900168	4.967486
09288		64.383921	-3.912663	4.954787
09289		64.407457	-3.918003	4.949984
09290		64.419198	-3.925529	4.951626
09291		64.415176	-3.930141	4.951358
09292		64.405588	-3.939187	4.956859
09293		64.390704	-3.943935	4.962305
09294		64.375419	-3.949514	4.972867
09295		64.364222	-3.956228	4.977099
09296		64.361507	-3.965984	4.976226
09297		64.364387	-3.967613	4.976859
09298		64.372553	-3.967167	4.982165
09299		64.382555	-3.953671	4.988609
09300		64.402202	-3.932122	4.997435
09301		64.432783	-3.892903	5.008491
09302		64.477158	-3.840890	5.019794
09303		64.537175	-3.776252	5.029444
09304		64.614141	-3.704834	5.036430
09305		64.704927	-3.624463	5.040869
09306		64.810069	-3.539663	5.045869
09307		64.922810	-3.443657	5.049013
09308		65.049347	-3.336197	5.057161
09309		65.171614	-3.227372	5.062609
09310		65.288932	-3.123152	5.053957
09311		65.396205	-3.028523	5.035302
09312		65.480248	-2.921844	5.033197
09313		65.549777	-2.797195	5.045033
09314		65.614178	-2.659378	5.068948
09315		65.688434	-2.494091	5.104597
09316		65.794412	-2.300248	5.151773
09317		65.927124	-2.071921	5.219660
09318		66.070923	-1.847201	5.303070
09319		66.472069	-1.748824	5.498339
09320		66.771179	-1.653389	5.681237
09321		66.894238	-1.556494	5.818228
09322		66.899119	-1.549004	5.918781
09323		66.893863	-1.657870	5.994958
09324		66.912195	-1.854811	6.056895
09325		66.932790	-2.105666	6.112812
09326		66.946700	-2.402935	6.171834
09327		66.953917	-2.734590	6.247489
09328		66.977227	-3.112138	6.328880
09329		67.021566	-3.535343	6.403090
09330		67.077649	-4.017305	6.462969
09331		67.119947	-4.554855	6.505162
09332		67.130568	-5.151392	6.538939
09333		67.107943	-5.800833	6.573019
09334		67.053754	-6.500345	6.616259
09335		66.983858	-7.239596	6.662006
09336		66.918919	-8.009581	6.715489
09337		66.879288	-8.793184	6.788242
09338		66.865904	-9.586754	6.884013
09339		66.873683	-10.383538	7.003051
09340		66.903977	-11.194317	7.140614
09341		66.942631	-12.015247	7.284021
09342		66.975532	-12.867912	7.428981
09343		66.966330	-13.751185	7.577327
09344		66.912323	-14.673172	7.733587
09345		66.825047	-15.626443	7.898545
09346		66.719713	-16.607014	8.070226
09347		66.596207	-17.602742	8.254722
09348		66.454093	-18.612913	8.453731
09349		66.289599	-19.631816	8.670532
09350		66.101238	-20.661325	8.902637
09351		65.880010	-21.698117	9.150278
09352		65.627893	-22.752964	9.415063
09353		65.345076	-23.825754	9.690797
09354		65.030705	-24.914001	9.969264
09355		64.701234	-26.006632	10.250535
09356		64.382053	-27.118682	10.532638
09357		64.087981	-28.243688	10.816653
09358		63.825196	-29.386663	11.090116
09359		63.580433	-30.559399	11.344340
09360		63.322948	-31.774247	11.573678
09361		63.020828	-33.029433	11.781350
09362		62.662927	-34.318689	11.976566
09363		62.251087	-35.642402	12.173496
09364		61.788556	-37.003174	12.363895
09365		61.283931	-38.391946	12.556376
09366		60.745814	-39.792284	12.755216
09367		60.196003	-41.202067	12.976809
09368		59.630227	-42.621585	13.225756
09369		59.054385	-44.046484	13.504739
09370		58.477834	-45.488236	13.805632
09371		57.892801	-46.955510	14.122606
09372		57.281768	-48.441486	14.441499
09373		56.614180	-49.946971	14.778700
09374		55.865936	-51.486870	15.146395
09375		54.994428	-53.083872	15.595794
09376		53.980401	-54.763056	16.155646
09377		52.785982	-56.545176	16.875639
09378		51.362058	-58.448822	17.832536
09379		49.640372	-60.466359	19.103708
09380		47.582164	-62.535657	20.660926
09381		45.264224	-64.558936	22.323981
09382		42.779234	-66.490161	24.005516
09383		40.139035	-68.337526	25.821285
09384		37.298383	-70.122131	27.948736
09385		34.196306	-71.835652	30.485149
09386		30.643600	-73.451567	33.619676
09387		26.476673	-74.939844	37.502953
09388		21.436963	-76.272327	42.379082
09389		15.440317	-77.412299	48.313733
09390		8.645944	-78.323836	55.079072
09391		1.514847	-79.021983	62.114340
09392		-5.426989	-79.540056	68.842065
09393		-12.077358	-79.919515	75.244884
09394		-18.585252	-80.197414	81.570579
09395		-24.951946	-80.376184	87.843612
09396		-31.141806	-80.446924	94.010380
09397		-37.108808	-80.409101	100.009263
09398		-42.776169	-80.253773	105.750687
09399		-48.078779	-79.971588	111.175534
09400		-52.924616	-79.593654	116.159690
09401		-57.172457	-79.205667	120.470551
09402		-60.891157	-78.850105	124.151510
09403		-64.119498	-78.522119	127.279058
09404		-66.938573	-78.177888	130.008695
09405		-69.380924	-77.808641	132.388392
09406		-71.466683	-77.421803	134.436870
09407		-73.246492	-77.038352	136.184681
09408		-74.759208	-76.656940	137.682585
09409		-76.005444	-76.272264	138.936813
09410		-77.014930	-75.883654	139.979713
09411		-77.935237	-75.505626	140.931647
09412		-78.817473	-75.152063	141.811186
09413		-79.763806	-74.818108	142.715210
09414		-80.850478	-74.485276	143.744849
09415		-82.058819	-74.136412	144.903501
09416		-83.380013	-73.772600	146.173459
09417		-84.746272	-73.391341	147.483500
09418		-86.077550	-72.990792	148.755779
09419		-87.281226	-72.573419	149.904722
09420		-88.368016	-72.137498	150.942978
09421		-89.318995	-71.693780	151.848062
09422		-90.199564	-71.240297	152.670495
09423		-91.070863	-70.799038	153.451098
09424		-91.972930	-70.365958	154.219384
09425		-92.891212	-69.928197	154.986082
09426		-93.823925	-69.470161	155.757958
09427		-94.740364	-68.989343	156.515314
09428		-95.599570	-68.482382	157.231162
09429		-96.349950	-67.948750	157.873960
09430		-96.940077	-67.376624	158.409797
09431		-97.368825	-66.778330	158.843963
09432		-97.652584	-66.161555	159.179851
09433		-97.890500	-65.571899	159.461580
09434		-98.208697	-65.064997	159.736196
09435		-98.617370	-64.648773	160.006472
09436		-99.049679	-64.276897	160.269431
09437		-99.422619	-63.915549	160.490112
09438		-99.728881	-63.551146	160.676001
09439		-99.994517	-63.180627	160.848339
09440		-100.260719	-62.800931	161.036468
09441		-100.516934	-62.415007	161.230084
09442		-100.802237	-62.033356	161.452389
09443		-101.127222	-61.676548	161.686423
09444		-101.496712	-61.347778	161.926639
09445		-101.901402	-61.048467	162.164024
09446		-102.323033	-60.770069	162.391657
09447		-102.731319	-60.504223	162.601764
09448		-103.097300	-60.236118	162.783321
09449		-103.424224	-59.957905	162.951740
09450		-103.730745	-59.666581	163.125912
09451		-104.032414	-59.373415	163.310546
09452		-104.350037	-59.079478	163.519045
09453		-104.653094	-58.793322	163.722637
09454		-104.937951	-58.512777	163.909867
09455		-105.213073	-58.245820	164.069646
09456		-105.484576	-57.991670	164.201308
09457		-105.715238	-57.746526	164.277516
09458		-105.900802	-57.508104	164.307960
09459		-106.012753	-57.275317	164.278054
09460		-106.072435	-57.056776	164.206750
09461		-106.104621	-56.867926	164.110098
09462		-106.153914	-56.705684	164.013342
09463		-106.201051	-56.558257	163.922459
09464		-106.248479	-56.416995	163.852877
09465		-106.337812	-56.306741	163.840201
09466		-106.463310	-56.215802	163.882292
09467		-106.581406	-56.146384	163.958044
09468		-106.668258	-56.088372	164.046840
09469		-106.705642	-56.035586	164.132512
09470		-106.723259	-55.996593	164.219609
09471		-106.750642	-55.984478	164.316769
09472		-106.787997	-55.990416	164.419518
09473		-106.819371	-56.017987	164.517069
09474		-106.859353	-56.062464	164.621377
09475		-106.894530	-56.120928	164.717337
09476		-106.936559	-56.196734	164.802039
09477		-106.991783	-56.298973	164.876201
09478		-107.047578	-56.421735	164.931091
09479		-107.075357	-56.569998	164.962898
09480		-107.075879	-56.741739	164.985343
09481		-107.048403	-56.947680	165.012220
09482		-106.996592	-57.187249	165.046739
09483		-106.910550	-57.458976	165.088645
09484		-106.811589	-57.755065	165.139945
09485		-106.703468	-58.082561	165.191540
09486		-106.578655	-58.438039	165.235480
09487		-106.424015	-58.826162	165.255926
09488		-106.233394	-59.247153	165.248138
09489		-105.991272	-59.711171	165.195598
09490		-105.707944	-60.215806	165.096038
09491		-105.408199	-60.766583	164.954155
09492		-105.129035	-61.355339	164.785983
09493		-104.832634	-61.972539	164.562860
09494		-104.509069	-62.611910	164.295983
09495		-104.103083	-63.266395	163.959934
09496		-103.586898	-63.934482	163.551528
09497		-102.974115	-64.635612	163.083033
09498		-102.276846	-65.391434	162.566423
09499		-101.461037	-66.209321	161.985525
09500		-100.518753	-67.082329	161.319729
09501		-99.512656	-68.018908	160.602370
09502		-98.475677	-69.004948	159.841129
09503		-97.427024	-70.031635	159.055398
09504		-96.365627	-71.069167	158.266943
09505		-95.263312	-72.094239	157.484678
09506		-94.105415	-73.096239	156.700282
09507		-92.873346	-74.078383	155.888742
09508		-91.623812	-75.046607	155.070410
09509		-90.345835	-76.052884	154.186411
09510		-88.914769	-77.077637	153.113941
09511		-87.186594	-78.096793	151.736318
09512		-85.042745	-79.111677	149.928936
09513		-82.264117	-80.138130	147.462867
09514		-78.606093	-81.132434	144.128326
09515		-73.807711	-82.069814	139.701234
09516		-67.774265	-82.927127	134.087158
09517		-60.281630	-83.697385	127.031329
09518		-51.136963	-84.356513	118.322821
09519		-40.015037	-84.867450	107.635456
09520		-26.987171	-85.182158	95.033896
09521		-12.712096	-85.225710	81.186497
09522		1.117707	-84.981996	67.787311
09523		13.239512	-84.474989	56.105786
09524		22.994558	-83.768740	46.816527
09525		30.751565	-82.906431	39.540860
09526		37.030459	-81.925050	33.744497
09527		42.294738	-80.814309	28.948845
09528		46.837975	-79.571090	24.847505
09529		50.896743	-78.180514	21.191991
09530		54.407994	-76.678017	18.095689
09531		57.342316	-75.089778	15.630990
09532		59.752772	-73.482430	13.741653
09533		61.720022	-71.847888	12.306986
09534		63.311296	-70.194925	11.222704
09535		64.584920	-68.504594	10.424160
09536		65.637762	-66.800305	9.805810
09537		66.537718	-65.096336	9.302107
09538		67.342243	-63.417149	8.830941
09539		68.101849	-61.748065	8.314396
09540		68.833664	-60.110198	7.756549
09541		69.525921	-58.487807	7.208348
09542		70.162351	-56.875604	6.730326
09543		70.746545	-55.250086	6.351366
09544		71.285505	-53.600952	6.065668
09545		71.782975	-51.914485	5.858042
09546		72.243023	-50.210973	5.697979
09547		72.664018	-48.497673	5.546640
09548		73.041897	-46.808034	5.382934
09549		73.398574	-45.152606	5.188798
09550		73.731205	-43.539821	4.960647
09551		74.043635	-41.963645	4.698494
09552		74.339128	-40.431498	4.417544
09553		74.626579	-38.911856	4.146740
09554		74.912671	-37.403320	3.908606
09555		75.199376	-35.899371	3.713992
09556		75.464729	-34.422074	3.559475
09557		75.666392	-32.983185	3.435801
09558		75.782444	-31.620155	3.330571
09559		75.808091	-30.325731	3.254693
09560		75.765031	-29.106528	3.220556
09561		75.689184	-27.962185	3.229199
09562		75.594668	-26.898508	3.271359
09563		75.470028	-25.907794	3.328054
09564		75.300292	-24.997762	3.361646
09565		75.072563	-24.150590	3.376195
09566		74.796756	-23.363563	3.371703
09567		74.469916	-22.613622	3.355954
09568		74.122482	-21.916586	3.332657
09569		73.769928	-21.263056	3.316885
09570		73.426568	-20.635303	3.309123
09571		73.115285	-20.033027	3.304449
09572		72.844401	-19.461647	3.306254
09573		72.594442	-18.913495	3.314861
09574		72.362228	-18.369058	3.320936
09575		72.150338	-17.826530	3.328679
09576		71.964179	-17.303359	3.339387
09577		71.768630	-16.797488	3.337661
09578		71.543644	-16.312428	3.324678
09579		71.284370	-15.846543	3.306129
09580		71.028154	-15.404349	3.287024
09581		70.798090	-14.977966	3.266195
09582		70.620685	-14.570792	3.229620
09583		70.486901	-14.174406	3.178087
09584		70.367970	-13.777532	3.120686
09585		70.240306	-13.379491	3.073538
09586		70.097850	-12.990375	3.047043
09587		69.945708	-12.607990	3.044487
09588		69.792057	-12.226502	3.048389
09589		69.651042	-11.849347	3.058782
09590		69.536708	-11.502575	3.052640
09591		69.445707	-11.195304	3.028052
09592		69.361455	-10.931465	2.979782
09593		69.266986	-10.704341	2.921551
09594		69.152196	-10.508771	2.864990
09595		69.013781	-10.331591	2.826898
09596		68.867656	-10.169701	2.809344
09597		68.726090	-10.014527	2.811849
09598		68.581814	-9.868864	2.822683
09599		68.440813	-9.729259	2.827215
09600		68.304711	-9.605920	2.832510
09601		68.166073	-9.490035	2.846995
09602		68.026708	-9.368443	2.872601
09603		67.903200	-9.237728	2.909799
09604		67.807707	-9.104045	2.951999
09605		67.720285	-8.961568	2.994584
09606		67.623578	-8.815684	3.041557
09607		67.513570	-8.663052	3.092784
09608		67.404812	-8.505696	3.148486
09609		67.306810	-8.339873	3.203702
09610		67.222369	-8.164724	3.251151
09611		67.150252	-7.979040	3.285719
09612		67.091658	-7.787294	3.307224
09613		67.043346	-7.588484	3.317101
09614		67.006889	-7.388574	3.328997
09615		66.969982	-7.177712	3.345408
09616		66.932943	-6.957638	3.366775
09617		66.858073	-6.721393	3.392638
09618		66.750675	-6.455047	3.422268
09619		66.506391	-6.365104	3.457243
09620		65.912647	-6.229147	3.804906
09621		65.858060	-6.389982	3.817178
09622		65.993212	-6.613340	3.767967
09623		66.178273	-6.828378	3.624957
09624		66.163689	-6.995484	3.391925
09625		65.996550	-7.143666	3.178826
09626		65.788375	-7.244470	3.054047
09627		65.637801	-7.251707	3.009861
09628		65.495773	-7.122615	3.054865
09629		65.318002	-6.900198	3.159035
09630		65.133130	-6.692012	3.287860
09631		65.005460	-6.552069	3.382168
09632		64.987834	-6.497367	3.418251
09633		65.054001	-6.499134	3.409742
09634		65.152871	-6.517101	3.389247
09635		65.230255	-6.509199	3.387177
09636		65.279001	-6.479368	3.416639
09637		65.305868	-6.428750	3.468512
09638		65.327731	-6.383555	3.526456
09639		65.361956	-6.348168	3.580250
09640		65.410544	-6.324895	3.622854
09641		65.466019	-6.303294	3.655989
09642		65.518102	-6.282430	3.684756
09643		65.559638	-6.262611	3.711082
09644		65.588790	-6.246665	3.734087
09645		65.608006	-6.229322	3.759006
09646		65.625535	-6.214880	3.778989
09647		65.637141	-6.198771	3.792535
09648		65.645205	-6.184600	3.801835
09649		65.645592	-6.166405	3.806376
09650		65.637861	-6.152972	3.809576
09651		65.619417	-6.136274	3.804179
09652		65.603349	-6.127418	3.798522
09653		65.582329	-6.117624	3.795726
09654		65.550045	-6.113062	3.789934
09655		65.511978	-6.100637	3.786026
09656		65.472537	-6.085144	3.784389
09657		65.435823	-6.069765	3.784843
09658		65.409462	-6.062273	3.783083
09659		65.403925	-6.056514	3.774455
09660		65.416839	-6.064580	3.764679
09661		65.442091	-6.079283	3.754998
09662		65.473081	-6.101885	3.743422
09663		65.511411	-6.120058	3.734201
09664		65.557962	-6.139083	3.721546
09665		65.609784	-6.154362	3.704163
09666		65.661083	-6.162025	3.686439
09667		65.704383	-6.155926	3.669513
09668		65.731066	-6.140222	3.661619
09669		65.739811	-6.115665	3.655626
09670		65.732195	-6.089744	3.649487
09671		65.707988	-6.061443	3.640586
09672		65.671975	-6.036128	3.631680
09673		65.626069	-6.007883	3.625633
09674		65.576317	-5.983747	3.623360
09675		65.527672	-5.957595	3.622631
09676		65.479147	-5.934711	3.626290
09677		65.431501	-5.915359	3.632123
09678		65.387861	-5.906017	3.638233
09679		65.350188	-5.904107	3.641161
09680		65.320441	-5.911807	3.637156
09681		65.300349	-5.917056	3.627195
09682		65.295006	-5.922661	3.614951
09683		65.300247	-5.925124	3.602478
09684		65.318290	-5.926825	3.589498
09685		65.342786	-5.921391	3.578437
09686		65.370919	-5.915237	3.567469
09687		65.401764	-5.904972	3.551328
09688		65.438338	-5.894332	3.525529
09689		65.480498	-5.874553	3.492219
09690		65.533998	-5.846263	3.458338
09691		65.595887	-5.810357	3.426694
09692		65.661258	-5.773430	3.397350
09693		65.723456	-5.728398	3.377141
09694		65.774647	-5.677349	3.378610
09695		65.812538	-5.625336	3.397252
09696		65.843150	-5.622245	3.413091
09697		65.929933	-5.668195	3.505151
09698		65.931248	-5.739460	3.552584
09699		65.894885	-5.820994	3.570098
09700		65.845556	-5.937598	3.551671
09701		65.801055	-6.092937	3.519830
09702		65.732537	-6.288129	3.482147
09703		65.610999	-6.513463	3.446880
09704		65.463098	-6.769480	3.416868
09705		65.313305	-7.054558	3.398243
09706		65.173270	-7.369559	3.386545
09707		65.046179	-7.709606	3.377979
09708		64.939318	-8.080028	3.373317
09709		64.844686	-8.471890	3.369728
09710		64.756527	-8.893229	3.364897
09711		64.670316	-9.337751	3.367239
09712		64.577933	-9.808799	3.383939
09713		64.475754	-10.300424	3.412440
09714		64.368432	-10.814589	3.458423
09715		64.261376	-11.342057	3.522740
09716		64.167595	-11.886602	3.600767
09717		64.099474	-12.442006	3.695542
09718		64.058827	-13.013994	3.815564
09719		64.030861	-13.587273	3.969851
09720		64.005259	-14.173185	4.153408
09721		63.974549	-14.775291	4.356327
09722		63.926749	-15.409915	4.563536
09723		63.850569	-16.072303	4.766638
09724		63.749108	-16.776900	4.957941
09725		63.628776	-17.527296	5.132486
09726		63.489744	-18.326540	5.292686
09727		63.314827	-19.158687	5.448948
09728		63.112026	-20.015418	5.607649
09729		62.895661	-20.879963	5.785566
09730		62.675872	-21.744882	5.986837
09731		62.460031	-22.601693	6.212849
09732		62.255737	-23.459550	6.448003
09733		62.043767	-24.310460	6.694755
09734		61.833647	-25.172470	6.936637
09735		61.619397	-26.037973	7.167141
09736		61.410473	-26.922516	7.388168
09737		61.189432	-27.813881	7.602518
09738		60.955374	-28.723198	7.810866
09739		60.699770	-29.654664	8.012252
09740		60.411055	-30.615196	8.200365
09741		60.106238	-31.594794	8.372195
09742		59.805650	-32.596170	8.539540
09743		59.499184	-33.608618	8.714440
09744		59.184869	-34.635856	8.912529
09745		58.857205	-35.671942	9.133039
09746		58.517199	-36.729169	9.365828
09747		58.173046	-37.817226	9.607777
09748		57.811832	-38.949584	9.853116
09749		57.419799	-40.126675	10.099561
09750		56.972708	-41.355125	10.361522
09751		56.463629	-42.621538	10.633940
09752		55.898083	-43.916439	10.918560
09753		55.313546	-45.224332	11.214190
09754		54.740221	-46.533212	11.508764
09755		54.189628	-47.832783	11.821478
09756		53.662299	-49.121819	12.145346
09757		53.150873	-50.387817	12.494212
09758		52.668595	-51.628405	12.840379
09759		52.227744	-52.830208	13.187046
09760		51.837825	-53.999193	13.527556
09761		51.494580	-55.134528	13.874029
09762		51.186709	-56.240735	14.214125
09763		50.884229	-57.311507	14.557251
09764		50.578220	-58.363404	14.893186
09765		50.256481	-59.415194	15.241565
09766		49.914196	-60.483604	15.608095
09767		49.535798	-61.561835	15.983056
09768		49.110919	-62.647714	16.375904
09769		48.604682	-63.729848	16.827551
09770		47.997120	-64.804889	17.360024
09771		47.281745	-65.870395	17.988371
09772		46.468002	-66.933535	18.719326
09773		45.550730	-68.003877	19.578090
09774		44.495224	-69.088021	20.590071
09775		43.242941	-70.195164	21.810073
09776		41.790024	-71.310953	23.186547
09777		40.184018	-72.409891	24.631612
09778		38.488568	-73.494979	26.094383
09779		36.675643	-74.565283	27.649826
09780		34.687007	-75.637137	29.393811
09781		32.426700	-76.699948	31.435302
09782		29.718996	-77.743658	33.948891
09783		26.368762	-78.756188	37.127325
09784		22.003329	-79.736125	41.346454
09785		16.089051	-80.656415	47.131002
09786		8.086980	-81.470430	54.994397
09787		-2.488058	-82.094108	65.379711
09788		-15.377624	-82.428046	77.976044
09789		-29.579185	-82.377397	91.758611
09790		-43.609777	-81.918913	105.246448
09791		-56.124233	-81.077218	117.132007
09792		-66.412088	-79.943315	126.734562
09793		-74.455670	-78.627738	134.088989
09794		-80.576677	-77.225700	139.583886
09795		-85.124308	-75.835205	143.612853
09796		-88.478179	-74.534574	146.586802
09797		-91.037440	-73.383876	148.871692
09798		-93.111197	-72.424489	150.746611
09799		-94.810016	-71.630708	152.339889
09800		-96.215026	-70.953626	153.737313
09801		-97.362884	-70.363762	154.938385
09802		-98.329977	-69.831650	155.979631
09803		-99.147066	-69.345469	156.856759
09804		-99.859378	-68.893747	157.597239
09805		-100.460910	-68.485961	158.194230
09806		-100.961261	-68.109741	158.670062
09807		-101.366862	-67.784718	159.033114
09808		-101.717415	-67.512199	159.317325
09809		-102.018970	-67.278737	159.555946
09810		-102.283264	-67.067749	159.782141
09811		-102.539749	-66.883091	160.015093
09812		-102.824055	-66.718235	160.284683
09813		-103.138824	-66.569936	160.592150
09814		-103.468048	-66.411183	160.918794
09815		-103.781101	-66.236353	161.227659
09816		-104.106110	-66.035310	161.534881
09817		-104.422112	-65.809328	161.820728
09818		-104.725452	-65.554418	162.079053
09819		-105.004719	-65.280309	162.303299
09820		-105.255705	-64.990327	162.488439
09821		-105.491125	-64.694182	162.658188
09822		-105.714700	-64.395555	162.821197
09823		-105.943187	-64.104439	162.986017
09824		-106.184853	-63.812833	163.175820
09825		-106.418864	-63.510591	163.374376
09826		-106.645333	-63.190666	163.586325
09827		-106.867199	-62.849708	163.806622
09828		-107.113633	-62.470896	164.052437
09829		-107.395323	-62.053468	164.313133
09830		-107.709337	-61.590053	164.583736
09831		-108.013955	-61.084200	164.830579
09832		-108.359535	-60.560330	165.093170
09833		-108.783832	-60.072167	165.383857
09834		-109.254265	-59.633077	165.690493
09835		-109.674565	-59.237777	165.982043
09836		-110.013237	-58.877309	166.241734
09837		-110.280458	-58.566130	166.468577
09838		-110.507994	-58.301345	166.666637
09839		-110.709518	-58.071033	166.845267
09840		-110.904926	-57.838328	167.029490
09841		-111.093396	-57.584494	167.226418
09842		-111.296341	-57.308937	167.433778
09843		-111.501734	-57.025541	167.636957
09844		-111.680366	-56.738133	167.804671
09845		-111.820296	-56.469373	167.931921
09846		-111.917781	-56.236484	168.010919
09847		-111.985434	-56.063850	168.056968
09848		-112.023639	-55.951471	168.076085
09849		-112.018277	-55.894766	168.058560
09850		-111.960057	-55.878490	167.997045
09851		-111.867397	-55.891246	167.900477
09852		-111.756994	-55.909711	167.786205
09853		-111.649861	-55.921666	167.662729
09854		-111.570455	-55.917875	167.561448
09855		-111.510394	-55.902857	167.474800
09856		-111.483390	-55.878779	167.407700
09857		-111.474736	-55.856492	167.349473
09858		-111.463658	-55.837687	167.287880
09859		-111.433007	-55.829166	167.217326
09860		-111.382180	-55.828860	167.129454
09861		-111.331462	-55.848430	167.050350
09862		-111.296089	-55.884547	166.990965
09863		-111.272738	-55.936480	166.953928
09864		-111.264748	-55.998400	166.939808
09865		-111.276708	-56.069190	166.943619
09866		-111.307463	-56.147290	166.961041
09867		-111.356264	-56.239095	166.990898
09868		-111.412053	-56.344899	167.035140
09869		-111.455350	-56.469465	167.085409
09870		-111.489952	-56.610567	167.145329
09871		-111.512812	-56.772905	167.210977
09872		-111.520638	-56.956417	167.276577
09873		-111.506895	-57.167452	167.333124
09874		-111.459796	-57.394176	167.386454
09875		-111.358987	-57.632298	167.426952
09876		-111.194559	-57.875918	167.446977
09877		-110.975423	-58.135063	167.446682
09878		-110.706488	-58.415806	167.427543
09879		-110.387093	-58.733334	167.387561
09880		-110.063743	-59.103428	167.348281
09881		-109.740424	-59.531286	167.302759
09882		-109.391949	-60.000847	167.243037
09883		-109.043828	-60.519175	167.179746
09884		-108.677697	-61.082534	167.094052
09885		-108.292294	-61.692185	166.977461
09886		-107.860300	-62.340752	166.809030
09887		-107.372731	-63.020738	166.582811
09888		-106.816918	-63.727545	166.284740
09889		-106.179672	-64.469775	165.905356
09890		-105.465811	-65.244788	165.447469
09891		-104.674026	-66.062561	164.906952
09892		-103.787924	-66.916822	164.273367
09893		-102.790138	-67.809107	163.540760
09894		-101.656316	-68.726610	162.691320
09895		-100.374790	-69.684273	161.707225
09896		-98.945989	-70.665689	160.574851
09897		-97.333483	-71.647339	159.245858
09898		-95.563300	-72.613881	157.716851
09899		-93.612346	-73.575459	155.944354
09900		-91.428661	-74.520556	153.882366
09901		-88.871471	-75.449444	151.421123
09902		-85.891351	-76.350423	148.534343
09903		-82.335646	-77.242827	145.076416
09904		-78.092923	-78.109462	140.952850
09905		-73.041859	-78.937890	136.049842
09906		-67.123061	-79.699383	130.278103
09907		-60.333113	-80.363588	123.620886
09908		-52.751772	-80.887339	116.164549
09909		-44.567894	-81.240282	108.093357
09910		-36.157925	-81.403110	99.785679
09911		-27.923920	-81.376405	91.636138
09912		-20.205948	-81.185855	83.965430
09913		-13.080590	-80.862655	76.844289
09914		-6.620618	-80.433271	70.360758
09915		-0.794402	-79.916273	64.520592
09916		4.444047	-79.326602	59.301295
09917		9.302318	-78.680890	54.514986
09918		13.805309	-77.978121	50.141270
09919		18.005846	-77.210464	46.113908
09920		21.828624	-76.393494	42.500128
09921		25.259289	-75.532264	39.302076
09922		28.314943	-74.649655	36.490276
09923		31.016428	-73.758441	34.042983
09924		33.436365	-72.872263	31.868251
09925		35.638987	-71.977517	29.882380
09926		37.647556	-71.063243	28.061227
09927		39.489681	-70.130199	26.377754
09928		41.140654	-69.192701	24.856331
09929		42.595991	-68.254166	23.491790
09930		43.855316	-67.326809	22.276464
09931		44.969769	-66.401366	21.174905
09932		45.966134	-65.472999	20.177955
09933		46.901988	-64.523535	19.242152
09934		47.826402	-63.533595	18.343240
09935		48.764451	-62.489098	17.456414
09936		49.703997	-61.395887	16.590564
09937		50.634689	-60.251018	15.744195
09938		51.549813	-59.067237	14.927821
09939		52.463498	-57.858440	14.141162
09940		53.362607	-56.646074	13.407465
09941		54.240111	-55.435911	12.710414
09942		55.107058	-54.239508	12.016685
09943		55.951473	-53.050577	11.331869
09944		56.777698	-51.877367	10.657775
09945		57.563803	-50.714525	10.011375
09946		58.274781	-49.575645	9.414035
09947		58.881832	-48.456702	8.874259
09948		59.374982	-47.353445	8.405016
09949		59.776899	-46.257371	7.988910
09950		60.132752	-45.170410	7.612791
09951		60.480005	-44.088785	7.265373
09952		60.854460	-43.019230	6.928237
09953		61.252315	-41.952214	6.592483
09954		61.670634	-40.893057	6.251144
09955		62.098228	-39.831456	5.904095
09956		62.521940	-38.772083	5.558061
09957		62.941475	-37.711558	5.229442
09958		63.369345	-36.644279	4.933655
09959		63.806963	-35.559119	4.684638
09960		64.246558	-34.467208	4.470261
09961		64.675773	-33.371864	4.290356
09962		65.089698	-32.291533	4.141882
09963		65.480976	-31.243724	4.011011
09964		65.841176	-30.251773	3.892459
09965		66.150128	-29.320351	3.786383
09966		66.396650	-28.440793	3.691313
09967		66.585444	-27.588123	3.606337
09968		66.752485	-26.764382	3.544074
09969		66.905951	-25.961402	3.508389
09970		67.025995	-25.168908	3.486816
09971		67.122265	-24.394191	3.474225
09972		67.213150	-23.660203	3.481500
09973		67.304693	-22.961729	3.503678
09974		67.395323	-22.297914	3.541667
09975		67.476153	-21.665711	3.586593
09976		67.536848	-21.066172	3.635250
09977		67.570662	-20.499383	3.689203
09978		67.576551	-19.968491	3.739478
09979		67.556754	-19.465250	3.785672
09980		67.530808	-18.986944	3.824637
09981		67.506127	-18.518523	3.855209
09982		67.494571	-18.056554	3.886887
09983		67.491161	-17.595301	3.927120
09984		67.504007	-17.137609	3.975931
09985		67.539037	-16.692380	4.027929
09986		67.581969	-16.262015	4.062059
09987		67.638522	-15.843364	4.077373
09988		67.696117	-15.441517	4.072596
09989		67.753913	-15.037314	4.052461
09990		67.817755	-14.624235	4.026995
09991		67.909963	-14.193581	4.020504
09992		68.034847	-13.748811	4.044423
09993		68.182459	-13.278428	4.106028
09994		68.356745	-12.793664	4.204199
09995		68.539382	-12.305806	4.327906
09996		68.696333	-11.830925	4.453986
09997		68.813666	-11.380839	4.558298
09998		68.893685	-10.975092	4.633365
09999		68.939363	-10.619156	4.685251
10000		68.957196	-10.309870	4.719517
10001		68.955369	-10.030886	4.741647
10002		68.954948	-9.777236	4.757758
10003		68.957303	-9.541555	4.769653
10004		68.959685	-9.315852	4.775790
10005		68.959000	-9.101923	4.781222
10006		68.961878	-8.901315	4.790655
10007		68.962786	-8.706394	4.804829
10008		68.963236	-8.523891	4.820238
10009		68.957587	-8.350507	4.837846
10010		68.939308	-8.179407	4.853218
10011		68.916650	-8.009121	4.873771
10012		68.888518	-7.844608	4.898871
10013		68.846776	-7.676076	4.926304
10014		68.797781	-7.513937	4.962466
10015		68.742457	-7.352754	5.004517
10016		68.685997	-7.198534	5.051733
10017		68.620740	-7.037419	5.097105
10018		68.550276	-6.867521	5.135674
10019		68.482991	-6.694616	5.168850
10020		68.436222	-6.521565	5.202137
10021		68.395321	-6.351907	5.238893
10022		68.359326	-6.188427	5.279562
10023		68.317250	-6.027598	5.314007
10024		68.265864	-5.868006	5.338547
10025		68.218539	-5.700538	5.356413
10026		68.188012	-5.526818	5.375743
10027		68.174811	-5.340138	5.394612
10028		68.177809	-5.143282	5.422327
10029		68.191995	-4.935792	5.448834
10030		68.214448	-4.721305	5.479860
10031		68.250123	-4.492607	5.516348
10032		68.301635	-4.256346	5.561959
10033		68.266502	-4.073207	5.588963
10034		67.941642	-4.025214	5.639222
10035		67.705585	-4.189203	5.599611
10036		67.711263	-4.428914	5.523662
10037		67.716112	-4.571270	5.451764
10038		67.648667	-4.645437	5.398223
10039		67.541980	-4.674552	5.389945
10040		67.419012	-4.645215	5.408732
10041		67.291607	-4.584214	5.429103
10042		67.164176	-4.542026	5.438655
10043		67.069693	-4.538623	5.448690
10044		67.016669	-4.566674	5.455997
10045		66.984357	-4.603626	5.467338
10046		66.947170	-4.644661	5.485630
10047		66.896922	-4.686945	5.515387
10048		66.837739	-4.737328	5.545159
10049		66.770106	-4.791296	5.571981
10050		66.697477	-4.853023	5.590635
10051		66.620669	-4.913647	5.603274
10052		66.536982	-4.974675	5.614340
10053		66.445181	-5.022974	5.627359
10054		66.348708	-5.057992	5.639849
10055		66.257026	-5.081287	5.645615
10056		66.174882	-5.097167	5.640737
10057		66.102041	-5.102903	5.626787
10058		66.036875	-5.108945	5.609389
10059		65.975837	-5.112611	5.590641
10060		65.926573	-5.123591	5.567807
10061		65.879068	-5.131690	5.549805
10062		65.841433	-5.144324	5.532621
10063		65.805783	-5.152828	5.520170
10064		65.775462	-5.161318	5.509399
10065		65.753405	-5.169723	5.498330
10066		65.737247	-5.180610	5.484900
10067		65.721628	-5.188401	5.476058
10068		65.714525	-5.194148	5.473707
10069		65.706069	-5.194479	5.471984
10070		65.707648	-5.193520	5.472675
10071		65.714347	-5.183672	5.473673
10072		65.726311	-5.170888	5.474899
10073		65.742103	-5.153538	5.475588
10074		65.758259	-5.138775	5.477363
10075		65.770731	-5.121517	5.478562
10076		65.776880	-5.112704	5.486962
10077		65.773152	-5.103762	5.493915
10078		65.763559	-5.097998	5.505302
10079		65.753491	-5.086499	5.515215
10080		65.748863	-5.069089	5.529471
10081		65.751504	-5.040971	5.545326
10082		65.765175	-5.004254	5.558472
10083		65.789658	-4.955506	5.572610
10084		65.832332	-4.902863	5.590390
10085		65.886326	-4.842886	5.617589
10086		65.949174	-4.783145	5.650516
10087		66.020100	-4.717978	5.689136
10088		66.093540	-4.650556	5.736436
10089		66.164413	-4.569241	5.794169
10090		66.246841	-4.486831	5.867913
10091		66.333431	-4.415941	5.954069
10092		66.473152	-4.379357	6.098955
10093		66.622476	-4.355320	6.267031
10094		66.764877	-4.316058	6.434680
10095		66.908027	-4.253796	6.583405
10096		67.055682	-4.177985	6.698977
10097		67.201222	-4.099822	6.786685
10098		67.353466	-4.048219	6.856224
10099		67.497945	-4.023468	6.921022
10100		67.579931	-4.020116	6.981970
10101		67.616175	-4.045094	7.037029
10102		67.636206	-4.120225	7.105221
10103		67.656138	-4.236647	7.184720
10104		67.670548	-4.397677	7.257712
10105		67.675195	-4.607596	7.327820
10106		67.653577	-4.867943	7.382803
10107		67.613365	-5.174589	7.434066
10108		67.559339	-5.535175	7.474743
10109		67.498471	-5.940201	7.512136
10110		67.430687	-6.381332	7.540141
10111		67.353028	-6.847695	7.551176
10112		67.271290	-7.335667	7.546093
10113		67.197803	-7.838056	7.534263
10114		67.147808	-8.363015	7.527656
10115		67.108269	-8.899274	7.522524
10116		67.080697	-9.456535	7.526786
10117		67.052756	-10.024371	7.534924
10118		67.016591	-10.608774	7.541349
10119		66.971033	-11.209892	7.540842
10120		66.916325	-11.844890	7.525173
10121		66.852781	-12.517826	7.497052
10122		66.764872	-13.232178	7.458742
10123		66.658996	-13.977927	7.424069
10124		66.536571	-14.748674	7.386734
10125		66.416025	-15.535885	7.344904
10126		66.306587	-16.342129	7.295343
10127		66.217848	-17.170542	7.239865
10128		66.136545	-18.029607	7.183563
10129		66.046618	-18.909698	7.130635
10130		65.936681	-19.811222	7.086942
10131		65.821613	-20.728583	7.057045
10132		65.711956	-21.671242	7.050436
10133		65.620204	-22.635619	7.061676
10134		65.542827	-23.629450	7.109640
10135		65.475792	-24.653683	7.201200
10136		65.396173	-25.712405	7.334557
10137		65.259670	-26.769103	7.478194
10138		65.049097	-27.812015	7.608092
10139		64.783664	-28.824681	7.708551
10140		64.513409	-29.823739	7.761589
10141		64.287794	-30.818209	7.770642
10142		64.124494	-31.826873	7.752556
10143		64.010512	-32.838823	7.728521
10144		63.927454	-33.853039	7.711484
10145		63.858723	-34.862276	7.726138
10146		63.792994	-35.868972	7.789306
10147		63.720654	-36.873522	7.924162
10148		63.641130	-37.886487	8.114817
10149		63.536779	-38.891485	8.352166
10150		63.405119	-39.876681	8.597253
10151		63.270761	-40.828259	8.809886
10152		63.157499	-41.754352	8.967616
10153		63.081222	-42.660445	9.062665
10154		63.044833	-43.569163	9.119849
10155		63.038672	-44.489750	9.164337
10156		63.037460	-45.424013	9.218928
10157		63.026318	-46.371542	9.310342
10158		63.000073	-47.338857	9.448604
10159		62.952923	-48.319517	9.641037
10160		62.895348	-49.302280	9.866587
10161		62.825051	-50.264739	10.095456
10162		62.747286	-51.208838	10.295786
10163		62.658150	-52.144526	10.468764
10164		62.556664	-53.092832	10.619379
10165		62.421656	-54.059816	10.771001
10166		62.245688	-55.052636	10.926913
10167		62.004342	-56.078363	11.130102
10168		61.684129	-57.132639	11.402812
10169		61.291133	-58.206995	11.745927
10170		60.845678	-59.307121	12.149094
10171		60.373640	-60.418716	12.591225
10172		59.892499	-61.528238	13.030563
10173		59.397737	-62.628607	13.454970
10174		58.880450	-63.720897	13.878406
10175		58.303161	-64.810360	14.349567
10176		57.659104	-65.903390	14.888854
10177		56.932140	-67.000645	15.536559
10178		56.106346	-68.103717	16.323668
10179		55.156400	-69.208877	17.279327
10180		54.060460	-70.306199	18.433195
10181		52.782718	-71.381967	19.805391
10182		51.305708	-72.432352	21.385702
10183		49.624943	-73.431445	23.138827
10184		47.780048	-74.368955	24.985692
10185		45.815855	-75.237612	26.865160
10186		43.780404	-76.060473	28.752597
10187		41.697386	-76.857940	30.656018
10188		39.482822	-77.653730	32.699434
10189		37.041994	-78.455991	34.991604
10190		34.250294	-79.256572	37.659500
10191		30.913417	-80.043199	40.892775
10192		26.868707	-80.800419	44.851453
10193		21.878414	-81.496959	49.768867
10194		15.820279	-82.107822	55.760794
10195		8.718835	-82.595944	62.799571
10196		0.738061	-82.946587	70.715466
10197		-7.818340	-83.149137	79.196355
10198		-16.566248	-83.207604	87.856354
10199		-25.043687	-83.127065	96.219180
10200		-32.998123	-82.919360	104.039450
10201		-40.225464	-82.594567	111.101055
10202		-46.646275	-82.171237	117.323545
10203		-52.317086	-81.679517	122.776219
10204		-57.289970	-81.139452	127.537847
10205		-61.562938	-80.567052	131.624507
10206		-65.310962	-79.982436	135.217845
10207		-68.544375	-79.392114	138.320258
10208		-71.367269	-78.811653	141.023829
10209		-73.811828	-78.252813	143.352556
10210		-75.975409	-77.718028	145.410636
10211		-77.888316	-77.210643	147.242910
10212		-79.593601	-76.719482	148.881043
10213		-81.081955	-76.243955	150.307554
10214		-82.449129	-75.784579	151.584431
10215		-83.694068	-75.340371	152.719212
10216		-84.881675	-74.904152	153.774817
10217		-85.997998	-74.487185	154.754325
10218		-87.044552	-74.084832	155.669834
10219		-87.989908	-73.704286	156.501885
10220		-88.876891	-73.337711	157.296484
10221		-89.679603	-72.972631	158.017373
10222		-90.468677	-72.600659	158.740122
10223		-91.219117	-72.217171	159.418456
10224		-91.972590	-71.817021	160.083335
10225		-92.717203	-71.404094	160.712889
10226		-93.434226	-70.972040	161.293950
10227		-94.086929	-70.519594	161.799593
10228		-94.662781	-70.051130	162.225171
10229		-95.158133	-69.577301	162.561334
10230		-95.614312	-69.103123	162.853898
10231		-96.050852	-68.640046	163.109340
10232		-96.493587	-68.178577	163.353784
10233		-96.968472	-67.714851	163.598859
10234		-97.476450	-67.245189	163.863749
10235		-98.002094	-66.785682	164.143847
10236		-98.514873	-66.320489	164.434437
10237		-98.983083	-65.845414	164.708306
10238		-99.413804	-65.368201	164.966900
10239		-99.793620	-64.898280	165.196985
10240		-100.124693	-64.439833	165.391476
10241		-100.422346	-64.011620	165.567001
10242		-100.690527	-63.617959	165.727541
10243		-100.943163	-63.266116	165.885466
10244		-101.185439	-62.944468	166.051696
10245		-101.418497	-62.657135	166.226684
10246		-101.658360	-62.396003	166.429082
10247		-101.880646	-62.163942	166.634146
10248		-102.089292	-61.960986	166.840769
10249		-102.276582	-61.782756	167.047590
10250		-102.451553	-61.621289	167.256232
10251		-102.601729	-61.479608	167.447905
10252		-102.746893	-61.344372	167.628046
10253		-102.880425	-61.220905	167.781617
10254		-103.010726	-61.102540	167.902232
10255		-103.119766	-61.001706	167.980607
10256		-103.196686	-60.915068	168.011417
10257		-103.257668	-60.849008	168.014323
10258		-103.306902	-60.805998	168.003350
10259		-103.322705	-60.786579	167.972058
10260		-103.304392	-60.787350	167.931299
10261		-103.254101	-60.811855	167.881193
10262		-103.200054	-60.848287	167.847892
10263		-103.130277	-60.901929	167.818538
10264		-103.062755	-60.956881	167.789939
10265		-103.019928	-61.011351	167.768849
10266		-103.024001	-61.055881	167.755318
10267		-103.057464	-61.092106	167.754810
10268		-103.094879	-61.122592	167.759208
10269		-103.132863	-61.159366	167.773428
10270		-103.178582	-61.203311	167.817778
10271		-103.212774	-61.261106	167.877743
10272		-103.232855	-61.327463	167.951442
10273		-103.230715	-61.409102	168.023919
10274		-103.227470	-61.503274	168.091019
10275		-103.226591	-61.605355	168.150323
10276		-103.207829	-61.713841	168.192060
10277		-103.165622	-61.832003	168.220137
10278		-103.102882	-61.958097	168.235936
10279		-103.036248	-62.115040	168.239204
10280		-102.992964	-62.304298	168.259275
10281		-102.962831	-62.532916	168.294483
10282		-102.955723	-62.808105	168.349653
10283		-102.928042	-63.123030	168.399824
10284		-102.841677	-63.471896	168.433866
10285		-102.670258	-63.848257	168.435240
10286		-102.411713	-64.248320	168.406529
10287		-102.061448	-64.668314	168.322998
10288		-101.638568	-65.098259	168.191453
10289		-101.150148	-65.537344	168.001138
10290		-100.632003	-65.980601	167.781643
10291		-100.071161	-66.425051	167.504455
10292		-99.515915	-66.874342	167.201433
10293		-98.983736	-67.341834	166.883250
10294		-98.442828	-67.812864	166.531116
10295		-97.900307	-68.302942	166.139861
10296		-97.360379	-68.813911	165.711232
10297		-96.790624	-69.343986	165.229303
10298		-96.166455	-69.880767	164.681212
10299		-95.479926	-70.439747	164.057829
10300		-94.736436	-71.023521	163.364569
10301		-93.883431	-71.643145	162.568861
10302		-92.913015	-72.294458	161.671033
10303		-91.786303	-72.983074	160.631758
10304		-90.492362	-73.693567	159.436006
10305		-89.002194	-74.429747	158.044105
10306		-87.287886	-75.186252	156.414677
10307		-85.300965	-75.971225	154.492470
10308		-83.011465	-76.772507	152.250343
10309		-80.328249	-77.593575	149.615223
10310		-77.188758	-78.417322	146.539766
10311		-73.422500	-79.246786	142.871139
10312		-68.879375	-80.065610	138.472463
10313		-63.353431	-80.860390	133.150863
10314		-56.666465	-81.593214	126.724446
10315		-48.489127	-82.228899	118.845323
10316		-38.809930	-82.701318	109.463325
10317		-27.792247	-82.951036	98.709768
10318		-16.198378	-82.914984	87.330844
10319		-5.050886	-82.575117	76.345874
10320		4.816768	-81.966950	66.603596
10321		13.219077	-81.136622	58.314142
10322		20.106349	-80.135240	51.547365
10323		25.729129	-79.010112	46.072611
10324		30.398717	-77.795544	41.573800
10325		34.342814	-76.495620	37.813202
10326		37.737287	-75.125817	34.619086
10327		40.701690	-73.678718	31.885061
10328		43.287595	-72.180552	29.573214
10329		45.587803	-70.647403	27.593836
10330		47.651477	-69.115722	25.896735
10331		49.526436	-67.588482	24.415639
10332		51.238593	-66.087936	23.091009
10333		52.802016	-64.599453	21.886695
10334		54.229072	-63.118542	20.780725
10335		55.537370	-61.640387	19.748274
10336		56.737700	-60.172970	18.785948
10337		57.855695	-58.725892	17.879751
10338		58.892562	-57.324031	17.036776
10339		59.861428	-55.953611	16.241148
10340		60.752352	-54.611299	15.497951
10341		61.582316	-53.286869	14.798937
10342		62.351380	-51.979224	14.163645
10343		63.082375	-50.690603	13.581165
10344		63.782922	-49.410971	13.012292
10345		64.436652	-48.131408	12.481400
10346		65.059994	-46.849084	11.953556
10347		65.654746	-45.547499	11.452482
10348		66.223070	-44.248714	10.964725
10349		66.762978	-42.950602	10.501614
10350		67.302585	-41.662448	10.060212
10351		67.871148	-40.378569	9.644093
10352		68.488310	-39.100333	9.256166
10353		69.149355	-37.820414	8.898911
10354		69.811655	-36.540920	8.563626
10355		70.415697	-35.268591	8.255802
10356		70.906058	-34.025230	7.997026
10357		71.243275	-32.811067	7.791589
10358		71.434669	-31.646921	7.642546
10359		71.533065	-30.545425	7.548322
10360		71.614159	-29.508827	7.489198
10361		71.725445	-28.529688	7.447051
10362		71.856949	-27.593754	7.397653
10363		71.970687	-26.654547	7.313549
10364		72.066665	-25.709371	7.190609
10365		72.171778	-24.751475	7.034684
10366		72.322877	-23.803609	6.854513
10367		72.540871	-22.875704	6.667427
10368		72.808601	-21.969065	6.484763
10369		73.089323	-21.073052	6.322906
10370		73.349976	-20.182646	6.184668
10371		73.556797	-19.302799	6.060647
10372		73.708466	-18.460852	5.959984
10373		73.802822	-17.671761	5.878695
10374		73.834836	-16.937877	5.806935
10375		73.839187	-16.259093	5.743095
10376		73.821059	-15.620730	5.682335
10377		73.780526	-14.998089	5.626428
10378		73.725280	-14.385386	5.583535
10379		73.662671	-13.784099	5.560682
10380		73.584641	-13.199646	5.560499
10381		73.495996	-12.638729	5.588844
10382		73.401651	-12.100250	5.638184
10383		73.301249	-11.580209	5.708704
10384		73.203695	-11.074438	5.794400
10385		73.121074	-10.577203	5.889950
10386		73.059817	-10.097482	5.977405
10387		73.007950	-9.639059	6.041870
10388		72.953005	-9.218254	6.068334
10389		72.880915	-8.840187	6.057045
10390		72.779084	-8.510220	6.011322
10391		72.641683	-8.217665	5.943639
10392		72.480871	-7.956481	5.869497
10393		72.302446	-7.717293	5.794915
10394		72.110133	-7.494286	5.730017
10395		71.912117	-7.279472	5.681162
10396		71.713675	-7.064326	5.654112
10397		71.529595	-6.844548	5.639721
10398		71.358188	-6.617328	5.638671
10399		71.203449	-6.377512	5.640383
10400		71.064932	-6.133105	5.639610
10401		70.939609	-5.883372	5.629531
10402		70.823372	-5.642093	5.605854
10403		70.711744	-5.415753	5.571998
10404		70.597824	-5.211343	5.525048
10405		70.473098	-5.023901	5.470311
10406		70.346282	-4.854220	5.409006
10407		70.230052	-4.688015	5.351389
10408		70.148072	-4.529121	5.310297
10409		70.087186	-4.363299	5.286327
10410		70.024070	-4.195050	5.271155
10411		69.954200	-4.026364	5.259018
10412		69.885935	-3.876823	5.244758
10413		69.822969	-3.738487	5.227830
10414		69.751009	-3.615816	5.202342
10415		69.671801	-3.502856	5.170859
10416		69.594048	-3.405612	5.140427
10417		69.514898	-3.310322	5.123219
10418		69.430016	-3.213076	5.124093
10419		69.343430	-3.100662	5.145411
10420		69.260931	-2.970934	5.181774
10421		69.179452	-2.837862	5.215795
10422		69.127839	-2.707735	5.269330
10423		69.054491	-2.687082	5.282000
10424		68.730039	-2.819820	5.390342
10425		68.374589	-3.087556	5.400911
10426		68.304447	-3.496498	5.333746
10427		68.277828	-3.792227	5.320859
10428		68.139525	-3.888274	5.278565
10429		67.950321	-3.896409	5.203135
10430		67.833450	-3.903637	5.189190
10431		67.761277	-3.877428	5.202750
10432		67.672951	-3.826547	5.201450
10433		67.604761	-3.779729	5.194681
10434		67.587907	-3.751764	5.186953
10435		67.587896	-3.739252	5.186610
10436		67.575324	-3.748046	5.182340
10437		67.542466	-3.759016	5.189209
10438		67.492860	-3.784835	5.211713
10439		67.429338	-3.822878	5.242079
10440		67.362184	-3.880351	5.274484
10441		67.297660	-3.944004	5.305132
10442		67.243966	-4.012134	5.332405
10443		67.204353	-4.073269	5.355397
10444		67.181206	-4.128388	5.374973
10445		67.173271	-4.173418	5.391236
10446		67.177176	-4.204804	5.404611
10447		67.187817	-4.219425	5.412371
10448		67.198746	-4.224731	5.414411
10449		67.211972	-4.213433	5.408920
10450		67.226229	-4.198060	5.402816
10451		67.225882	-4.174875	5.395760
10452		67.219414	-4.154498	5.390751
10453		67.194177	-4.135311	5.394881
10454		67.157924	-4.124331	5.402878
10455		67.105380	-4.118147	5.413103
10456		67.044561	-4.120983	5.423362
10457		66.981597	-4.126469	5.433891
10458		66.923940	-4.139761	5.439186
10459		66.880673	-4.150624	5.444061
10460		66.855751	-4.166809	5.449269
10461		66.834262	-4.179469	5.455173
10462		66.814487	-4.187459	5.461604
10463		66.800139	-4.186922	5.470782
10464		66.798031	-4.186876	5.476414
10465		66.806489	-4.188256	5.481305
10466		66.815411	-4.189445	5.484754
10467		66.816654	-4.182715	5.490718
10468		66.814788	-4.176995	5.496897
10469		66.809735	-4.169487	5.501574
10470		66.805263	-4.164941	5.505162
10471		66.792219	-4.157203	5.512704
10472		66.770158	-4.148878	5.515829
10473		66.749352	-4.138552	5.519384
10474		66.731292	-4.134090	5.521464
10475		66.708322	-4.123750	5.527904
10476		66.683423	-4.116093	5.532730
10477		66.659239	-4.098246	5.536999
10478		66.645170	-4.090180	5.537216
10479		66.636827	-4.081630	5.535587
10480		66.631958	-4.075573	5.530059
10481		66.629127	-4.065337	5.528201
10482		66.629821	-4.052641	5.532976
10483		66.635257	-4.036458	5.538698
10484		66.645239	-4.022560	5.544033
10485		66.648364	-4.004846	5.549141
10486		66.648671	-3.985529	5.556428
10487		66.646154	-3.960026	5.567318
10488		66.635321	-3.934619	5.580597
10489		66.623780	-3.909239	5.589729
10490		66.618712	-3.893629	5.590826
10491		66.619349	-3.880825	5.582718
10492		66.624752	-3.870848	5.569910
10493		66.632210	-3.856646	5.560769
10494		66.643314	-3.844903	5.554405
10495		66.653953	-3.826873	5.555405
10496		66.666555	-3.810734	5.556584
10497		66.677874	-3.792044	5.558750
10498		66.690319	-3.777264	5.558947
10499		66.701226	-3.762752	5.557079
10500		66.711038	-3.744544	5.556386
10501		66.717716	-3.717048	5.552265
10502		66.725310	-3.690099	5.547965
10503		66.735269	-3.653304	5.546773
10504		66.753957	-3.614053	5.543292
10505		66.778768	-3.559669	5.538665
10506		66.816983	-3.489492	5.533415
10507		66.872009	-3.406362	5.527176
10508		66.940836	-3.317109	5.519292
10509		67.031968	-3.222389	5.506855
10510		67.132008	-3.119709	5.491650
10511		67.251847	-3.056356	5.467511
10512		67.530800	-3.043644	5.574469
10513		67.811809	-3.007954	5.680367
10514		68.183506	-2.914904	5.856266
10515		68.670198	-2.776759	6.087560
10516		69.269942	-2.634096	6.349020
10517		69.906781	-2.480151	6.613788
10518		70.482193	-2.310518	6.861824
10519		70.939345	-2.122511	7.066757
10520		71.235997	-1.947838	7.227212
10521		71.441840	-1.828894	7.352430
10522		71.615577	-1.813762	7.465888
10523		71.771001	-1.901635	7.573474
10524		71.884130	-2.085420	7.682495
10525		71.937851	-2.332638	7.791187
10526		71.939769	-2.644717	7.905870
10527		71.921833	-3.005470	8.030225
10528		71.906987	-3.416533	8.161983
10529		71.907342	-3.858763	8.299847
10530		71.916872	-4.329974	8.443924
10531		71.934449	-4.810635	8.590952
10532		71.975273	-5.314084	8.724757
10533		72.018065	-5.845079	8.858915
10534		72.041860	-6.412222	8.980517
10535		72.029742	-7.012430	9.097508
10536		71.987037	-7.659504	9.209776
10537		71.919935	-8.337246	9.330961
10538		71.848418	-9.044125	9.455226
10539		71.789438	-9.770062	9.591912
10540		71.750861	-10.515557	9.726764
10541		71.723772	-11.271991	9.861917
10542		71.689554	-12.049039	9.989751
10543		71.644404	-12.842826	10.114674
10544		71.581681	-13.661153	10.230425
10545		71.513381	-14.504618	10.341606
10546		71.438718	-15.381410	10.453017
10547		71.359292	-16.277630	10.571531
10548		71.262754	-17.197724	10.676307
10549		71.154244	-18.132254	10.779108
10550		71.036069	-19.087319	10.877346
10551		70.907529	-20.051222	10.971623
10552		70.783208	-21.032560	11.063739
10553		70.653817	-22.022973	11.165218
10554		70.505912	-23.029451	11.279079
10555		70.336168	-24.058122	11.399352
10556		70.139967	-25.111454	11.536246
10557		69.934064	-26.188259	11.675456
10558		69.718028	-27.302074	11.812742
10559		69.475820	-28.447299	11.946085
10560		69.197143	-29.629318	12.081816
10561		68.867096	-30.842572	12.215537
10562		68.470554	-32.076245	12.353833
10563		68.001204	-33.294842	12.502857
10564		67.487249	-34.492937	12.665606
10565		66.978025	-35.665593	12.848871
10566		66.521153	-36.823846	13.047076
10567		66.117977	-37.966003	13.264076
10568		65.760029	-39.095838	13.499639
10569		65.417873	-40.208725	13.748628
10570		65.059865	-41.301621	14.008057
10571		64.664757	-42.367111	14.249305
10572		64.233072	-43.409341	14.450454
10573		63.782222	-44.451671	14.614075
10574		63.337724	-45.514144	14.736212
10575		62.903210	-46.596461	14.836637
10576		62.477433	-47.693374	14.933911
10577		62.045064	-48.790371	15.065190
10578		61.605257	-49.882523	15.248572
10579		61.149181	-50.954181	15.502974
10580		60.687507	-52.014176	15.822388
10581		60.200014	-53.053098	16.206738
10582		59.688922	-54.074090	16.618279
10583		59.167249	-55.079794	17.029033
10584		58.629234	-56.085677	17.429887
10585		58.070581	-57.100185	17.814442
10586		57.497695	-58.135504	18.185954
10587		56.892912	-59.184949	18.583149
10588		56.249502	-60.243463	19.035414
10589		55.565585	-61.289523	19.550405
10590		54.836787	-62.323731	20.149237
10591		54.040625	-63.338890	20.860994
10592		53.177069	-64.336567	21.686929
10593		52.245651	-65.308545	22.612901
10594		51.264307	-66.240327	23.586965
10595		50.261347	-67.137505	24.554420
10596		49.232884	-68.036983	25.503951
10597		48.155805	-68.962919	26.454332
10598		46.988874	-69.935734	27.438393
10599		45.672261	-70.953501	28.518625
10600		44.170579	-72.002307	29.734261
10601		42.439181	-73.059920	31.134050
10602		40.453621	-74.121948	32.761387
10603		38.163923	-75.183885	34.685968
10604		35.512181	-76.241222	36.985914
10605		32.449682	-77.274032	39.716559
10606		28.910833	-78.263711	42.941504
10607		24.888564	-79.180922	46.628702
10608		20.446090	-80.015718	50.679871
10609		15.607216	-80.771387	55.088157
10610		10.251055	-81.448709	60.013061
10611		4.295081	-82.027213	65.577068
10612		-2.322891	-82.499469	71.860756
10613		-9.493456	-82.847326	78.743905
10614		-17.201984	-83.059160	86.208147
10615		-25.297544	-83.113617	94.082072
10616		-33.495561	-83.007687	102.047968
10617		-41.416109	-82.754424	109.680330
10618		-48.677072	-82.392780	116.558640
10619		-55.161429	-81.965167	122.554248
10620		-60.981871	-81.473171	127.816521
10621		-66.172301	-80.917760	132.413304
10622		-70.767818	-80.298375	136.413362
10623		-74.790142	-79.607200	139.879156
10624		-78.259185	-78.840756	142.839331
10625		-81.246519	-78.012465	145.379699
10626		-83.725010	-77.115448	147.487104
10627		-85.694567	-76.180056	149.148049
10628		-87.212946	-75.239195	150.405182
10629		-88.341088	-74.348917	151.294263
10630		-89.156532	-73.528255	151.878549
10631		-89.738362	-72.791848	152.228317
10632		-90.218173	-72.131029	152.487544
10633		-90.656864	-71.514814	152.728753
10634		-91.084442	-70.927931	153.000597
10635		-91.499606	-70.345012	153.314596
10636		-91.950763	-69.754270	153.720204
10637		-92.459955	-69.176639	154.196576
10638		-93.061051	-68.617524	154.746480
10639		-93.685949	-68.071099	155.307281
10640		-94.260919	-67.542293	155.807463
10641		-94.726274	-67.041976	156.207032
10642		-95.072629	-66.577857	156.510313
10643		-95.330075	-66.154180	156.755084
10644		-95.554597	-65.770932	156.979624
10645		-95.789808	-65.428155	157.222529
10646		-96.044191	-65.103856	157.490778
10647		-96.328866	-64.781341	157.806706
10648		-96.640642	-64.448587	158.179355
10649		-96.944560	-64.111163	158.581719
10650		-97.238444	-63.766746	159.005072
10651		-97.510565	-63.424157	159.424930
10652		-97.758093	-63.087002	159.828056
10653		-97.982051	-62.756881	160.201239
10654		-98.227064	-62.442695	160.542934
10655		-98.498033	-62.162562	160.849281
10656		-98.767567	-61.910830	161.122588
10657		-98.994198	-61.680429	161.365603
10658		-99.179540	-61.462922	161.601165
10659		-99.336286	-61.253509	161.838246
10660		-99.504977	-61.040607	162.097252
10661		-99.700159	-60.825824	162.381064
10662		-99.928038	-60.600955	162.679860
10663		-100.148563	-60.372205	162.951596
10664		-100.348186	-60.140224	163.182988
10665		-100.498970	-59.908641	163.348693
10666		-100.606330	-59.691244	163.455785
10667		-100.675711	-59.505834	163.513709
10668		-100.702813	-59.352648	163.535346
10669		-100.705203	-59.240143	163.541350
10670		-100.697435	-59.160825	163.556494
10671		-100.679377	-59.106379	163.583665
10672		-100.666979	-59.061152	163.628723
10673		-100.671545	-59.022222	163.697674
10674		-100.703492	-58.987690	163.787652
10675		-100.754047	-58.960099	163.895859
10676		-100.819350	-58.929019	164.012503
10677		-100.901868	-58.902785	164.142349
10678		-100.998310	-58.868473	164.274111
10679		-101.116497	-58.841382	164.413522
10680		-101.257282	-58.827950	164.562551
10681		-101.414057	-58.844622	164.718561
10682		-101.564098	-58.887600	164.879955
10683		-101.700652	-58.959765	165.044214
10684		-101.814806	-59.057887	165.209372
10685		-101.893217	-59.184186	165.351601
10686		-101.949252	-59.327733	165.485687
10687		-101.981143	-59.484811	165.606763
10688		-102.012576	-59.642225	165.725428
10689		-102.051274	-59.801364	165.845959
10690		-102.103171	-59.960321	165.971646
10691		-102.155415	-60.129703	166.094666
10692		-102.206811	-60.312057	166.206180
10693		-102.263226	-60.517014	166.301326
10694		-102.307485	-60.740836	166.374341
10695		-102.323619	-60.992902	166.411481
10696		-102.302473	-61.270060	166.416189
10697		-102.241541	-61.580165	166.394197
10698		-102.141494	-61.914042	166.348738
10699		-101.989269	-62.269571	166.274156
10700		-101.781626	-62.630812	166.167414
10701		-101.538633	-63.008679	166.034003
10702		-101.287223	-63.395213	165.879885
10703		-101.031813	-63.797889	165.699945
10704		-100.783684	-64.212690	165.507045
10705		-100.530839	-64.643206	165.297433
10706		-100.252374	-65.083562	165.059561
10707		-99.936133	-65.533584	164.788967
10708		-99.580828	-65.982324	164.482228
10709		-99.212493	-66.431492	164.153105
10710		-98.849071	-66.874409	163.809971
10711		-98.489005	-67.302680	163.457520
10712		-98.132785	-67.703895	163.105144
10713		-97.797239	-68.094145	162.753296
10714		-97.509656	-68.476851	162.409164
10715		-97.256087	-68.856826	162.050171
10716		-97.042192	-69.224605	161.687552
10717		-96.831781	-69.580593	161.286204
10718		-96.623139	-69.924750	160.868423
10719		-96.400903	-70.282059	160.416699
10720		-96.186070	-70.665325	159.962006
10721		-95.953339	-71.089445	159.500020
10722		-95.678470	-71.536043	159.037714
10723		-95.319723	-72.003466	158.556051
10724		-94.904692	-72.492984	158.084284
10725		-94.381975	-73.008152	157.559269
10726		-93.761944	-73.530892	156.990740
10727		-93.018003	-74.061836	156.327962
10728		-92.177198	-74.605212	155.574818
10729		-91.246607	-75.173357	154.716757
10730		-90.248586	-75.753732	153.778164
10731		-89.151257	-76.344912	152.737367
10732		-87.945360	-76.947786	151.597484
10733		-86.663205	-77.594409	150.361625
10734		-85.269614	-78.281240	148.990758
10735		-83.658664	-78.982947	147.401873
10736		-81.737923	-79.660763	145.518744
10737		-79.388433	-80.307456	143.214927
10738		-76.609343	-80.923472	140.488402
10739		-73.278010	-81.510280	137.215410
10740		-69.350207	-82.072083	133.355705
10741		-64.682957	-82.617045	128.766830
10742		-59.188557	-83.135997	123.361549
10743		-52.690060	-83.613638	116.970043
10744		-45.123932	-84.024302	109.524226
10745		-36.455711	-84.333031	100.996395
10746		-27.067931	-84.510291	91.771469
10747		-17.383185	-84.540011	82.265327
10748		-8.006757	-84.424866	73.077455
10749		0.759223	-84.169306	64.500872
10750		8.692264	-83.798125	56.747239
10751		15.777537	-83.315647	49.824966
10752		21.941092	-82.743587	43.795420
10753		27.216109	-82.082588	38.625196
10754		31.613795	-81.351332	34.310961
10755		35.203402	-80.559742	30.774206
10756		38.111687	-79.724389	27.884802
10757		40.442117	-78.830656	25.520816
10758		42.222392	-77.883642	23.661992
10759		43.645049	-76.881767	22.132565
10760		44.802675	-75.840158	20.859718
10761		45.825096	-74.763378	19.728179
10762		46.814326	-73.671217	18.643009
10763		47.834647	-72.563522	17.557937
10764		48.866320	-71.450316	16.499911
10765		49.902172	-70.311593	15.472043
10766		50.920465	-69.156311	14.503822
10767		51.903853	-67.974319	13.617771
10768		52.830917	-66.766862	12.829619
10769		53.698139	-65.519196	12.135620
10770		54.512180	-64.244556	11.527255
10771		55.278907	-62.946768	10.966512
10772		55.986279	-61.631656	10.459551
10773		56.626142	-60.305604	10.009258
10774		57.207839	-58.978752	9.607251
10775		57.731327	-57.653604	9.260411
10776		58.212283	-56.336957	8.964082
10777		58.673246	-55.024716	8.699013
10778		59.128244	-53.722958	8.452619
10779		59.606276	-52.423317	8.212514
10780		60.109627	-51.124384	7.992380
10781		60.652259	-49.818874	7.787896
10782		61.235631	-48.499739	7.590512
10783		61.855246	-47.157580	7.391804
10784		62.492991	-45.809655	7.195923
10785		63.116834	-44.463014	7.011157
10786		63.706980	-43.139245	6.842903
10787		64.251944	-41.848795	6.690836
10788		64.766836	-40.604654	6.553926
10789		65.252679	-39.397784	6.439272
10790		65.736069	-38.210754	6.336180
10791		66.223685	-37.022631	6.244378
10792		66.728821	-35.833813	6.166332
10793		67.243066	-34.633040	6.101328
10794		67.753907	-33.431066	6.048183
10795		68.249974	-32.242129	6.003304
10796		68.718635	-31.070674	5.957220
10797		69.158033	-29.909511	5.905150
10798		69.567243	-28.770347	5.861227
10799		69.955785	-27.644186	5.827328
10800		70.338531	-26.528939	5.796858
10801		70.725991	-25.424361	5.776417
10802		71.115700	-24.337686	5.761040
10803		71.492669	-23.271116	5.755371
10804		71.847916	-22.235099	5.740131
10805		72.176588	-21.232250	5.724196
10806		72.485590	-20.269312	5.685362
10807		72.765931	-19.335399	5.640121
10808		73.038403	-18.449996	5.586794
10809		73.291984	-17.610610	5.536792
10810		73.514956	-16.813555	5.489781
10811		73.704516	-16.060369	5.452189
10812		73.841945	-15.344907	5.430813
10813		73.922354	-14.666700	5.428242
10814		73.945326	-14.035689	5.444480
10815		73.926365	-13.453354	5.471245
10816		73.879054	-12.929961	5.503397
10817		73.803004	-12.460734	5.540328
10818		73.705126	-12.045626	5.576957
10819		73.581497	-11.667955	5.614792
10820		73.442131	-11.326279	5.651172
10821		73.281999	-11.012348	5.693961
10822		73.095812	-10.717107	5.734521
10823		72.896759	-10.428907	5.773283
10824		72.703751	-10.150131	5.814054
10825		72.529240	-9.873994	5.856425
10826		72.379793	-9.605770	5.901058
10827		72.247892	-9.341849	5.947726
10828		72.128693	-9.085573	5.992416
10829		72.011094	-8.838955	6.034416
10830		71.892574	-8.607491	6.074368
10831		71.766784	-8.382238	6.102883
10832		71.643281	-8.162805	6.126300
10833		71.528831	-7.943383	6.146900
10834		71.404471	-7.732823	6.155499
10835		71.270256	-7.527031	6.160098
10836		71.132190	-7.338607	6.153871
10837		70.997828	-7.165609	6.137251
10838		70.879023	-7.001608	6.111331
10839		70.776220	-6.836642	6.085130
10840		70.691727	-6.674295	6.067621
10841		70.620611	-6.509090	6.061681
10842		70.555716	-6.348248	6.067270
10843		70.490030	-6.180243	6.077727
10844		70.429216	-6.014397	6.082878
10845		70.381066	-5.850272	6.075715
10846		70.338091	-5.696360	6.066065
10847		70.299457	-5.551338	6.058776
10848		70.250737	-5.414073	6.059669
10849		70.200860	-5.282859	6.081709
10850		70.154397	-5.157787	6.135957
10851		70.085778	-5.028341	6.213780
10852		69.968283	-4.840063	6.334607
10853		69.839352	-4.662958	6.448317
10854		69.319493	-4.458134	6.616711
10855		68.862940	-4.457909	6.791059
10856		68.540740	-4.649667	6.859513
10857		68.402784	-4.816756	6.839994
10858		68.366978	-4.969614	6.770134
10859		68.409802	-5.043287	6.712277
10860		68.522880	-5.059959	6.650589
10861		68.641880	-5.015385	6.653366
10862		68.679860	-4.913897	6.686400
10863		68.624074	-4.760745	6.730907
10864		68.479284	-4.608519	6.776376
10865		68.293772	-4.481416	6.811978
10866		68.153260	-4.420968	6.815663
10867		68.076486	-4.416614	6.813120
10868		68.035126	-4.450194	6.801383
10869		67.991115	-4.492101	6.791385
10870		67.929701	-4.525561	6.794600
10871		67.854778	-4.541574	6.813882
10872		67.771439	-4.557045	6.837749
10873		67.692714	-4.569268	6.863620
10874		67.629912	-4.582167	6.888801
10875		67.585426	-4.596751	6.913494
10876		67.551679	-4.609646	6.934159
10877		67.519999	-4.615996	6.947311
10878		67.487480	-4.620196	6.955349
10879		67.445188	-4.616913	6.959071
10880		67.396626	-4.611675	6.959957
10881		67.344373	-4.602508	6.962342
10882		67.289210	-4.592811	6.965908
10883		67.230949	-4.578639	6.964453
10884		67.172260	-4.565869	6.961519
10885		67.115610	-4.553681	6.968145
10886		67.058328	-4.548826	6.970546
10887		66.998207	-4.542731	6.973762
10888		66.941625	-4.538691	6.981793
10889		66.890395	-4.535382	6.990190
10890		66.843361	-4.536763	6.997232
10891		66.797338	-4.537520	7.004792
10892		66.755731	-4.541760	7.010932
10893		66.717227	-4.546840	7.012664
10894		66.683034	-4.548882	7.021070
10895		66.656733	-4.548962	7.028988
10896		66.636614	-4.553424	7.035927
10897		66.614622	-4.556424	7.040573
10898		66.596974	-4.556796	7.042094
10899		66.578944	-4.557672	7.042896
10900		66.568405	-4.566260	7.043314
10901		66.552781	-4.574974	7.045365
10902		66.532616	-4.591781	7.049157
10903		66.513312	-4.601519	7.053895
10904		66.500607	-4.611539	7.061710
10905		66.496385	-4.615648	7.070943
10906		66.497747	-4.620368	7.078717
10907		66.505755	-4.621462	7.081215
10908		66.517108	-4.624739	7.081990
10909		66.529853	-4.624897	7.076537
10910		66.541214	-4.625171	7.075913
10911		66.550199	-4.621512	7.077022
10912		66.555598	-4.621251	7.078491
10913		66.555603	-4.620714	7.078206
10914		66.553738	-4.624336	7.079775
10915		66.541892	-4.627543	7.079802
10916		66.529072	-4.636343	7.075428
10917		66.516957	-4.642353	7.072401
10918		66.500920	-4.649752	7.070553
10919		66.477510	-4.655610	7.069738
10920		66.449309	-4.663146	7.072150
10921		66.420219	-4.667361	7.072269
10922		66.398331	-4.677492	7.071763
10923		66.376318	-4.688495	7.066255
10924		66.353866	-4.699525	7.062450
10925		66.333037	-4.702853	7.059668
10926		66.311531	-4.707440	7.058670
10927		66.295220	-4.710775	7.056749
10928		66.280094	-4.718082	7.051770
10929		66.264075	-4.720324	7.048695
10930		66.250738	-4.722207	7.050073
10931		66.243807	-4.719857	7.050455
10932		66.243971	-4.718629	7.054100
10933		66.248555	-4.710493	7.054998
10934		66.264782	-4.702198	7.054428
10935		66.287824	-4.687089	7.053768
10936		66.322526	-4.670534	7.046046
10937		66.367706	-4.652433	7.029619
10938		66.419774	-4.637097	7.006741
10939		66.473844	-4.612987	6.982653
10940		66.528993	-4.589750	6.955193
10941		66.582098	-4.556718	6.930040
10942		66.634328	-4.517304	6.901512
10943		66.691870	-4.467462	6.874468
10944		66.754577	-4.401280	6.839847
10945		66.831878	-4.317885	6.794710
10946		66.919031	-4.224634	6.741388
10947		67.037303	-4.130924	6.668210
10948		67.229059	-4.108231	6.610251
10949		67.497754	-4.092171	6.630241
10950		67.806002	-4.052915	6.670087
10951		68.107463	-3.987738	6.751141
10952		68.383155	-3.936109	6.845312
10953		68.604343	-3.916484	6.938795
10954		68.763251	-3.956784	7.029583
10955		68.863666	-4.072392	7.109562
10956		68.911428	-4.268764	7.187020
10957		68.938377	-4.528055	7.262575
10958		68.973859	-4.853199	7.340568
10959		69.003554	-5.227315	7.417617
10960		69.006251	-5.646568	7.479048
10961		68.969441	-6.099068	7.516183
10962		68.914226	-6.597769	7.534825
10963		68.847730	-7.136451	7.536232
10964		68.774106	-7.720231	7.526937
10965		68.692129	-8.337753	7.515251
10966		68.597144	-8.986946	7.509385
10967		68.488384	-9.660491	7.515009
10968		68.371925	-10.365079	7.532590
10969		68.247623	-11.090884	7.560053
10970		68.115649	-11.837853	7.598912
10971		67.971957	-12.603238	7.645995
10972		67.818732	-13.395466	7.695662
10973		67.659447	-14.203448	7.746312
10974		67.500549	-15.042005	7.799362
10975		67.336251	-15.900760	7.860080
10976		67.164855	-16.770972	7.926211
10977		66.996653	-17.644205	8.012726
10978		66.830151	-18.533069	8.128085
10979		66.641383	-19.437934	8.272940
10980		66.386924	-20.377096	8.453095
10981		66.033128	-21.340117	8.660377
10982		65.592938	-22.321690	8.885252
10983		65.131669	-23.308579	9.112931
10984		64.717643	-24.304801	9.339835
10985		64.381087	-25.290684	9.554679
10986		64.136698	-26.256152	9.741832
10987		63.972944	-27.192238	9.914044
10988		63.864206	-28.103561	10.079192
10989		63.791102	-28.994825	10.239882
10990		63.718654	-29.880411	10.412888
10991		63.634403	-30.762376	10.586897
10992		63.539990	-31.651690	10.756244
10993		63.440913	-32.546702	10.919407
10994		63.341699	-33.453094	11.074999
10995		63.235498	-34.365428	11.229252
10996		63.105482	-35.289781	11.391060
10997		62.954715	-36.223185	11.549661
10998		62.764253	-37.173624	11.711177
10999		62.541281	-38.134694	11.868345
11000		62.295574	-39.116095	12.020677
11001		62.043405	-40.108505	12.166422
11002		61.792336	-41.107232	12.314028
11003		61.546342	-42.106803	12.475140
11004		61.291468	-43.101931	12.663224
11005		61.027087	-44.090574	12.871124
11006		60.738163	-45.080745	13.099939
11007		60.423041	-46.075479	13.352792
11008		60.083014	-47.079032	13.632384
11009		59.721924	-48.099002	13.935266
11010		59.320383	-49.138746	14.263686
11011		58.870092	-50.191364	14.614712
11012		58.373660	-51.273618	14.985391
11013		57.817900	-52.382846	15.394161
11014		57.216929	-53.518432	15.820922
11015		56.563414	-54.668507	16.271520
11016		55.877159	-55.832446	16.742196
11017		55.145354	-56.999417	17.252819
11018		54.370282	-58.160851	17.800184
11019		53.550920	-59.308273	18.401064
11020		52.704273	-60.446577	19.048958
11021		51.842826	-61.573430	19.744950
11022		50.953184	-62.710057	20.498504
11023		50.029448	-63.852503	21.298295
11024		49.051616	-64.998238	22.132283
11025		48.017307	-66.133985	22.984351
11026		46.921418	-67.258806	23.865534
11027		45.791272	-68.360053	24.760984
11028		44.628404	-69.440468	25.691247
11029		43.445422	-70.498863	26.661345
11030		42.215620	-71.528369	27.720113
11031		40.915150	-72.514614	28.876751
11032		39.542158	-73.452435	30.148080
11033		38.104391	-74.327644	31.527045
11034		36.578430	-75.131495	33.028460
11035		35.006414	-75.860439	34.609628
11036		33.315183	-76.519541	36.344532
11037		31.490749	-77.112822	38.248464
11038		29.500387	-77.657721	40.337497
11039		27.368578	-78.159376	42.582930
11040		25.040965	-78.630124	45.028085
11041		22.552946	-79.076759	47.623454
11042		19.874763	-79.505773	50.387657
11043		17.032450	-79.910219	53.299362
11044		14.097400	-80.294978	56.271326
11045		11.112631	-80.656759	59.269941
11046		8.070955	-80.994313	62.309719
11047		4.968242	-81.294594	65.415436
11048		1.730424	-81.552604	68.672178
11049		-1.582713	-81.757405	72.024805
11050		-4.982112	-81.908717	75.488071
11051		-8.412118	-82.007387	79.003954
11052		-11.900306	-82.056788	82.585732
11053		-15.353132	-82.066712	86.134388
11054		-18.926706	-82.034850	89.803299
11055		-22.597245	-81.952909	93.556505
11056		-26.358182	-81.827722	97.371991
11057		-30.086401	-81.661013	101.114062
11058		-33.828930	-81.459075	104.826336
11059		-37.497032	-81.221249	108.435905
11060		-41.061635	-80.945198	111.914521
11061		-44.496838	-80.638886	115.244767
11062		-47.787750	-80.298188	118.417664
11063		-50.911009	-79.929155	121.415567
11064		-53.828056	-79.548577	124.198161
11065		-56.520101	-79.176587	126.752545
11066		-59.051169	-78.811618	129.160929
11067		-61.449598	-78.468564	131.440460
11068		-63.797119	-78.130491	133.674988
11069		-66.088515	-77.779399	135.858505
11070		-68.323353	-77.404093	137.999605
11071		-70.501621	-76.990644	140.085457
11072		-72.632126	-76.524799	142.106818
11073		-74.673618	-76.004842	144.008504
11074		-76.616279	-75.417066	145.774010
11075		-78.418620	-74.773732	147.362240
11076		-80.096045	-74.077497	148.802346
11077		-81.600530	-73.345067	150.056701
11078		-82.950145	-72.593764	151.157518
11079		-84.167395	-71.843592	152.113904
11080		-85.297977	-71.102317	152.966215
11081		-86.354547	-70.374922	153.725298
11082		-87.347734	-69.660448	154.409262
11083		-88.253221	-68.958257	155.014647
11084		-89.088398	-68.264638	155.568479
11085		-89.828530	-67.584647	156.068750
11086		-90.479216	-66.918752	156.506620
11087		-91.054565	-66.289886	156.896331
11088		-91.568284	-65.712318	157.231084
11089		-92.053556	-65.202938	157.533167
11090		-92.509451	-64.753899	157.810941
11091		-92.917053	-64.365156	158.054716
11092		-93.268472	-64.028910	158.267147
11093		-93.579200	-63.738043	158.461974
11094		-93.874238	-63.477940	158.652594
11095		-94.156133	-63.244415	158.841016
11096		-94.435526	-63.025822	159.035446
11097		-94.694098	-62.827768	159.229684
11098		-94.943311	-62.641259	159.434035
11099		-95.167370	-62.472979	159.623145
11100		-95.388873	-62.319525	159.810120
11101		-95.595244	-62.177860	159.970651
11102		-95.788567	-62.034005	160.107547
11103		-95.968282	-61.887555	160.223558
11104		-96.147661	-61.742871	160.337104
11105		-96.316328	-61.602947	160.450706
11106		-96.475413	-61.461965	160.573233
11107		-96.618988	-61.325755	160.703162
11108		-96.764832	-61.180447	160.855866
11109		-96.927941	-61.036140	161.042855
11110		-97.100769	-60.895497	161.239869
11111		-97.280561	-60.768352	161.434379
11112		-97.471770	-60.659266	161.617200
11113		-97.662561	-60.574273	161.781145
11114		-97.841569	-60.508536	161.935819
11115		-97.996021	-60.473003	162.081297
11116		-98.126274	-60.456913	162.222379
11117		-98.228771	-60.462982	162.357023
11118		-98.310286	-60.480091	162.489018
11119		-98.366314	-60.505002	162.598674
11120		-98.427604	-60.527558	162.690906
11121		-98.502398	-60.549692	162.769411
11122		-98.585758	-60.565569	162.838083
11123		-98.646421	-60.590661	162.872558
11124		-98.693276	-60.625945	162.885035
11125		-98.707120	-60.684241	162.870139
11126		-98.700122	-60.764894	162.839401
11127		-98.661576	-60.880502	162.787633
11128		-98.585815	-61.016738	162.716653
11129		-98.459266	-61.173948	162.619246
11130		-98.294353	-61.341354	162.502823
11131		-98.115718	-61.513687	162.373335
11132		-97.933548	-61.688543	162.223134
11133		-97.784388	-61.869113	162.072480
11134		-97.656340	-62.050696	161.916883
11135		-97.542543	-62.246166	161.753262
11136		-97.439900	-62.453128	161.590839
11137		-97.322910	-62.678781	161.426062
11138		-97.182082	-62.920349	161.268383
11139		-97.017428	-63.182363	161.118168
11140		-96.862838	-63.467660	160.986865
11141		-96.731172	-63.779375	160.878647
11142		-96.610747	-64.109758	160.785702
11143		-96.501014	-64.464078	160.701550
11144		-96.459067	-64.871530	160.642553
11145		-96.450363	-65.338745	160.576396
11146		-96.413797	-65.832932	160.489401
11147		-96.272574	-66.342463	160.348470
11148		-95.977775	-66.844318	160.116451
11149		-95.543470	-67.353820	159.778187
11150		-95.037012	-67.865257	159.368837
11151		-94.487844	-68.379156	158.896599
11152		-93.910126	-68.889294	158.370208
11153		-93.304670	-69.407034	157.779030
11154		-92.701856	-69.932435	157.147142
11155		-92.090002	-70.471147	156.476884
11156		-91.478245	-71.013099	155.797093
11157		-90.806357	-71.563084	155.074099
11158		-90.073809	-72.118329	154.314122
11159		-89.274083	-72.701647	153.495599
11160		-88.394218	-73.309857	152.610563
11161		-87.368295	-73.929656	151.607777
11162		-86.167433	-74.534953	150.471704
11163		-84.763755	-75.138902	149.157000
11164		-83.190276	-75.736942	147.674825
11165		-81.464376	-76.341509	146.034009
11166		-79.562979	-76.951075	144.211588
11167		-77.422674	-77.557688	142.153443
11168		-75.026918	-78.154301	139.847691
11169		-72.333581	-78.738523	137.255543
11170		-69.347582	-79.289748	134.385906
11171		-66.011118	-79.804199	131.175988
11172		-62.397408	-80.272776	127.677590
11173		-58.456114	-80.688351	123.835604
11174		-54.281511	-81.037862	119.740144
11175		-49.823173	-81.327934	115.339590
11176		-45.071610	-81.566942	110.622862
11177		-39.999802	-81.749714	105.577031
11178		-34.701262	-81.868220	100.314638
11179		-29.153242	-81.925397	94.832199
11180		-23.528798	-81.927995	89.311658
11181		-17.921947	-81.884878	83.872558
11182		-12.483431	-81.811936	78.665379
11183		-7.138932	-81.724635	73.596882
11184		-1.871846	-81.630652	68.616826
11185		3.338589	-81.514074	63.675827
11186		8.460158	-81.348835	58.779139
11187		13.492073	-81.115744	53.914966
11188		18.286474	-80.802619	49.239807
11189		22.785634	-80.402166	44.827946
11190		26.885492	-79.926328	40.808500
11191		30.513641	-79.379121	37.267363
11192		33.654263	-78.784080	34.217951
11193		36.355913	-78.148457	31.601705
11194		38.647254	-77.495412	29.370634
11195		40.639436	-76.819674	27.395295
11196		42.406344	-76.129794	25.609118
11197		44.014876	-75.420186	23.946006
11198		45.520492	-74.696207	22.365558
11199		46.925854	-73.947735	20.880263
11200		48.243829	-73.174613	19.480101
11201		49.488517	-72.358919	18.146795
11202		50.659103	-71.500869	16.883652
11203		51.739325	-70.585842	15.723257
11204		52.730666	-69.614527	14.677218
11205		53.678413	-68.578115	13.718415
11206		54.584869	-67.490220	12.853047
11207		55.459312	-66.352054	12.067901
11208		56.287863	-65.170122	11.364041
11209		57.066499	-63.941011	10.728396
11210		57.785098	-62.683446	10.163802
11211		58.444588	-61.400025	9.666830
11212		59.034750	-60.101162	9.245018
11213		59.559676	-58.785426	8.883848
11214		60.013917	-57.467851	8.586043
11215		60.395833	-56.146356	8.345650
11216		60.713019	-54.826141	8.156003
11217		60.984365	-53.500611	8.011480
11218		61.226790	-52.169307	7.909880
11219		61.459404	-50.803171	7.839243
11220		61.708322	-49.404620	7.774758
11221		62.014166	-47.967615	7.704670
11222		62.405887	-46.508916	7.617227
11223		62.907055	-45.034920	7.508424
11224		63.519703	-43.563485	7.373397
11225		64.213533	-42.103208	7.220539
11226		64.932853	-40.676573	7.065294
11227		65.632494	-39.294593	6.909474
11228		66.295734	-37.962348	6.752334
11229		66.915826	-36.693966	6.591093
11230		67.489740	-35.487319	6.431159
11231		68.034800	-34.335912	6.257656
11232		68.548148	-33.243791	6.074437
11233		69.026670	-32.193836	5.884922
11234		69.456682	-31.186306	5.687582
11235		69.824884	-30.211981	5.488719
11236		70.126478	-29.267097	5.303724
11237		70.365751	-28.345368	5.141874
11238		70.564909	-27.460175	5.017715
11239		70.725181	-26.612836	4.941795
11240		70.842466	-25.804226	4.920370
11241		70.902040	-25.031022	4.944665
11242		70.907573	-24.307441	5.012331
11243		70.854959	-23.635243	5.117925
11244		70.750716	-23.011430	5.243400
11245		70.587369	-22.429102	5.381984
11246		70.377585	-21.877638	5.524510
11247		70.135999	-21.343165	5.663899
11248		69.890987	-20.832256	5.794505
11249		69.666506	-20.337609	5.913662
11250		69.485177	-19.862406	6.011217
11251		69.359972	-19.401487	6.090531
11252		69.292469	-18.960676	6.147817
11253		69.265896	-18.520180	6.186197
11254		69.263354	-18.078046	6.214091
11255		69.278398	-17.637591	6.231671
11256		69.288629	-17.200876	6.241869
11257		69.275118	-16.763276	6.247052
11258		69.241534	-16.335914	6.249115
11259		69.197996	-15.934903	6.247912
11260		69.157178	-15.569651	6.245447
11261		69.121485	-15.243113	6.236973
11262		69.078996	-14.947969	6.223594
11263		69.025231	-14.667664	6.209811
11264		68.970602	-14.403032	6.203004
11265		68.912659	-14.137021	6.207717
11266		68.851413	-13.865754	6.233527
11267		68.777139	-13.584315	6.274025
11268		68.670627	-13.286608	6.330803
11269		68.538775	-12.974638	6.394536
11270		68.401338	-12.669380	6.463794
11271		68.267156	-12.374666	6.516744
11272		68.154600	-12.101726	6.546728
11273		68.064810	-11.843167	6.559080
11274		67.991006	-11.582673	6.559931
11275		67.932752	-11.306295	6.561651
11276		67.891648	-11.013984	6.572821
11277		67.866595	-10.693604	6.604478
11278		67.851270	-10.342831	6.654949
11279		67.843496	-9.962775	6.724352
11280		67.851403	-9.575490	6.804219
11281		67.884044	-9.203177	6.881134
11282		67.933246	-8.836664	6.950901
11283		67.968497	-8.462509	7.003353
11284		67.994113	-8.089166	7.043377
11285		67.878094	-7.700744	7.102210
11286		67.651643	-7.211923	7.266751
11287		67.590749	-6.844605	7.332737
11288		67.602174	-6.478932	7.466587
11289		67.750271	-6.164539	7.520161
11290		67.946818	-5.920629	7.507386
11291		68.150905	-5.739605	7.444354
11292		68.310108	-5.592869	7.362774
11293		68.386690	-5.454147	7.280842
11294		68.377732	-5.336795	7.205768
11295		68.302665	-5.207134	7.168458
11296		68.192218	-5.066123	7.161447
11297		68.064542	-4.922611	7.197936
11298		67.927878	-4.818850	7.252430
11299		67.788538	-4.763439	7.296121
11300		67.630172	-4.747115	7.286428
11301		67.471038	-4.751629	7.255636
11302		67.317819	-4.764536	7.218450
11303		67.160376	-4.779516	7.182020
11304		67.006125	-4.798866	7.158048
11305		66.866102	-4.811430	7.146346
11306		66.746199	-4.819210	7.145223
11307		66.646428	-4.823810	7.140384
11308		66.571629	-4.827406	7.134349
11309		66.516183	-4.834254	7.128366
11310		66.479140	-4.838756	7.124228
11311		66.457098	-4.843463	7.124507
11312		66.442458	-4.850742	7.129349
11313		66.430597	-4.855430	7.133788
11314		66.418596	-4.863308	7.137014
11315		66.406982	-4.871474	7.138541
11316		66.394489	-4.887844	7.144646
11317		66.374616	-4.903079	7.150697
11318		66.343232	-4.918237	7.157396
11319		66.303312	-4.927597	7.164480
11320		66.264640	-4.935887	7.171302
11321		66.226086	-4.940947	7.179333
11322		66.189829	-4.943328	7.186055
11323		66.151354	-4.937751	7.193081
11324		66.108488	-4.932628	7.201061
11325		66.062337	-4.927426	7.204404
11326		66.025296	-4.932149	7.199118
11327		65.997009	-4.937769	7.192751
11328		65.973945	-4.947719	7.189607
11329		65.948859	-4.953062	7.184930
11330		65.918298	-4.959065	7.177744
11331		65.885871	-4.962130	7.171397
11332		65.853339	-4.968361	7.171497
11333		65.815953	-4.973723	7.172048
11334		65.775078	-4.979167	7.179170
11335		65.726123	-4.979296	7.187857
11336		65.673077	-4.984987	7.198046
11337		65.619527	-4.994408	7.201241
11338		65.572220	-5.012884	7.200674
11339		65.525942	-5.032476	7.196455
11340		65.481695	-5.057014	7.185051
11341		65.430672	-5.073678	7.165354
11342		65.382061	-5.092464	7.148114
11343		65.332401	-5.109298	7.135262
11344		65.284848	-5.129356	7.126018
11345		65.235617	-5.143480	7.121734
11346		65.186006	-5.155878	7.122257
11347		65.141288	-5.165286	7.121670
11348		65.102263	-5.175066	7.127322
11349		65.073692	-5.186245	7.134522
11350		65.055752	-5.198564	7.142463
11351		65.042089	-5.206913	7.151259
11352		65.035359	-5.217738	7.154720
11353		65.034606	-5.226930	7.157415
11354		65.038519	-5.236852	7.161817
11355		65.049334	-5.243268	7.166537
11356		65.061902	-5.251046	7.174642
11357		65.076453	-5.250125	7.182640
11358		65.086641	-5.250077	7.189469
11359		65.098022	-5.251176	7.191559
11360		65.110556	-5.259156	7.191998
11361		65.122976	-5.266381	7.191628
11362		65.133226	-5.274214	7.195972
11363		65.140735	-5.269932	7.201124
11364		65.155257	-5.261988	7.205811
11365		65.181754	-5.242042	7.208770
11366		65.219095	-5.219274	7.203349
11367		65.271599	-5.184197	7.197913
11368		65.338966	-5.148460	7.193883
11369		65.421409	-5.103139	7.199965
11370		65.524518	-5.049248	7.226428
11371		65.631518	-4.974896	7.271723
11372		65.763854	-4.892700	7.327454
11373		65.944126	-4.827635	7.390297
11374		66.195659	-4.771857	7.538461
11375		66.407072	-4.694994	7.666989
11376		66.600254	-4.604256	7.773812
11377		66.779599	-4.521681	7.874582
11378		66.945074	-4.446686	7.945791
11379		67.099609	-4.380631	8.005122
11380		67.233742	-4.339146	8.041771
11381		67.346647	-4.321695	8.059413
11382		67.436896	-4.336432	8.047014
11383		67.496929	-4.389045	8.004201
11384		67.522171	-4.470444	7.944926
11385		67.523219	-4.572904	7.879814
11386		67.522464	-4.696818	7.832029
11387		67.520198	-4.822093	7.796218
11388		67.533841	-4.957837	7.778995
11389		67.566401	-5.097082	7.782028
11390		67.616998	-5.249954	7.800869
11391		67.689891	-5.405138	7.839202
11392		67.774961	-5.570739	7.883071
11393		67.866937	-5.742267	7.917620
11394		67.963378	-5.935049	7.931912
11395		68.062752	-6.149763	7.925142
11396		68.159802	-6.397910	7.911595
11397		68.239744	-6.671484	7.901808
11398		68.301843	-6.972983	7.907122
11399		68.348844	-7.297299	7.931597
11400		68.379727	-7.657251	7.967556
11401		68.400680	-8.050706	8.010946
11402		68.424391	-8.489281	8.051512
11403		68.457056	-8.966023	8.088903
11404		68.494224	-9.489163	8.120717
11405		68.524655	-10.046308	8.153687
11406		68.559678	-10.642850	8.184303
11407		68.596695	-11.274776	8.209878
11408		68.644005	-11.943875	8.235970
11409		68.695542	-12.642889	8.261484
11410		68.749558	-13.374827	8.286477
11411		68.801510	-14.135552	8.304755
11412		68.849466	-14.925115	8.322005
11413		68.904789	-15.747886	8.343630
11414		68.964745	-16.606775	8.367290
11415		69.015034	-17.488645	8.397311
11416		69.047838	-18.397294	8.432803
11417		69.059894	-19.325142	8.471833
11418		69.051911	-20.280371	8.515339
11419		69.027857	-21.261099	8.567324
11420		68.984690	-22.275584	8.623838
11421		68.921250	-23.323672	8.682941
11422		68.825878	-24.409667	8.749894
11423		68.699667	-25.521552	8.814566
11424		68.549838	-26.664722	8.877806
11425		68.384555	-27.826046	8.943113
11426		68.205637	-29.003030	9.013937
11427		68.017722	-30.186173	9.089098
11428		67.820685	-31.380955	9.169220
11429		67.607370	-32.577922	9.258688
11430		67.386004	-33.797836	9.353969
11431		67.125180	-35.023674	9.460291
11432		66.821265	-36.255066	9.568160
11433		66.478863	-37.491608	9.686350
11434		66.111246	-38.734827	9.801574
11435		65.732235	-39.977926	9.918922
11436		65.357444	-41.220468	10.018416
11437		64.987551	-42.457442	10.110804
11438		64.610579	-43.711226	10.234954
11439		64.200754	-44.983647	10.390910
11440		63.709499	-46.280128	10.590223
11441		63.122389	-47.585693	10.813065
11442		62.448849	-48.898414	11.048694
11443		61.721606	-50.220661	11.274627
11444		60.975912	-51.573773	11.496592
11445		60.200009	-52.942399	11.743773
11446		59.388666	-54.308139	12.018340
11447		58.535213	-55.650547	12.331949
11448		57.688399	-56.960195	12.684586
11449		56.865111	-58.232816	13.078348
11450		56.065852	-59.461542	13.520179
11451		55.281543	-60.650269	14.019536
11452		54.498066	-61.795907	14.584668
11453		53.685234	-62.905312	15.232933
11454		52.851449	-63.981064	15.939541
11455		51.992545	-65.014507	16.692311
11456		51.128755	-66.017797	17.465601
11457		50.241175	-67.003745	18.281017
11458		49.314403	-67.976319	19.155514
11459		48.291470	-68.939534	20.144878
11460		47.135031	-69.892487	21.272120
11461		45.810199	-70.824493	22.563899
11462		44.330095	-71.733178	23.995881
11463		42.728272	-72.604414	25.531479
11464		41.027693	-73.444886	27.175033
11465		39.230947	-74.249821	28.935976
11466		37.278848	-75.019739	30.880130
11467		35.129528	-75.758834	33.062280
11468		32.728528	-76.477341	35.527634
11469		29.990665	-77.162836	38.366555
11470		26.811071	-77.814448	41.676596
11471		23.252867	-78.408583	45.375514
11472		19.355791	-78.939577	49.398598
11473		15.318778	-79.396486	53.518194
11474		11.461846	-79.782128	57.367243
11475		7.843311	-80.105370	60.901752
11476		4.376125	-80.373450	64.254105
11477		0.973153	-80.578079	67.556403
11478		-2.444915	-80.735044	70.931221
11479		-5.871077	-80.840375	74.378544
11480		-9.330791	-80.903811	77.916713
11481		-12.910045	-80.927527	81.624977
11482		-16.694974	-80.902468	85.572895
11483		-20.609239	-80.821273	89.638431
11484		-24.569045	-80.699262	93.706845
11485		-28.529547	-80.540196	97.723508
11486		-32.329726	-80.376858	101.504255
11487		-35.916130	-80.231447	104.989616
11488		-39.439883	-80.089269	108.367242
11489		-42.954409	-79.933875	111.733701
11490		-46.509253	-79.752402	115.161531
11491		-50.007744	-79.527433	118.563163
11492		-53.338167	-79.265136	121.820684
11493		-56.423270	-78.950478	124.854275
11494		-59.292182	-78.562375	127.684403
11495		-61.893996	-78.091763	130.265352
11496		-64.272601	-77.521045	132.639047
11497		-66.379646	-76.883085	134.730772
11498		-68.343127	-76.219982	136.624351
11499		-70.173098	-75.578529	138.300123
11500		-71.974011	-74.983345	139.856144
11501		-73.761499	-74.434099	141.320322
11502		-75.529754	-73.914303	142.741665
11503		-77.228295	-73.413754	144.108840
11504		-78.814814	-72.914610	145.403956
11505		-80.257991	-72.421472	146.616847
11506		-81.557155	-71.916114	147.759249
11507		-82.694892	-71.408683	148.803846
11508		-83.703533	-70.908878	149.762577
11509		-84.626036	-70.433517	150.648043
11510		-85.497318	-69.989299	151.458614
11511		-86.310172	-69.594618	152.167985
11512		-87.092245	-69.248382	152.795114
11513		-87.799475	-68.940565	153.328613
11514		-88.421624	-68.648896	153.789551
11515		-88.948888	-68.370923	154.173257
11516		-89.398410	-68.103383	154.487205
11517		-89.784070	-67.851628	154.748709
11518		-90.141843	-67.605850	155.002752
11519		-90.459332	-67.371749	155.244641
11520		-90.761364	-67.149135	155.493560
11521		-91.048522	-66.937312	155.748284
11522		-91.342272	-66.726723	156.022453
11523		-91.658337	-66.534284	156.313436
11524		-91.998340	-66.354088	156.610830
11525		-92.356853	-66.190350	156.908827
11526		-92.718144	-66.031572	157.196080
11527		-93.054092	-65.874296	157.448292
11528		-93.365411	-65.711139	157.676558
11529		-93.637090	-65.543130	157.880518
11530		-93.891119	-65.368448	158.091782
11531		-94.112572	-65.186989	158.307825
11532		-94.311880	-65.002608	158.538450
11533		-94.484360	-64.820338	158.767520
11534		-94.641121	-64.642554	158.989761
11535		-94.776263	-64.478048	159.195371
11536		-94.889380	-64.312467	159.383963
11537		-94.980110	-64.148302	159.553248
11538		-95.032337	-63.982463	159.691547
11539		-95.053446	-63.821027	159.803602
11540		-95.048307	-63.665424	159.882855
11541		-95.014837	-63.531915	159.925513
11542		-94.948069	-63.413063	159.936405
11543		-94.864374	-63.318486	159.927574
11544		-94.813904	-63.244613	159.937359
11545		-94.813639	-63.201151	159.973537
11546		-94.876686	-63.180590	160.049297
11547		-94.978879	-63.172263	160.157244
11548		-95.103094	-63.157659	160.290353
11549		-95.236345	-63.130275	160.424272
11550		-95.379197	-63.086425	160.557540
11551		-95.506036	-63.029941	160.670239
11552		-95.618306	-62.966030	160.764761
11553		-95.704604	-62.904752	160.830791
11554		-95.768175	-62.845913	160.873816
11555		-95.805187	-62.800072	160.879479
11556		-95.825128	-62.776239	160.858957
11557		-95.818155	-62.779351	160.815131
11558		-95.791684	-62.798684	160.765774
11559		-95.744315	-62.841438	160.712743
11560		-95.677615	-62.892684	160.648824
11561		-95.609336	-62.961148	160.580325
11562		-95.551620	-63.040060	160.514756
11563		-95.491075	-63.139583	160.437514
11564		-95.452662	-63.258463	160.371685
11565		-95.416802	-63.403247	160.298028
11566		-95.375213	-63.563912	160.216232
11567		-95.306373	-63.737968	160.110899
11568		-95.211845	-63.917874	159.987531
11569		-95.080241	-64.112027	159.835188
11570		-94.922435	-64.315465	159.660791
11571		-94.736503	-64.533080	159.453250
11572		-94.541386	-64.769091	159.227866
11573		-94.337613	-65.024111	158.983510
11574		-94.140907	-65.305337	158.733037
11575		-93.922253	-65.616333	158.473090
11576		-93.679216	-65.955331	158.212783
11577		-93.382200	-66.329532	157.932719
11578		-93.033043	-66.742019	157.634591
11579		-92.604784	-67.192723	157.285546
11580		-92.083866	-67.670935	156.853215
11581		-91.484670	-68.187630	156.334443
11582		-90.820387	-68.742089	155.713736
11583		-90.085189	-69.342469	154.976874
11584		-89.276236	-69.982397	154.135531
11585		-88.329626	-70.658709	153.148927
11586		-87.232239	-71.363767	152.028846
11587		-85.942972	-72.103369	150.745618
