// General information: 
//  MT Manager version: 2022.2.0 
//  XDA version: 2022.2.0 build 7381 rev 124627 built on 2023-07-19
// Device information: 
//  DeviceId: 00B44805
//  ProductCode: MTW2-3A7G6
//  Firmware Version: 4.3.5
//  Hardware Version: 2.0.0
// Device settings: 
//  Filter Profile: human(46.1)
//  Option Flags: Orientation Smoother Disabled, Position/Velocity Smoother Disabled, Continuous Zero Rotation Update Disabled, AHS Disabled, ICC Disabled
// Coordinate system: ENU
PacketCounter	SampleTimeFine	Roll	Pitch	Yaw
22119		24.755566	4.830047	35.036659
22120		24.760403	4.848465	35.038483
22121		24.765461	4.868149	35.042857
22122		24.769331	4.888840	35.050170
22123		24.784591	4.912609	35.060042
22124		24.807019	4.936158	35.071946
22125		24.840900	4.963771	35.087239
22126		24.861122	4.990936	35.101174
22127		24.855426	5.014185	35.114194
22128		24.853943	5.035106	35.128330
22129		24.848841	5.052212	35.142796
22130		24.847594	5.063908	35.155111
22131		24.860217	5.073798	35.164355
22132		24.881852	5.081587	35.173542
22133		24.905588	5.086470	35.177951
22134		24.910575	5.090558	35.181266
22135		24.902537	5.092203	35.178622
22136		24.904498	5.095320	35.174375
22137		24.909024	5.096700	35.167898
22138		24.910087	5.098062	35.155750
22139		24.913015	5.098729	35.143237
22140		24.915545	5.100007	35.128825
22141		24.917195	5.098545	35.114059
22142		24.919911	5.097937	35.099016
22143		24.926534	5.099714	35.085522
22144		24.928366	5.101071	35.072262
22145		24.928251	5.099953	35.062503
22146		24.926733	5.098736	35.054188
22147		24.918105	5.100702	35.046084
22148		24.894118	5.104564	35.043182
22149		24.859809	5.108345	35.038085
22150		24.824567	5.109768	35.038009
22151		24.788362	5.112272	35.039972
22152		24.764502	5.116917	35.045300
22153		24.764411	5.121792	35.050640
22154		24.773583	5.129161	35.056240
22155		24.768865	5.137345	35.062296
22156		24.755518	5.145479	35.066514
22157		24.726916	5.151654	35.071853
22158		24.695884	5.161157	35.077373
22159		24.667950	5.165310	35.079991
22160		24.645817	5.169967	35.084016
22161		24.640287	5.176230	35.089537
22162		24.649019	5.184711	35.098033
22163		24.665214	5.199935	35.112359
22164		24.692932	5.213981	35.125142
22165		24.716624	5.228544	35.135959
22166		24.731855	5.240025	35.150779
22167		24.734539	5.248278	35.160670
22168		24.740418	5.260691	35.165525
22169		24.774841	5.278969	35.168840
22170		24.790704	5.299884	35.170738
22171		24.799496	5.312493	35.164848
22172		24.811204	5.306702	35.126969
22173		24.815865	5.313976	35.106854
22174		24.951469	5.294864	35.072269
22175		25.039448	5.296708	35.010327
22176		25.162221	5.309030	34.947321
22177		25.311694	5.324587	34.870683
22178		25.452952	5.342891	34.805789
22179		25.560672	5.354461	34.729988
22180		25.579405	5.354623	34.664626
22181		25.524317	5.350115	34.589092
22182		25.466352	5.348223	34.523414
22183		25.415777	5.350578	34.460934
22184		25.353951	5.363087	34.410329
22185		25.331062	5.381467	34.378686
22186		25.369626	5.419353	34.362377
22187		25.416477	5.456616	34.352599
22188		25.479594	5.500111	34.363304
22189		25.509008	5.553580	34.388333
22190		25.459493	5.618930	34.388187
22191		25.359841	5.680831	34.379526
22192		25.290254	5.759711	34.387888
22193		25.252581	5.847976	34.411347
22194		25.265634	5.935556	34.456630
22195		25.285107	6.027856	34.519718
22196		25.285815	6.121213	34.590435
22197		25.260447	6.214008	34.660768
22198		25.164876	6.299776	34.725821
22199		25.006797	6.387432	34.788806
22200		24.808483	6.475705	34.852676
22201		24.622446	6.570041	34.921490
22202		24.449865	6.668776	34.994677
22203		24.284653	6.771014	35.068642
22204		24.079878	6.874310	35.138394
22205		23.805712	6.981770	35.195530
22206		23.522955	7.090939	35.240408
22207		23.222672	7.209988	35.271666
22208		22.915910	7.334019	35.296117
22209		22.602944	7.451598	35.330724
22210		22.301462	7.571696	35.371817
22211		21.985662	7.697623	35.416646
22212		21.685550	7.838308	35.461603
22213		21.437755	7.999910	35.508321
22214		21.223083	8.179726	35.557651
22215		21.009766	8.360380	35.595976
22216		20.783093	8.538612	35.624965
22217		20.516528	8.713854	35.646058
22218		20.222023	8.888902	35.663866
22219		19.930786	9.068127	35.675109
22220		19.637669	9.244732	35.683784
22221		19.339681	9.421404	35.687163
22222		19.017881	9.591258	35.677721
22223		18.667053	9.762397	35.660633
22224		18.300214	9.925017	35.634946
22225		17.932477	10.084863	35.602503
22226		17.587472	10.238295	35.561456
22227		17.243358	10.389439	35.504820
22228		16.886555	10.526299	35.426787
22229		16.503639	10.652774	35.332927
22230		16.108912	10.766856	35.215233
22231		15.727482	10.877871	35.080807
22232		15.380189	10.985712	34.933581
22233		15.070267	11.092091	34.771924
22234		14.799256	11.186189	34.594071
22235		14.535843	11.266887	34.406001
22236		14.241505	11.321014	34.200000
22237		13.869887	11.374108	33.980407
22238		13.442850	11.423747	33.758074
22239		13.003458	11.470298	33.534189
22240		12.583835	11.516869	33.315067
22241		12.196195	11.572778	33.100393
22242		11.880249	11.639715	32.895699
22243		11.643557	11.720713	32.702102
22244		11.456109	11.809426	32.509876
22245		11.268535	11.901022	32.315819
22246		11.067023	11.990522	32.114685
22247		10.838016	12.076436	31.906032
22248		10.589974	12.155709	31.690225
22249		10.353844	12.231121	31.470320
22250		10.144917	12.305099	31.249267
22251		9.958450	12.389383	31.027519
22252		9.784297	12.479888	30.804952
22253		9.613446	12.573596	30.576836
22254		9.442326	12.673905	30.352481
22255		9.271720	12.777013	30.110453
22256		9.127660	12.884683	29.863028
22257		9.022639	12.997169	29.607265
22258		8.942937	13.110396	29.340778
22259		8.873648	13.228862	29.068160
22260		8.807088	13.349166	28.790729
22261		8.735560	13.465314	28.500300
22262		8.638212	13.579249	28.202270
22263		8.526520	13.687927	27.897567
22264		8.426137	13.789758	27.585471
22265		8.354383	13.889356	27.270921
22266		8.315844	13.993123	26.955793
22267		8.314120	14.111857	26.637037
22268		8.343681	14.234492	26.323275
22269		8.380799	14.358736	26.018900
22270		8.426562	14.482158	25.722085
22271		8.504227	14.606806	25.430935
22272		8.592624	14.737042	25.148277
22273		8.683675	14.878361	24.874820
22274		8.776337	15.016530	24.606857
22275		8.860699	15.150342	24.350274
22276		8.952525	15.280802	24.101621
22277		9.087490	15.419921	23.872375
22278		9.264552	15.569472	23.662047
22279		9.460750	15.723663	23.464499
22280		9.635943	15.866704	23.278914
22281		9.749545	15.989753	23.101494
22282		9.803152	16.097404	22.930200
22283		9.817063	16.198054	22.767203
22284		9.793626	16.283183	22.612726
22285		9.736629	16.355650	22.466501
22286		9.669440	16.423158	22.324606
22287		9.589343	16.490814	22.189710
22288		9.514931	16.561438	22.064019
22289		9.463442	16.637696	21.943052
22290		9.432493	16.715537	21.824404
22291		9.405177	16.790145	21.712313
22292		9.373240	16.861471	21.598589
22293		9.342509	16.930008	21.487512
22294		9.300541	16.997009	21.379855
22295		9.268933	17.072902	21.277171
22296		9.229126	17.134980	21.178682
22297		9.158777	17.184548	21.076867
22298		9.052883	17.226030	20.975748
22299		8.928814	17.258877	20.877868
22300		8.781873	17.285424	20.777925
22301		8.643098	17.311638	20.682147
22302		8.511110	17.340790	20.589691
22303		8.344895	17.352274	20.496872
22304		8.148085	17.349598	20.411441
22305		7.944419	17.342885	20.335821
22306		7.724165	17.327951	20.268488
22307		7.476059	17.305501	20.210963
22308		7.226061	17.281659	20.165258
22309		7.001469	17.258465	20.128162
22310		6.820620	17.238451	20.100592
22311		6.638903	17.218709	20.082958
22312		6.427874	17.190075	20.073128
22313		6.219248	17.161240	20.065069
22314		6.027826	17.134525	20.058036
22315		5.850405	17.112983	20.052879
22316		5.697806	17.095433	20.049446
22317		5.576684	17.074593	20.044540
22318		5.471242	17.054074	20.038410
22319		5.368312	17.027881	20.031027
22320		5.273011	16.999950	20.017769
22321		5.202618	16.980986	20.001007
22322		5.158419	16.966067	19.984809
22323		5.113151	16.952691	19.961881
22324		5.088216	16.934904	19.934045
22325		5.103391	16.914718	19.907782
22326		5.145942	16.889020	19.887606
22327		5.195173	16.868902	19.882887
22328		5.221342	16.849095	19.890207
22329		5.189135	16.841384	19.908764
22330		5.107281	16.840969	19.940956
22331		4.999548	16.835219	19.981209
22332		4.898247	16.837980	20.015812
22333		4.811636	16.858339	20.054553
22334		4.843768	16.910769	20.081692
22335		5.023668	16.978014	20.109443
22336		5.331210	17.064378	20.128064
22337		5.715200	17.155994	20.145836
22338		6.101436	17.247827	20.156668
22339		6.364466	17.342900	20.140969
22340		6.607934	17.455595	20.121840
22341		6.902606	17.587486	20.114290
22342		7.233364	17.733791	20.104428
22343		7.585327	17.875317	20.108353
22344		7.831347	18.014327	20.124017
22345		7.953939	18.109595	20.155699
22346		7.954663	18.169837	20.170695
22347		7.828018	18.190907	20.202874
22348		7.581824	18.186182	20.207617
22349		7.272838	18.195844	20.198437
22350		7.075909	18.224072	20.207686
22351		6.999672	18.241264	20.193612
22352		6.969753	18.247393	20.190423
22353		6.972767	18.250567	20.178688
22354		7.034563	18.261179	20.166200
22355		7.134100	18.277998	20.147599
22356		7.234217	18.294209	20.129310
22357		7.325679	18.318671	20.117702
22358		7.412790	18.339938	20.107704
22359		7.502354	18.359434	20.104147
22360		7.603739	18.377747	20.104352
22361		7.726018	18.391413	20.110676
22362		7.863447	18.396270	20.125229
22363		7.992147	18.391790	20.140522
22364		8.091238	18.384539	20.165106
22365		8.155774	18.388819	20.190020
22366		8.175488	18.390627	20.215168
22367		8.145356	18.390865	20.234255
22368		8.081209	18.383347	20.249602
22369		8.014984	18.372618	20.257989
22370		7.987490	18.365072	20.261568
22371		8.017712	18.366860	20.255447
22372		8.096459	18.371637	20.246897
22373		8.202734	18.372061	20.232638
22374		8.315588	18.367563	20.218743
22375		8.411326	18.360959	20.203632
22376		8.472101	18.350654	20.190501
22377		8.507305	18.343930	20.175827
22378		8.535800	18.340143	20.162799
22379		8.570969	18.335001	20.154649
22380		8.619134	18.332972	20.147631
22381		8.686318	18.325412	20.140963
22382		8.779710	18.317432	20.136661
22383		8.877800	18.305323	20.135273
22384		8.954553	18.295746	20.130684
22385		9.015569	18.290606	20.127604
22386		9.053459	18.298321	20.123002
22387		9.073249	18.300969	20.121351
22388		9.082192	18.300399	20.122774
22389		9.091921	18.292172	20.119543
22390		9.123051	18.282443	20.118391
22391		9.181584	18.271230	20.115523
22392		9.246125	18.250842	20.111422
22393		9.294928	18.232722	20.107562
22394		9.333093	18.207526	20.102008
22395		9.365379	18.186086	20.094443
22396		9.394640	18.173016	20.088453
22397		9.417170	18.153341	20.076981
22398		9.455684	18.132141	20.072013
22399		9.509650	18.103205	20.061222
22400		9.582820	18.077661	20.054994
22401		9.651378	18.057148	20.051248
22402		9.718185	18.032468	20.050188
22403		9.776759	18.007175	20.054799
22404		9.826969	17.984801	20.062257
22405		9.881124	17.957632	20.078849
22406		9.938310	17.936439	20.101401
22407		9.988275	17.907621	20.130869
22408		10.043396	17.879706	20.174857
22409		10.065008	17.823782	20.217500
22410		10.101344	17.765257	20.271011
22411		10.164690	17.719258	20.327932
22412		10.234380	17.674640	20.379955
22413		10.287566	17.641322	20.436371
22414		10.318767	17.602600	20.491508
22415		10.312341	17.556454	20.552989
22416		10.279886	17.503826	20.623996
22417		10.251973	17.443387	20.706985
22418		10.239650	17.362936	20.809394
22419		10.241360	17.271205	20.928978
22420		10.264873	17.165726	21.061231
22421		10.319011	17.062151	21.209652
22422		10.390332	16.968466	21.364298
22423		10.472060	16.872517	21.523073
22424		10.563031	16.765580	21.689363
22425		10.664071	16.647970	21.856306
22426		10.776279	16.516848	22.026175
22427		10.913591	16.384401	22.197028
22428		11.070310	16.245710	22.367457
22429		11.225952	16.109658	22.538046
22430		11.373863	15.986076	22.711165
22431		11.498579	15.856385	22.884556
22432		11.606955	15.727680	23.057132
22433		11.713388	15.604498	23.235255
22434		11.807560	15.479748	23.414007
22435		11.887694	15.356872	23.595846
22436		11.970603	15.229653	23.782472
22437		12.057231	15.101796	23.975840
22438		12.166832	14.974908	24.177912
22439		12.313398	14.845480	24.386105
22440		12.500650	14.710881	24.604231
22441		12.721428	14.565151	24.827783
22442		12.951352	14.407426	25.055667
22443		13.173823	14.255725	25.282081
22444		13.369474	14.112360	25.510889
22445		13.550387	13.960614	25.731562
22446		13.745087	13.821372	25.955342
22447		13.933748	13.679009	26.176319
22448		14.106982	13.533968	26.393702
22449		14.278236	13.381833	26.602977
22450		14.457791	13.219972	26.809166
22451		14.627172	13.047443	27.014037
22452		14.771224	12.883805	27.219834
22453		14.886184	12.728428	27.427450
22454		14.978438	12.578840	27.635815
22455		15.038983	12.433480	27.844840
22456		15.099165	12.286150	28.053422
22457		15.141142	12.129895	28.259139
22458		15.156191	11.962774	28.461007
22459		15.168216	11.790124	28.656079
22460		15.195763	11.609150	28.843098
22461		15.250923	11.428018	29.024831
22462		15.334475	11.232366	29.210497
22463		15.433534	11.036802	29.387229
22464		15.517654	10.854622	29.568410
22465		15.587908	10.670732	29.732564
22466		15.662002	10.483960	29.892852
22467		15.745533	10.296675	30.050565
22468		15.826399	10.114417	30.207558
22469		15.921216	9.927100	30.364040
22470		16.035854	9.740653	30.521464
22471		16.166876	9.553722	30.682453
22472		16.288101	9.374342	30.847138
22473		16.368658	9.189514	31.017263
22474		16.437326	9.014395	31.198873
22475		16.549683	8.858328	31.373082
22476		16.580775	8.694299	31.542258
22477		16.628335	8.546980	31.719232
22478		16.760403	8.431289	31.895585
22479		16.852388	8.309980	32.069327
22480		16.894253	8.198922	32.251705
22481		16.931688	8.086422	32.425028
22482		16.918439	7.982061	32.593656
22483		16.878361	7.876894	32.759579
22484		16.888783	7.763252	32.938368
22485		16.925232	7.674430	33.114013
22486		16.944939	7.601353	33.291137
22487		16.979910	7.518714	33.462675
22488		17.057763	7.444578	33.631738
22489		17.114423	7.383449	33.800956
22490		17.130329	7.333181	33.962521
22491		17.141000	7.294518	34.115835
22492		17.167353	7.264387	34.273161
22493		17.174488	7.242906	34.434160
22494		17.147532	7.224782	34.591529
22495		17.107281	7.206408	34.743717
22496		17.057679	7.197918	34.884152
22497		17.001810	7.188143	35.008799
22498		16.972463	7.177475	35.124806
22499		17.003859	7.157475	35.249400
22500		17.018723	7.142872	35.372955
22501		17.050414	7.130223	35.498846
22502		17.110667	7.117768	35.623797
22503		17.193533	7.108918	35.747692
22504		17.269184	7.103949	35.857610
22505		17.341954	7.099869	35.957274
22506		17.443597	7.105639	36.039095
22507		17.575918	7.111171	36.114284
22508		17.737500	7.128766	36.180533
22509		17.922370	7.148137	36.239523
22510		18.105111	7.178296	36.298231
22511		18.280177	7.211300	36.354140
22512		18.429133	7.232307	36.409313
22513		18.562609	7.256386	36.466076
22514		18.646892	7.268676	36.516474
22515		18.693780	7.278202	36.563669
22516		18.744734	7.289002	36.609972
22517		18.803649	7.298327	36.656589
22518		18.870760	7.304875	36.703979
22519		18.951072	7.313324	36.747249
22520		19.028783	7.322461	36.777938
22521		19.090945	7.329124	36.794371
22522		19.156299	7.330487	36.797965
22523		19.225643	7.340899	36.793592
22524		19.313113	7.342175	36.780418
22525		19.415232	7.352322	36.776815
22526		19.516686	7.357013	36.787303
22527		19.580641	7.343165	36.805710
22528		19.581028	7.324366	36.835207
22529		19.547031	7.309228	36.874068
22530		19.515577	7.304360	36.915428
22531		19.493492	7.302129	36.956321
22532		19.498847	7.306461	36.993268
22533		19.533047	7.314882	37.024543
22534		19.590679	7.327165	37.054077
22535		19.673690	7.340585	37.084750
22536		19.766249	7.355014	37.113282
22537		19.846227	7.370466	37.141484
22538		19.903672	7.387228	37.165727
22539		19.951357	7.399860	37.189851
22540		20.001695	7.410222	37.210963
22541		20.045792	7.416481	37.230281
22542		20.090571	7.422292	37.247640
22543		20.126999	7.419017	37.260658
22544		20.154105	7.411787	37.270578
22545		20.188037	7.404237	37.280082
22546		20.225821	7.394612	37.287216
22547		20.256703	7.382021	37.287824
22548		20.288345	7.367135	37.285803
22549		20.315140	7.353768	37.282689
22550		20.337814	7.336430	37.273542
22551		20.361189	7.316387	37.262790
22552		20.385076	7.291031	37.247118
22553		20.412883	7.253619	37.225904
22554		20.450081	7.214753	37.203872
22555		20.476751	7.180088	37.183384
22556		20.495284	7.149395	37.163989
22557		20.514721	7.115602	37.146726
22558		20.552970	7.082591	37.133805
22559		20.610493	7.053578	37.126495
22560		20.679794	7.026341	37.121081
22561		20.782020	6.998870	37.130215
22562		20.912484	6.984553	37.123967
22563		21.113813	6.965350	37.133335
22564		21.399786	6.950397	37.149331
22565		21.689259	6.940533	37.168426
22566		21.965220	6.930506	37.191872
22567		22.164823	6.899142	37.202797
22568		22.329107	6.861334	37.228164
22569		22.444171	6.808298	37.246529
22570		22.478541	6.734314	37.278839
22571		22.440707	6.660426	37.308096
22572		22.382988	6.593890	37.342540
22573		22.314842	6.537026	37.378916
22574		22.245395	6.489296	37.418144
22575		22.169840	6.445876	37.457225
22576		22.097829	6.402006	37.506810
22577		22.079410	6.357316	37.587732
22578		22.084624	6.329321	37.632514
22579		22.150051	6.344294	37.651133
22580		22.380784	6.390109	37.636551
22581		22.772578	6.458797	37.604087
22582		23.233352	6.532554	37.594420
22583		23.730729	6.606755	37.593415
22584		24.264459	6.670202	37.616766
22585		24.827142	6.742588	37.636469
22586		25.402981	6.826524	37.669174
22587		25.999785	6.911368	37.738164
22588		26.580524	6.976755	37.807255
22589		27.102276	7.054381	37.877372
22590		27.539787	7.112545	37.926652
22591		27.787003	7.164188	37.976174
22592		27.916652	7.194916	38.016133
22593		28.001517	7.215251	38.049734
22594		28.044276	7.245084	38.071068
22595		28.040087	7.257387	38.086059
22596		28.025364	7.254509	38.085925
22597		28.026468	7.250722	38.072351
22598		28.069669	7.260378	38.060926
22599		28.197180	7.288492	38.051711
22600		28.359793	7.337360	38.039171
22601		28.422719	7.343706	38.028562
22602		28.434757	7.335392	38.033213
22603		28.467201	7.340859	38.016074
22604		28.432936	7.346223	37.991575
22605		28.338370	7.343550	37.977504
22606		28.248778	7.347194	37.964693
22607		28.147760	7.347812	37.951706
22608		28.076193	7.341154	37.947053
22609		28.065423	7.354891	37.948470
22610		28.082371	7.376215	37.953705
22611		28.099162	7.382029	37.964831
22612		28.126858	7.387741	37.982974
22613		28.185393	7.403010	38.000424
22614		28.225709	7.411557	38.012946
22615		28.215214	7.404321	38.021508
22616		28.195700	7.400465	38.022435
22617		28.207667	7.412344	38.021127
22618		28.228520	7.421701	38.019109
22619		28.242746	7.426777	38.021571
22620		28.246463	7.430221	38.022655
22621		28.240243	7.435450	38.027504
22622		28.242088	7.439795	38.029834
22623		28.237992	7.442101	38.029833
22624		28.212937	7.435163	38.028435
22625		28.184340	7.425422	38.025197
22626		28.183738	7.418704	38.024266
22627		28.172181	7.413918	38.017103
22628		28.147409	7.409587	38.014523
22629		28.102644	7.396235	38.008456
22630		28.035175	7.381968	38.006289
22631		27.954172	7.368014	38.002275
22632		27.865043	7.350968	38.000242
22633		27.777493	7.327816	37.997458
22634		27.693300	7.303020	37.996944
22635		27.621436	7.276125	37.994971
22636		27.541800	7.240427	37.989856
22637		27.449138	7.199919	37.974931
22638		27.407508	7.167695	37.957952
22639		27.387173	7.137132	37.936373
22640		27.361590	7.110191	37.909126
22641		27.302308	7.082475	37.878838
22642		27.201360	7.051867	37.851126
22643		27.093462	7.019963	37.821321
22644		26.994177	6.984739	37.802850
22645		26.908031	6.936019	37.786766
22646		26.828442	6.886094	37.786892
22647		26.735626	6.830495	37.779480
22648		26.630422	6.770169	37.789847
22649		26.572170	6.720986	37.764487
22650		26.501610	6.679953	37.729905
22651		26.416464	6.623406	37.687945
22652		26.351868	6.570766	37.632013
22653		26.311569	6.552722	37.553771
22654		26.306981	6.529213	37.458193
22655		26.348847	6.541119	37.354877
22656		26.426918	6.577083	37.241443
22657		26.499366	6.621668	37.121079
22658		26.571731	6.675226	37.015560
22659		26.646809	6.741980	36.919449
22660		26.687506	6.798765	36.839844
22661		26.679511	6.851200	36.788625
22662		26.659192	6.902996	36.765883
22663		26.627475	6.956597	36.765816
22664		26.608651	7.016695	36.787318
22665		26.581768	7.084225	36.821000
22666		26.548573	7.157919	36.864538
22667		26.511827	7.244128	36.913249
22668		26.453845	7.338024	36.968220
22669		26.353020	7.433570	37.030967
22670		26.235659	7.533777	37.092644
22671		26.088423	7.646903	37.158147
22672		25.904900	7.753869	37.223785
22673		25.698630	7.875046	37.282154
22674		25.503387	7.999635	37.339205
22675		25.247416	8.137051	37.386294
22676		24.980921	8.274364	37.417888
22677		24.730990	8.418812	37.440292
22678		24.452286	8.550259	37.481987
22679		24.156390	8.694530	37.534412
22680		23.906185	8.854350	37.582602
22681		23.682599	9.027535	37.623603
22682		23.470760	9.215519	37.654895
22683		23.277526	9.413296	37.675390
22684		23.082938	9.615906	37.692648
22685		22.852533	9.818860	37.704782
22686		22.576366	10.009092	37.714526
22687		22.257727	10.192223	37.720022
22688		21.924514	10.379567	37.724229
22689		21.599314	10.568212	37.734395
22690		21.325744	10.757016	37.753744
22691		21.110058	10.951122	37.781366
22692		20.941250	11.147078	37.811810
22693		20.789421	11.336378	37.837253
22694		20.609984	11.516233	37.857579
22695		20.399612	11.688766	37.860301
22696		20.154135	11.845652	37.848539
22697		19.883204	11.987888	37.823901
22698		19.628833	12.120518	37.790388
22699		19.408958	12.245286	37.751211
22700		19.222522	12.362878	37.701260
22701		19.058548	12.475455	37.638868
22702		18.903718	12.581389	37.560218
22703		18.717124	12.670622	37.459874
22704		18.501801	12.752310	37.335124
22705		18.296550	12.833968	37.190503
22706		18.129531	12.912400	37.031165
22707		18.008303	12.994395	36.866839
22708		17.924997	13.078520	36.691856
22709		17.880831	13.166278	36.513109
22710		17.846971	13.251411	36.326101
22711		17.808368	13.330658	36.132392
22712		17.761844	13.406797	35.935180
22713		17.702158	13.481795	35.737318
22714		17.624323	13.550785	35.539884
22715		17.532736	13.614792	35.341591
22716		17.455089	13.678130	35.151393
22717		17.387351	13.742504	34.964357
22718		17.335706	13.806641	34.780330
22719		17.318692	13.870550	34.601040
22720		17.323004	13.935530	34.428693
22721		17.336432	13.992703	34.253881
22722		17.357564	14.044313	34.078809
22723		17.394747	14.087215	33.891893
22724		17.460183	14.129144	33.693325
22725		17.495003	14.162086	33.483725
22726		17.481365	14.196640	33.270641
22727		17.435930	14.230760	33.052484
22728		17.377627	14.266975	32.832439
22729		17.313705	14.307124	32.609458
22730		17.252623	14.345949	32.387921
22731		17.164704	14.385880	32.164918
22732		17.057399	14.426707	31.938135
22733		16.945579	14.476188	31.705163
22734		16.830027	14.533812	31.470438
22735		16.713101	14.599706	31.241590
22736		16.593350	14.676348	31.015013
22737		16.471674	14.750288	30.793815
22738		16.367425	14.827368	30.574911
22739		16.284707	14.908739	30.359794
22740		16.203996	14.989113	30.152860
22741		16.107692	15.069070	29.941924
22742		15.995665	15.151137	29.732882
22743		15.859393	15.228270	29.521803
22744		15.725761	15.304592	29.314857
22745		15.609128	15.385024	29.113283
22746		15.516702	15.464682	28.920164
22747		15.436285	15.526620	28.724787
22748		15.323141	15.574894	28.526444
22749		15.143462	15.622790	28.333681
22750		14.903523	15.669823	28.145589
22751		14.620514	15.714038	27.965513
22752		14.351673	15.751262	27.792797
22753		14.145699	15.796888	27.629935
22754		13.996743	15.851451	27.476534
22755		13.885097	15.914628	27.326232
22756		13.790152	15.985607	27.178561
22757		13.709557	16.061856	27.032571
22758		13.626561	16.145007	26.888603
22759		13.541281	16.234127	26.747888
22760		13.474931	16.327383	26.611594
22761		13.439735	16.423226	26.477996
22762		13.433850	16.525448	26.342399
22763		13.432826	16.628631	26.201982
22764		13.424275	16.726162	26.053872
22765		13.413382	16.814053	25.894718
22766		13.384551	16.889376	25.728798
22767		13.332994	16.964842	25.561872
22768		13.297091	17.035933	25.417112
22769		13.211696	17.085879	25.246268
22770		13.252355	17.159142	25.080551
22771		13.392693	17.228288	24.928379
22772		13.523146	17.287987	24.790771
22773		13.601657	17.335469	24.659406
22774		13.598392	17.357641	24.535742
22775		13.513209	17.356594	24.430854
22776		13.391929	17.342066	24.352850
22777		13.262086	17.312249	24.297623
22778		13.154457	17.281891	24.267387
22779		13.065138	17.247846	24.245341
22780		13.020130	17.219766	24.234548
22781		13.022109	17.199017	24.231084
22782		13.066399	17.188545	24.229849
22783		13.129192	17.186105	24.226454
22784		13.152309	17.169927	24.218874
22785		13.105510	17.149114	24.213933
22786		13.005100	17.127271	24.215336
22787		12.864507	17.107384	24.218747
22788		12.721035	17.090288	24.228704
22789		12.580178	17.063045	24.241244
22790		12.460480	17.039619	24.254890
22791		12.369350	17.012617	24.268822
22792		12.279225	16.987016	24.279474
22793		12.194923	16.957973	24.291470
22794		12.116344	16.928640	24.310135
22795		12.056029	16.895380	24.331124
22796		12.014453	16.861578	24.364569
22797		11.972894	16.828594	24.393676
22798		11.934566	16.795942	24.425529
22799		11.913107	16.760532	24.453513
22800		11.898790	16.727500	24.482261
22801		11.893721	16.682209	24.511638
22802		11.867737	16.636718	24.534303
22803		11.826973	16.600893	24.549444
22804		11.802852	16.564528	24.553446
22805		11.761839	16.522687	24.549692
22806		11.685032	16.481076	24.548480
22807		11.599059	16.443208	24.538048
22808		11.540861	16.416739	24.520738
22809		11.486633	16.399931	24.506948
22810		11.448495	16.385603	24.488044
22811		11.442076	16.380821	24.471994
22812		11.459059	16.385499	24.455918
22813		11.508357	16.397735	24.437322
22814		11.582165	16.420049	24.416443
22815		11.631831	16.442340	24.392855
22816		11.702340	16.477422	24.369511
22817		11.755566	16.518874	24.337941
22818		11.835866	16.569496	24.302202
22819		11.940653	16.636418	24.263236
22820		12.116414	16.725672	24.230012
22821		12.331597	16.826506	24.198772
22822		12.561818	16.931292	24.183181
22823		12.800507	17.052444	24.169267
22824		13.021769	17.176566	24.157564
22825		13.273138	17.278144	24.164767
22826		13.458720	17.343799	24.166734
22827		13.525260	17.385115	24.172435
22828		13.521887	17.427928	24.174173
22829		13.528157	17.456427	24.179012
22830		13.542842	17.461120	24.190962
22831		13.552816	17.447953	24.209260
22832		13.552426	17.426531	24.235861
22833		13.554049	17.401265	24.246461
22834		13.600809	17.402046	24.258623
22835		13.632628	17.397980	24.263494
22836		13.706143	17.392972	24.270939
22837		13.771441	17.390636	24.280218
22838		13.822237	17.384104	24.294032
22839		13.851372	17.373443	24.304903
22840		13.885354	17.367513	24.317076
22841		13.910540	17.359279	24.329578
22842		13.950836	17.352961	24.339305
22843		13.986637	17.341817	24.351646
22844		14.020573	17.333752	24.362414
22845		14.062275	17.322527	24.374222
22846		14.104205	17.305792	24.385661
22847		14.155706	17.289928	24.393887
22848		14.209792	17.270616	24.400947
22849		14.273310	17.249228	24.408564
22850		14.337291	17.228454	24.414076
22851		14.396024	17.210196	24.418249
22852		14.448516	17.185013	24.420051
22853		14.470246	17.163518	24.414676
22854		14.477935	17.137245	24.414969
22855		14.487080	17.109329	24.410525
22856		14.481759	17.086326	24.410141
22857		14.504531	17.068129	24.406698
22858		14.538333	17.047872	24.406835
22859		14.592592	17.024748	24.403736
22860		14.639323	16.994576	24.403341
22861		14.684067	16.977335	24.405391
22862		14.714570	16.939584	24.412451
22863		14.737236	16.882033	24.418567
22864		14.774795	16.874917	24.431392
22865		14.800461	16.882176	24.448240
22866		14.780409	16.864594	24.464437
22867		14.804354	16.872004	24.488285
22868		14.828010	16.874405	24.519516
22869		14.856164	16.864141	24.557528
22870		14.886792	16.858962	24.596005
22871		14.871169	16.847148	24.638588
22872		14.847952	16.820417	24.676185
22873		14.853853	16.787912	24.707498
22874		14.884204	16.769876	24.731716
22875		14.928010	16.743575	24.749818
22876		14.967888	16.713833	24.762438
22877		15.003539	16.688964	24.766168
22878		15.016028	16.671009	24.767487
22879		15.005880	16.650987	24.767507
22880		14.996887	16.624575	24.766302
22881		15.002756	16.595186	24.766263
22882		15.024009	16.562351	24.763790
22883		15.058798	16.533678	24.762654
22884		15.113162	16.513457	24.760398
22885		15.162429	16.489320	24.756586
22886		15.206595	16.463391	24.756795
22887		15.251929	16.431958	24.761121
22888		15.278302	16.403703	24.773473
22889		15.307003	16.366772	24.791627
22890		15.333138	16.321271	24.814356
22891		15.369842	16.269915	24.851065
22892		15.425774	16.218302	24.898700
22893		15.498064	16.173552	24.970031
22894		15.563796	16.105224	25.037403
22895		15.621860	16.052886	25.119728
22896		15.661057	15.989189	25.205033
22897		15.683620	15.933880	25.301389
22898		15.700103	15.867206	25.399430
22899		15.713487	15.804560	25.513096
22900		15.726477	15.744382	25.629207
22901		15.747032	15.690062	25.757365
22902		15.750279	15.634554	25.886830
22903		15.737256	15.579161	26.026542
22904		15.719175	15.522988	26.173980
22905		15.692656	15.465659	26.333079
22906		15.676904	15.403070	26.502193
22907		15.672508	15.340944	26.676402
22908		15.685675	15.274819	26.857519
22909		15.714347	15.201993	27.037142
22910		15.753916	15.130926	27.216102
22911		15.790026	15.062554	27.390456
22912		15.809294	15.000512	27.565306
22913		15.822733	14.937817	27.738655
22914		15.821750	14.879741	27.915634
22915		15.806128	14.818920	28.090776
22916		15.790656	14.769232	28.274064
22917		15.768578	14.712802	28.462322
22918		15.764130	14.642530	28.658725
22919		15.780496	14.576537	28.866608
22920		15.813471	14.504629	29.077819
22921		15.854550	14.425649	29.293026
22922		15.897038	14.348567	29.515371
22923		15.944950	14.270342	29.736719
22924		15.992818	14.190940	29.959332
22925		16.047309	14.110605	30.181671
22926		16.104924	14.024814	30.409680
22927		16.145792	13.932417	30.631113
22928		16.170444	13.842031	30.861016
22929		16.182711	13.740802	31.092496
22930		16.201856	13.648792	31.332613
22931		16.212167	13.550853	31.584254
22932		16.224559	13.465176	31.849312
22933		16.241542	13.381002	32.124304
22934		16.262825	13.298358	32.402293
22935		16.286869	13.216602	32.693426
22936		16.321275	13.137925	32.988249
22937		16.356865	13.063655	33.287002
22938		16.398747	12.998957	33.582881
22939		16.450753	12.936166	33.869513
22940		16.512012	12.877520	34.172617
22941		16.579793	12.811101	34.465674
22942		16.638731	12.740871	34.774709
22943		16.682928	12.674005	35.080234
22944		16.718063	12.605152	35.395742
22945		16.758278	12.536973	35.709164
22946		16.808585	12.472752	36.028021
22947		16.873242	12.406884	36.349003
22948		16.940690	12.336458	36.671503
22949		17.006227	12.257716	36.990337
22950		17.082989	12.185605	37.310010
22951		17.160553	12.109035	37.632402
22952		17.223097	12.032543	37.952489
22953		17.275868	11.954540	38.268841
22954		17.332760	11.873210	38.582441
22955		17.395121	11.795114	38.888977
22956		17.447172	11.727789	39.189686
22957		17.479558	11.660145	39.484395
22958		17.494422	11.589434	39.771443
22959		17.485750	11.521423	40.047988
22960		17.471788	11.448398	40.317204
22961		17.451668	11.374943	40.579350
22962		17.424250	11.301628	40.832684
22963		17.402878	11.223349	41.087181
22964		17.405308	11.150458	41.332299
22965		17.429038	11.079154	41.567179
22966		17.473563	11.016605	41.793450
22967		17.501597	10.958324	42.004207
22968		17.508243	10.909483	42.199450
22969		17.499877	10.858900	42.379157
22970		17.474000	10.811927	42.539051
22971		17.443549	10.764719	42.685180
22972		17.430200	10.720734	42.816809
22973		17.436080	10.685258	42.930869
22974		17.458322	10.655806	43.026254
22975		17.487013	10.617546	43.103619
22976		17.502917	10.589338	43.162087
22977		17.525134	10.561582	43.203870
22978		17.580617	10.535810	43.229293
22979		17.627700	10.520086	43.248525
22980		17.691108	10.502315	43.256017
22981		17.744892	10.482024	43.256849
22982		17.798307	10.466460	43.250617
22983		17.841010	10.452573	43.235385
22984		17.880436	10.436011	43.206332
22985		17.936077	10.417867	43.167782
22986		18.030135	10.394712	43.114838
22987		18.147084	10.367696	43.053476
22988		18.273869	10.335342	42.983784
22989		18.396886	10.296623	42.908079
22990		18.537101	10.258772	42.829184
22991		18.675279	10.219188	42.744193
22992		18.813181	10.175238	42.659016
22993		18.945218	10.130500	42.573957
22994		19.044501	10.080572	42.487182
22995		19.095781	10.037816	42.410758
22996		19.106221	9.993166	42.339269
22997		19.105841	9.948531	42.274430
22998		19.089407	9.908206	42.224115
22999		19.060470	9.867936	42.187338
23000		19.049096	9.831115	42.160951
23001		19.072690	9.800210	42.145042
23002		19.107630	9.772165	42.136008
23003		19.143572	9.748953	42.134444
23004		19.190290	9.730704	42.135766
23005		19.211819	9.716760	42.138203
23006		19.203529	9.706751	42.141786
23007		19.189709	9.696569	42.150145
23008		19.174918	9.688008	42.158460
23009		19.152382	9.674996	42.166994
23010		19.145879	9.662996	42.175259
23011		19.153153	9.651828	42.186457
23012		19.172364	9.642047	42.194319
23013		19.201234	9.629306	42.198013
23014		19.231550	9.614259	42.198997
23015		19.257560	9.597367	42.199154
23016		19.270045	9.580272	42.194361
23017		19.275468	9.556305	42.185339
23018		19.290477	9.530248	42.173954
23019		19.326768	9.505923	42.158317
23020		19.366051	9.470259	42.139194
23021		19.410816	9.444001	42.121310
23022		19.480060	9.414451	42.103130
23023		19.563164	9.388104	42.085569
23024		19.611019	9.361722	42.067084
23025		19.639077	9.329700	42.048424
23026		19.649831	9.294642	42.030668
23027		19.660569	9.260723	42.013646
23028		19.706490	9.232388	42.000448
23029		19.741340	9.200742	41.989776
23030		19.796672	9.168093	41.976353
23031		19.884342	9.141551	41.962425
23032		19.951762	9.107717	41.951508
23033		20.007432	9.075844	41.942456
23034		20.050462	9.046052	41.931738
23035		20.079515	9.011572	41.920567
23036		20.108332	8.975836	41.907768
23037		20.123148	8.939555	41.898596
23038		20.116986	8.894720	41.890021
23039		20.105890	8.850032	41.882336
23040		20.111837	8.802989	41.882079
23041		20.119331	8.752526	41.895070
23042		20.103721	8.703841	41.899173
23043		20.062059	8.651640	41.900359
23044		20.024956	8.604198	41.903781
23045		19.971060	8.553442	41.910920
23046		19.931032	8.506390	41.917720
23047		19.898333	8.450980	41.920601
23048		19.874826	8.396034	41.926370
23049		19.864520	8.341131	41.936080
23050		19.841292	8.285313	41.948493
23051		19.814892	8.230006	41.964231
23052		19.772664	8.177077	41.980910
23053		19.718651	8.127088	41.993857
23054		19.692077	8.077673	41.994875
23055		19.710332	8.043411	41.981021
23056		19.786512	8.034951	41.950968
23057		20.045469	8.058696	41.909951
23058		20.453487	8.100213	41.865177
23059		20.928855	8.143034	41.832501
23060		21.384231	8.170841	41.814488
23061		21.802832	8.197922	41.811428
23062		22.158175	8.222588	41.801640
23063		22.496723	8.244160	41.791010
23064		22.830844	8.275730	41.777345
23065		23.222545	8.333025	41.752409
23066		23.697510	8.415071	41.723784
23067		24.249555	8.520644	41.677514
23068		24.934055	8.653506	41.630091
23069		25.745599	8.789295	41.597098
23070		26.304094	8.882933	41.611982
23071		26.465271	8.910993	41.649937
23072		26.446913	8.922083	41.674107
23073		26.253519	8.934632	41.673510
23074		26.054301	8.928117	41.673008
23075		25.925145	8.928952	41.673439
23076		25.856854	8.933792	41.682505
23077		25.873254	8.941047	41.694858
23078		25.909512	8.956918	41.712911
23079		25.949560	8.978699	41.735251
23080		26.010442	9.008494	41.756689
23081		26.058260	9.031721	41.774688
23082		26.077226	9.046581	41.784056
23083		26.085553	9.058422	41.789160
23084		26.104680	9.073696	41.792899
23085		26.119561	9.076902	41.790148
23086		26.133201	9.073735	41.787340
23087		26.150040	9.072997	41.779940
23088		26.168926	9.068445	41.770699
23089		26.184165	9.061777	41.756709
23090		26.181047	9.051160	41.741923
23091		26.164203	9.037743	41.726199
23092		26.151259	9.020735	41.711064
23093		26.127877	8.998897	41.691784
23094		26.098683	8.975364	41.675676
23095		26.064379	8.951300	41.663326
23096		26.043516	8.929324	41.653898
23097		26.047406	8.910798	41.648733
23098		26.062150	8.893013	41.641504
23099		26.052570	8.867626	41.631158
23100		25.999252	8.833860	41.614120
23101		25.890358	8.796015	41.588451
23102		25.730015	8.746629	41.553337
23103		25.528784	8.690672	41.511857
23104		25.346160	8.639124	41.470369
23105		25.210980	8.589127	41.429071
23106		25.153421	8.543160	41.391292
23107		25.162819	8.496479	41.352848
23108		25.184554	8.439088	41.322479
23109		25.233504	8.374379	41.294067
23110		25.215011	8.303080	41.256121
23111		25.122403	8.216774	41.205293
23112		24.947796	8.130401	41.162254
23113		24.731049	8.046174	41.114424
23114		24.507115	7.967662	41.057567
23115		24.290395	7.911438	40.992401
23116		24.141723	7.865789	40.932452
23117		24.078329	7.831734	40.888803
23118		24.073543	7.804129	40.852479
23119		24.111782	7.783761	40.815167
23120		24.138375	7.763789	40.776425
23121		24.124911	7.747357	40.736772
23122		24.078708	7.735237	40.695699
23123		23.989319	7.732857	40.646200
23124		23.896704	7.727601	40.597712
23125		23.824850	7.763739	40.545798
23126		23.805949	7.788638	40.503352
23127		23.823851	7.837959	40.469335
23128		23.858779	7.886406	40.433047
23129		23.887069	7.935697	40.396103
23130		23.884525	7.989702	40.354400
23131		23.878242	8.042701	40.310733
23132		23.894134	8.106117	40.268959
23133		23.925046	8.173617	40.234037
23134		23.958881	8.243636	40.199201
23135		23.984574	8.315629	40.165730
23136		24.002340	8.386599	40.135756
23137		24.007585	8.457263	40.111935
23138		23.991607	8.519218	40.098717
23139		23.953132	8.578830	40.091872
23140		23.875126	8.637689	40.083193
23141		23.748788	8.688378	40.075189
23142		23.595025	8.740132	40.071117
23143		23.427007	8.795892	40.071872
23144		23.241583	8.852303	40.078376
23145		23.039692	8.915399	40.089718
23146		22.841278	8.978955	40.107540
23147		22.660608	9.058234	40.121714
23148		22.494406	9.139701	40.139156
23149		22.322151	9.237954	40.152478
23150		22.116023	9.328741	40.167932
23151		21.856644	9.417762	40.178064
23152		21.584815	9.506883	40.188987
23153		21.283465	9.589560	40.208572
23154		20.963511	9.680952	40.227795
23155		20.657880	9.774026	40.252193
23156		20.365443	9.883531	40.279575
23157		20.086432	9.994434	40.309527
23158		19.806803	10.106454	40.350955
23159		19.541718	10.220516	40.398483
23160		19.275075	10.339104	40.449617
23161		19.036661	10.463848	40.501050
23162		18.781594	10.588921	40.549006
23163		18.524175	10.718993	40.583870
23164		18.283980	10.849833	40.612136
23165		18.059983	10.984133	40.637613
23166		17.855195	11.115067	40.658846
23167		17.680434	11.250806	40.677708
23168		17.522639	11.384888	40.692546
23169		17.363627	11.513340	40.701756
23170		17.206600	11.636854	40.706268
23171		17.060028	11.758225	40.702662
23172		16.922567	11.876796	40.690022
23173		16.800464	11.993355	40.669471
23174		16.692720	12.115740	40.631809
23175		16.618446	12.242403	40.583233
23176		16.583039	12.371444	40.524902
23177		16.558229	12.499868	40.451791
23178		16.524237	12.612605	40.360883
23179		16.476039	12.720159	40.254139
23180		16.406566	12.810979	40.131555
23181		16.312157	12.890606	39.997707
23182		16.207186	12.956465	39.859103
23183		16.083067	13.012414	39.706183
23184		15.932819	13.056128	39.540998
23185		15.777060	13.096159	39.364891
23186		15.641462	13.131685	39.180564
23187		15.537877	13.175053	38.990873
23188		15.493227	13.229250	38.797627
23189		15.515175	13.294854	38.602970
23190		15.562387	13.361596	38.396557
23191		15.576061	13.422108	38.180144
23192		15.557989	13.473475	37.955506
23193		15.532877	13.520217	37.729069
23194		15.503941	13.564495	37.499531
23195		15.460360	13.604703	37.269116
23196		15.383917	13.641444	37.039807
23197		15.282261	13.675239	36.810759
23198		15.172676	13.714561	36.585961
23199		15.090578	13.759061	36.359094
23200		15.042552	13.817018	36.134774
23201		15.036817	13.889217	35.911195
23202		15.035635	13.970422	35.689463
23203		15.025303	14.053358	35.467613
23204		14.989442	14.136666	35.246732
23205		14.926044	14.214596	35.024797
23206		14.835159	14.284571	34.809660
23207		14.711969	14.351040	34.597356
23208		14.579413	14.414040	34.385532
23209		14.467052	14.483616	34.179992
23210		14.388083	14.559499	33.978885
23211		14.313003	14.640904	33.779687
23212		14.204591	14.716486	33.573911
23213		14.067915	14.793204	33.367173
23214		13.922101	14.871535	33.154748
23215		13.785900	14.949766	32.941806
23216		13.668416	15.028197	32.726011
23217		13.573409	15.110297	32.508312
23218		13.494745	15.184409	32.292159
23219		13.416253	15.258327	32.073889
23220		13.354786	15.331840	31.853345
23221		13.290753	15.395527	31.624762
23222		13.208834	15.448512	31.391787
23223		13.114077	15.489662	31.151465
23224		13.015199	15.518720	30.902712
23225		12.917138	15.538106	30.646535
23226		12.832637	15.548277	30.382264
23227		12.775139	15.563542	30.123361
23228		12.715460	15.574853	29.858675
23229		12.654454	15.578672	29.589258
23230		12.600683	15.582399	29.322756
23231		12.554573	15.584184	29.051049
23232		12.542850	15.592688	28.780521
23233		12.529136	15.605043	28.511053
23234		12.509685	15.625906	28.248385
23235		12.493450	15.660093	27.989417
23236		12.468354	15.704369	27.738036
23237		12.433235	15.752531	27.497181
23238		12.378826	15.808235	27.267541
23239		12.309025	15.864328	27.048874
23240		12.234541	15.923176	26.844203
23241		12.141813	15.985716	26.646838
23242		12.050405	16.054976	26.456808
23243		11.956766	16.134008	26.274640
23244		11.834953	16.211837	26.099910
23245		11.711020	16.289116	25.928101
23246		11.594904	16.360845	25.761702
23247		11.504438	16.433009	25.604349
23248		11.427624	16.500975	25.449684
23249		11.355667	16.563123	25.298080
23250		11.291781	16.620495	25.149943
23251		11.248875	16.675809	25.010311
23252		11.224665	16.724398	24.877917
23253		11.190024	16.763317	24.754175
23254		11.134824	16.802135	24.637031
23255		11.083058	16.826779	24.519876
23256		11.067165	16.848612	24.418396
23257		11.092949	16.866524	24.326493
23258		11.159735	16.877591	24.248259
23259		11.262666	16.887528	24.179239
23260		11.387788	16.886527	24.118798
23261		11.517778	16.884017	24.072167
23262		11.645599	16.875256	24.035602
23263		11.759632	16.858508	24.010366
23264		11.862542	16.847421	23.993272
23265		11.953947	16.838279	23.985270
23266		12.026233	16.829571	23.988665
23267		12.078249	16.824823	24.000284
23268		12.117678	16.819244	24.021192
23269		12.149866	16.808442	24.045112
23270		12.198535	16.798858	24.070376
23271		12.242767	16.790264	24.095561
23272		12.292552	16.782566	24.116188
23273		12.329625	16.777595	24.133959
23274		12.356732	16.776625	24.147550
23275		12.380475	16.772998	24.156168
23276		12.396185	16.773382	24.163405
23277		12.413005	16.776043	24.163833
23278		12.421304	16.779854	24.162791
23279		12.418278	16.784885	24.159244
23280		12.409604	16.787739	24.157932
23281		12.397143	16.790434	24.154877
23282		12.390324	16.794858	24.150973
23283		12.380028	16.796724	24.150939
23284		12.377189	16.796294	24.147164
23285		12.373211	16.794281	24.145790
23286		12.373928	16.793872	24.143682
23287		12.368118	16.794815	24.144535
23288		12.355258	16.792729	24.148974
23289		12.341689	16.787649	24.153251
23290		12.332306	16.780237	24.156037
23291		12.318648	16.766349	24.158026
23292		12.318561	16.749260	24.156040
23293		12.322019	16.732533	24.153515
23294		12.322240	16.722353	24.153382
23295		12.300111	16.716629	24.152663
23296		12.266454	16.711194	24.152958
23297		12.219847	16.701112	24.154602
23298		12.172076	16.685798	24.158057
23299		12.134873	16.665541	24.160998
23300		12.118868	16.649517	24.163015
23301		12.111143	16.637700	24.165895
23302		12.101146	16.631243	24.173402
23303		12.052373	16.608407	24.173191
23304		12.076788	16.612318	24.181584
23305		12.024796	16.598515	24.182876
23306		12.000966	16.590749	24.178145
23307		11.972299	16.584142	24.178276
23308		11.964232	16.574569	24.174732
23309		11.970048	16.565711	24.168708
23310		11.967287	16.560574	24.156482
23311		11.974894	16.558280	24.141434
23312		11.970873	16.556702	24.121345
23313		11.964198	16.565133	24.090469
23314		11.965159	16.582029	24.050582
23315		11.960441	16.602257	24.005125
23316		11.947981	16.614242	23.949094
23317		11.925571	16.641792	23.899897
23318		11.887263	16.648492	23.847567
23319		11.844928	16.655551	23.808156
23320		11.763078	16.652699	23.770171
23321		11.670520	16.646527	23.737895
23322		11.585328	16.634868	23.708777
23323		11.484699	16.634689	23.700945
23324		11.399647	16.631063	23.694987
23325		11.359616	16.647955	23.701584
23326		11.333858	16.656976	23.703649
23327		11.346133	16.673961	23.704972
23328		11.373218	16.686584	23.708547
23329		11.415099	16.700088	23.709551
23330		11.483291	16.721156	23.712139
23331		11.549674	16.750064	23.714334
23332		11.629663	16.780063	23.715240
23333		11.723704	16.807969	23.721502
23334		11.818930	16.841710	23.728002
23335		11.922986	16.874817	23.733921
23336		12.028031	16.912209	23.741574
23337		12.131325	16.951826	23.748633
23338		12.231099	16.993417	23.754561
23339		12.331890	17.037869	23.756530
23340		12.434117	17.087576	23.756004
23341		12.554138	17.140935	23.750976
23342		12.726127	17.201115	23.750918
23343		12.937004	17.268362	23.750713
23344		13.132881	17.337120	23.747570
23345		13.338849	17.387537	23.755007
23346		13.466582	17.416824	23.757087
23347		13.550537	17.435482	23.764565
23348		13.598505	17.451995	23.780484
23349		13.617790	17.469296	23.796296
23350		13.616734	17.475811	23.811006
23351		13.602881	17.483763	23.825169
23352		13.615546	17.480027	23.841800
23353		13.658126	17.471796	23.858290
23354		13.726597	17.463420	23.875895
23355		13.798659	17.454347	23.892291
23356		13.867816	17.447174	23.906492
23357		13.922139	17.442778	23.923859
23358		13.964921	17.438348	23.936331
23359		13.992493	17.437056	23.945023
23360		14.015443	17.432055	23.952300
23361		14.058710	17.431142	23.959659
23362		14.135012	17.428225	23.967101
23363		14.233685	17.418682	23.974537
23364		14.336113	17.408483	23.979981
23365		14.424015	17.395452	23.983271
23366		14.497272	17.380465	23.983431
23367		14.546746	17.366128	23.983170
23368		14.579707	17.351700	23.981399
23369		14.602594	17.332465	23.977701
23370		14.629176	17.308065	23.972323
23371		14.673534	17.279638	23.960616
23372		14.725514	17.250811	23.949499
23373		14.764361	17.221093	23.935596
23374		14.789014	17.200542	23.923351
23375		14.787615	17.190802	23.913017
23376		14.761878	17.180466	23.904939
23377		14.737148	17.168986	23.899915
23378		14.728756	17.159761	23.901919
23379		14.724353	17.139883	23.907411
23380		14.756215	17.118331	23.916449
23381		14.800426	17.103298	23.930383
23382		14.839488	17.080357	23.945064
23383		14.881678	17.055978	23.959736
23384		14.915400	17.027413	23.973417
23385		14.955926	17.002975	23.989168
23386		14.996407	16.978478	24.004072
23387		15.058805	16.950330	24.016030
23388		15.150686	16.917062	24.024091
23389		15.264721	16.879595	24.026312
23390		15.367581	16.846689	24.027313
23391		15.439318	16.811250	24.022587
23392		15.466885	16.778744	24.020939
23393		15.423624	16.740829	24.021710
23394		15.352406	16.680004	24.025400
23395		15.281499	16.613581	24.043183
23396		15.207822	16.541033	24.072914
23397		15.147290	16.464583	24.110265
23398		15.123866	16.391415	24.156419
23399		15.101995	16.323426	24.214528
23400		15.081938	16.263064	24.285250
23401		15.055082	16.207275	24.366871
23402		15.005988	16.159275	24.462254
23403		14.941832	16.113030	24.578868
23404		14.897230	16.068522	24.696362
23405		14.861482	16.023654	24.819775
23406		14.839248	15.988493	24.952172
23407		14.829685	15.953685	25.086973
23408		14.821952	15.918188	25.219982
23409		14.800396	15.889042	25.355270
23410		14.757635	15.846319	25.491509
23411		14.698013	15.799263	25.633228
23412		14.648978	15.738469	25.773945
23413		14.622755	15.669072	25.915510
23414		14.614193	15.598041	26.056930
23415		14.629798	15.529296	26.194079
23416		14.658028	15.452505	26.321513
23417		14.679912	15.372551	26.444219
23418		14.674924	15.285792	26.563771
23419		14.634092	15.197375	26.688081
23420		14.577291	15.099113	26.812990
23421		14.534454	14.987859	26.937692
23422		14.530048	14.868368	27.060744
23423		14.584893	14.745306	27.173157
23424		14.692780	14.631630	27.276382
23425		14.813242	14.530913	27.370358
23426		14.914578	14.429776	27.450946
23427		14.970734	14.330124	27.530826
23428		14.999147	14.239101	27.606835
23429		15.000119	14.142263	27.683231
23430		14.976668	14.051805	27.764838
23431		14.942886	13.971168	27.858395
23432		14.907427	13.903896	27.972129
23433		14.872234	13.838497	28.091875
23434		14.856127	13.772860	28.223165
23435		14.846437	13.709730	28.364339
23436		14.858100	13.650590	28.523333
23437		14.846786	13.578621	28.680259
23438		14.831327	13.516155	28.844123
23439		14.831727	13.450768	29.003585
23440		14.830744	13.387330	29.171534
23441		14.833503	13.324284	29.336654
23442		14.833108	13.260686	29.503403
23443		14.842814	13.197211	29.671396
23444		14.862667	13.140160	29.845301
23445		14.881215	13.080776	30.024366
23446		14.903344	13.027532	30.207353
23447		14.930309	12.968362	30.387890
23448		14.973015	12.916958	30.582855
23449		15.021850	12.861887	30.777455
23450		15.085922	12.813336	30.981048
23451		15.170928	12.760555	31.183349
23452		15.276313	12.709428	31.386430
23453		15.389468	12.657891	31.592754
23454		15.503035	12.597713	31.795315
23455		15.612522	12.540852	31.994129
23456		15.717035	12.480242	32.194003
23457		15.797316	12.418518	32.381076
23458		15.844888	12.347932	32.574275
23459		15.881345	12.272285	32.759595
23460		15.917893	12.196695	32.966505
23461		15.960136	12.113615	33.173238
23462		16.016335	12.030513	33.394796
23463		16.081123	11.944642	33.611738
23464		16.153054	11.853906	33.825934
23465		16.246851	11.767615	34.040011
23466		16.349199	11.690836	34.246028
23467		16.441763	11.614117	34.457488
23468		16.533784	11.536920	34.659671
23469		16.623492	11.464394	34.864307
23470		16.712660	11.391044	35.062616
23471		16.804076	11.320530	35.261218
23472		16.896117	11.251313	35.454784
23473		16.997066	11.185206	35.647588
23474		17.118744	11.117223	35.840473
23475		17.257851	11.057142	36.026480
23476		17.414280	10.998723	36.209454
23477		17.566085	10.935617	36.383931
23478		17.715521	10.873583	36.559478
23479		17.844939	10.806939	36.731803
23480		17.968653	10.746247	36.902941
23481		18.079655	10.683505	37.066469
23482		18.184879	10.624279	37.224643
23483		18.291037	10.568080	37.378732
23484		18.397678	10.515889	37.528296
23485		18.509921	10.470510	37.667663
23486		18.646722	10.437419	37.801816
23487		18.794906	10.412293	37.931274
23488		18.948049	10.390018	38.053873
23489		19.077235	10.366848	38.171690
23490		19.187485	10.343790	38.288976
23491		19.278008	10.308706	38.414053
23492		19.351030	10.277473	38.544311
23493		19.427791	10.251011	38.679344
23494		19.515355	10.232918	38.817883
23495		19.634178	10.224538	38.963311
23496		19.798449	10.219674	39.108242
23497		19.967763	10.220313	39.258577
23498		20.137582	10.215696	39.416408
23499		20.319512	10.218573	39.580030
23500		20.517380	10.228848	39.749344
23501		20.715099	10.233307	39.923029
23502		20.901133	10.230063	40.097205
23503		21.092755	10.236439	40.276121
23504		21.281656	10.243676	40.457410
23505		21.428750	10.253474	40.639434
23506		21.480203	10.250745	40.804045
23507		21.462026	10.218618	40.957262
23508		21.345131	10.176961	41.097026
23509		21.177967	10.130119	41.219726
23510		20.980418	10.082363	41.328504
23511		20.830152	10.029812	41.429837
23512		20.725070	9.980150	41.523366
23513		20.654719	9.937739	41.608731
23514		20.621111	9.895448	41.688008
23515		20.572018	9.848061	41.760229
23516		20.580797	9.805941	41.842433
23517		20.603195	9.772865	41.926278
23518		20.602072	9.744656	42.000563
23519		20.614904	9.718735	42.072791
23520		20.618702	9.698819	42.148677
23521		20.641010	9.677754	42.223162
23522		20.706905	9.673993	42.295080
23523		20.829988	9.669974	42.363364
23524		21.000182	9.671475	42.409633
23525		21.195565	9.670743	42.440427
23526		21.398608	9.655383	42.468323
23527		21.622981	9.621966	42.489180
23528		21.853889	9.597394	42.488038
23529		22.047965	9.584909	42.458865
23530		22.232223	9.560755	42.435843
23531		22.625112	9.566168	42.424303
23532		23.207410	9.618900	42.388619
23533		23.580393	9.617942	42.356446
23534		23.819335	9.612962	42.334325
23535		24.123512	9.627052	42.320817
23536		24.374712	9.650649	42.315628
23537		24.571052	9.668332	42.316975
23538		24.744699	9.677573	42.324282
23539		24.892109	9.685266	42.326969
23540		25.022028	9.686661	42.321382
23541		25.196334	9.707375	42.311518
23542		25.422448	9.734211	42.290279
23543		25.644057	9.751172	42.268107
23544		25.830920	9.758596	42.240938
23545		26.022591	9.759632	42.201482
23546		26.160890	9.743589	42.152539
23547		26.226484	9.737783	42.109556
23548		26.235743	9.723346	42.072570
23549		26.201963	9.712070	42.041761
23550		26.151821	9.705186	42.012483
23551		26.128692	9.692152	41.981875
23552		26.145545	9.682329	41.956148
23553		26.215221	9.680458	41.935294
23554		26.322053	9.687686	41.915508
23555		26.439321	9.699619	41.906448
23556		26.540750	9.708806	41.898593
23557		26.610127	9.721958	41.895886
23558		26.624096	9.722178	41.891959
23559		26.606553	9.721124	41.884270
23560		26.606298	9.718359	41.877519
23561		26.620237	9.717795	41.873633
23562		26.655567	9.715805	41.873659
23563		26.722735	9.718800	41.876960
23564		26.785041	9.719899	41.880393
23565		26.823527	9.721332	41.887869
23566		26.870250	9.723540	41.894823
23567		26.932947	9.725739	41.899908
23568		27.005219	9.726695	41.901641
23569		27.067379	9.725444	41.897850
23570		27.119273	9.721981	41.890501
23571		27.183581	9.720472	41.883574
23572		27.256281	9.716144	41.875493
23573		27.319637	9.708008	41.863745
23574		27.371176	9.694820	41.846166
23575		27.421614	9.685112	41.826559
23576		27.475652	9.676337	41.808143
23577		27.549469	9.668637	41.789877
23578		27.644660	9.659199	41.771817
23579		27.753729	9.650894	41.754916
23580		27.830863	9.638354	41.741860
23581		27.886780	9.616691	41.715767
23582		27.929775	9.591417	41.690386
23583		27.968089	9.568846	41.664606
23584		28.005539	9.552335	41.637573
23585		28.056039	9.537922	41.612688
23586		28.104110	9.526556	41.593573
23587		28.129591	9.519204	41.580779
23588		28.145941	9.511125	41.571534
23589		28.127774	9.497811	41.564956
23590		28.075991	9.486047	41.558593
23591		27.990575	9.468731	41.551082
23592		27.884510	9.448776	41.546548
23593		27.780725	9.424646	41.544736
23594		27.680960	9.406732	41.543637
23595		27.581915	9.387901	41.541543
23596		27.516741	9.379138	41.552199
23597		27.467982	9.373498	41.566157
23598		27.435997	9.372678	41.584228
23599		27.435155	9.375086	41.605795
23600		27.457512	9.380544	41.631425
23601		27.465571	9.382212	41.654285
23602		27.449206	9.335826	41.690341
23603		27.395746	9.350408	41.711686
23604		27.339680	9.308339	41.727440
23605		27.266180	9.285048	41.743657
23606		27.197359	9.251130	41.751711
23607		27.148673	9.216931	41.763695
23608		27.140073	9.198741	41.765313
23609		27.174872	9.187308	41.757752
23610		27.204412	9.190644	41.738616
23611		27.212098	9.210560	41.693125
23612		27.219323	9.240926	41.627252
23613		27.198613	9.292714	41.540247
23614		27.139240	9.343903	41.453464
23615		27.069545	9.408029	41.370933
23616		27.055239	9.476912	41.311600
23617		27.047361	9.544513	41.274468
23618		27.053181	9.598315	41.264990
23619		27.025772	9.648699	41.277353
23620		26.972003	9.692295	41.299474
23621		26.884267	9.736924	41.332860
23622		26.782550	9.791913	41.376859
23623		26.629644	9.841930	41.425328
23624		26.470637	9.894062	41.480088
23625		26.293575	9.944178	41.538912
23626		26.098122	9.997023	41.601369
23627		25.912660	10.052323	41.674759
23628		25.723742	10.106028	41.751540
23629		25.568340	10.170788	41.825121
23630		25.430437	10.236823	41.894552
23631		25.296696	10.313595	41.950850
23632		25.191339	10.393572	41.996314
23633		25.060816	10.478245	42.032282
23634		24.902622	10.557557	42.063846
23635		24.734306	10.634608	42.103698
23636		24.532538	10.710662	42.146987
23637		24.294325	10.785381	42.190575
23638		24.041956	10.856879	42.232744
23639		23.745661	10.929044	42.277032
23640		23.427268	10.997743	42.325819
23641		23.116260	11.067471	42.385178
23642		22.846480	11.143140	42.450792
23643		22.598923	11.228460	42.516053
23644		22.370229	11.314986	42.578684
23645		22.155662	11.406023	42.628893
23646		21.958148	11.496276	42.668614
23647		21.746487	11.585101	42.692732
23648		21.510712	11.662688	42.702985
23649		21.260819	11.735419	42.699939
23650		21.012201	11.798007	42.692087
23651		20.787506	11.857315	42.676157
23652		20.589237	11.914359	42.654237
23653		20.414637	11.966340	42.618073
23654		20.287765	12.029163	42.573561
23655		20.201452	12.097054	42.516415
23656		20.145271	12.163824	42.442340
23657		20.078532	12.228787	42.346619
23658		19.987285	12.280282	42.225285
23659		19.883350	12.323699	42.083563
23660		19.771086	12.365802	41.926920
23661		19.655171	12.407462	41.753895
23662		19.537959	12.450413	41.571985
23663		19.432423	12.500456	41.381484
23664		19.328948	12.550125	41.182791
23665		19.226650	12.601466	40.976038
23666		19.141717	12.654662	40.762265
23667		19.067577	12.711437	40.539666
23668		19.008571	12.762646	40.313584
23669		18.935885	12.812540	40.084947
23670		18.852819	12.860135	39.854959
23671		18.773692	12.912612	39.625405
23672		18.703436	12.966235	39.401578
23673		18.624204	13.016549	39.173883
23674		18.537147	13.062465	38.942943
23675		18.457473	13.110883	38.719009
23676		18.384268	13.157479	38.498894
23677		18.327363	13.206527	38.282711
23678		18.287611	13.254749	38.078270
23679		18.249600	13.310821	37.880657
23680		18.207320	13.366440	37.690999
23681		18.152328	13.419670	37.504424
23682		18.091204	13.472329	37.320367
23683		18.041871	13.523038	37.140804
23684		18.031640	13.576178	36.967759
23685		18.053236	13.634251	36.801063
23686		18.108813	13.695250	36.643532
23687		18.181329	13.752648	36.493218
23688		18.261092	13.810789	36.346537
23689		18.337669	13.865097	36.206861
23690		18.400153	13.913217	36.073940
23691		18.416590	13.946901	35.937351
23692		18.418465	13.979157	35.804678
23693		18.403584	14.003850	35.673703
23694		18.367861	14.027974	35.549139
23695		18.326135	14.051470	35.421625
23696		18.283435	14.074984	35.296974
23697		18.248808	14.099803	35.175814
23698		18.212314	14.124574	35.051935
23699		18.163045	14.150653	34.923609
23700		18.112094	14.172003	34.791563
23701		18.066503	14.199272	34.659536
23702		18.019311	14.228516	34.526226
23703		17.964570	14.258501	34.388853
23704		17.899518	14.286685	34.252950
23705		17.826927	14.317046	34.116470
23706		17.755419	14.343597	33.975731
23707		17.680215	14.370983	33.830405
23708		17.608448	14.401047	33.681079
23709		17.524797	14.429254	33.525810
23710		17.443027	14.461581	33.365429
23711		17.346640	14.491323	33.196670
23712		17.257681	14.518186	33.021731
23713		17.174285	14.544740	32.842282
23714		17.084321	14.573967	32.658961
23715		16.997001	14.599765	32.470230
23716		16.901566	14.621515	32.276403
23717		16.814322	14.644109	32.083263
23718		16.740540	14.663036	31.886377
23719		16.684528	14.683569	31.688977
23720		16.632156	14.703003	31.486469
23721		16.571349	14.726908	31.287611
23722		16.486603	14.749719	31.088570
23723		16.380656	14.778667	30.895058
23724		16.264449	14.810137	30.704701
23725		16.131289	14.843964	30.522123
23726		15.986828	14.878767	30.345037
23727		15.837020	14.911599	30.175482
23728		15.687560	14.948115	30.014331
23729		15.521013	14.986480	29.854247
23730		15.353736	15.028043	29.696008
23731		15.178885	15.079157	29.540658
23732		14.988659	15.134949	29.389152
23733		14.804036	15.198715	29.243322
23734		14.632990	15.267443	29.104074
23735		14.490768	15.337387	28.968030
23736		14.361919	15.410369	28.837252
23737		14.246401	15.484748	28.705457
23738		14.127228	15.555020	28.575739
23739		14.008161	15.626236	28.450303
23740		13.898028	15.689695	28.323868
23741		13.797214	15.753486	28.202037
23742		13.703636	15.812609	28.081541
23743		13.630290	15.874145	27.960261
23744		13.580923	15.935576	27.838612
23745		13.555452	15.996459	27.716772
23746		13.545496	16.058911	27.593990
23747		13.546725	16.121336	27.472095
23748		13.540276	16.175859	27.344226
23749		13.545942	16.227809	27.221797
23750		13.567993	16.278129	27.099357
23751		13.567172	16.328277	26.980804
23752		13.539378	16.370940	26.861699
23753		13.503102	16.412932	26.744346
23754		13.461445	16.453286	26.627833
23755		13.433449	16.487556	26.516666
23756		13.420640	16.526626	26.401883
23757		13.428621	16.589860	26.304835
23758		13.392982	16.601186	26.207477
23759		13.340310	16.622962	26.076164
23760		13.429373	16.685408	25.931732
23761		13.590260	16.734993	25.794141
23762		13.745599	16.780763	25.658224
23763		13.893792	16.830458	25.526722
23764		13.993160	16.869557	25.403091
23765		14.021826	16.885598	25.282591
23766		14.032682	16.894907	25.168343
23767		14.065621	16.900171	25.067167
23768		14.119538	16.893434	24.976680
23769		14.191678	16.880095	24.898325
23770		14.245863	16.860068	24.835052
23771		14.309900	16.853381	24.784761
23772		14.357174	16.842990	24.745695
23773		14.395975	16.840428	24.719624
23774		14.427478	16.833487	24.699358
23775		14.468293	16.819864	24.688940
23776		14.535082	16.805280	24.685690
23777		14.605197	16.794868	24.682849
23778		14.651059	16.784865	24.676950
23779		14.667037	16.770534	24.667611
23780		14.627107	16.764439	24.649628
23781		14.538922	16.766189	24.625247
23782		14.435014	16.764328	24.590450
23783		14.352168	16.771154	24.547562
23784		14.258669	16.786595	24.501141
23785		14.164030	16.801545	24.445009
23786		14.096497	16.817200	24.381756
23787		14.050808	16.835844	24.312941
23788		14.032344	16.861362	24.244077
23789		14.048037	16.884632	24.170279
23790		14.059659	16.900857	24.092013
23791		14.047411	16.924031	24.016356
23792		14.010940	16.947085	23.940591
23793		13.952831	16.955057	23.861808
23794		13.880687	16.969603	23.790015
23795		13.800002	16.977763	23.729372
23796		13.713049	16.985499	23.667386
23797		13.601729	16.998739	23.615183
23798		13.502773	17.012054	23.563087
23799		13.416356	17.028747	23.517772
23800		13.348959	17.047532	23.472501
23801		13.295202	17.065284	23.425455
23802		13.245705	17.089403	23.379209
23803		13.197231	17.112721	23.332996
23804		13.167222	17.136896	23.281369
23805		13.124206	17.162011	23.231208
23806		13.069878	17.188458	23.174574
23807		13.006343	17.217902	23.113570
23808		12.946059	17.251673	23.049085
23809		12.905385	17.287382	22.987460
23810		12.825770	17.315258	22.931796
23811		12.722473	17.345021	22.885787
23812		12.601994	17.370805	22.843099
23813		12.458082	17.396562	22.809591
23814		12.342473	17.426668	22.774882
23815		12.242180	17.464181	22.745553
23816		12.174849	17.494263	22.716480
23817		12.148231	17.527222	22.690718
23818		12.130983	17.551433	22.660274
23819		12.154698	17.577960	22.630419
23820		12.205971	17.618531	22.609378
23821		12.285787	17.656991	22.606948
23822		12.375153	17.705838	22.614653
23823		12.495582	17.745711	22.613376
23824		12.625994	17.782515	22.615558
23825		12.742605	17.816356	22.623406
23826		12.838677	17.852067	22.634021
23827		12.930660	17.880791	22.649940
23828		13.029789	17.912682	22.670507
23829		13.154274	17.957716	22.686492
23830		13.320998	18.007151	22.690908
23831		13.508906	18.060497	22.693900
23832		13.673788	18.113643	22.687668
23833		13.821277	18.173597	22.675530
23834		13.946016	18.238413	22.664454
23835		13.991195	18.292902	22.653171
23836		13.977380	18.329136	22.631087
23837		13.920102	18.353809	22.609865
23838		13.839107	18.364211	22.591366
23839		13.715060	18.369376	22.581639
23840		13.657928	18.382383	22.565894
23841		13.647663	18.392111	22.555287
23842		13.655171	18.388117	22.543998
23843		13.672854	18.380211	22.537147
23844		13.689027	18.371074	22.533826
23845		13.696438	18.364034	22.530244
23846		13.686803	18.362395	22.530057
23847		13.693609	18.358126	22.535544
23848		13.703433	18.355738	22.538444
23849		13.742186	18.354880	22.544072
23850		13.790434	18.355294	22.547913
23851		13.850043	18.356402	22.546840
23852		13.902728	18.350077	22.541590
23853		13.945716	18.346770	22.536842
23854		13.967701	18.345662	22.527809
23855		13.984263	18.345396	22.518706
23856		14.007240	18.341757	22.514317
23857		14.052813	18.331986	22.507394
23858		14.134360	18.318065	22.504709
23859		14.254002	18.298314	22.506350
23860		14.380887	18.284144	22.510908
23861		14.476871	18.267832	22.516712
23862		14.547486	18.249755	22.524571
23863		14.613890	18.231803	22.532485
23864		14.694150	18.210271	22.542691
23865		14.783638	18.183832	22.553606
23866		14.877075	18.153850	22.561437
23867		14.979606	18.126435	22.570741
23868		15.064195	18.099494	22.578082
23869		15.123139	18.077727	22.582360
23870		15.165594	18.058383	22.584084
23871		15.203836	18.041586	22.584214
23872		15.237322	18.017004	22.589906
23873		15.255674	17.989465	22.598207
23874		15.300170	17.956712	22.604529
23875		15.356788	17.919166	22.614247
23876		15.416783	17.889044	22.625652
23877		15.473851	17.865739	22.642019
23878		15.512747	17.846921	22.658345
23879		15.522045	17.827319	22.681528
23880		15.511680	17.807868	22.707010
23881		15.508002	17.776151	22.730488
23882		15.537049	17.742498	22.758430
23883		15.597114	17.709129	22.790997
23884		15.686977	17.673564	22.815454
23885		15.791292	17.643598	22.834250
23886		15.897619	17.625325	22.849715
23887		15.968705	17.618192	22.858365
23888		15.974402	17.612578	22.862201
23889		15.936447	17.609029	22.866250
23890		15.891635	17.604173	22.873213
23891		15.863090	17.598284	22.876315
23892		15.875535	17.590145	22.880425
23893		15.928879	17.578553	22.885584
23894		16.008004	17.566566	22.890241
23895		16.099546	17.550958	22.899797
23896		16.168432	17.532006	22.909917
23897		16.207556	17.506648	22.926545
23898		16.225478	17.494510	22.961658
23899		16.246186	17.455042	22.996048
23900		16.282902	17.424881	23.040629
23901		16.331010	17.390538	23.093191
23902		16.397263	17.349738	23.153184
23903		16.483293	17.300456	23.225552
23904		16.580588	17.241292	23.307603
23905		16.682609	17.173535	23.400023
23906		16.774570	17.097464	23.494337
23907		16.856381	17.010908	23.596609
23908		16.927896	16.928574	23.694575
23909		17.004603	16.849963	23.795641
23910		17.067431	16.788015	23.898264
23911		17.120742	16.730459	24.000135
23912		17.165516	16.679721	24.114574
23913		17.195235	16.617579	24.240586
23914		17.205261	16.543861	24.381884
23915		17.201024	16.464311	24.543942
23916		17.214473	16.367752	24.715792
23917		17.261565	16.257874	24.889755
23918		17.314090	16.144976	25.065887
23919		17.367048	16.041614	25.246770
23920		17.423056	15.950537	25.431017
23921		17.484737	15.870784	25.621106
23922		17.546349	15.796274	25.823376
23923		17.588940	15.717366	26.028881
23924		17.630350	15.638103	26.236482
23925		17.704157	15.552789	26.440147
23926		17.786569	15.458118	26.629726
23927		17.859630	15.371250	26.817705
23928		17.920118	15.288378	27.000074
23929		17.981838	15.211035	27.180494
23930		18.031445	15.136759	27.359432
23931		18.071092	15.052124	27.541292
23932		18.115253	14.974990	27.734430
23933		18.153948	14.899422	27.928225
23934		18.198635	14.816885	28.117296
23935		18.250677	14.732303	28.303653
23936		18.334714	14.652628	28.489418
23937		18.440687	14.571829	28.663926
23938		18.553416	14.505392	28.837281
23939		18.660523	14.451912	29.000119
23940		18.743176	14.410879	29.165695
23941		18.773762	14.366787	29.324684
23942		18.755923	14.330181	29.492202
23943		18.704518	14.299257	29.663739
23944		18.637392	14.278030	29.850413
23945		18.570987	14.257271	30.046206
23946		18.509222	14.238996	30.249804
23947		18.456440	14.221519	30.459615
23948		18.427869	14.203909	30.667011
23949		18.408208	14.183386	30.875671
23950		18.391865	14.158918	31.072609
23951		18.375338	14.130398	31.264420
23952		18.358092	14.104992	31.451065
23953		18.340092	14.072260	31.629547
23954		18.315792	14.042042	31.807450
23955		18.293129	14.012756	31.981828
23956		18.271777	13.981774	32.158534
23957		18.268002	13.949347	32.336103
23958		18.274014	13.913626	32.513420
23959		18.301084	13.870917	32.684689
23960		18.330674	13.826605	32.867455
23961		18.377499	13.778904	33.038179
23962		18.424475	13.737451	33.227195
23963		18.462837	13.688343	33.405596
23964		18.470483	13.668089	33.606077
23965		18.416182	13.660689	33.785821
23966		18.330224	13.634161	33.978842
23967		18.248535	13.587002	34.161609
23968		18.201514	13.530416	34.360007
23969		18.176888	13.461329	34.557474
23970		18.187265	13.386283	34.776285
23971		18.210811	13.310051	34.991828
23972		18.254011	13.227977	35.231362
23973		18.301859	13.138810	35.458372
23974		18.327662	13.060107	35.704640
23975		18.317253	12.975935	35.940498
23976		18.292130	12.890009	36.173103
23977		18.269665	12.802783	36.405217
23978		18.267660	12.715552	36.643355
23979		18.293125	12.635595	36.882545
23980		18.329466	12.561210	37.127812
23981		18.375623	12.494121	37.375456
23982		18.449581	12.429748	37.624564
23983		18.517930	12.360401	37.877623
23984		18.575836	12.295189	38.129515
23985		18.631473	12.230471	38.384818
23986		18.676259	12.166934	38.636819
23987		18.716448	12.111165	38.893115
23988		18.761824	12.054787	39.142364
23989		18.802510	12.000933	39.391266
23990		18.835391	11.948001	39.633768
23991		18.861491	11.897487	39.869698
23992		18.886154	11.845965	40.096826
23993		18.897730	11.799812	40.308396
23994		18.873369	11.758331	40.511474
23995		18.842193	11.705199	40.707836
23996		18.814974	11.651513	40.890862
23997		18.789918	11.602974	41.064737
23998		18.786582	11.553554	41.227382
23999		18.794360	11.505679	41.385813
24000		18.814756	11.465447	41.537503
24001		18.849594	11.431012	41.683717
24002		18.864584	11.399894	41.821313
24003		18.874283	11.367613	41.950148
24004		18.858616	11.334324	42.071065
24005		18.832630	11.299061	42.188878
24006		18.805843	11.269294	42.304274
24007		18.784969	11.240076	42.414609
24008		18.781534	11.214663	42.522825
24009		18.764748	11.191912	42.628574
24010		18.728627	11.167849	42.729347
24011		18.678009	11.140464	42.823280
24012		18.625897	11.107631	42.913973
24013		18.578005	11.079691	42.998227
24014		18.541243	11.055234	43.073820
24015		18.512941	11.031236	43.148726
24016		18.496305	11.005412	43.215780
24017		18.464044	10.983701	43.282460
24018		18.427949	10.959957	43.345626
24019		18.406527	10.934527	43.411272
24020		18.400456	10.910709	43.468787
24021		18.392542	10.883576	43.524143
24022		18.381196	10.861901	43.578340
24023		18.370958	10.842355	43.625220
24024		18.338856	10.820768	43.668592
24025		18.293838	10.794033	43.703470
24026		18.286902	10.764569	43.737657
24027		18.300006	10.736336	43.775767
24028		18.327109	10.709486	43.810612
24029		18.366199	10.685685	43.849394
24030		18.412367	10.666049	43.885510
24031		18.457259	10.650699	43.916217
24032		18.506444	10.635954	43.944380
24033		18.549747	10.614776	43.972548
24034		18.591419	10.599335	44.001994
24035		18.640894	10.585474	44.031630
24036		18.696349	10.564298	44.065415
24037		18.781550	10.546309	44.099323
24038		18.887452	10.528453	44.134635
24039		19.004794	10.508680	44.165438
24040		19.117975	10.483301	44.182886
24041		19.230005	10.456804	44.188363
24042		19.336342	10.423615	44.184636
24043		19.428198	10.390300	44.168154
24044		19.498441	10.354185	44.143481
24045		19.556548	10.319522	44.110153
24046		19.610556	10.283453	44.073064
24047		19.651709	10.249006	44.034000
24048		19.672454	10.216816	43.996996
24049		19.673103	10.188060	43.963628
24050		19.670842	10.163398	43.933853
24051		19.658216	10.138759	43.915109
24052		19.615197	10.114594	43.898510
24053		19.587803	10.090649	43.889587
24054		19.564635	10.068519	43.887201
24055		19.566781	10.054181	43.889652
24056		19.577925	10.044726	43.895463
24057		19.607397	10.040373	43.905823
24058		19.624625	10.038241	43.918794
24059		19.644968	10.038499	43.935520
24060		19.659329	10.035990	43.951825
24061		19.684793	10.041279	43.972508
24062		19.695760	10.044107	43.988510
24063		19.705890	10.045264	44.004902
24064		19.704393	10.043880	44.016157
24065		19.698286	10.037768	44.025167
24066		19.719707	10.032883	44.032275
24067		19.734278	10.029593	44.037423
24068		19.749588	10.026095	44.041572
24069		19.757757	10.023607	44.045774
24070		19.759567	10.019572	44.045685
24071		19.767887	10.013026	44.046771
24072		19.779235	10.005461	44.047544
24073		19.785152	9.997841	44.047326
24074		19.778374	9.985388	44.044390
24075		19.801606	9.967172	44.040201
24076		19.801297	9.950740	44.034964
24077		19.798650	9.937462	44.032387
24078		19.793072	9.919591	44.029187
24079		19.797011	9.904210	44.024923
24080		19.813214	9.893315	44.021674
24081		19.838732	9.883448	44.019494
24082		19.855626	9.874693	44.018586
24083		19.876482	9.867323	44.014904
24084		19.899182	9.854745	44.012700
24085		19.912025	9.838756	44.010777
24086		19.897065	9.819904	44.006474
24087		19.895157	9.790451	44.003536
24088		19.934526	9.766985	44.001206
24089		19.959615	9.738585	44.006668
24090		20.017820	9.724889	44.010821
24091		20.057428	9.713496	44.011144
24092		20.144961	9.711016	44.014213
24093		20.207309	9.700563	44.016177
24094		20.245546	9.687548	44.017902
24095		20.292114	9.679212	44.021216
24096		20.319901	9.673461	44.017013
24097		20.365824	9.665744	44.018462
24098		20.456093	9.657466	44.031258
24099		20.531709	9.653253	44.040251
24100		20.574439	9.643086	44.043533
24101		20.610549	9.628662	44.047611
24102		20.651375	9.618554	44.051188
24103		20.677528	9.605670	44.052949
24104		20.706575	9.584862	44.049849
24105		20.730966	9.563446	44.041992
24106		20.781519	9.548059	44.034444
24107		20.859344	9.533820	44.023974
24108		20.958550	9.523491	44.011194
24109		21.082419	9.515412	43.996705
24110		21.197932	9.508582	43.984366
24111		21.257548	9.486690	43.975215
24112		21.286200	9.457402	43.975147
24113		21.279844	9.415477	43.971614
24114		21.223129	9.371873	43.965701
24115		21.154890	9.327777	43.961820
24116		21.108971	9.283344	43.963613
24117		21.074154	9.241581	43.965910
24118		21.064838	9.212891	43.967573
24119		21.044354	9.180686	43.968835
24120		21.018672	9.147495	43.969318
24121		21.004421	9.123099	43.969307
24122		20.990863	9.089769	43.969618
24123		20.963179	9.058930	43.973817
24124		20.937245	9.030642	43.977385
24125		20.902053	9.005659	43.978304
24126		20.883250	8.986510	43.977440
24127		20.891252	8.975662	43.973475
24128		20.931759	8.975989	43.962266
24129		21.017132	8.986677	43.944559
24130		21.216470	9.017525	43.924805
24131		21.583754	9.080006	43.892319
24132		22.057015	9.164939	43.855818
24133		22.605887	9.248378	43.827987
24134		23.187746	9.327878	43.817318
24135		23.786329	9.427204	43.806043
24136		24.383923	9.525908	43.786799
24137		24.941690	9.614602	43.780153
24138		25.486929	9.719716	43.781167
24139		26.006611	9.814196	43.783017
24140		26.469879	9.920316	43.811162
24141		26.901291	10.018265	43.825975
24142		27.301573	10.111278	43.825670
24143		27.663930	10.197728	43.815090
24144		28.042540	10.273969	43.795956
24145		28.448824	10.342895	43.780131
24146		28.799526	10.404855	43.767595
24147		29.073940	10.454936	43.765549
24148		29.264568	10.498258	43.772681
24149		29.328696	10.526758	43.784059
24150		29.261436	10.525673	43.792141
24151		29.139866	10.525007	43.790090
24152		29.017862	10.524158	43.786306
24153		28.924327	10.520945	43.781948
24154		28.908994	10.528537	43.788720
24155		28.946219	10.551482	43.800935
24156		28.989759	10.570883	43.815269
24157		28.984188	10.582200	43.826696
24158		28.932739	10.588030	43.835500
24159		28.854424	10.590499	43.839411
24160		28.785926	10.590516	43.837395
24161		28.725202	10.594987	43.837489
24162		28.684735	10.602887	43.841628
24163		28.664345	10.610674	43.849114
24164		28.641816	10.613965	43.855471
24165		28.621366	10.615446	43.861611
24166		28.585524	10.611178	43.858574
24167		28.523060	10.600215	43.853672
24168		28.432986	10.587252	43.850486
24169		28.348652	10.576743	43.846188
24170		28.283307	10.567359	43.838905
24171		28.232041	10.555111	43.832431
24172		28.203611	10.542689	43.818760
24173		28.189380	10.532845	43.807272
24174		28.157040	10.514640	43.787288
24175		28.099692	10.485657	43.760032
24176		28.032891	10.453178	43.731844
24177		27.967778	10.416935	43.701864
24178		27.903742	10.377898	43.671118
24179		27.801058	10.327929	43.629797
24180		27.772339	10.287251	43.588195
24181		27.759394	10.255688	43.542361
24182		27.746693	10.225939	43.497304
24183		27.738690	10.204373	43.455388
24184		27.715647	10.189221	43.413466
24185		27.678145	10.181037	43.367613
24186		27.664562	10.173816	43.327201
24187		27.665499	10.164135	43.301368
24188		27.639629	10.156376	43.283338
24189		27.605467	10.149348	43.272090
24190		27.601457	10.147468	43.263971
24191		27.526736	10.151374	43.249798
24192		27.512725	10.156122	43.235227
24193		27.491550	10.169839	43.220016
24194		27.443864	10.186214	43.192052
24195		27.400297	10.202921	43.157821
24196		27.340708	10.216591	43.118953
24197		27.274675	10.223759	43.075212
24198		27.210203	10.230245	43.026617
24199		27.157453	10.239174	42.975953
24200		27.129136	10.257356	42.925145
24201		27.131210	10.282338	42.872647
24202		27.108209	10.305877	42.813951
24203		27.021461	10.324811	42.745275
24204		26.871076	10.334919	42.675251
24205		26.692550	10.348588	42.612026
24206		26.494151	10.357660	42.559689
24207		26.307955	10.375370	42.523097
24208		26.156821	10.402061	42.502262
24209		26.036748	10.439037	42.494966
24210		25.949600	10.489396	42.501421
24211		25.871267	10.541665	42.515575
24212		25.784213	10.601173	42.532933
24213		25.662308	10.659981	42.538941
24214		25.489389	10.718738	42.544190
24215		25.290560	10.779092	42.552138
24216		25.078471	10.838089	42.565717
24217		24.871636	10.893209	42.589970
24218		24.666197	10.950078	42.623806
24219		24.497702	11.017247	42.660947
24220		24.349770	11.087976	42.700858
24221		24.217636	11.165903	42.739281
24222		24.108457	11.246770	42.775571
24223		24.009211	11.326081	42.803989
24224		23.890652	11.401862	42.826167
24225		23.743487	11.471615	42.838295
24226		23.584218	11.540990	42.841705
24227		23.411737	11.610656	42.830057
24228		23.233263	11.677049	42.809112
24229		23.051537	11.740055	42.780534
24230		22.856177	11.797592	42.746851
24231		22.654696	11.855001	42.703631
24232		22.456449	11.913418	42.651959
24233		22.263131	11.973739	42.593547
24234		22.087626	12.036909	42.528069
24235		21.927487	12.100262	42.456515
24236		21.768995	12.160288	42.371718
24237		21.589254	12.217036	42.268692
24238		21.379415	12.265516	42.156624
24239		21.159295	12.303757	42.041796
24240		20.935419	12.337516	41.926862
24241		20.734100	12.375879	41.812694
24242		20.576814	12.424305	41.704563
24243		20.464916	12.484448	41.600481
24244		20.385075	12.549089	41.493765
24245		20.320411	12.622373	41.388275
24246		20.263725	12.691483	41.276436
24247		20.178553	12.752783	41.153731
24248		20.029637	12.797124	41.022236
24249		19.827551	12.830481	40.892071
24250		19.595871	12.858574	40.759734
24251		19.377575	12.884035	40.626967
24252		19.191581	12.912596	40.489028
24253		19.042857	12.952333	40.349818
24254		18.941928	13.000582	40.208119
24255		18.871383	13.057997	40.062696
24256		18.809562	13.118392	39.911471
24257		18.748985	13.180104	39.755140
24258		18.683985	13.239849	39.591822
24259		18.605109	13.294000	39.421865
24260		18.531181	13.347931	39.249062
24261		18.469395	13.403327	39.070691
24262		18.404546	13.449055	38.887579
24263		18.320146	13.489002	38.698559
24264		18.212546	13.524012	38.505405
24265		18.098541	13.558119	38.307515
24266		17.975966	13.586424	38.103855
24267		17.832319	13.613318	37.896356
24268		17.681390	13.636816	37.687182
24269		17.542252	13.664234	37.477636
24270		17.420090	13.690937	37.270583
24271		17.318077	13.722883	37.067612
24272		17.240754	13.762111	36.868402
24273		17.193851	13.800355	36.669647
24274		17.126435	13.833447	36.471222
24275		17.045408	13.870319	36.271660
24276		16.953774	13.904943	36.066811
24277		16.866905	13.942551	35.861675
24278		16.796806	13.981124	35.665632
24279		16.750060	14.025358	35.453194
24280		16.726761	14.071079	35.239422
24281		16.719294	14.121464	35.020015
24282		16.708180	14.177488	34.800448
24283		16.664292	14.231715	34.581043
24284		16.580117	14.282759	34.366385
24285		16.461323	14.335704	34.159647
24286		16.309216	14.390056	33.952818
24287		16.161904	14.445998	33.748675
24288		16.044728	14.503471	33.545319
24289		15.971029	14.562657	33.343560
24290		15.939236	14.629428	33.143959
24291		15.911258	14.696600	32.943817
24292		15.856456	14.771611	32.741316
24293		15.770186	14.839243	32.532084
24294		15.670273	14.904377	32.323424
24295		15.561648	14.973751	32.117222
24296		15.456614	15.042906	31.916022
24297		15.362805	15.114872	31.719536
24298		15.274168	15.181028	31.521669
24299		15.195843	15.245167	31.327001
24300		15.122007	15.314797	31.133039
24301		15.047909	15.382326	30.937536
24302		14.958804	15.447564	30.744560
24303		14.835935	15.509481	30.551377
24304		14.683024	15.568252	30.360247
24305		14.526378	15.631262	30.174740
24306		14.385502	15.693283	29.997301
24307		14.260533	15.761582	29.825215
24308		14.140355	15.833429	29.657135
24309		14.001824	15.896893	29.484808
24310		13.850256	15.961461	29.309891
24311		13.688324	16.018085	29.133768
24312		13.537251	16.075960	28.960810
24313		13.382907	16.131788	28.789320
24314		13.229909	16.189901	28.613728
24315		13.104351	16.254678	28.442533
24316		13.017423	16.325409	28.276032
24317		12.950475	16.398785	28.110932
24318		12.922658	16.470542	27.951896
24319		12.924873	16.541184	27.795766
24320		12.946479	16.604970	27.643997
24321		12.985601	16.663381	27.494492
24322		13.021213	16.713502	27.342712
24323		13.020321	16.758000	27.193149
24324		12.996261	16.801317	27.039558
24325		12.962568	16.843927	26.883822
24326		12.936348	16.892846	26.732401
24327		12.920787	16.947222	26.582486
24328		12.913766	17.006396	26.433376
24329		12.914128	17.067114	26.286205
24330		12.910126	17.126795	26.137531
24331		12.882118	17.178580	25.991674
24332		12.828711	17.221760	25.843924
24333		12.756248	17.254203	25.700447
24334		12.686562	17.289418	25.560671
24335		12.642469	17.333269	25.439151
24336		12.554609	17.361187	25.295536
24337		12.541785	17.395730	25.135600
24338		12.639420	17.442854	24.975159
24339		12.763400	17.488486	24.826502
24340		12.838490	17.534799	24.682390
24341		12.878337	17.586137	24.525050
24342		12.904923	17.632850	24.367834
24343		12.908766	17.670543	24.229289
24344		12.890614	17.697826	24.107807
24345		12.864664	17.710966	24.001807
24346		12.856521	17.713366	23.913868
24347		12.878088	17.707624	23.851353
24348		12.933879	17.696363	23.810382
24349		13.018922	17.688105	23.783553
24350		13.134562	17.683363	23.771733
24351		13.235384	17.681082	23.768694
24352		13.309842	17.667108	23.771633
24353		13.376047	17.649995	23.778816
24354		13.447373	17.634925	23.787099
24355		13.516463	17.626976	23.792284
24356		13.574388	17.622092	23.789359
24357		13.616584	17.622030	23.777928
24358		13.652957	17.627451	23.757392
24359		13.679442	17.630966	23.727127
24360		13.703110	17.634732	23.691128
24361		13.743591	17.638047	23.650375
24362		13.805228	17.638424	23.610414
24363		13.839859	17.647469	23.570230
24364		13.870635	17.642242	23.525772
24365		13.898591	17.641886	23.484842
24366		13.932250	17.635508	23.445475
24367		13.971377	17.627989	23.410002
24368		14.016375	17.623001	23.381370
24369		14.063817	17.611691	23.360285
24370		14.118780	17.601611	23.347318
24371		14.180754	17.585324	23.343548
24372		14.252623	17.568849	23.348170
24373		14.310769	17.567534	23.356778
24374		14.366012	17.563587	23.367377
24375		14.409689	17.563263	23.382336
24376		14.441516	17.559995	23.399871
24377		14.475114	17.562170	23.416593
24378		14.515994	17.563722	23.433186
24379		14.574614	17.570294	23.444310
24380		14.636540	17.580297	23.451405
24381		14.682090	17.591981	23.452958
24382		14.701895	17.604624	23.450847
24383		14.698984	17.608634	23.446533
24384		14.691270	17.611107	23.442051
24385		14.679520	17.618540	23.434286
24386		14.670488	17.635109	23.423808
24387		14.659484	17.652598	23.411105
24388		14.642577	17.672704	23.397069
24389		14.645191	17.662588	23.382883
24390		14.649445	17.677784	23.365220
24391		14.678282	17.672192	23.349285
24392		14.722873	17.668213	23.341897
24393		14.748530	17.673211	23.334778
24394		14.762554	17.674683	23.327438
24395		14.768521	17.673976	23.316192
24396		14.735061	17.669190	23.300505
24397		14.713118	17.661550	23.281038
24398		14.696294	17.653582	23.264418
24399		14.672803	17.644249	23.255314
24400		14.652888	17.640434	23.247440
24401		14.626395	17.639779	23.246721
24402		14.574860	17.638595	23.243685
24403		14.527797	17.626975	23.249241
24404		14.429228	17.608471	23.258725
24405		14.374110	17.568109	23.264413
24406		14.347908	17.545158	23.274300
24407		14.299028	17.513533	23.282011
24408		14.282748	17.489180	23.286913
24409		14.289481	17.461879	23.292302
24410		14.310045	17.435451	23.299716
24411		14.342939	17.410807	23.298950
24412		14.399829	17.386919	23.296727
24413		14.438323	17.363879	23.295137
24414		14.444571	17.341909	23.295128
24415		14.430532	17.324791	23.298621
24416		14.408648	17.309779	23.304008
24417		14.406854	17.302387	23.309825
24418		14.447202	17.301654	23.320211
24419		14.531247	17.307011	23.337003
24420		14.647196	17.318881	23.348211
24421		14.805534	17.324206	23.363738
24422		15.001576	17.333836	23.380802
24423		15.215032	17.353106	23.393046
24424		15.429962	17.383771	23.405925
24425		15.668580	17.427214	23.415802
24426		15.888997	17.484174	23.420157
24427		16.019634	17.561024	23.414362
24428		16.137845	17.635321	23.422854
24429		16.240100	17.692034	23.429364
24430		16.292220	17.724098	23.445577
24431		16.330039	17.752858	23.470264
24432		16.295667	17.765621	23.481945
24433		16.308881	17.764816	23.486894
24434		16.353001	17.760766	23.493095
24435		16.418073	17.749042	23.496266
24436		16.483264	17.730313	23.495570
24437		16.519248	17.699276	23.496818
24438		16.545319	17.667542	23.492055
24439		16.571351	17.628906	23.490047
24440		16.597203	17.590218	23.487158
24441		16.629803	17.559421	23.487469
24442		16.672663	17.534076	23.483829
24443		16.716707	17.514933	23.474432
24444		16.764284	17.507394	23.469539
24445		16.809992	17.502201	23.460131
24446		16.837045	17.493347	23.454806
24447		16.852694	17.487877	23.448158
24448		16.847685	17.484172	23.442300
24449		16.836709	17.480279	23.440644
24450		16.836292	17.469608	23.442251
24451		16.853086	17.457083	23.445231
24452		16.896830	17.437651	23.447627
24453		16.953090	17.413823	23.451352
24454		17.015703	17.389965	23.458656
24455		17.055660	17.361938	23.467316
24456		17.068612	17.328074	23.475301
24457		17.050531	17.287548	23.482924
24458		17.018335	17.237496	23.489194
24459		16.976540	17.190469	23.486405
24460		16.952801	17.152828	23.493743
24461		16.913072	17.115959	23.490092
24462		16.904136	17.095115	23.488149
24463		16.894983	17.076323	23.483626
24464		16.874561	17.061226	23.477924
24465		16.830683	17.048474	23.474871
24466		16.772814	17.037138	23.470455
24467		16.710688	17.025641	23.469163
24468		16.676266	17.016736	23.468505
24469		16.656946	16.989799	23.462975
24470		16.661275	16.982749	23.465282
24471		16.654521	16.971054	23.462622
24472		16.626568	16.966845	23.462256
24473		16.595889	16.957648	23.467194
24474		16.561383	16.948136	23.472575
24475		16.537092	16.934457	23.482239
24476		16.531516	16.920570	23.498705
24477		16.548194	16.901723	23.511142
24478		16.587450	16.878218	23.523547
24479		16.640971	16.862295	23.536754
24480		16.708472	16.846465	23.548176
24481		16.788039	16.831720	23.566174
24482		16.841315	16.809429	23.587943
24483		16.858181	16.781870	23.616194
24484		16.862915	16.746914	23.647330
24485		16.879870	16.702579	23.682952
24486		16.926325	16.649850	23.721944
24487		16.997607	16.595405	23.767299
24488		17.099814	16.535934	23.809068
24489		17.202707	16.486633	23.852636
24490		17.293847	16.456956	23.906353
24491		17.359377	16.424470	23.952630
24492		17.386019	16.407990	24.006146
24493		17.378218	16.406726	24.071423
24494		17.342361	16.395268	24.136586
24495		17.313384	16.385720	24.212246
24496		17.294255	16.371685	24.293401
24497		17.292567	16.353171	24.382100
24498		17.318396	16.326930	24.474915
24499		17.357082	16.299897	24.579402
24500		17.392646	16.261496	24.687144
24501		17.425477	16.222778	24.806512
24502		17.457683	16.174747	24.928400
24503		17.493918	16.125799	25.063480
24504		17.525449	16.072822	25.207705
24505		17.549840	16.015108	25.353365
24506		17.565689	15.956101	25.510650
24507		17.590226	15.896599	25.666147
24508		17.633374	15.836584	25.828100
24509		17.679176	15.772883	25.990428
24510		17.710596	15.711207	26.157208
24511		17.720741	15.640686	26.327539
24512		17.707516	15.567920	26.504185
24513		17.682118	15.488653	26.685072
24514		17.657583	15.404981	26.872856
24515		17.669519	15.316119	27.049965
24516		17.710211	15.233145	27.223234
24517		17.771686	15.157523	27.391570
24518		17.848437	15.097340	27.553822
24519		17.899098	15.037083	27.701653
24520		17.915377	14.982012	27.843586
24521		17.891031	14.933545	27.980530
24522		17.838044	14.878551	28.107371
24523		17.781598	14.834864	28.235458
24524		17.736428	14.803282	28.365566
24525		17.705201	14.777124	28.493888
24526		17.679174	14.751016	28.621902
24527		17.670011	14.731227	28.751454
24528		17.659687	14.706548	28.877659
24529		17.644187	14.685546	29.008986
24530		17.609467	14.658503	29.140826
24531		17.572539	14.628517	29.274330
24532		17.529287	14.601821	29.421220
24533		17.501394	14.559761	29.561529
24534		17.491595	14.520715	29.714896
24535		17.497661	14.475235	29.870899
24536		17.535210	14.433512	30.037476
24537		17.578761	14.379724	30.202158
24538		17.634127	14.320499	30.386017
24539		17.679655	14.260877	30.567757
24540		17.715764	14.195586	30.755619
24541		17.748350	14.125255	30.950293
24542		17.775983	14.045143	31.150642
24543		17.814995	13.974284	31.369162
24544		17.871519	13.901643	31.596804
24545		17.938297	13.819301	31.834543
24546		18.015685	13.739738	32.090460
24547		18.090530	13.655919	32.353595
24548		18.153778	13.571300	32.637868
24549		18.208737	13.486441	32.921626
24550		18.268995	13.405221	33.216303
24551		18.339342	13.317757	33.512425
24552		18.419490	13.236237	33.829616
24553		18.510410	13.155310	34.128765
24554		18.594689	13.077086	34.428746
24555		18.653020	12.994183	34.698139
24556		18.689809	12.918354	34.971980
24557		18.711027	12.843339	35.219905
24558		18.717567	12.773721	35.464440
24559		18.707090	12.711104	35.686830
24560		18.704013	12.653676	35.917511
24561		18.711616	12.598023	36.128548
24562		18.725528	12.552079	36.348956
24563		18.740715	12.504369	36.547812
24564		18.754473	12.464241	36.756489
24565		18.749424	12.418585	36.952548
24566		18.749155	12.377703	37.151084
24567		18.726370	12.329360	37.341300
24568		18.697876	12.285168	37.532637
24569		18.691550	12.234482	37.725871
24570		18.694847	12.188587	37.920939
24571		18.703326	12.139299	38.119396
24572		18.708657	12.088653	38.313095
24573		18.715931	12.039058	38.510660
24574		18.722147	11.990662	38.707405
24575		18.724074	11.940587	38.903722
24576		18.734334	11.892721	39.103440
24577		18.741607	11.840575	39.303057
24578		18.738277	11.788767	39.503304
24579		18.737769	11.738875	39.707138
24580		18.753355	11.686853	39.909430
24581		18.791189	11.639257	40.107462
24582		18.838714	11.587971	40.296579
24583		18.882990	11.540769	40.477435
24584		18.928268	11.494577	40.651552
24585		18.954222	11.443077	40.815795
24586		18.956978	11.394606	40.970694
24587		18.945251	11.342047	41.121478
24588		18.933307	11.294764	41.268746
24589		18.928254	11.246930	41.410146
24590		18.938692	11.198320	41.548786
24591		18.961467	11.148051	41.685648
24592		18.978737	11.096357	41.817179
24593		18.999408	11.043411	41.944377
24594		19.006943	10.991096	42.067912
24595		18.996435	10.938289	42.186359
24596		18.970904	10.886639	42.298570
24597		18.949385	10.842833	42.406655
24598		18.950914	10.798784	42.510702
24599		18.964694	10.759469	42.613697
24600		18.991993	10.724703	42.715007
24601		19.008263	10.688705	42.816956
24602		19.017290	10.657486	42.918375
24603		19.004243	10.626750	43.008701
24604		18.979253	10.597752	43.096028
24605		18.950606	10.566228	43.175717
24606		18.924239	10.539708	43.256262
24607		18.896732	10.516026	43.334395
24608		18.876589	10.494960	43.410223
24609		18.870008	10.476421	43.482421
24610		18.871969	10.462241	43.547116
24611		18.888020	10.445336	43.609038
24612		18.886299	10.425198	43.665027
24613		18.882529	10.406025	43.712554
24614		18.900048	10.386418	43.757084
24615		18.919178	10.368985	43.795191
24616		18.938943	10.350627	43.831635
24617		18.971791	10.332824	43.868628
24618		18.999843	10.317590	43.903216
24619		19.034665	10.302845	43.937465
24620		19.048740	10.282195	43.965752
24621		19.045809	10.264370	43.995071
24622		19.040621	10.252500	44.021011
24623		19.031719	10.238336	44.044990
24624		19.039913	10.235974	44.070004
24625		19.052291	10.230125	44.086451
24626		19.067551	10.226922	44.096485
24627		19.104145	10.219235	44.103919
24628		19.142689	10.212513	44.110974
24629		19.168486	10.205905	44.113322
24630		19.163894	10.191607	44.119901
24631		19.152837	10.183070	44.129183
24632		19.143373	10.178555	44.140412
24633		19.131419	10.173233	44.147405
24634		19.119964	10.170065	44.155892
24635		19.119128	10.162274	44.159736
24636		19.124220	10.153502	44.162908
24637		19.150150	10.144719	44.168408
24638		19.192409	10.136279	44.171389
24639		19.231774	10.126552	44.177773
24640		19.251074	10.118519	44.181397
24641		19.253859	10.107219	44.180604
24642		19.251290	10.093132	44.178365
24643		19.240510	10.084934	44.173524
24644		19.236981	10.075328	44.165974
24645		19.259665	10.071632	44.153314
24646		19.254444	10.059451	44.146456
24647		19.279392	10.060929	44.138154
24648		19.277154	10.060958	44.129646
24649		19.268094	10.058066	44.124554
24650		19.260396	10.048008	44.119576
24651		19.250922	10.038618	44.118480
24652		19.248490	10.029117	44.117266
24653		19.261787	10.020631	44.118097
24654		19.287098	10.012446	44.121695
24655		19.311715	10.004427	44.126291
24656		19.328978	9.999608	44.133347
24657		19.330666	9.994778	44.139069
24658		19.324601	9.991127	44.145803
24659		19.302874	9.988341	44.151065
24660		19.288414	9.984533	44.150726
24661		19.291962	9.978578	44.149820
24662		19.306590	9.971032	44.145617
24663		19.335629	9.965265	44.142592
24664		19.364573	9.957619	44.138981
24665		19.381553	9.948384	44.135617
24666		19.391580	9.942041	44.132846
24667		19.390667	9.937251	44.127755
24668		19.437929	9.942122	44.120078
24669		19.377604	9.919529	44.116066
24670		19.370879	9.909452	44.110944
24671		19.423601	9.911614	44.098194
24672		19.323553	9.882950	44.092109
24673		19.316359	9.876805	44.089168
24674		19.307785	9.884897	44.074660
24675		19.293099	9.862793	44.077519
24676		19.287471	9.859251	44.079510
24677		19.266945	9.851455	44.081736
24678		19.251902	9.842896	44.085127
24679		19.236669	9.836072	44.088232
24680		19.217465	9.824757	44.090889
24681		19.192433	9.810888	44.093954
24682		19.167404	9.817699	44.081294
24683		19.204249	9.796274	44.081633
24684		19.238319	9.797768	44.079362
24685		19.187017	9.803070	44.066380
24686		19.181659	9.781768	44.063964
24687		19.212823	9.800389	44.046065
24688		19.189808	9.786643	44.033879
24689		19.129099	9.766874	44.025818
24690		19.146155	9.783854	44.007618
24691		19.128307	9.766805	43.992398
24692		19.131887	9.764278	43.979720
24693		19.158406	9.769434	43.982628
24694		19.202753	9.777074	44.012217
24695		19.244504	9.776155	44.039016
24696		19.235028	9.775786	44.054133
24697		19.231212	9.771327	44.061584
24698		19.229025	9.759487	44.072905
24699		19.250816	9.757755	44.088017
24700		19.272465	9.746324	44.098339
24701		19.279989	9.742750	44.106661
24702		19.325262	9.748176	44.123424
24703		19.343935	9.744463	44.131892
24704		19.358357	9.741928	44.130592
24705		19.380699	9.749628	44.127183
24706		19.415356	9.752486	44.111526
24707		19.416926	9.733421	44.090786
24708		19.425104	9.724631	44.072873
24709		19.449419	9.714157	44.051767
24710		19.476902	9.703340	44.033980
24711		19.507048	9.695422	44.012452
24712		19.526030	9.669979	43.997563
24713		19.539103	9.673324	43.977697
24714		19.590147	9.648067	43.977332
24715		19.618753	9.634352	43.974741
24716		19.632854	9.632959	43.969526
24717		19.637881	9.627508	43.960816
24718		19.656954	9.619088	43.951362
24719		19.689923	9.617265	43.945116
24720		19.730331	9.617372	43.940184
24721		19.789547	9.617922	43.934090
24722		19.873612	9.620779	43.933049
24723		19.971829	9.629485	43.941860
24724		20.044854	9.629830	43.946704
24725		20.080394	9.627483	43.954118
24726		20.101514	9.618000	43.965919
24727		20.083376	9.608662	43.975427
24728		20.029441	9.594171	43.983039
24729		19.973484	9.578275	43.987467
24730		19.931582	9.558976	43.994036
24731		19.896886	9.536474	44.003728
24732		19.884829	9.511116	44.014109
24733		19.866403	9.490770	44.027421
24734		19.845051	9.473176	44.035171
24735		19.823552	9.453665	44.042319
24736		19.803571	9.426571	44.046819
24737		19.771339	9.400488	44.051204
24738		19.737341	9.376405	44.056506
24739		19.708572	9.354548	44.059654
24740		19.700049	9.335582	44.060068
24741		19.730969	9.330183	44.059336
24742		19.801957	9.333591	44.055427
24743		19.924469	9.345742	44.049316
24744		20.094071	9.366995	44.042650
24745		20.290600	9.395739	44.035220
24746		20.491288	9.428519	44.031234
24747		20.687993	9.463113	44.033296
24748		20.860099	9.499315	44.043730
24749		20.988942	9.530400	44.063715
24750		21.040849	9.554196	44.086711
24751		21.025540	9.568123	44.114315
24752		20.949968	9.568027	44.154504
24753		21.121602	9.590190	44.280947
24754		21.613283	9.741926	44.331368
24755		22.102835	9.881290	44.351847
24756		22.488093	9.941233	44.405474
24757		22.703957	9.988752	44.475894
24758		22.856083	10.029260	44.532058
24759		22.993490	10.074335	44.575059
24760		23.054361	10.120980	44.610025
24761		23.086920	10.146304	44.634560
24762		23.122617	10.151692	44.656767
24763		23.206573	10.147233	44.674870
24764		23.354056	10.157305	44.700039
24765		23.548337	10.177106	44.721515
24766		23.803378	10.200878	44.752012
24767		24.076589	10.222672	44.780141
24768		24.356168	10.239539	44.807127
24769		24.656404	10.243774	44.825241
24770		24.952780	10.255503	44.846783
24771		25.260620	10.270596	44.864440
24772		25.509551	10.281839	44.881196
24773		25.703982	10.285128	44.885677
24774		25.848589	10.279322	44.892833
24775		25.917103	10.268500	44.888857
24776		25.978065	10.267411	44.882146
24777		26.049368	10.270107	44.872550
24778		26.137311	10.278033	44.866417
24779		26.273977	10.298158	44.863804
24780		26.438165	10.322582	44.869496
24781		26.596383	10.338845	44.870716
24782		26.760012	10.354937	44.872124
24783		26.876188	10.367819	44.871646
24784		26.935378	10.373685	44.871943
24785		26.944311	10.383809	44.872721
24786		26.911300	10.394986	44.879556
24787		26.877824	10.408769	44.894516
24788		26.861196	10.425972	44.913149
24789		26.887855	10.451811	44.943075
24790		26.956406	10.478397	44.976095
24791		27.033093	10.502172	45.011018
24792		27.093309	10.527732	45.040790
24793		27.116621	10.548689	45.066220
24794		27.116930	10.563286	45.091010
24795		27.076255	10.576482	45.106134
24796		27.043700	10.598025	45.118325
24797		27.023934	10.627521	45.125990
24798		27.016923	10.650384	45.133405
24799		26.999616	10.680179	45.136038
24800		26.954185	10.705617	45.138525
24801		26.917018	10.730126	45.143598
24802		26.875917	10.750962	45.145895
24803		26.831152	10.772641	45.146752
24804		26.774410	10.787426	45.145394
24805		26.706128	10.795119	45.149174
24806		26.640673	10.804750	45.155141
24807		26.606149	10.815281	45.163052
24808		26.578041	10.829840	45.168713
24809		26.566603	10.846472	45.174532
24810		26.528200	10.858420	45.177286
24811		26.503082	10.874849	45.176719
24812		26.484157	10.892479	45.164012
24813		26.430112	10.906514	45.139962
24814		26.356248	10.918757	45.109632
24815		26.278349	10.929567	45.073502
24816		26.173840	10.925667	45.025096
24817		26.087662	10.924514	44.975638
24818		26.036109	10.920098	44.923472
24819		25.990105	10.918500	44.866499
24820		25.956768	10.910640	44.797269
24821		25.920465	10.901321	44.722148
24822		25.890425	10.893168	44.644133
24823		25.856861	10.885993	44.573962
24824		25.816981	10.868197	44.511436
24825		25.752525	10.852448	44.453141
24826		25.649992	10.835012	44.395800
24827		25.518411	10.820084	44.338646
24828		25.387585	10.810898	44.287209
24829		25.230303	10.806976	44.252876
24830		25.061905	10.812929	44.226342
24831		24.906391	10.826443	44.213762
24832		24.761245	10.846948	44.210851
24833		24.633988	10.879625	44.215931
24834		24.516514	10.923298	44.226492
24835		24.392242	10.970978	44.238385
24836		24.272668	11.024929	44.252387
24837		24.131001	11.087973	44.262663
24838		23.984004	11.152204	44.275188
24839		23.825826	11.225070	44.282429
24840		23.668435	11.298804	44.297569
24841		23.520083	11.378019	44.320835
24842		23.343435	11.465125	44.345710
24843		23.176118	11.553049	44.369952
24844		23.008562	11.645162	44.393313
24845		22.858258	11.746001	44.410143
24846		22.712850	11.848743	44.417279
24847		22.590540	11.954469	44.422623
24848		22.488452	12.058917	44.424189
24849		22.378249	12.164375	44.410710
24850		22.269767	12.259526	44.389740
24851		22.145678	12.355209	44.355677
24852		22.006378	12.444691	44.315677
24853		21.842837	12.532289	44.269593
24854		21.688603	12.619322	44.218194
24855		21.542400	12.706259	44.160044
24856		21.381641	12.791160	44.089504
24857		21.216892	12.872681	44.006727
24858		21.074516	12.954545	43.921546
24859		20.954385	13.035586	43.832724
24860		20.849179	13.120670	43.735323
24861		20.792579	13.214039	43.638144
24862		20.787249	13.305475	43.531906
24863		20.834623	13.403599	43.420303
24864		20.905993	13.498233	43.296833
24865		20.956232	13.585635	43.161340
24866		20.955170	13.666928	43.012848
24867		20.908826	13.741661	42.855762
24868		20.849178	13.808760	42.698262
24869		20.774766	13.868757	42.538046
24870		20.711027	13.929190	42.379916
24871		20.663911	13.987197	42.222287
24872		20.596552	14.039816	42.061823
24873		20.528462	14.081892	41.894854
24874		20.461200	14.116417	41.718369
24875		20.379781	14.146100	41.532139
24876		20.272214	14.175974	41.335168
24877		20.163219	14.204180	41.127396
24878		20.061393	14.236972	40.914801
24879		19.972146	14.267622	40.693742
24880		19.910089	14.297577	40.472359
24881		19.867484	14.327474	40.253745
24882		19.841466	14.358522	40.039464
24883		19.815614	14.384870	39.827124
24884		19.784743	14.402469	39.619502
24885		19.733263	14.420316	39.418851
24886		19.676418	14.432408	39.225247
24887		19.601102	14.442473	39.041623
24888		19.497801	14.442919	38.866256
24889		19.405516	14.445444	38.696087
24890		19.330999	14.442610	38.532486
24891		19.303332	14.431908	38.367659
24892		19.343671	14.419339	38.199883
24893		19.440273	14.409139	38.024204
24894		19.527050	14.399303	37.837029
24895		19.589646	14.387530	37.639649
24896		19.625154	14.373206	37.433094
24897		19.625265	14.356036	37.225168
24898		19.611029	14.339714	37.016510
24899		19.599098	14.323234	36.810619
24900		19.595513	14.315869	36.616149
24901		19.599463	14.307791	36.424960
24902		19.605822	14.304150	36.244825
24903		19.611754	14.304277	36.069757
24904		19.606904	14.303099	35.901583
24905		19.585241	14.311397	35.739874
24906		19.533317	14.321423	35.582556
24907		19.470211	14.334630	35.425726
24908		19.412010	14.350241	35.286699
24909		19.359598	14.370451	35.132922
24910		19.301432	14.388873	34.991362
24911		19.229816	14.409008	34.834558
24912		19.173679	14.427139	34.684080
24913		19.099190	14.440727	34.528744
24914		19.032900	14.464156	34.389329
24915		18.956562	14.494652	34.236077
24916		18.889541	14.531106	34.085190
24917		18.814462	14.573129	33.932877
24918		18.735589	14.612160	33.777512
24919		18.647553	14.653727	33.619534
24920		18.541517	14.695746	33.453323
24921		18.408082	14.753262	33.288891
24922		18.260797	14.811031	33.119534
24923		18.113042	14.870809	32.952376
24924		17.992365	14.926327	32.779577
24925		17.889734	14.986470	32.610622
24926		17.801315	15.040828	32.436669
24927		17.718086	15.095926	32.260052
24928		17.647142	15.147457	32.076259
24929		17.593831	15.199992	31.890638
24930		17.558881	15.251210	31.701657
24931		17.549079	15.298362	31.513423
24932		17.552542	15.344289	31.328063
24933		17.581627	15.387896	31.142145
24934		17.630614	15.425554	30.958832
24935		17.674501	15.462604	30.778028
24936		17.695768	15.489259	30.595674
24937		17.684382	15.512527	30.414778
24938		17.653854	15.522843	30.232627
24939		17.623765	15.531834	30.057433
24940		17.598817	15.534656	29.886109
24941		17.579044	15.546223	29.724692
24942		17.551745	15.560883	29.569698
24943		17.541983	15.584076	29.421805
24944		17.545749	15.614659	29.277701
24945		17.547106	15.645490	29.135625
24946		17.538224	15.676782	28.996977
24947		17.495092	15.697466	28.858642
24948		17.429056	15.715516	28.724432
24949		17.356317	15.735719	28.595857
24950		17.259898	15.763185	28.476612
24951		17.154141	15.796300	28.359379
24952		17.041621	15.837534	28.247079
24953		16.946310	15.887830	28.134963
24954		16.861331	15.940183	28.024258
24955		16.789691	15.995433	27.911770
24956		16.728482	16.049424	27.792930
24957		16.677533	16.104732	27.674887
24958		16.623275	16.155037	27.557229
24959		16.570197	16.205632	27.440286
24960		16.528003	16.255173	27.321800
24961		16.500187	16.301620	27.202170
24962		16.478319	16.341552	27.078954
24963		16.471767	16.382247	26.959353
24964		16.464855	16.419793	26.833783
24965		16.466072	16.454375	26.706545
24966		16.465753	16.488084	26.580531
24967		16.450626	16.514944	26.456242
24968		16.441457	16.540910	26.337559
24969		16.434052	16.563623	26.219612
24970		16.419287	16.578334	26.107092
24971		16.407406	16.593732	25.987436
24972		16.435558	16.614748	25.870660
24973		16.473352	16.632362	25.753280
24974		16.500365	16.654980	25.639981
24975		16.520192	16.679620	25.527510
24976		16.525461	16.707928	25.419675
24977		16.505935	16.738627	25.312551
24978		16.460181	16.765363	25.211766
24979		16.391586	16.789589	25.122507
24980		16.307594	16.817129	25.041807
24981		16.204788	16.841033	24.964942
24982		16.111203	16.866754	24.895695
24983		16.018381	16.895133	24.830401
24984		15.931557	16.927289	24.766553
24985		15.856068	16.955973	24.701043
24986		15.785196	16.985721	24.637825
24987		15.708184	17.006194	24.569693
24988		15.605208	17.024789	24.492667
24989		15.516740	17.048285	24.408570
24990		15.431023	17.064586	24.319504
24991		15.344704	17.086763	24.224810
24992		15.258003	17.111549	24.130254
24993		15.208056	17.136311	24.025090
24994		15.158906	17.160103	23.915240
24995		15.113295	17.184079	23.800223
24996		15.094336	17.213409	23.688178
24997		15.089970	17.247189	23.582845
24998		15.074524	17.279623	23.491026
24999		15.053718	17.307413	23.402692
25000		15.046088	17.335688	23.324316
25001		15.042722	17.353355	23.257579
25002		15.040698	17.369282	23.194237
25003		15.009648	17.388203	23.135116
25004		14.971415	17.398530	23.091515
25005		14.922965	17.406158	23.063699
25006		14.871977	17.408043	23.044539
25007		14.827195	17.413745	23.034644
25008		14.780315	17.412616	23.023985
25009		14.719886	17.410638	23.018978
25010		14.681598	17.415502	23.012985
25011		14.652571	17.410122	23.004734
25012		14.658817	17.405980	22.998568
25013		14.675213	17.414455	22.989125
25014		14.695795	17.415232	22.978928
25015		14.721063	17.410696	22.971052
25016		14.742295	17.402840	22.975107
25017		14.737285	17.400725	22.973632
25018		14.739001	17.401250	22.978938
25019		14.765184	17.398178	22.985197
25020		14.824847	17.402464	23.000518
25021		14.893244	17.415846	23.003009
25022		14.959104	17.424099	23.004262
25023		15.051369	17.443983	23.007733
25024		15.131521	17.456138	23.000433
25025		15.270365	17.477512	22.991799
25026		15.426792	17.513175	22.980419
25027		15.578463	17.552358	22.969067
25028		15.702637	17.595592	22.960735
25029		15.800606	17.637114	22.946222
25030		15.876376	17.680144	22.925606
25031		15.935037	17.717804	22.894456
25032		15.985034	17.753650	22.864267
25033		16.017411	17.779819	22.831692
25034		15.996339	17.796627	22.789630
25035		15.924050	17.816634	22.745431
25036		15.804010	17.864002	22.697499
25037		15.656236	17.910512	22.633668
25038		15.508590	17.967366	22.579331
25039		15.350027	18.024337	22.529898
25040		15.188915	18.076566	22.488316
25041		15.035149	18.124601	22.445767
25042		14.901092	18.170511	22.408925
25043		14.789800	18.201876	22.374488
25044		14.704386	18.239945	22.347220
25045		14.647876	18.268037	22.318645
25046		14.588340	18.292398	22.291341
25047		14.539887	18.316954	22.270348
25048		14.481580	18.340070	22.253097
25049		14.408699	18.355883	22.234498
25050		14.351976	18.366492	22.221962
25051		14.320362	18.379669	22.212643
25052		14.311343	18.393474	22.210359
25053		14.321677	18.404765	22.213064
25054		14.355990	18.411954	22.221294
25055		14.407123	18.419085	22.230902
25056		14.448807	18.429817	22.241735
25057		14.485594	18.439685	22.252900
25058		14.503749	18.446886	22.251832
25059		14.506197	18.456544	22.244523
25060		14.504529	18.462662	22.231665
25061		14.536289	18.455785	22.216798
25062		14.606105	18.446123	22.203688
25063		14.689026	18.431843	22.190497
25064		14.785041	18.414155	22.180944
25065		14.888385	18.398506	22.176281
25066		14.963829	18.392957	22.173390
25067		15.014294	18.389771	22.174372
25068		15.067265	18.384014	22.181995
25069		15.129022	18.377950	22.191293
25070		15.194929	18.369348	22.205120
25071		15.269107	18.353294	22.218933
25072		15.346253	18.331125	22.235498
25073		15.416065	18.301705	22.254327
25074		15.480140	18.268398	22.278211
25075		15.531030	18.240405	22.300065
25076		15.594338	18.213252	22.331298
25077		15.681667	18.183193	22.356335
25078		15.758018	18.155056	22.380215
25079		15.832426	18.133137	22.401228
25080		15.891747	18.123339	22.420236
25081		15.929853	18.114669	22.434688
25082		15.945663	18.102070	22.441394
25083		15.952330	18.092447	22.443571
25084		15.948460	18.083871	22.451354
25085		15.941894	18.083012	22.452421
25086		15.938294	18.065373	22.453494
25087		15.987231	18.049956	22.458770
25088		16.028261	18.043907	22.456803
25089		16.062425	18.039489	22.446725
25090		16.071278	18.033351	22.440059
25091		16.031245	18.028104	22.427036
25092		15.973730	18.019782	22.418054
25093		15.941135	18.013442	22.411906
25094		15.928536	18.002420	22.407477
25095		15.948411	17.998233	22.408567
25096		15.977235	17.999363	22.417525
25097		15.994677	18.000530	22.423961
25098		15.995164	18.001483	22.434091
25099		15.975006	17.990866	22.446282
25100		15.964347	17.973844	22.455223
25101		15.955644	17.956894	22.463977
25102		15.941554	17.945113	22.478343
25103		15.921382	17.944116	22.492614
25104		15.901292	17.932324	22.511104
25105		15.888725	17.922718	22.535403
25106		15.889950	17.906350	22.560291
25107		15.911110	17.880290	22.591057
25108		15.952356	17.843396	22.620401
25109		16.005729	17.801645	22.649574
25110		16.048266	17.766423	22.677316
25111		16.079611	17.738176	22.699441
25112		16.108397	17.716616	22.723702
25113		16.116040	17.688384	22.749625
25114		16.099678	17.658830	22.780859
25115		16.059592	17.619945	22.824382
25116		16.019641	17.564931	22.872681
25117		16.002384	17.506716	22.929631
25118		16.003945	17.442309	22.990598
25119		16.027894	17.374745	23.052343
25120		16.058715	17.296222	23.116967
25121		16.103611	17.223320	23.190800
25122		16.151773	17.154678	23.264224
25123		16.236563	17.093869	23.333517
25124		16.340302	17.057843	23.393877
25125		16.416775	17.043031	23.440615
25126		16.432733	17.035457	23.475590
25127		16.375485	17.039497	23.503861
25128		16.258907	17.031363	23.526809
25129		16.124632	17.021892	23.551840
25130		15.999515	17.003807	23.584850
25131		15.908101	16.965854	23.622839
25132		15.885151	16.921572	23.665396
25133		15.925878	16.883128	23.710867
25134		15.981303	16.841106	23.758641
25135		16.014586	16.816690	23.814909
25136		16.002501	16.778381	23.873556
25137		15.950763	16.747257	23.941688
25138		15.871378	16.709312	24.020080
25139		15.804208	16.662062	24.103312
25140		15.758971	16.601374	24.197197
25141		15.738772	16.534166	24.292460
25142		15.751667	16.463006	24.393052
25143		15.784322	16.391562	24.498213
25144		15.827716	16.331027	24.607490
25145		15.868397	16.274168	24.720418
25146		15.897510	16.222550	24.842227
25147		15.927475	16.176755	24.966919
25148		15.976123	16.133048	25.096787
25149		16.037263	16.084703	25.224996
25150		16.120331	16.038118	25.355308
25151		16.207240	15.982075	25.479927
25152		16.293486	15.927714	25.603130
25153		16.376197	15.869892	25.723265
25154		16.428916	15.806898	25.839907
25155		16.466729	15.746881	25.960193
25156		16.504953	15.690895	26.080393
25157		16.537041	15.629557	26.198270
25158		16.572208	15.573121	26.318558
25159		16.625713	15.513942	26.430375
25160		16.687110	15.466339	26.543447
25161		16.726815	15.423557	26.655410
25162		16.750639	15.381488	26.769333
25163		16.757159	15.343710	26.889742
25164		16.761717	15.306555	27.020837
25165		16.759348	15.262800	27.156751
25166		16.763804	15.216620	27.296823
25167		16.779812	15.173321	27.446534
25168		16.803416	15.123408	27.597558
25169		16.830636	15.069444	27.755747
25170		16.868156	15.024817	27.925222
25171		16.895375	14.969878	28.096805
25172		16.919008	14.910056	28.270954
25173		16.936088	14.850230	28.450975
25174		16.959878	14.786807	28.634366
25175		16.975838	14.721699	28.811726
25176		16.976615	14.664191	28.996094
25177		16.973023	14.616297	29.187585
25178		16.972265	14.569274	29.388330
25179		16.985484	14.532081	29.606133
25180		17.008756	14.494894	29.826097
25181		17.042332	14.465924	30.053296
25182		17.067960	14.431786	30.274901
25183		17.096347	14.394810	30.484245
25184		17.111157	14.361701	30.690064
25185		17.117737	14.328891	30.885715
25186		17.125856	14.292249	31.077560
25187		17.133705	14.256344	31.262279
25188		17.139760	14.223711	31.448408
25189		17.132615	14.178954	31.626923
25190		17.128866	14.134618	31.799499
25191		17.130640	14.089194	31.966802
25192		17.143172	14.041554	32.121482
25193		17.163162	13.993621	32.274302
25194		17.180570	13.947611	32.422282
25195		17.187169	13.891124	32.564901
25196		17.186059	13.841744	32.707639
25197		17.181990	13.788672	32.853146
25198		17.162529	13.731078	32.992806
25199		17.153214	13.682129	33.142473
25200		17.161471	13.639423	33.288226
25201		17.184632	13.605615	33.439646
25202		17.215949	13.578007	33.586130
25203		17.241365	13.548435	33.736194
25204		17.252176	13.520229	33.891307
25205		17.246372	13.487785	34.050644
25206		17.248602	13.450818	34.214234
25207		17.244567	13.413360	34.383949
25208		17.264405	13.380445	34.567426
25209		17.287597	13.353467	34.746085
25210		17.324597	13.325109	34.925735
25211		17.355663	13.294042	35.105327
25212		17.368516	13.265350	35.281658
25213		17.358448	13.236134	35.459199
25214		17.341397	13.202614	35.641497
25215		17.332895	13.171997	35.829530
25216		17.329060	13.140500	36.035641
25217		17.348363	13.114081	36.238640
25218		17.371129	13.087967	36.453517
25219		17.387125	13.064002	36.652391
25220		17.391026	13.038178	36.865618
25221		17.390343	13.020255	37.076147
25222		17.386269	12.996574	37.302026
25223		17.396864	12.975872	37.524154
25224		17.412826	12.951769	37.758582
25225		17.425601	12.924019	37.981904
25226		17.441564	12.901118	38.218773
25227		17.466694	12.876013	38.445684
25228		17.513134	12.862661	38.687349
25229		17.549866	12.848802	38.916985
25230		17.570043	12.829531	39.146116
25231		17.575750	12.811827	39.383702
25232		17.579095	12.787655	39.627004
25233		17.590674	12.761191	39.879840
25234		17.610295	12.731398	40.130852
25235		17.648424	12.704724	40.377712
25236		17.690818	12.674456	40.617531
25237		17.718839	12.645922	40.847854
25238		17.729402	12.613025	41.081385
25239		17.716823	12.581534	41.312238
25240		17.673838	12.546530	41.549624
25241		17.606940	12.496653	41.768104
25242		17.540644	12.439179	41.989432
25243		17.492708	12.380348	42.197198
25244		17.460066	12.320669	42.401769
25245		17.436907	12.266621	42.597053
25246		17.437740	12.208365	42.782094
25247		17.459378	12.155609	42.967712
25248		17.467363	12.099731	43.147462
25249		17.462363	12.049622	43.322555
25250		17.438092	11.989281	43.486472
25251		17.401933	11.931001	43.639839
25252		17.382689	11.880511	43.789806
25253		17.388765	11.829736	43.929633
25254		17.422021	11.782354	44.063648
25255		17.470992	11.731678	44.185538
25256		17.537854	11.690520	44.309977
25257		17.598544	11.647686	44.428569
25258		17.631990	11.603616	44.539918
25259		17.633669	11.555566	44.643679
25260		17.648217	11.508985	44.749461
25261		17.673621	11.467166	44.846887
25262		17.704691	11.430223	44.940015
25263		17.746901	11.394206	45.028320
25264		17.766797	11.358055	45.115180
25265		17.779631	11.325490	45.208560
25266		17.763473	11.288708	45.301299
25267		17.733742	11.250425	45.395906
25268		17.709407	11.219447	45.494266
25269		17.692465	11.196950	45.588772
25270		17.688406	11.180978	45.679565
25271		17.684534	11.167809	45.768593
25272		17.703790	11.160007	45.854580
25273		17.734760	11.153964	45.940236
25274		17.783079	11.147953	46.032154
25275		17.831103	11.143160	46.123632
25276		17.885175	11.138190	46.208864
25277		17.933240	11.135540	46.288634
25278		17.978645	11.138961	46.360293
25279		18.009237	11.135142	46.421105
25280		18.009261	11.140012	46.477180
25281		18.019416	11.140681	46.519333
25282		18.054542	11.137690	46.555115
25283		18.087405	11.134932	46.578810
25284		18.140469	11.127896	46.596877
25285		18.192244	11.119978	46.611397
25286		18.246992	11.108708	46.616846
25287		18.284491	11.089415	46.610122
25288		18.326756	11.067997	46.596642
25289		18.375906	11.044851	46.571177
25290		18.425204	11.021749	46.540113
25291		18.468673	11.004249	46.509691
25292		18.517915	10.979142	46.472410
25293		18.563447	10.961446	46.436104
25294		18.602352	10.939269	46.397822
25295		18.628862	10.911569	46.361313
25296		18.636945	10.887667	46.326703
25297		18.653668	10.862428	46.296728
25298		18.663726	10.845402	46.270882
25299		18.663305	10.827231	46.246696
25300		18.664736	10.809106	46.227881
25301		18.681160	10.794089	46.214798
25302		18.708995	10.781907	46.214588
25303		18.747198	10.773365	46.227205
25304		18.793947	10.765712	46.241279
25305		18.839856	10.769796	46.256119
25306		18.889573	10.772540	46.279109
25307		18.938397	10.771914	46.293458
25308		18.985502	10.769229	46.305631
25309		19.026119	10.768279	46.316508
25310		19.068043	10.759247	46.322124
25311		19.092539	10.749618	46.320912
25312		19.111491	10.736919	46.321049
25313		19.139872	10.722944	46.316319
25314		19.154889	10.708505	46.310762
25315		19.189802	10.693104	46.304421
25316		19.225209	10.678138	46.305425
25317		19.256509	10.657830	46.306057
25318		19.266689	10.627359	46.294663
25319		19.304636	10.607199	46.282160
25320		19.328743	10.582899	46.273289
25321		19.346209	10.561707	46.265719
25322		19.366231	10.536630	46.256616
25323		19.381540	10.501046	46.248145
25324		19.440830	10.467732	46.241426
25325		19.494878	10.422253	46.251550
25326		19.481482	10.391467	46.253776
25327		19.498372	10.365102	46.247144
25328		19.544770	10.342166	46.256223
25329		19.626121	10.331620	46.267429
25330		19.733621	10.332994	46.275601
25331		19.883832	10.343501	46.284491
25332		20.032076	10.348543	46.297155
25333		20.138957	10.339081	46.305417
25334		20.183560	10.310766	46.324563
25335		20.158108	10.281609	46.339211
25336		20.103584	10.253013	46.360770
25337		20.035561	10.223068	46.387311
25338		19.961579	10.197458	46.411239
25339		19.926766	10.182577	46.428614
25340		19.935223	10.173075	46.445368
25341		19.984077	10.172651	46.462167
25342		20.054802	10.170532	46.468644
25343		20.094077	10.152398	46.468385
25344		20.107986	10.131207	46.464861
25345		20.106521	10.105107	46.460651
25346		20.072015	10.069779	46.457236
25347		20.027523	10.034867	46.454273
25348		19.990499	10.003473	46.452472
25349		19.996821	9.985883	46.447570
25350		20.066912	9.982858	46.443004
25351		20.204089	9.993368	46.439395
25352		20.391019	10.020673	46.457440
25353		20.669668	10.067183	46.518718
25354		20.997361	10.117798	46.541512
25355		21.300952	10.198744	46.560771
25356		21.589913	10.272586	46.593663
25357		21.779250	10.342469	46.622438
25358		21.910060	10.412831	46.665924
25359		22.034189	10.483956	46.715313
25360		22.232948	10.565762	46.800294
25361		22.529677	10.655241	46.874560
25362		22.985103	10.780234	46.967957
25363		23.611165	10.909992	47.069232
25364		24.400825	11.052244	47.180906
25365		25.283670	11.190193	47.296935
25366		26.168643	11.318463	47.392947
25367		26.970445	11.426007	47.481170
25368		27.569776	11.485307	47.554615
25369		27.946458	11.516208	47.611954
25370		28.177166	11.539856	47.645354
25371		28.291153	11.546528	47.661068
