// General information: 
//  MT Manager version: 2022.2.0 
//  XDA version: 2022.2.0 build 7381 rev 124627 built on 2023-07-19
// Device information: 
//  DeviceId: 00B44877
//  ProductCode: MTW2-3A7G6
//  Firmware Version: 4.3.5
//  Hardware Version: 2.0.0
// Device settings: 
//  Filter Profile: human(46.1)
//  Option Flags: Orientation Smoother Disabled, Position/Velocity Smoother Disabled, Continuous Zero Rotation Update Disabled, AHS Disabled, ICC Disabled
// Coordinate system: ENU
PacketCounter	SampleTimeFine	Roll	Pitch	Yaw
22119		-16.752039	15.377214	-57.021712
22120		-16.777183	15.363646	-57.003179
22121		-16.802973	15.352525	-56.983796
22122		-16.825988	15.340519	-56.964002
22123		-16.846445	15.325241	-56.947550
22124		-16.857061	15.306852	-56.933966
22125		-16.860467	15.287023	-56.925318
22126		-16.856956	15.265261	-56.915899
22127		-16.849000	15.242608	-56.907849
22128		-16.844005	15.220677	-56.901719
22129		-16.844802	15.201914	-56.894700
22130		-16.850037	15.185411	-56.887125
22131		-16.853402	15.175937	-56.881071
22132		-16.854526	15.169215	-56.873975
22133		-16.852503	15.167631	-56.868371
22134		-16.857356	15.166255	-56.862218
22135		-16.864065	15.161998	-56.858777
22136		-16.875105	15.156526	-56.853756
22137		-16.890671	15.149880	-56.853843
22138		-16.907182	15.143121	-56.851631
22139		-16.924248	15.141410	-56.845987
22140		-16.934963	15.140242	-56.841841
22141		-16.941436	15.141365	-56.832719
22142		-16.951067	15.143110	-56.822127
22143		-16.958256	15.146405	-56.812438
22144		-16.963693	15.147280	-56.805081
22145		-16.962791	15.145685	-56.802791
22146		-16.955617	15.139408	-56.802045
22147		-16.942990	15.131908	-56.801228
22148		-16.926235	15.119757	-56.803439
22149		-16.911117	15.107475	-56.805004
22150		-16.899314	15.094315	-56.805211
22151		-16.889311	15.085554	-56.808233
22152		-16.884986	15.079472	-56.810154
22153		-16.883288	15.077827	-56.812471
22154		-16.885485	15.079960	-56.815279
22155		-16.891416	15.082109	-56.813615
22156		-16.905237	15.083112	-56.808722
22157		-16.918249	15.079441	-56.800120
22158		-16.926256	15.069426	-56.792653
22159		-16.932680	15.055394	-56.783257
22160		-16.945486	15.036398	-56.773800
22161		-16.964961	15.011782	-56.763090
22162		-16.994329	14.981852	-56.752445
22163		-17.030701	14.946913	-56.747854
22164		-17.078781	14.906379	-56.743030
22165		-17.153857	14.864881	-56.735815
22166		-17.249593	14.819032	-56.723687
22167		-17.353684	14.769488	-56.705427
22168		-17.448907	14.713164	-56.684416
22169		-17.530083	14.649907	-56.664333
22170		-17.588813	14.576696	-56.648077
22171		-17.638366	14.488053	-56.639967
22172		-17.686921	14.396024	-56.638481
22173		-17.761201	14.307644	-56.643440
22174		-17.831253	14.219443	-56.644345
22175		-17.875757	14.128812	-56.643468
22176		-17.891294	14.038748	-56.634224
22177		-17.887868	13.948195	-56.611107
22178		-17.886604	13.854380	-56.574102
22179		-17.896765	13.763529	-56.522200
22180		-17.922261	13.674218	-56.450675
22181		-17.949582	13.583002	-56.358751
22182		-17.967624	13.490506	-56.248314
22183		-17.965920	13.391452	-56.123599
22184		-17.945847	13.286651	-55.982685
22185		-17.909813	13.179673	-55.832038
22186		-17.871780	13.076328	-55.673075
22187		-17.836811	12.972456	-55.511212
22188		-17.805803	12.867007	-55.340273
22189		-17.788613	12.750097	-55.160317
22190		-17.781164	12.626316	-54.969167
22191		-17.789313	12.492822	-54.774006
22192		-17.800571	12.358091	-54.573541
22193		-17.814102	12.225014	-54.368971
22194		-17.848199	12.092147	-54.159276
22195		-17.916366	11.958721	-53.945848
22196		-18.005754	11.828966	-53.721379
22197		-18.095509	11.687568	-53.495861
22198		-18.169955	11.523975	-53.270241
22199		-18.229584	11.345811	-53.052123
22200		-18.250166	11.162216	-52.837948
22201		-18.248378	10.977064	-52.630956
22202		-18.214479	10.778168	-52.431039
22203		-18.165536	10.562286	-52.245178
22204		-18.107528	10.333390	-52.072956
22205		-18.074781	10.082378	-51.913908
22206		-18.069939	9.835177	-51.759092
22207		-18.072463	9.587595	-51.589003
22208		-18.102234	9.338079	-51.409386
22209		-18.162060	9.087538	-51.223445
22210		-18.216895	8.834793	-51.022461
22211		-18.262167	8.572577	-50.812789
22212		-18.300096	8.309415	-50.600678
22213		-18.323346	8.049351	-50.383984
22214		-18.341027	7.790614	-50.169413
22215		-18.344649	7.543375	-49.955603
22216		-18.362377	7.307006	-49.734363
22217		-18.384391	7.070638	-49.499475
22218		-18.409240	6.825659	-49.254355
22219		-18.424030	6.584071	-49.002993
22220		-18.417264	6.344708	-48.747833
22221		-18.416167	6.117343	-48.487645
22222		-18.407740	5.896699	-48.215727
22223		-18.427607	5.678142	-47.939075
22224		-18.453867	5.475143	-47.655913
22225		-18.484766	5.281208	-47.365400
22226		-18.508061	5.101000	-47.070494
22227		-18.518727	4.930889	-46.771116
22228		-18.528213	4.768198	-46.457406
22229		-18.541766	4.614931	-46.139019
22230		-18.563384	4.474312	-45.809591
22231		-18.586294	4.345019	-45.474851
22232		-18.592853	4.228422	-45.136807
22233		-18.583362	4.117611	-44.799954
22234		-18.568964	4.012293	-44.457608
22235		-18.555813	3.915116	-44.105563
22236		-18.532422	3.807887	-43.742378
22237		-18.517890	3.712911	-43.376853
22238		-18.479474	3.635490	-43.005865
22239		-18.431863	3.564782	-42.631429
22240		-18.366373	3.497088	-42.256969
22241		-18.286166	3.437854	-41.887102
22242		-18.193329	3.398122	-41.526113
22243		-18.119734	3.368289	-41.176749
22244		-18.026598	3.332670	-40.830667
22245		-17.948758	3.302692	-40.498357
22246		-17.884303	3.270913	-40.175847
22247		-17.820119	3.241377	-39.861455
22248		-17.762465	3.211807	-39.552775
22249		-17.696702	3.188352	-39.248412
22250		-17.639105	3.168745	-38.948033
22251		-17.579625	3.149601	-38.648964
22252		-17.529032	3.129891	-38.353131
22253		-17.467941	3.108807	-38.063267
22254		-17.384392	3.093755	-37.777721
22255		-17.290797	3.084472	-37.496306
22256		-17.204502	3.071498	-37.220780
22257		-17.106371	3.060398	-36.948224
22258		-16.996335	3.055975	-36.674467
22259		-16.882361	3.054018	-36.394731
22260		-16.775431	3.049969	-36.115864
22261		-16.670574	3.057358	-35.838354
22262		-16.559923	3.066543	-35.559532
22263		-16.441970	3.070894	-35.282870
22264		-16.329877	3.067318	-35.009977
22265		-16.235862	3.054412	-34.748635
22266		-16.135761	3.050878	-34.497678
22267		-16.020031	3.051207	-34.252452
22268		-15.889158	3.051526	-34.008557
22269		-15.761960	3.060457	-33.766331
22270		-15.621088	3.077898	-33.524131
22271		-15.503927	3.098485	-33.292245
22272		-15.379989	3.122441	-33.071028
22273		-15.249944	3.152820	-32.857274
22274		-15.135191	3.174263	-32.653615
22275		-15.004150	3.206165	-32.451673
22276		-14.872350	3.231427	-32.262436
22277		-14.748361	3.263486	-32.075490
22278		-14.633609	3.297944	-31.900479
22279		-14.519051	3.337230	-31.729715
22280		-14.400762	3.376784	-31.570785
22281		-14.275705	3.427755	-31.422880
22282		-14.153652	3.475641	-31.283311
22283		-14.033942	3.527626	-31.148356
22284		-13.915498	3.574236	-31.024670
22285		-13.799828	3.612095	-30.913078
22286		-13.686736	3.657896	-30.817015
22287		-13.579931	3.695759	-30.724178
22288		-13.489547	3.718473	-30.633319
22289		-13.401951	3.754122	-30.543698
22290		-13.319332	3.791509	-30.449588
22291		-13.240869	3.825275	-30.354971
22292		-13.165049	3.859636	-30.259589
22293		-13.100790	3.882721	-30.165574
22294		-13.025367	3.906639	-30.079597
22295		-12.939082	3.926097	-29.996681
22296		-12.864285	3.945770	-29.916438
22297		-12.790557	3.966091	-29.841831
22298		-12.716370	3.981550	-29.767324
22299		-12.642077	3.994932	-29.689810
22300		-12.570118	4.008312	-29.611602
22301		-12.499120	4.018936	-29.539758
22302		-12.434255	4.029060	-29.470134
22303		-12.377491	4.032153	-29.404484
22304		-12.322779	4.040036	-29.341342
22305		-12.284437	4.053170	-29.284415
22306		-12.249602	4.063287	-29.237590
22307		-12.214080	4.072476	-29.194907
22308		-12.179950	4.072887	-29.155164
22309		-12.146985	4.065672	-29.120233
22310		-12.114210	4.046052	-29.091893
22311		-12.086744	4.035489	-29.069804
22312		-12.077404	4.030050	-29.054452
22313		-12.065961	4.032994	-29.041125
22314		-12.061521	4.038007	-29.030984
22315		-12.051577	4.045879	-29.020196
22316		-12.044010	4.051847	-29.006726
22317		-12.031579	4.058941	-28.996122
22318		-12.022769	4.065945	-28.987079
22319		-12.019821	4.068357	-28.976966
22320		-12.012720	4.076211	-28.966682
22321		-12.015865	4.094648	-28.957480
22322		-12.018993	4.121680	-28.944971
22323		-12.016456	4.154192	-28.933426
22324		-12.010285	4.194663	-28.914060
22325		-12.006274	4.244585	-28.894787
22326		-12.002845	4.298000	-28.873402
22327		-11.997804	4.354065	-28.853611
22328		-11.990259	4.404523	-28.837453
22329		-11.967077	4.445583	-28.823877
22330		-11.944150	4.479511	-28.808286
22331		-11.917797	4.508040	-28.792385
22332		-11.894361	4.533476	-28.773350
22333		-11.880437	4.552124	-28.753939
22334		-11.877997	4.572434	-28.731681
22335		-11.883469	4.597177	-28.711835
22336		-11.890982	4.617340	-28.690648
22337		-11.888083	4.633929	-28.668578
22338		-11.875669	4.648486	-28.647786
22339		-11.859127	4.662966	-28.631879
22340		-11.830531	4.680814	-28.623793
22341		-11.802847	4.713687	-28.627048
22342		-11.762970	4.738045	-28.633892
22343		-11.719861	4.751307	-28.641811
22344		-11.677450	4.755497	-28.644499
22345		-11.631354	4.759520	-28.646974
22346		-11.592551	4.762381	-28.645912
22347		-11.547579	4.765397	-28.641563
22348		-11.496462	4.767316	-28.633236
22349		-11.456264	4.775825	-28.612648
22350		-11.436198	4.784783	-28.582994
22351		-11.426844	4.801614	-28.549844
22352		-11.432887	4.825376	-28.518629
22353		-11.443150	4.850191	-28.488013
22354		-11.454974	4.876075	-28.457782
22355		-11.461865	4.907046	-28.428669
22356		-11.468750	4.935774	-28.410578
22357		-11.471967	4.956367	-28.394587
22358		-11.465066	4.976427	-28.379993
22359		-11.451510	4.993389	-28.363448
22360		-11.431584	5.011926	-28.347060
22361		-11.413601	5.033114	-28.333841
22362		-11.402262	5.056296	-28.327028
22363		-11.388817	5.077754	-28.321071
22364		-11.374152	5.098938	-28.329657
22365		-11.349507	5.123269	-28.351468
22366		-11.321184	5.149151	-28.380895
22367		-11.288315	5.172893	-28.407634
22368		-11.256688	5.191980	-28.429900
22369		-11.225163	5.206992	-28.447627
22370		-11.192364	5.217806	-28.459829
22371		-11.164695	5.229223	-28.473134
22372		-11.126926	5.242499	-28.481724
22373		-11.088353	5.253177	-28.485529
22374		-11.043116	5.264490	-28.484175
22375		-11.003394	5.277280	-28.480901
22376		-10.964618	5.294759	-28.477103
22377		-10.932502	5.313369	-28.470904
22378		-10.895771	5.332422	-28.465485
22379		-10.863231	5.350486	-28.461562
22380		-10.831666	5.366646	-28.455802
22381		-10.803309	5.381074	-28.446703
22382		-10.776759	5.397387	-28.441894
22383		-10.760348	5.425276	-28.442694
22384		-10.739427	5.458282	-28.451158
22385		-10.723200	5.490839	-28.458906
22386		-10.708227	5.519371	-28.464983
22387		-10.695210	5.548157	-28.460623
22388		-10.677278	5.570098	-28.455198
22389		-10.657630	5.584584	-28.448973
22390		-10.639773	5.597578	-28.444816
22391		-10.620535	5.610460	-28.439503
22392		-10.599128	5.621532	-28.438977
22393		-10.581063	5.633824	-28.444636
22394		-10.567804	5.658266	-28.456790
22395		-10.556455	5.683279	-28.476608
22396		-10.559449	5.709694	-28.499542
22397		-10.559948	5.733839	-28.522150
22398		-10.566568	5.757946	-28.551565
22399		-10.581732	5.780544	-28.590356
22400		-10.595381	5.797177	-28.636578
22401		-10.600487	5.798473	-28.680031
22402		-10.599500	5.789497	-28.716547
22403		-10.598974	5.787918	-28.750815
22404		-10.600749	5.791634	-28.786493
22405		-10.602401	5.798320	-28.821512
22406		-10.610146	5.800821	-28.854940
22407		-10.615347	5.797717	-28.891680
22408		-10.625627	5.783441	-28.933882
22409		-10.648281	5.760993	-28.982948
22410		-10.683055	5.733139	-29.042967
22411		-10.728629	5.721850	-29.114468
22412		-10.765207	5.725138	-29.189802
22413		-10.792467	5.721360	-29.264386
22414		-10.814225	5.714854	-29.334102
22415		-10.837368	5.702327	-29.401739
22416		-10.852159	5.681191	-29.467267
22417		-10.854897	5.645738	-29.527636
22418		-10.850660	5.587092	-29.587799
22419		-10.880302	5.490468	-29.656490
22420		-10.990646	5.400766	-29.764660
22421		-11.123727	5.368112	-29.909888
22422		-11.253049	5.358046	-30.071972
22423		-11.371143	5.348407	-30.239137
22424		-11.485675	5.350878	-30.413823
22425		-11.596455	5.350722	-30.592449
22426		-11.707316	5.325069	-30.769518
22427		-11.803333	5.291593	-30.950541
22428		-11.914409	5.255773	-31.149636
22429		-12.019549	5.234583	-31.351933
22430		-12.128156	5.204412	-31.566080
22431		-12.265959	5.177624	-31.797926
22432		-12.411117	5.168737	-32.033738
22433		-12.541819	5.157733	-32.269051
22434		-12.679453	5.122643	-32.501857
22435		-12.791852	5.072389	-32.728634
22436		-12.881691	5.014070	-32.954318
22437		-12.952778	4.945190	-33.182164
22438		-13.008842	4.859816	-33.410267
22439		-13.050260	4.759113	-33.642341
22440		-13.124819	4.630399	-33.891480
22441		-13.272847	4.538352	-34.175859
22442		-13.460621	4.500099	-34.487758
22443		-13.705300	4.492039	-34.821485
22444		-13.904451	4.471192	-35.153183
22445		-14.064385	4.445051	-35.497066
22446		-14.201907	4.414799	-35.848950
22447		-14.306823	4.380124	-36.198010
22448		-14.382631	4.337615	-36.543452
22449		-14.440122	4.279759	-36.889121
22450		-14.541825	4.208619	-37.245461
22451		-14.670927	4.144395	-37.615849
22452		-14.802554	4.089036	-37.976127
22453		-14.902405	4.035213	-38.325577
22454		-14.944848	3.996828	-38.663811
22455		-14.988691	3.961344	-38.999201
22456		-15.013740	3.928326	-39.335315
22457		-15.001945	3.905311	-39.667578
22458		-14.963682	3.887302	-39.996798
22459		-14.908127	3.869791	-40.325511
22460		-14.838504	3.842667	-40.651452
22461		-14.783692	3.796096	-40.973022
22462		-14.759285	3.747589	-41.295792
22463		-14.718903	3.711896	-41.605201
22464		-14.708662	3.687810	-41.890961
22465		-14.716367	3.668087	-42.169550
22466		-14.713078	3.653992	-42.453009
22467		-14.681754	3.658982	-42.741621
22468		-14.636135	3.679223	-43.038667
22469		-14.575400	3.715680	-43.341248
22470		-14.495762	3.764695	-43.645811
22471		-14.412317	3.815693	-43.946537
22472		-14.323148	3.870671	-44.246325
22473		-14.248391	3.941997	-44.547952
22474		-14.194927	4.025131	-44.849069
22475		-14.167407	4.112220	-45.155323
22476		-14.140787	4.200270	-45.460955
22477		-14.100425	4.282692	-45.759428
22478		-14.054596	4.364225	-46.046661
22479		-13.995487	4.447762	-46.323012
22480		-13.935190	4.536557	-46.590412
22481		-13.879115	4.629888	-46.852228
22482		-13.826868	4.726046	-47.117929
22483		-13.783379	4.837186	-47.389561
22484		-13.744836	4.955925	-47.663635
22485		-13.712024	5.077629	-47.942015
22486		-13.693963	5.200917	-48.216434
22487		-13.686364	5.321854	-48.491183
22488		-13.682539	5.440201	-48.767824
22489		-13.685915	5.557255	-49.046052
22490		-13.683603	5.668338	-49.323811
22491		-13.664708	5.778530	-49.600097
22492		-13.644763	5.880457	-49.874684
22493		-13.631478	5.982020	-50.146754
22494		-13.617077	6.088923	-50.415118
22495		-13.603670	6.199546	-50.674163
22496		-13.602871	6.309173	-50.921432
22497		-13.609418	6.419664	-51.165351
22498		-13.611927	6.527876	-51.400897
22499		-13.601843	6.640446	-51.635665
22500		-13.593912	6.758242	-51.865843
22501		-13.578372	6.885919	-52.088702
22502		-13.556764	7.010158	-52.309454
22503		-13.540796	7.128914	-52.525187
22504		-13.521118	7.238284	-52.728719
22505		-13.506879	7.335729	-52.919556
22506		-13.487053	7.427349	-53.092312
22507		-13.480597	7.513903	-53.255436
22508		-13.491425	7.588060	-53.415244
22509		-13.484016	7.669969	-53.572677
22510		-13.448993	7.752825	-53.717895
22511		-13.397806	7.843652	-53.844421
22512		-13.357453	7.938591	-53.960796
22513		-13.315723	8.027551	-54.072464
22514		-13.257731	8.105377	-54.177360
22515		-13.184176	8.177644	-54.271035
22516		-13.124863	8.243306	-54.347744
22517		-13.090986	8.304783	-54.405997
22518		-13.081196	8.365549	-54.457231
22519		-13.081812	8.425449	-54.504991
22520		-13.092250	8.479215	-54.548893
22521		-13.099492	8.530443	-54.582194
22522		-13.104114	8.575864	-54.601741
22523		-13.106294	8.622214	-54.614188
22524		-13.103465	8.662608	-54.622215
22525		-13.097397	8.706736	-54.624742
22526		-13.087516	8.757986	-54.619234
22527		-13.077849	8.810298	-54.609135
22528		-13.070909	8.864771	-54.596044
22529		-13.061340	8.917836	-54.585322
22530		-13.046391	8.963471	-54.575900
22531		-13.031489	8.997530	-54.573469
22532		-13.021282	9.020172	-54.573469
22533		-13.015743	9.031558	-54.574973
22534		-13.017992	9.039855	-54.573830
22535		-13.032578	9.045283	-54.573012
22536		-13.058194	9.048989	-54.569149
22537		-13.085363	9.051736	-54.565778
22538		-13.106748	9.052777	-54.564344
22539		-13.122798	9.055438	-54.565261
22540		-13.133985	9.058310	-54.567401
22541		-13.145161	9.061492	-54.569864
22542		-13.146778	9.068000	-54.572151
22543		-13.151606	9.076032	-54.574609
22544		-13.154374	9.085757	-54.572632
22545		-13.160181	9.098296	-54.571189
22546		-13.165490	9.112841	-54.569917
22547		-13.170243	9.132898	-54.572528
22548		-13.178606	9.154990	-54.576124
22549		-13.185877	9.175473	-54.585063
22550		-13.195982	9.200283	-54.590635
22551		-13.209355	9.222045	-54.593555
22552		-13.222711	9.243998	-54.593147
22553		-13.231109	9.268551	-54.592363
22554		-13.237861	9.290087	-54.593849
22555		-13.245837	9.311387	-54.600879
22556		-13.246229	9.335845	-54.613836
22557		-13.247430	9.359190	-54.625949
22558		-13.251587	9.381696	-54.639410
22559		-13.259163	9.403409	-54.649613
22560		-13.267453	9.421928	-54.657904
22561		-13.274425	9.440812	-54.664037
22562		-13.281229	9.454193	-54.667259
22563		-13.288718	9.469620	-54.667629
22564		-13.291209	9.483570	-54.671187
22565		-13.289194	9.501314	-54.671270
22566		-13.292478	9.514245	-54.670894
22567		-13.296814	9.526320	-54.672019
22568		-13.298856	9.539274	-54.673833
22569		-13.300231	9.551985	-54.680043
22570		-13.301466	9.565973	-54.685793
22571		-13.303322	9.576612	-54.691046
22572		-13.310719	9.585045	-54.692832
22573		-13.317511	9.594204	-54.693358
22574		-13.322537	9.599938	-54.694255
22575		-13.318864	9.605058	-54.691872
22576		-13.314234	9.609611	-54.687760
22577		-13.312226	9.616466	-54.684048
22578		-13.311198	9.625527	-54.676318
22579		-13.314820	9.636880	-54.665919
22580		-13.319954	9.648993	-54.649941
22581		-13.319716	9.659146	-54.631839
22582		-13.320817	9.664425	-54.612721
22583		-13.314926	9.668538	-54.594187
22584		-13.308819	9.672094	-54.573007
22585		-13.308320	9.675457	-54.549597
22586		-13.311275	9.677569	-54.524518
22587		-13.309140	9.681628	-54.499517
22588		-13.310592	9.681228	-54.479362
22589		-13.305539	9.678789	-54.468459
22590		-13.298022	9.672932	-54.458910
22591		-13.290456	9.665307	-54.449906
22592		-13.287625	9.655022	-54.436682
22593		-13.283843	9.644168	-54.418579
22594		-13.281407	9.628706	-54.396994
22595		-13.284127	9.614634	-54.377059
22596		-13.291111	9.598340	-54.355906
22597		-13.299980	9.578134	-54.339433
22598		-13.303353	9.562299	-54.322252
22599		-13.301916	9.545491	-54.309355
22600		-13.289882	9.529549	-54.299837
22601		-13.275427	9.512220	-54.292797
22602		-13.260487	9.497127	-54.283589
22603		-13.245073	9.485958	-54.271444
22604		-13.231115	9.473794	-54.255831
22605		-13.219705	9.461807	-54.236450
22606		-13.221067	9.456127	-54.213794
22607		-13.229224	9.453364	-54.189411
22608		-13.243250	9.452089	-54.164236
22609		-13.261487	9.454840	-54.140104
22610		-13.286301	9.456183	-54.118013
22611		-13.312670	9.464660	-54.099441
22612		-13.338901	9.472482	-54.087442
22613		-13.358593	9.485080	-54.085131
22614		-13.377289	9.496223	-54.084188
22615		-13.389541	9.507369	-54.087873
22616		-13.398633	9.518519	-54.091666
22617		-13.407329	9.528535	-54.092404
22618		-13.415249	9.530284	-54.090325
22619		-13.418351	9.530041	-54.089424
22620		-13.423316	9.524117	-54.087170
22621		-13.420706	9.518700	-54.089014
22622		-13.416691	9.514609	-54.088075
22623		-13.413405	9.510743	-54.091129
22624		-13.409003	9.508674	-54.095873
22625		-13.409936	9.507038	-54.099343
22626		-13.416375	9.503117	-54.099496
22627		-13.420841	9.500642	-54.094680
22628		-13.421612	9.490722	-54.089795
22629		-13.418446	9.478938	-54.080651
22630		-13.413337	9.468998	-54.073942
22631		-13.403997	9.460090	-54.072214
22632		-13.388165	9.453615	-54.077268
22633		-13.375067	9.450467	-54.090461
22634		-13.358978	9.453128	-54.101414
22635		-13.353578	9.452905	-54.116181
22636		-13.353762	9.460201	-54.137742
22637		-13.355068	9.470552	-54.158193
22638		-13.353296	9.482967	-54.178657
22639		-13.344127	9.496608	-54.195805
22640		-13.333321	9.507869	-54.210148
22641		-13.324990	9.518865	-54.227855
22642		-13.301153	9.531378	-54.250464
22643		-13.280841	9.544146	-54.275460
22644		-13.275878	9.553629	-54.293949
22645		-13.282970	9.563370	-54.307974
22646		-13.308036	9.566739	-54.319682
22647		-13.350208	9.565875	-54.326203
22648		-13.392645	9.559291	-54.326273
22649		-13.439931	9.549175	-54.322584
22650		-13.483791	9.533562	-54.309804
22651		-13.519479	9.508834	-54.292036
22652		-13.553121	9.485832	-54.269895
22653		-13.575885	9.462475	-54.237925
22654		-13.595410	9.439397	-54.192077
22655		-13.610862	9.417080	-54.134078
22656		-13.613473	9.395217	-54.062267
22657		-13.598456	9.369220	-53.977506
22658		-13.570620	9.335338	-53.880670
22659		-13.548839	9.293974	-53.773769
22660		-13.517950	9.239764	-53.659138
22661		-13.491373	9.175477	-53.539219
22662		-13.482224	9.101140	-53.411938
22663		-13.464581	9.014835	-53.280627
22664		-13.462440	8.903777	-53.143721
22665		-13.473544	8.782212	-53.005403
22666		-13.481578	8.651130	-52.861669
22667		-13.486883	8.497352	-52.724897
22668		-13.514092	8.319359	-52.602720
22669		-13.547049	8.131840	-52.473235
22670		-13.586268	7.938658	-52.328825
22671		-13.654229	7.746642	-52.175018
22672		-13.731487	7.565046	-52.004932
22673		-13.811385	7.378825	-51.822878
22674		-13.901119	7.188889	-51.639201
22675		-13.972891	6.993306	-51.451278
22676		-14.031862	6.798033	-51.263565
22677		-14.078244	6.598779	-51.076868
22678		-14.114612	6.387004	-50.889607
22679		-14.162481	6.176693	-50.694600
22680		-14.202658	5.956887	-50.495150
22681		-14.228019	5.731739	-50.292126
22682		-14.243134	5.504736	-50.074774
22683		-14.252224	5.276954	-49.849130
22684		-14.270581	5.053813	-49.614651
22685		-14.295039	4.831829	-49.365435
22686		-14.319942	4.605498	-49.107316
22687		-14.353826	4.394231	-48.844124
22688		-14.380166	4.190366	-48.570809
22689		-14.412167	3.984408	-48.292796
22690		-14.453581	3.792746	-48.009834
22691		-14.487574	3.609269	-47.715855
22692		-14.516409	3.423597	-47.417600
22693		-14.548816	3.251209	-47.123930
22694		-14.584411	3.094541	-46.831695
22695		-14.630327	2.943390	-46.536288
22696		-14.684063	2.804675	-46.240147
22697		-14.742462	2.682125	-45.939192
22698		-14.803866	2.566007	-45.636390
22699		-14.869924	2.457666	-45.338819
22700		-14.932797	2.351521	-45.039872
22701		-14.995105	2.257063	-44.749031
22702		-15.048787	2.165699	-44.452026
22703		-15.105874	2.071134	-44.156576
22704		-15.158699	1.988239	-43.865116
22705		-15.212761	1.915612	-43.578369
22706		-15.250616	1.857009	-43.290027
22707		-15.282900	1.805374	-43.000222
22708		-15.310658	1.761363	-42.712546
22709		-15.330053	1.724696	-42.424056
22710		-15.344681	1.694325	-42.142672
22711		-15.339933	1.671111	-41.863338
22712		-15.338994	1.647768	-41.585226
22713		-15.337793	1.637329	-41.312264
22714		-15.325787	1.644171	-41.035960
22715		-15.310794	1.652512	-40.751538
22716		-15.300697	1.662233	-40.468786
22717		-15.289616	1.689356	-40.191505
22718		-15.272379	1.724592	-39.917031
22719		-15.266242	1.772072	-39.637834
22720		-15.252695	1.832215	-39.346263
22721		-15.252626	1.902762	-39.051111
22722		-15.259070	1.992059	-38.749900
22723		-15.276540	2.094781	-38.444449
22724		-15.324708	2.180979	-38.143119
22725		-15.388222	2.246887	-37.852905
22726		-15.433984	2.303778	-37.576031
22727		-15.455670	2.344495	-37.316475
22728		-15.455169	2.384803	-37.066943
22729		-15.453734	2.422775	-36.828952
22730		-15.422293	2.468771	-36.606224
22731		-15.362989	2.522213	-36.385176
22732		-15.306225	2.570345	-36.160713
22733		-15.248550	2.619160	-35.932304
22734		-15.196946	2.662877	-35.702684
22735		-15.142669	2.692178	-35.476033
22736		-15.083433	2.706542	-35.255895
22737		-15.017364	2.707869	-35.039284
22738		-14.939940	2.702570	-34.825566
22739		-14.859346	2.699423	-34.614811
22740		-14.786224	2.701475	-34.406034
22741		-14.710714	2.712467	-34.197504
22742		-14.624089	2.726659	-33.986927
22743		-14.535811	2.737335	-33.773066
22744		-14.450213	2.743751	-33.561762
22745		-14.371129	2.742282	-33.358616
22746		-14.308070	2.729710	-33.164154
22747		-14.249854	2.713276	-32.971098
22748		-14.193417	2.699515	-32.782705
22749		-14.146871	2.681882	-32.595279
22750		-14.096685	2.669289	-32.414732
22751		-14.041990	2.669160	-32.241639
22752		-13.978705	2.664587	-32.077636
22753		-13.912444	2.659763	-31.922165
22754		-13.852339	2.645342	-31.770800
22755		-13.789018	2.621878	-31.625338
22756		-13.723104	2.599956	-31.481606
22757		-13.669718	2.580688	-31.343922
22758		-13.604338	2.562444	-31.208749
22759		-13.545374	2.543686	-31.070932
22760		-13.493049	2.524633	-30.935260
22761		-13.426074	2.507944	-30.805338
22762		-13.346105	2.492903	-30.678485
22763		-13.268648	2.480384	-30.551932
22764		-13.185703	2.472114	-30.427974
22765		-13.107576	2.460261	-30.306458
22766		-13.039590	2.445020	-30.187010
22767		-12.979838	2.428523	-30.070132
22768		-12.926777	2.415096	-29.955368
22769		-12.881019	2.398708	-29.845147
22770		-12.809445	2.381112	-29.738100
22771		-12.744132	2.364850	-29.640228
22772		-12.669691	2.348746	-29.551979
22773		-12.592948	2.331742	-29.469171
22774		-12.516397	2.308137	-29.387103
22775		-12.450727	2.278553	-29.312015
22776		-12.401506	2.239972	-29.238306
22777		-12.370249	2.203266	-29.170175
22778		-12.361939	2.163681	-29.119145
22779		-12.366577	2.141548	-29.090999
22780		-12.374874	2.142084	-29.079707
22781		-12.378333	2.151400	-29.079823
22782		-12.371383	2.167213	-29.088724
22783		-12.360101	2.179954	-29.102298
22784		-12.351800	2.188645	-29.121587
22785		-12.348449	2.194856	-29.142564
22786		-12.346426	2.197282	-29.160293
22787		-12.353070	2.193044	-29.173193
22788		-12.359320	2.183611	-29.181316
22789		-12.371560	2.173735	-29.190215
22790		-12.383102	2.162143	-29.199476
22791		-12.400148	2.155964	-29.213128
22792		-12.423295	2.155201	-29.230755
22793		-12.437718	2.164408	-29.250808
22794		-12.449997	2.171511	-29.273586
22795		-12.459527	2.181544	-29.297743
22796		-12.471898	2.195755	-29.326973
22797		-12.487272	2.218130	-29.360620
22798		-12.507714	2.245480	-29.393061
22799		-12.529266	2.281255	-29.421861
22800		-12.554251	2.320255	-29.446091
22801		-12.586251	2.351769	-29.466846
22802		-12.608089	2.385778	-29.488189
22803		-12.621268	2.414771	-29.510371
22804		-12.625945	2.440700	-29.528176
22805		-12.620173	2.462097	-29.537556
22806		-12.609359	2.479958	-29.545700
22807		-12.597505	2.499416	-29.557239
22808		-12.591893	2.524141	-29.570762
22809		-12.586551	2.549063	-29.579205
22810		-12.583431	2.575064	-29.583899
22811		-12.574951	2.597374	-29.582483
22812		-12.565364	2.616269	-29.580651
22813		-12.554991	2.627992	-29.576730
22814		-12.553319	2.642189	-29.576942
22815		-12.550682	2.663925	-29.579130
22816		-12.549548	2.682140	-29.579197
22817		-12.551361	2.695464	-29.574315
22818		-12.549086	2.710060	-29.567801
22819		-12.547236	2.725809	-29.557594
22820		-12.538806	2.737848	-29.550431
22821		-12.533090	2.753177	-29.541082
22822		-12.535698	2.775930	-29.534886
22823		-12.535518	2.801711	-29.529833
22824		-12.534594	2.828263	-29.526097
22825		-12.518325	2.855500	-29.524716
22826		-12.507413	2.885406	-29.522539
22827		-12.491603	2.914568	-29.512990
22828		-12.480215	2.943295	-29.510355
22829		-12.466752	2.968907	-29.511265
22830		-12.454506	2.994692	-29.520858
22831		-12.458127	3.026337	-29.536366
22832		-12.465947	3.064137	-29.554210
22833		-12.472149	3.101713	-29.572063
22834		-12.472468	3.133067	-29.583848
22835		-12.473372	3.164610	-29.585310
22836		-12.470620	3.190282	-29.586049
22837		-12.466857	3.211042	-29.586828
22838		-12.460957	3.230172	-29.590851
22839		-12.454686	3.247039	-29.599410
22840		-12.445143	3.264482	-29.609092
22841		-12.433342	3.285962	-29.621867
22842		-12.425561	3.311234	-29.640045
22843		-12.411757	3.340411	-29.657162
22844		-12.409692	3.367052	-29.675579
22845		-12.411321	3.393601	-29.694194
22846		-12.413963	3.417218	-29.717390
22847		-12.416429	3.445838	-29.738117
22848		-12.417613	3.477180	-29.760772
22849		-12.417196	3.516692	-29.785093
22850		-12.415432	3.558442	-29.810690
22851		-12.408031	3.605161	-29.836834
22852		-12.400372	3.644668	-29.860551
22853		-12.401485	3.682011	-29.885154
22854		-12.393482	3.717965	-29.909843
22855		-12.388421	3.752975	-29.937947
22856		-12.382319	3.793746	-29.969759
22857		-12.373337	3.837545	-30.005895
22858		-12.367460	3.879146	-30.042608
22859		-12.370234	3.926650	-30.082954
22860		-12.381681	3.978124	-30.121356
22861		-12.394472	4.030043	-30.158950
22862		-12.404209	4.066076	-30.192272
22863		-12.421972	4.099942	-30.221390
22864		-12.441944	4.126842	-30.245997
22865		-12.454335	4.146204	-30.269409
22866		-12.458086	4.162779	-30.293869
22867		-12.449962	4.179638	-30.327089
22868		-12.436780	4.204613	-30.363755
22869		-12.424644	4.235151	-30.400684
22870		-12.419306	4.268559	-30.438147
22871		-12.416866	4.297523	-30.474976
22872		-12.412555	4.319635	-30.513937
22873		-12.410418	4.336485	-30.555500
22874		-12.406323	4.354012	-30.599346
22875		-12.400027	4.373350	-30.649462
22876		-12.387216	4.391517	-30.697744
22877		-12.374150	4.411958	-30.743952
22878		-12.358529	4.431444	-30.785621
22879		-12.338077	4.443771	-30.824430
22880		-12.315594	4.451033	-30.861346
22881		-12.296915	4.450374	-30.894380
22882		-12.277829	4.445633	-30.926182
22883		-12.256689	4.450608	-30.959572
22884		-12.233035	4.454948	-30.992703
22885		-12.208679	4.458279	-31.026754
22886		-12.191671	4.457839	-31.059676
22887		-12.204637	4.462394	-31.097665
22888		-12.226301	4.466042	-31.136376
22889		-12.264934	4.460343	-31.175630
22890		-12.303850	4.455365	-31.221516
22891		-12.339193	4.457772	-31.281986
22892		-12.393300	4.467216	-31.349999
22893		-12.458450	4.474044	-31.423813
22894		-12.527696	4.472781	-31.499800
22895		-12.604246	4.466235	-31.580392
22896		-12.673095	4.459107	-31.666119
22897		-12.729126	4.444413	-31.754429
22898		-12.781817	4.417125	-31.841468
22899		-12.814186	4.388487	-31.934340
22900		-12.841566	4.367527	-32.033414
22901		-12.884255	4.344424	-32.140266
22902		-12.945009	4.329839	-32.267302
22903		-13.018775	4.308326	-32.399871
22904		-13.095816	4.269790	-32.542657
22905		-13.157502	4.224122	-32.690429
22906		-13.234411	4.172512	-32.849284
22907		-13.314395	4.134568	-33.013177
22908		-13.395539	4.100849	-33.181522
22909		-13.479570	4.068020	-33.356403
22910		-13.548703	4.032822	-33.536313
22911		-13.626255	3.968559	-33.722187
22912		-13.704723	3.910592	-33.921158
22913		-13.754684	3.855441	-34.123556
22914		-13.790437	3.791862	-34.322915
22915		-13.805817	3.726780	-34.514664
22916		-13.827723	3.658017	-34.696659
22917		-13.837955	3.586721	-34.870405
22918		-13.836832	3.510672	-35.035919
22919		-13.840589	3.446662	-35.198909
22920		-13.842058	3.397386	-35.365611
22921		-13.840325	3.349816	-35.537776
22922		-13.828032	3.303891	-35.720073
22923		-13.808826	3.257527	-35.910809
22924		-13.789849	3.210872	-36.110220
22925		-13.775272	3.165113	-36.315848
22926		-13.772040	3.124923	-36.524037
22927		-13.781002	3.102085	-36.738659
22928		-13.804626	3.093012	-36.961005
22929		-13.841839	3.096200	-37.189438
22930		-13.883153	3.105208	-37.423500
22931		-13.929396	3.115100	-37.665815
22932		-13.976407	3.124431	-37.917096
22933		-14.024632	3.136787	-38.179625
22934		-14.070751	3.148319	-38.448306
22935		-14.117405	3.159199	-38.720638
22936		-14.167459	3.170072	-38.994987
22937		-14.217939	3.181010	-39.265062
22938		-14.272667	3.182148	-39.527596
22939		-14.325467	3.173755	-39.781185
22940		-14.372760	3.158572	-40.023114
22941		-14.430201	3.136226	-40.252640
22942		-14.498199	3.105819	-40.473703
22943		-14.556457	3.080682	-40.682258
22944		-14.597666	3.057833	-40.888818
22945		-14.633921	3.042012	-41.106793
22946		-14.669263	3.030535	-41.334628
22947		-14.703890	3.031670	-41.575444
22948		-14.739034	3.048645	-41.838389
22949		-14.761936	3.087894	-42.126168
22950		-14.776514	3.144861	-42.437149
22951		-14.785093	3.215353	-42.761647
22952		-14.790563	3.291309	-43.089763
22953		-14.789849	3.380434	-43.406934
22954		-14.793964	3.478116	-43.707285
22955		-14.820842	3.577331	-43.990360
22956		-14.871190	3.679155	-44.252351
22957		-14.937599	3.780625	-44.507531
22958		-14.996534	3.886750	-44.758558
22959		-15.026910	4.008071	-45.013480
22960		-15.040720	4.138282	-45.281021
22961		-15.042064	4.277241	-45.564114
22962		-15.032559	4.412365	-45.855837
22963		-15.012187	4.538238	-46.149249
22964		-14.973428	4.659521	-46.438915
22965		-14.936332	4.780670	-46.725364
22966		-14.900010	4.895195	-47.004656
22967		-14.870697	5.006610	-47.280970
22968		-14.834530	5.116653	-47.544765
22969		-14.792438	5.227394	-47.798591
22970		-14.760761	5.340782	-48.047071
22971		-14.722473	5.449469	-48.290930
22972		-14.683607	5.554603	-48.536456
22973		-14.647152	5.649156	-48.779396
22974		-14.602777	5.738949	-49.016207
22975		-14.555945	5.817393	-49.246738
22976		-14.510237	5.887811	-49.467424
22977		-14.451329	5.954797	-49.676208
22978		-14.393852	6.016831	-49.876240
22979		-14.323156	6.082020	-50.060237
22980		-14.263107	6.149107	-50.236894
22981		-14.212339	6.214625	-50.411751
22982		-14.167213	6.278480	-50.578732
22983		-14.122530	6.345941	-50.740920
22984		-14.090526	6.413069	-50.899683
22985		-14.065042	6.484231	-51.052746
22986		-14.043596	6.558974	-51.199100
22987		-14.026977	6.632719	-51.335787
22988		-13.991392	6.708319	-51.473517
22989		-13.942446	6.784998	-51.608853
22990		-13.882776	6.862624	-51.733871
22991		-13.810809	6.946953	-51.848460
22992		-13.738976	7.026886	-51.954828
22993		-13.666204	7.098941	-52.047156
22994		-13.598411	7.162144	-52.127285
22995		-13.525828	7.229018	-52.191499
22996		-13.446972	7.293977	-52.233376
22997		-13.373602	7.359316	-52.266911
22998		-13.310430	7.417085	-52.293910
22999		-13.255920	7.478286	-52.316942
23000		-13.221448	7.536635	-52.333719
23001		-13.206434	7.587365	-52.343887
23002		-13.197521	7.629691	-52.347593
23003		-13.190939	7.664355	-52.347778
23004		-13.179310	7.691316	-52.345564
23005		-13.171080	7.710480	-52.342163
23006		-13.162189	7.724427	-52.338978
23007		-13.155516	7.735707	-52.332458
23008		-13.148113	7.746444	-52.324406
23009		-13.139109	7.754753	-52.314942
23010		-13.129173	7.763943	-52.304074
23011		-13.118706	7.770276	-52.292062
23012		-13.106007	7.777520	-52.280940
23013		-13.092278	7.786833	-52.270614
23014		-13.077159	7.798138	-52.261390
23015		-13.064486	7.809006	-52.256042
23016		-13.051648	7.821471	-52.252190
23017		-13.043580	7.833126	-52.249963
23018		-13.038785	7.841045	-52.248623
23019		-13.033447	7.851110	-52.246546
23020		-13.022319	7.859550	-52.241870
23021		-13.012144	7.869196	-52.238273
23022		-13.004079	7.883547	-52.231415
23023		-12.998674	7.901251	-52.223458
23024		-12.997782	7.922203	-52.219115
23025		-13.001197	7.940978	-52.217205
23026		-13.006646	7.964682	-52.214180
23027		-13.012648	7.981464	-52.210358
23028		-13.008981	7.997550	-52.209930
23029		-13.004324	8.012698	-52.210327
23030		-12.992657	8.028513	-52.213898
23031		-12.987535	8.044175	-52.216538
23032		-12.984152	8.061887	-52.218654
23033		-12.984139	8.079979	-52.222899
23034		-12.986740	8.100918	-52.228351
23035		-12.989507	8.121694	-52.228824
23036		-12.995738	8.143235	-52.228447
23037		-12.997464	8.165372	-52.226298
23038		-12.998708	8.184456	-52.224572
23039		-13.000819	8.201203	-52.223695
23040		-13.003682	8.216620	-52.223254
23041		-13.010468	8.231952	-52.222705
23042		-13.017860	8.249438	-52.222657
23043		-13.026937	8.263693	-52.223264
23044		-13.036754	8.275460	-52.222345
23045		-13.041498	8.286018	-52.223361
23046		-13.040895	8.299876	-52.225872
23047		-13.032835	8.313881	-52.226919
23048		-13.024418	8.326062	-52.224925
23049		-13.019862	8.337714	-52.224313
23050		-13.018016	8.348938	-52.223636
23051		-13.012645	8.359754	-52.222223
23052		-13.008784	8.370571	-52.227441
23053		-13.008969	8.383915	-52.229801
23054		-13.011796	8.400284	-52.232330
23055		-13.014693	8.416870	-52.227410
23056		-13.017296	8.430247	-52.218873
23057		-13.013655	8.443570	-52.208156
23058		-13.004057	8.451992	-52.193122
23059		-12.998645	8.460868	-52.177588
23060		-12.990475	8.470265	-52.158592
23061		-12.989026	8.478747	-52.142734
23062		-12.992044	8.488294	-52.122548
23063		-12.995601	8.497141	-52.102223
23064		-12.996127	8.501601	-52.082558
23065		-12.988647	8.503436	-52.062084
23066		-12.977776	8.500879	-52.033754
23067		-12.957338	8.494886	-52.000099
23068		-12.931738	8.489802	-51.956446
23069		-12.905272	8.483314	-51.900152
23070		-12.885607	8.480884	-51.839127
23071		-12.880026	8.481250	-51.775085
23072		-12.879774	8.481398	-51.708820
23073		-12.886780	8.479204	-51.647668
23074		-12.900307	8.473674	-51.595864
23075		-12.915204	8.466138	-51.554119
23076		-12.928158	8.454522	-51.524738
23077		-12.948354	8.444618	-51.506163
23078		-12.975726	8.433708	-51.490859
23079		-13.008171	8.427786	-51.476805
23080		-13.046547	8.426040	-51.459476
23081		-13.082745	8.427549	-51.441457
23082		-13.108126	8.430758	-51.424294
23083		-13.119845	8.432812	-51.416039
23084		-13.120347	8.434279	-51.408763
23085		-13.112621	8.434578	-51.408841
23086		-13.102547	8.431570	-51.408928
23087		-13.096766	8.427764	-51.406902
23088		-13.098324	8.422005	-51.405346
23089		-13.100898	8.417663	-51.404702
23090		-13.104665	8.415304	-51.408322
23091		-13.102959	8.414564	-51.414492
23092		-13.087999	8.412331	-51.422895
23093		-13.067941	8.409462	-51.430488
23094		-13.038724	8.405778	-51.428817
23095		-13.014628	8.405109	-51.427725
23096		-12.996206	8.404574	-51.425366
23097		-12.991289	8.403533	-51.423146
23098		-12.994207	8.403308	-51.420695
23099		-12.995624	8.402042	-51.423820
23100		-13.008239	8.393983	-51.430790
23101		-13.029534	8.377791	-51.444287
23102		-13.053226	8.352392	-51.470161
23103		-13.070580	8.319764	-51.508576
23104		-13.071465	8.282484	-51.560204
23105		-13.053886	8.251949	-51.621523
23106		-13.014776	8.233832	-51.680396
23107		-12.967602	8.225071	-51.733305
23108		-12.946378	8.224591	-51.783426
23109		-12.948503	8.232626	-51.833683
23110		-12.953115	8.242434	-51.880355
23111		-12.964511	8.250967	-51.924456
23112		-12.970146	8.257496	-51.967426
23113		-12.964996	8.266353	-52.011892
23114		-12.949352	8.277259	-52.058093
23115		-12.924613	8.293983	-52.107420
23116		-12.885846	8.322991	-52.149400
23117		-12.864061	8.362143	-52.194666
23118		-12.863738	8.399701	-52.239123
23119		-12.888856	8.432111	-52.283262
23120		-12.938384	8.455767	-52.327653
23121		-12.998832	8.468569	-52.372157
23122		-13.054964	8.462705	-52.417829
23123		-13.104590	8.440996	-52.460075
23124		-13.147658	8.408364	-52.504288
23125		-13.198060	8.367686	-52.547709
23126		-13.251476	8.325078	-52.590884
23127		-13.297640	8.280183	-52.629374
23128		-13.336744	8.231458	-52.660600
23129		-13.391872	8.178170	-52.684020
23130		-13.456892	8.125932	-52.694246
23131		-13.527420	8.067402	-52.695021
23132		-13.593399	8.004674	-52.689389
23133		-13.657983	7.936802	-52.684117
23134		-13.706104	7.858078	-52.675751
23135		-13.717668	7.772647	-52.662410
23136		-13.715721	7.685515	-52.638694
23137		-13.713334	7.593423	-52.609385
23138		-13.715890	7.499833	-52.573757
23139		-13.730064	7.400228	-52.540590
23140		-13.752212	7.295075	-52.508261
23141		-13.790245	7.175688	-52.478880
23142		-13.839482	7.042020	-52.449217
23143		-13.894171	6.897956	-52.421456
23144		-13.944094	6.744521	-52.392287
23145		-13.985606	6.578255	-52.363719
23146		-14.003745	6.403158	-52.330808
23147		-14.002488	6.219165	-52.290782
23148		-14.004013	6.019769	-52.245830
23149		-14.008134	5.820047	-52.192914
23150		-14.007706	5.622837	-52.131685
23151		-14.014653	5.427571	-52.055632
23152		-14.024123	5.235208	-51.967043
23153		-14.032430	5.045427	-51.870881
23154		-14.038063	4.855933	-51.763125
23155		-14.043171	4.663221	-51.650249
23156		-14.048013	4.475456	-51.531340
23157		-14.065159	4.295745	-51.406011
23158		-14.088043	4.115459	-51.266959
23159		-14.109202	3.942953	-51.124078
23160		-14.134867	3.774149	-50.973915
23161		-14.160701	3.604311	-50.814104
23162		-14.195238	3.434055	-50.643991
23163		-14.240352	3.270588	-50.473833
23164		-14.303982	3.109737	-50.293735
23165		-14.368870	2.948910	-50.102349
23166		-14.420604	2.798867	-49.908201
23167		-14.470034	2.666072	-49.715023
23168		-14.513701	2.541667	-49.517559
23169		-14.565653	2.417288	-49.320896
23170		-14.629870	2.303819	-49.119982
23171		-14.707046	2.192770	-48.910783
23172		-14.798369	2.079321	-48.696590
23173		-14.898411	1.968076	-48.484007
23174		-14.991479	1.865349	-48.269758
23175		-15.076657	1.763486	-48.057655
23176		-15.155049	1.677369	-47.850908
23177		-15.215981	1.597837	-47.645441
23178		-15.263498	1.518698	-47.436966
23179		-15.312287	1.451289	-47.228075
23180		-15.365022	1.387044	-47.010430
23181		-15.419611	1.319595	-46.783607
23182		-15.474515	1.260515	-46.560247
23183		-15.517193	1.205362	-46.335413
23184		-15.550252	1.153418	-46.108681
23185		-15.581171	1.103092	-45.877375
23186		-15.614807	1.055357	-45.638632
23187		-15.663280	1.015637	-45.394147
23188		-15.703101	0.985450	-45.146154
23189		-15.735341	0.966286	-44.898698
23190		-15.757729	0.958622	-44.649773
23191		-15.771766	0.956977	-44.399688
23192		-15.789902	0.964254	-44.151055
23193		-15.800456	0.981108	-43.905014
23194		-15.816905	0.997410	-43.660403
23195		-15.838708	0.998614	-43.413885
23196		-15.851897	0.993099	-43.166823
23197		-15.867652	0.988422	-42.921325
23198		-15.869464	0.987378	-42.669912
23199		-15.863207	0.990484	-42.420265
23200		-15.855238	0.993188	-42.170541
23201		-15.824604	0.995590	-41.920380
23202		-15.793684	0.994741	-41.671744
23203		-15.761354	0.991228	-41.431904
23204		-15.720185	0.981231	-41.198776
23205		-15.688749	0.965428	-40.970560
23206		-15.658362	0.949088	-40.746984
23207		-15.628384	0.935311	-40.520569
23208		-15.607381	0.914953	-40.288601
23209		-15.588284	0.894500	-40.057589
23210		-15.570267	0.879734	-39.826337
23211		-15.549279	0.865448	-39.592960
23212		-15.525437	0.854332	-39.361422
23213		-15.506688	0.840811	-39.131077
23214		-15.485375	0.828371	-38.903087
23215		-15.453525	0.818989	-38.677163
23216		-15.413810	0.809111	-38.452285
23217		-15.359235	0.802197	-38.230031
23218		-15.310726	0.788030	-38.010005
23219		-15.270822	0.780716	-37.787298
23220		-15.230059	0.781105	-37.568732
23221		-15.185431	0.793215	-37.348762
23222		-15.134130	0.810018	-37.128291
23223		-15.098005	0.831128	-36.907489
23224		-15.061658	0.859981	-36.689757
23225		-15.013502	0.892673	-36.473265
23226		-14.985581	0.915460	-36.253787
23227		-14.959922	0.944180	-36.038487
23228		-14.925115	0.981938	-35.832461
23229		-14.880871	1.028819	-35.636795
23230		-14.831832	1.085378	-35.447406
23231		-14.793777	1.147726	-35.255523
23232		-14.757710	1.205369	-35.057664
23233		-14.719407	1.274002	-34.853511
23234		-14.683527	1.352687	-34.645993
23235		-14.657199	1.425105	-34.440541
23236		-14.619115	1.479812	-34.238984
23237		-14.568414	1.518751	-34.039576
23238		-14.496883	1.549243	-33.839482
23239		-14.426788	1.572740	-33.641599
23240		-14.365882	1.599785	-33.443937
23241		-14.283578	1.630530	-33.245695
23242		-14.198000	1.673373	-33.047180
23243		-14.107095	1.711016	-32.850899
23244		-14.013457	1.727480	-32.659628
23245		-13.921042	1.738420	-32.473102
23246		-13.841311	1.750576	-32.290605
23247		-13.773635	1.763570	-32.112820
23248		-13.704115	1.779638	-31.939265
23249		-13.640230	1.799132	-31.770250
23250		-13.573017	1.816536	-31.604827
23251		-13.511070	1.824803	-31.449783
23252		-13.452855	1.825623	-31.312327
23253		-13.390190	1.828517	-31.190666
23254		-13.324147	1.832847	-31.079932
23255		-13.256888	1.837885	-30.975200
23256		-13.191795	1.838867	-30.870764
23257		-13.140455	1.833841	-30.763784
23258		-13.102421	1.829719	-30.660095
23259		-13.079006	1.823485	-30.571771
23260		-13.061988	1.826187	-30.504976
23261		-13.035647	1.832221	-30.452168
23262		-13.013408	1.842005	-30.410451
23263		-13.004068	1.856459	-30.383320
23264		-13.004363	1.883449	-30.369591
23265		-12.999539	1.916482	-30.362504
23266		-12.989296	1.948888	-30.360047
23267		-12.979889	1.978598	-30.360445
23268		-12.965315	2.002940	-30.365114
23269		-12.954963	2.018647	-30.374457
23270		-12.944339	2.036279	-30.386811
23271		-12.935104	2.054945	-30.405459
23272		-12.929697	2.068744	-30.429415
23273		-12.916168	2.079121	-30.450988
23274		-12.904905	2.080413	-30.466179
23275		-12.897836	2.082278	-30.477799
23276		-12.883438	2.086760	-30.485311
23277		-12.879183	2.091419	-30.492476
23278		-12.872686	2.103908	-30.498818
23279		-12.862986	2.115347	-30.504432
23280		-12.857268	2.124304	-30.510782
23281		-12.848416	2.132567	-30.519353
23282		-12.840831	2.142760	-30.524697
23283		-12.828623	2.151951	-30.532124
23284		-12.809770	2.162311	-30.535563
23285		-12.807812	2.176132	-30.537790
23286		-12.801983	2.194173	-30.535708
23287		-12.801015	2.214597	-30.535535
23288		-12.791416	2.230426	-30.536257
23289		-12.777622	2.245806	-30.536768
23290		-12.759589	2.257321	-30.535384
23291		-12.742615	2.266240	-30.535955
23292		-12.727953	2.274713	-30.539002
23293		-12.720470	2.296101	-30.552051
23294		-12.708930	2.324577	-30.570946
23295		-12.700386	2.359242	-30.589146
23296		-12.690252	2.394994	-30.603030
23297		-12.681259	2.425422	-30.614059
23298		-12.670401	2.444387	-30.624581
23299		-12.655515	2.455437	-30.631735
23300		-12.647098	2.464079	-30.641065
23301		-12.642352	2.470417	-30.652575
23302		-12.633756	2.473362	-30.657635
23303		-12.623345	2.475434	-30.659840
23304		-12.616113	2.480229	-30.654404
23305		-12.609885	2.492360	-30.647163
23306		-12.599512	2.508314	-30.640181
23307		-12.588003	2.522086	-30.630326
23308		-12.576716	2.538287	-30.617685
23309		-12.562392	2.556311	-30.600208
23310		-12.549257	2.573301	-30.580368
23311		-12.542790	2.591282	-30.561283
23312		-12.532284	2.608463	-30.541761
23313		-12.516906	2.623439	-30.518824
23314		-12.495357	2.640784	-30.492025
23315		-12.472450	2.658214	-30.464149
23316		-12.440788	2.669889	-30.428193
23317		-12.407808	2.674035	-30.385609
23318		-12.375017	2.675682	-30.346620
23319		-12.347312	2.680151	-30.310520
23320		-12.338524	2.687010	-30.276780
23321		-12.327640	2.697412	-30.244324
23322		-12.320194	2.709261	-30.209014
23323		-12.320452	2.721489	-30.170647
23324		-12.321829	2.732954	-30.131661
23325		-12.323757	2.741049	-30.090431
23326		-12.327716	2.745489	-30.055914
23327		-12.343226	2.750977	-30.027414
23328		-12.366600	2.762641	-30.009171
23329		-12.391688	2.771612	-30.001546
23330		-12.412928	2.782715	-29.997224
23331		-12.430085	2.797115	-29.998709
23332		-12.443644	2.810746	-29.997029
23333		-12.452411	2.825056	-29.996847
23334		-12.456601	2.843027	-29.999699
23335		-12.456617	2.868293	-30.004326
23336		-12.453342	2.891640	-30.009292
23337		-12.447571	2.913014	-30.016324
23338		-12.437349	2.932942	-30.025291
23339		-12.425695	2.952923	-30.033025
23340		-12.408216	2.975812	-30.040152
23341		-12.388631	3.001977	-30.042028
23342		-12.368991	3.029916	-30.041614
23343		-12.346303	3.061903	-30.036350
23344		-12.326367	3.093354	-30.025293
23345		-12.306600	3.130014	-30.010505
23346		-12.299647	3.166717	-29.995429
23347		-12.286143	3.206136	-29.987754
23348		-12.267382	3.240036	-29.979771
23349		-12.243883	3.272519	-29.975364
23350		-12.220621	3.302924	-29.972887
23351		-12.209448	3.332638	-29.972115
23352		-12.201716	3.361264	-29.970093
23353		-12.191294	3.392531	-29.968444
23354		-12.171308	3.427015	-29.969554
23355		-12.155305	3.459911	-29.972454
23356		-12.133073	3.490396	-29.979745
23357		-12.119230	3.520010	-29.986208
23358		-12.100353	3.561659	-29.990919
23359		-12.083402	3.604675	-29.989951
23360		-12.064869	3.641612	-29.988820
23361		-12.043603	3.678554	-29.987400
23362		-12.027146	3.714541	-29.986092
23363		-12.018571	3.749071	-29.983944
23364		-12.008084	3.782074	-29.985380
23365		-11.989710	3.814830	-29.988044
23366		-11.971132	3.851962	-29.994297
23367		-11.948428	3.896726	-30.004028
23368		-11.923669	3.949004	-30.016650
23369		-11.898319	4.007991	-30.030718
23370		-11.872957	4.071255	-30.046620
23371		-11.858241	4.133525	-30.068526
23372		-11.851212	4.181280	-30.091162
23373		-11.850500	4.231316	-30.107469
23374		-11.852177	4.285295	-30.119517
23375		-11.852872	4.335130	-30.127473
23376		-11.847392	4.384673	-30.134353
23377		-11.836546	4.431479	-30.139910
23378		-11.820932	4.475991	-30.145706
23379		-11.801880	4.521987	-30.152993
23380		-11.782264	4.571192	-30.167219
23381		-11.762203	4.624947	-30.180818
23382		-11.741166	4.680828	-30.194206
23383		-11.710284	4.732542	-30.204140
23384		-11.668296	4.784181	-30.211845
23385		-11.626759	4.837348	-30.227490
23386		-11.592034	4.886756	-30.256064
23387		-11.560572	4.926106	-30.287932
23388		-11.528338	4.951724	-30.321952
23389		-11.502169	4.970306	-30.359050
23390		-11.474763	4.988566	-30.400339
23391		-11.450103	5.014924	-30.447375
23392		-11.423203	5.043904	-30.500979
23393		-11.392051	5.074964	-30.557959
23394		-11.358676	5.099049	-30.621879
23395		-11.318866	5.111634	-30.690293
23396		-11.278890	5.116480	-30.764164
23397		-11.254879	5.113934	-30.847702
23398		-11.250439	5.107759	-30.937661
23399		-11.252511	5.097632	-31.029037
23400		-11.254754	5.085046	-31.123968
23401		-11.253708	5.071519	-31.219893
23402		-11.250758	5.056281	-31.320932
23403		-11.251005	5.037871	-31.422404
23404		-11.259106	5.014928	-31.527775
23405		-11.272199	4.985735	-31.638314
23406		-11.297017	4.953969	-31.753955
23407		-11.323159	4.929701	-31.875201
23408		-11.348467	4.914779	-32.000773
23409		-11.377295	4.899447	-32.122886
23410		-11.404272	4.882337	-32.239213
23411		-11.433683	4.867351	-32.351771
23412		-11.487421	4.847609	-32.467708
23413		-11.546532	4.835206	-32.590541
23414		-11.599898	4.839345	-32.721951
23415		-11.652880	4.860663	-32.858044
23416		-11.707024	4.892426	-32.997613
23417		-11.763645	4.937350	-33.144277
23418		-11.834029	4.987288	-33.293628
23419		-11.922819	5.035328	-33.448365
23420		-12.035783	5.079357	-33.602989
23421		-12.171679	5.106729	-33.757183
23422		-12.306778	5.111347	-33.912044
23423		-12.446103	5.106884	-34.075288
23424		-12.553011	5.102894	-34.250919
23425		-12.626394	5.100820	-34.430727
23426		-12.674494	5.094381	-34.607741
23427		-12.704286	5.100498	-34.783764
23428		-12.729182	5.117392	-34.955786
23429		-12.767685	5.139853	-35.118296
23430		-12.806267	5.151217	-35.265324
23431		-12.851287	5.152219	-35.393582
23432		-12.895664	5.145839	-35.505864
23433		-12.934850	5.122941	-35.605154
23434		-12.969742	5.092512	-35.703368
23435		-12.995117	5.056817	-35.809145
23436		-13.017636	5.020021	-35.923228
23437		-13.040560	4.985908	-36.043802
23438		-13.062401	4.953765	-36.165045
23439		-13.089183	4.918909	-36.291132
23440		-13.122901	4.885775	-36.425848
23441		-13.164204	4.862379	-36.571645
23442		-13.215052	4.846580	-36.728821
23443		-13.268215	4.838244	-36.891329
23444		-13.324863	4.835054	-37.048869
23445		-13.380439	4.834818	-37.196231
23446		-13.422353	4.834951	-37.347482
23447		-13.469149	4.832014	-37.501567
23448		-13.517477	4.827728	-37.667406
23449		-13.572523	4.815760	-37.850127
23450		-13.638259	4.796042	-38.041798
23451		-13.709764	4.775813	-38.244843
23452		-13.791997	4.756068	-38.454506
23453		-13.878652	4.729836	-38.668868
23454		-13.967199	4.710783	-38.891265
23455		-14.040316	4.698893	-39.127703
23456		-14.103871	4.697004	-39.372164
23457		-14.156791	4.690083	-39.619626
23458		-14.193268	4.678163	-39.859555
23459		-14.182766	4.645416	-40.082077
23460		-14.166834	4.619400	-40.292027
23461		-14.166483	4.612388	-40.502843
23462		-14.188043	4.620997	-40.714271
23463		-14.222002	4.640996	-40.931221
23464		-14.260761	4.669846	-41.156057
23465		-14.295478	4.705346	-41.385043
23466		-14.329251	4.739350	-41.621134
23467		-14.355000	4.770375	-41.859656
23468		-14.370101	4.797082	-42.094517
23469		-14.377451	4.829781	-42.326872
23470		-14.389847	4.870173	-42.548440
23471		-14.395686	4.919523	-42.759071
23472		-14.401001	4.969802	-42.964405
23473		-14.410182	5.026203	-43.173065
23474		-14.420992	5.085398	-43.384568
23475		-14.429845	5.145049	-43.594109
23476		-14.437114	5.206670	-43.807614
23477		-14.447297	5.281979	-44.027738
23478		-14.458893	5.364931	-44.251495
23479		-14.471846	5.453227	-44.483055
23480		-14.489684	5.545946	-44.718428
23481		-14.510027	5.641151	-44.951340
23482		-14.535856	5.729413	-45.183017
23483		-14.559947	5.804941	-45.414508
23484		-14.593654	5.872143	-45.641740
23485		-14.643072	5.935604	-45.865955
23486		-14.688983	5.993997	-46.085530
23487		-14.725282	6.053591	-46.295790
23488		-14.759330	6.114371	-46.497000
23489		-14.789973	6.178076	-46.694404
23490		-14.818919	6.240655	-46.889807
23491		-14.841976	6.302674	-47.081320
23492		-14.863115	6.358037	-47.263155
23493		-14.880987	6.411805	-47.438267
23494		-14.888123	6.465893	-47.611448
23495		-14.882048	6.514748	-47.779601
23496		-14.866357	6.557609	-47.939570
23497		-14.839663	6.600470	-48.091975
23498		-14.818581	6.648268	-48.243059
23499		-14.799117	6.699450	-48.395345
23500		-14.776057	6.754133	-48.540267
23501		-14.763600	6.805955	-48.677136
23502		-14.757617	6.861726	-48.813427
23503		-14.755967	6.915457	-48.950802
23504		-14.756331	6.969490	-49.086835
23505		-14.750805	7.019069	-49.224475
23506		-14.736639	7.071026	-49.356765
23507		-14.723913	7.124544	-49.489114
23508		-14.715788	7.182200	-49.617954
23509		-14.704522	7.242416	-49.741878
23510		-14.690280	7.310053	-49.859832
23511		-14.671911	7.380630	-49.979881
23512		-14.666032	7.451812	-50.100535
23513		-14.670878	7.520749	-50.218665
23514		-14.679535	7.582648	-50.339687
23515		-14.680804	7.641231	-50.458813
23516		-14.678540	7.700987	-50.581191
23517		-14.679978	7.757735	-50.706171
23518		-14.674589	7.817976	-50.836348
23519		-14.659701	7.880058	-50.961392
23520		-14.635578	7.948208	-51.083893
23521		-14.609617	8.019470	-51.204150
23522		-14.583868	8.095507	-51.311614
23523		-14.559836	8.180406	-51.411356
23524		-14.538630	8.265809	-51.500062
23525		-14.522813	8.352943	-51.593618
23526		-14.513469	8.438832	-51.686019
23527		-14.515216	8.516306	-51.775867
23528		-14.520805	8.588365	-51.862949
23529		-14.516332	8.659431	-51.941597
23530		-14.505841	8.727928	-52.013667
23531		-14.489945	8.786332	-52.087942
23532		-14.460806	8.844845	-52.158985
23533		-14.422960	8.904861	-52.231897
23534		-14.390020	8.963065	-52.305175
23535		-14.364093	9.018809	-52.375137
23536		-14.346717	9.078100	-52.441484
23537		-14.339589	9.136983	-52.502958
23538		-14.336967	9.199025	-52.558917
23539		-14.332096	9.258811	-52.608061
23540		-14.324954	9.315138	-52.652653
23541		-14.315524	9.356827	-52.699920
23542		-14.296823	9.383447	-52.737842
23543		-14.272029	9.399591	-52.777014
23544		-14.245958	9.413185	-52.807391
23545		-14.220331	9.432115	-52.826899
23546		-14.199569	9.454789	-52.839591
23547		-14.176939	9.477744	-52.851000
23548		-14.147925	9.497373	-52.864490
23549		-14.107319	9.511411	-52.875471
23550		-14.062961	9.520609	-52.887265
23551		-14.012001	9.524317	-52.898444
23552		-13.968612	9.524124	-52.906329
23553		-13.934096	9.523863	-52.909903
23554		-13.912560	9.524862	-52.907775
23555		-13.906906	9.523397	-52.903492
23556		-13.905729	9.526053	-52.895644
23557		-13.898900	9.527723	-52.880977
23558		-13.891873	9.526937	-52.867291
23559		-13.881352	9.524782	-52.856956
23560		-13.868870	9.521177	-52.849042
23561		-13.855091	9.514922	-52.845677
23562		-13.845572	9.507410	-52.840397
23563		-13.843263	9.503871	-52.833135
23564		-13.842239	9.501195	-52.821260
23565		-13.841134	9.500856	-52.813407
23566		-13.836325	9.499055	-52.800577
23567		-13.830127	9.493981	-52.789802
23568		-13.820619	9.485279	-52.782834
23569		-13.809509	9.473262	-52.781960
23570		-13.792550	9.460695	-52.782347
23571		-13.775270	9.445032	-52.788443
23572		-13.758592	9.428933	-52.790943
23573		-13.735669	9.404707	-52.786070
23574		-13.718583	9.374923	-52.770290
23575		-13.692439	9.339741	-52.742947
23576		-13.671884	9.307854	-52.713705
23577		-13.641930	9.277922	-52.686632
23578		-13.611294	9.252299	-52.664528
23579		-13.583012	9.232581	-52.650390
23580		-13.553609	9.215084	-52.646371
23581		-13.527794	9.191804	-52.650171
23582		-13.501021	9.160613	-52.653348
23583		-13.462829	9.133873	-52.653286
23584		-13.427009	9.109309	-52.648010
23585		-13.398768	9.087869	-52.639882
23586		-13.380338	9.069746	-52.629206
23587		-13.367821	9.057765	-52.622950
23588		-13.354651	9.048960	-52.612152
23589		-13.349868	9.039233	-52.605537
23590		-13.343030	9.033045	-52.599881
23591		-13.338317	9.025609	-52.596884
23592		-13.328814	9.019790	-52.590716
23593		-13.323572	9.012238	-52.585464
23594		-13.327066	9.002174	-52.583251
23595		-13.319795	8.996598	-52.580284
23596		-13.308589	8.996892	-52.581083
23597		-13.299975	9.007159	-52.581534
23598		-13.311008	9.020824	-52.578100
23599		-13.339065	9.044050	-52.570077
23600		-13.374644	9.074816	-52.558126
23601		-13.416314	9.108447	-52.543526
23602		-13.444730	9.143013	-52.510688
23603		-13.452509	9.182595	-52.463641
23604		-13.443181	9.228195	-52.405758
23605		-13.437021	9.273196	-52.353539
23606		-13.430707	9.300703	-52.309033
23607		-13.423213	9.311496	-52.267626
23608		-13.425441	9.309199	-52.223692
23609		-13.434172	9.297341	-52.170898
23610		-13.449810	9.281012	-52.106953
23611		-13.469668	9.258350	-52.029852
23612		-13.495530	9.229818	-51.943340
23613		-13.519751	9.191558	-51.856675
23614		-13.528967	9.148589	-51.776753
23615		-13.518115	9.102420	-51.703879
23616		-13.484378	9.053570	-51.633134
23617		-13.457340	9.008276	-51.559407
23618		-13.439886	8.952437	-51.478111
23619		-13.422641	8.895782	-51.394458
23620		-13.410785	8.843260	-51.297739
23621		-13.401014	8.788511	-51.193556
23622		-13.406366	8.734496	-51.087994
23623		-13.437395	8.677629	-50.988565
23624		-13.481097	8.606272	-50.903701
23625		-13.566513	8.511311	-50.842686
23626		-13.669456	8.413743	-50.784877
23627		-13.777009	8.303768	-50.718559
23628		-13.871606	8.185030	-50.656805
23629		-13.951492	8.065426	-50.596701
23630		-14.013708	7.948997	-50.532247
23631		-14.060490	7.826992	-50.456991
23632		-14.105783	7.698833	-50.369269
23633		-14.175118	7.561119	-50.270348
23634		-14.239270	7.411079	-50.164787
23635		-14.278509	7.260948	-50.055753
23636		-14.305918	7.114087	-49.940920
23637		-14.324108	6.970498	-49.821613
23638		-14.337825	6.825138	-49.697680
23639		-14.333597	6.683178	-49.566339
23640		-14.331193	6.539839	-49.424637
23641		-14.319456	6.395481	-49.273689
23642		-14.304796	6.253554	-49.120939
23643		-14.290133	6.118998	-48.963517
23644		-14.284550	5.983131	-48.801716
23645		-14.299408	5.852917	-48.638473
23646		-14.324125	5.719642	-48.467283
23647		-14.364260	5.592453	-48.297208
23648		-14.416086	5.477211	-48.125879
23649		-14.476054	5.372052	-47.952723
23650		-14.546539	5.280077	-47.784250
23651		-14.612702	5.192057	-47.611549
23652		-14.685971	5.106906	-47.438736
23653		-14.763927	5.021539	-47.268466
23654		-14.831876	4.940470	-47.098933
23655		-14.897113	4.855261	-46.931164
23656		-14.961073	4.773902	-46.768669
23657		-15.016552	4.698237	-46.602844
23658		-15.067385	4.614745	-46.433619
23659		-15.120219	4.536169	-46.264896
23660		-15.167136	4.468896	-46.100064
23661		-15.209131	4.404415	-45.932587
23662		-15.251952	4.346053	-45.765999
23663		-15.283321	4.291624	-45.594421
23664		-15.316545	4.236383	-45.415087
23665		-15.345457	4.185989	-45.226593
23666		-15.383865	4.133232	-45.033240
23667		-15.443433	4.075819	-44.843372
23668		-15.503436	4.024737	-44.648690
23669		-15.570311	3.972806	-44.445928
23670		-15.650444	3.919449	-44.245316
23671		-15.701920	3.871702	-44.040018
23672		-15.743624	3.818864	-43.829460
23673		-15.777766	3.771343	-43.617834
23674		-15.802431	3.724220	-43.399173
23675		-15.824802	3.682252	-43.175818
23676		-15.851103	3.646778	-42.954762
23677		-15.872432	3.618370	-42.730910
23678		-15.897676	3.601596	-42.505479
23679		-15.922535	3.584490	-42.276682
23680		-15.955037	3.555125	-42.055235
23681		-15.979579	3.526033	-41.845780
23682		-15.990121	3.501162	-41.640698
23683		-15.977079	3.482428	-41.432735
23684		-15.978731	3.467661	-41.224658
23685		-15.982566	3.459444	-41.018272
23686		-15.985168	3.460725	-40.809665
23687		-15.984722	3.464826	-40.603282
23688		-15.976537	3.476771	-40.398851
23689		-15.984921	3.486952	-40.205312
23690		-15.991614	3.495794	-40.017082
23691		-15.998996	3.496225	-39.839758
23692		-16.008252	3.492241	-39.667996
23693		-16.016548	3.483833	-39.504598
23694		-16.033688	3.478088	-39.356063
23695		-16.044765	3.472479	-39.214044
23696		-16.043577	3.468457	-39.074321
23697		-16.044142	3.467166	-38.932887
23698		-16.057478	3.464048	-38.792685
23699		-16.080056	3.460548	-38.653269
23700		-16.100719	3.451021	-38.519954
23701		-16.114316	3.440783	-38.391875
23702		-16.121243	3.424052	-38.263931
23703		-16.115050	3.406121	-38.135221
23704		-16.098389	3.392513	-38.004522
23705		-16.087950	3.378386	-37.870993
23706		-16.072911	3.367058	-37.736129
23707		-16.059977	3.358883	-37.602446
23708		-16.055306	3.356526	-37.467664
23709		-16.047417	3.355624	-37.330979
23710		-16.044831	3.358433	-37.191686
23711		-16.036883	3.363766	-37.049567
23712		-16.020854	3.374896	-36.905069
23713		-16.001325	3.387616	-36.756063
23714		-15.967083	3.410195	-36.603940
23715		-15.942698	3.431427	-36.452198
23716		-15.912143	3.455155	-36.297935
23717		-15.874454	3.472555	-36.141638
23718		-15.836547	3.488633	-35.984996
23719		-15.801801	3.507387	-35.831977
23720		-15.775749	3.520075	-35.680126
23721		-15.740607	3.535015	-35.533556
23722		-15.708687	3.554218	-35.388262
23723		-15.652349	3.578719	-35.244520
23724		-15.593369	3.603399	-35.093226
23725		-15.535608	3.630094	-34.939173
23726		-15.480556	3.643865	-34.780241
23727		-15.435873	3.650869	-34.625561
23728		-15.389876	3.648188	-34.474700
23729		-15.348769	3.648350	-34.329159
23730		-15.303414	3.649441	-34.191576
23731		-15.247209	3.654534	-34.053476
23732		-15.179036	3.650403	-33.908576
23733		-15.107327	3.646831	-33.759908
23734		-15.037718	3.641771	-33.608811
23735		-14.973317	3.627617	-33.458336
23736		-14.893970	3.614199	-33.305841
23737		-14.816809	3.597652	-33.148156
23738		-14.729597	3.577178	-32.973393
23739		-14.648379	3.555245	-32.796293
23740		-14.562529	3.528876	-32.620651
23741		-14.467041	3.507506	-32.453826
23742		-14.378314	3.483011	-32.295076
23743		-14.293947	3.463416	-32.140823
23744		-14.207656	3.445855	-31.987390
23745		-14.125674	3.432901	-31.834572
23746		-14.044388	3.426886	-31.683284
23747		-13.958333	3.427762	-31.535184
23748		-13.872961	3.431248	-31.384536
23749		-13.795539	3.434881	-31.237283
23750		-13.726653	3.436851	-31.099827
23751		-13.654747	3.442492	-30.970578
23752		-13.592872	3.444734	-30.849174
23753		-13.532369	3.451861	-30.729490
23754		-13.463532	3.463642	-30.608187
23755		-13.397109	3.475249	-30.490511
23756		-13.333107	3.490444	-30.375646
23757		-13.283999	3.504777	-30.263858
23758		-13.218399	3.523638	-30.163887
23759		-13.155236	3.538125	-30.075205
23760		-13.092661	3.555400	-29.988372
23761		-13.024651	3.576601	-29.900568
23762		-12.961370	3.598985	-29.812926
23763		-12.905753	3.621228	-29.718154
23764		-12.851996	3.641833	-29.620157
23765		-12.793782	3.647656	-29.517647
23766		-12.735198	3.643144	-29.412076
23767		-12.676642	3.629598	-29.306029
23768		-12.629786	3.616425	-29.213632
23769		-12.614540	3.615215	-29.140585
23770		-12.612852	3.634274	-29.086667
23771		-12.613114	3.662001	-29.045702
23772		-12.623501	3.703657	-29.015913
23773		-12.640395	3.745999	-28.994656
23774		-12.646447	3.780354	-28.978860
23775		-12.651135	3.807977	-28.965562
23776		-12.645850	3.826625	-28.953133
23777		-12.639788	3.839611	-28.941590
23778		-12.637607	3.857084	-28.931415
23779		-12.640062	3.878689	-28.920777
23780		-12.646228	3.897363	-28.906054
23781		-12.647423	3.914021	-28.881823
23782		-12.648794	3.928191	-28.853704
23783		-12.644645	3.944148	-28.827990
23784		-12.631494	3.966399	-28.802584
23785		-12.607997	3.990606	-28.776542
23786		-12.574804	4.015312	-28.747329
23787		-12.537370	4.043878	-28.711950
23788		-12.511933	4.066259	-28.673554
23789		-12.484995	4.088392	-28.631701
23790		-12.456852	4.112508	-28.588649
23791		-12.427468	4.132093	-28.542622
23792		-12.388512	4.147816	-28.493606
23793		-12.346345	4.157743	-28.439679
23794		-12.308182	4.160817	-28.382649
23795		-12.282480	4.173005	-28.328406
23796		-12.265536	4.185102	-28.280972
23797		-12.251019	4.202054	-28.240027
23798		-12.236665	4.223724	-28.201783
23799		-12.222222	4.241132	-28.163504
23800		-12.199717	4.261736	-28.126510
23801		-12.175732	4.284702	-28.092170
23802		-12.151220	4.308644	-28.059415
23803		-12.131255	4.338881	-28.031726
23804		-12.116325	4.376004	-28.008530
23805		-12.102911	4.412116	-27.987820
23806		-12.094250	4.435461	-27.962534
23807		-12.074505	4.452280	-27.934700
23808		-12.044739	4.466712	-27.903973
23809		-12.010973	4.474056	-27.870975
23810		-11.970877	4.480882	-27.836054
23811		-11.931481	4.482222	-27.797808
23812		-11.901521	4.489083	-27.761492
23813		-11.886629	4.491526	-27.721761
23814		-11.873831	4.499788	-27.682457
23815		-11.856014	4.508237	-27.643364
23816		-11.830530	4.516110	-27.603012
23817		-11.800364	4.529457	-27.560770
23818		-11.768613	4.543969	-27.517779
23819		-11.743287	4.561262	-27.473346
23820		-11.718939	4.568912	-27.435442
23821		-11.704904	4.576003	-27.413484
23822		-11.693347	4.576504	-27.406475
23823		-11.686135	4.574033	-27.405115
23824		-11.689374	4.572428	-27.409486
23825		-11.689548	4.576848	-27.416643
23826		-11.688656	4.583871	-27.425196
23827		-11.682842	4.591210	-27.436248
23828		-11.672754	4.597442	-27.445684
23829		-11.664174	4.604343	-27.451739
23830		-11.660856	4.611004	-27.450402
23831		-11.661208	4.613125	-27.445810
23832		-11.669198	4.622156	-27.444197
23833		-11.678221	4.633788	-27.447539
23834		-11.683400	4.651595	-27.451353
23835		-11.682389	4.676441	-27.451243
23836		-11.683052	4.706239	-27.449846
23837		-11.686191	4.736193	-27.446699
23838		-11.687450	4.766884	-27.441722
23839		-11.685568	4.796847	-27.438528
23840		-11.692368	4.824124	-27.437524
23841		-11.700458	4.842577	-27.435223
23842		-11.700039	4.861369	-27.436420
23843		-11.704665	4.885310	-27.440877
23844		-11.706646	4.906477	-27.449815
23845		-11.704059	4.935297	-27.459309
23846		-11.711206	4.965884	-27.471617
23847		-11.713724	4.999610	-27.485799
23848		-11.707413	5.037516	-27.500202
23849		-11.702143	5.075258	-27.517143
23850		-11.704402	5.110615	-27.535627
23851		-11.706203	5.149883	-27.558600
23852		-11.706683	5.195713	-27.586106
23853		-11.697281	5.235027	-27.607818
23854		-11.685669	5.281175	-27.626450
23855		-11.673461	5.335508	-27.641428
23856		-11.659489	5.390555	-27.654804
23857		-11.640336	5.440845	-27.665529
23858		-11.620228	5.491359	-27.673759
23859		-11.594474	5.549810	-27.679847
23860		-11.566287	5.610307	-27.687560
23861		-11.528869	5.672485	-27.694490
23862		-11.467828	5.730041	-27.702834
23863		-11.395879	5.775032	-27.709202
23864		-11.314816	5.807879	-27.715248
23865		-11.248649	5.829989	-27.725327
23866		-11.218040	5.843922	-27.745996
23867		-11.201595	5.858840	-27.772154
23868		-11.170323	5.873912	-27.799624
23869		-11.128334	5.881112	-27.821874
23870		-11.070718	5.886813	-27.838664
23871		-11.000982	5.897593	-27.852666
23872		-10.930531	5.911206	-27.861635
23873		-10.859632	5.919649	-27.861413
23874		-10.791095	5.923021	-27.860222
23875		-10.722640	5.915611	-27.851910
23876		-10.660868	5.899707	-27.842153
23877		-10.608957	5.888465	-27.840370
23878		-10.559029	5.880412	-27.838305
23879		-10.500820	5.878009	-27.838873
23880		-10.447680	5.877691	-27.847085
23881		-10.420603	5.884782	-27.871029
23882		-10.412473	5.903359	-27.910860
23883		-10.427181	5.923124	-27.963162
23884		-10.482427	5.964337	-28.042530
23885		-10.530532	6.043656	-28.137375
23886		-10.563376	6.123853	-28.236505
23887		-10.571725	6.202162	-28.327787
23888		-10.555163	6.266728	-28.405682
23889		-10.533982	6.310235	-28.468132
23890		-10.507313	6.343462	-28.517057
23891		-10.478433	6.375014	-28.555783
23892		-10.460384	6.399038	-28.585464
23893		-10.442426	6.408408	-28.606824
23894		-10.420223	6.399176	-28.629175
23895		-10.401240	6.395836	-28.661815
23896		-10.385116	6.392901	-28.699223
23897		-10.371490	6.392158	-28.745978
23898		-10.360646	6.394122	-28.804502
23899		-10.360159	6.401363	-28.868500
23900		-10.360962	6.408265	-28.940657
23901		-10.366295	6.412447	-29.020571
23902		-10.367403	6.413281	-29.113590
23903		-10.384034	6.410933	-29.218794
23904		-10.417198	6.410636	-29.333761
23905		-10.456082	6.413718	-29.453241
23906		-10.511325	6.416246	-29.581703
23907		-10.569488	6.415184	-29.715636
23908		-10.639586	6.407944	-29.862099
23909		-10.702233	6.404694	-30.020115
23910		-10.750276	6.397255	-30.186605
23911		-10.787150	6.387728	-30.356584
23912		-10.828399	6.374406	-30.520831
23913		-10.880825	6.350485	-30.673165
23914		-10.968456	6.300757	-30.814757
23915		-11.101380	6.248243	-30.960510
23916		-11.259145	6.200172	-31.109324
23917		-11.424077	6.134475	-31.253594
23918		-11.558335	6.058978	-31.409643
23919		-11.660206	5.983955	-31.578168
23920		-11.745139	5.930048	-31.760305
23921		-11.813061	5.899448	-31.954088
23922		-11.879104	5.881333	-32.152632
23923		-11.946419	5.866803	-32.347678
23924		-12.021542	5.852178	-32.532864
23925		-12.128262	5.806396	-32.701402
23926		-12.253960	5.747251	-32.868192
23927		-12.361280	5.682972	-33.037023
23928		-12.476432	5.613909	-33.210489
23929		-12.571689	5.547342	-33.393378
23930		-12.642845	5.478482	-33.583254
23931		-12.704230	5.413728	-33.784710
23932		-12.756785	5.358809	-33.985888
23933		-12.812155	5.317868	-34.185912
23934		-12.870325	5.283185	-34.378213
23935		-12.940969	5.246120	-34.557655
23936		-13.033034	5.196232	-34.722035
23937		-13.149040	5.131337	-34.879554
23938		-13.253459	5.044408	-35.032955
23939		-13.352990	4.930361	-35.181940
23940		-13.437817	4.794043	-35.326975
23941		-13.504983	4.646708	-35.475561
23942		-13.571076	4.486067	-35.617606
23943		-13.632431	4.324330	-35.759749
23944		-13.690107	4.165148	-35.895296
23945		-13.746296	4.015828	-36.027977
23946		-13.808731	3.875949	-36.155888
23947		-13.873881	3.753610	-36.288364
23948		-13.935760	3.646079	-36.418319
23949		-14.002577	3.541422	-36.554554
23950		-14.053369	3.445390	-36.702021
23951		-14.097628	3.354263	-36.864100
23952		-14.140431	3.266173	-37.031634
23953		-14.176504	3.183859	-37.199785
23954		-14.209073	3.102253	-37.363604
23955		-14.240217	3.021486	-37.515042
23956		-14.269788	2.935342	-37.653365
23957		-14.291651	2.853680	-37.767670
23958		-14.313337	2.782789	-37.865512
23959		-14.345016	2.725067	-37.957781
23960		-14.386057	2.684474	-38.051482
23961		-14.428595	2.662925	-38.153130
23962		-14.468978	2.655957	-38.271590
23963		-14.510444	2.654484	-38.410752
23964		-14.541058	2.661058	-38.560664
23965		-14.564802	2.677573	-38.723653
23966		-14.583258	2.702807	-38.892001
23967		-14.595448	2.742704	-39.071901
23968		-14.609835	2.792729	-39.249764
23969		-14.631798	2.851480	-39.423074
23970		-14.657769	2.909704	-39.591478
23971		-14.692242	2.963116	-39.750691
23972		-14.724458	3.012896	-39.906907
23973		-14.755069	3.054178	-40.064620
23974		-14.781903	3.093431	-40.220605
23975		-14.793609	3.137538	-40.378312
23976		-14.795613	3.178614	-40.539393
23977		-14.798870	3.215024	-40.703722
23978		-14.804329	3.256257	-40.877836
23979		-14.812420	3.302332	-41.053449
23980		-14.821340	3.348417	-41.231285
23981		-14.821475	3.393737	-41.406565
23982		-14.817305	3.439985	-41.567220
23983		-14.814849	3.481315	-41.723606
23984		-14.811669	3.522192	-41.885419
23985		-14.812106	3.568350	-42.054412
23986		-14.816725	3.617756	-42.234313
23987		-14.822025	3.667537	-42.427133
23988		-14.830768	3.717941	-42.627832
23989		-14.833776	3.774983	-42.839412
23990		-14.824349	3.835828	-43.055365
23991		-14.810167	3.890932	-43.275734
23992		-14.787235	3.948929	-43.491129
23993		-14.752180	4.014929	-43.701154
23994		-14.723056	4.079860	-43.903414
23995		-14.716911	4.145032	-44.105353
23996		-14.707670	4.212687	-44.305555
23997		-14.689766	4.275364	-44.497913
23998		-14.668906	4.334030	-44.687396
23999		-14.644298	4.387413	-44.887086
24000		-14.609590	4.439000	-45.091032
24001		-14.568504	4.492611	-45.295031
24002		-14.521299	4.547299	-45.495299
24003		-14.470577	4.607615	-45.695145
24004		-14.424984	4.669756	-45.896688
24005		-14.380009	4.735266	-46.091119
24006		-14.333950	4.800776	-46.273916
24007		-14.295779	4.866860	-46.456690
24008		-14.261551	4.929244	-46.634985
24009		-14.234807	4.985667	-46.809713
24010		-14.215814	5.040716	-46.982691
24011		-14.204857	5.092810	-47.157501
24012		-14.200013	5.148306	-47.331052
24013		-14.202833	5.205632	-47.504936
24014		-14.198280	5.273231	-47.673216
24015		-14.188375	5.351724	-47.836651
24016		-14.181911	5.436600	-47.994112
24017		-14.187062	5.523986	-48.146119
24018		-14.196902	5.607276	-48.292519
24019		-14.205267	5.681629	-48.438788
24020		-14.194736	5.756487	-48.578756
24021		-14.177666	5.825670	-48.716014
24022		-14.153754	5.895223	-48.850844
24023		-14.124563	5.964421	-48.981094
24024		-14.094478	6.032375	-49.102305
24025		-14.067969	6.100419	-49.218420
24026		-14.044078	6.167487	-49.328031
24027		-14.020355	6.228159	-49.429821
24028		-13.993431	6.288899	-49.520391
24029		-13.961434	6.353156	-49.605461
24030		-13.936462	6.417376	-49.688473
24031		-13.913624	6.484774	-49.767924
24032		-13.889800	6.557410	-49.846392
24033		-13.872987	6.629600	-49.925334
24034		-13.853154	6.706126	-49.997384
24035		-13.838236	6.781266	-50.071172
24036		-13.828292	6.857372	-50.135114
24037		-13.822633	6.934992	-50.199119
24038		-13.814166	7.010018	-50.259199
24039		-13.808541	7.082591	-50.322614
24040		-13.804806	7.153156	-50.388298
24041		-13.800714	7.221923	-50.453012
24042		-13.794775	7.289690	-50.511812
24043		-13.782553	7.358201	-50.572166
24044		-13.765098	7.419557	-50.629912
24045		-13.740519	7.473916	-50.684069
24046		-13.712936	7.511315	-50.734121
24047		-13.685047	7.542486	-50.782197
24048		-13.655144	7.571247	-50.823800
24049		-13.625607	7.597718	-50.857389
24050		-13.589828	7.625072	-50.877555
24051		-13.553794	7.653523	-50.892550
24052		-13.524663	7.682865	-50.901476
24053		-13.499797	7.708342	-50.906419
24054		-13.492145	7.728506	-50.906079
24055		-13.496508	7.743242	-50.904548
24056		-13.505774	7.752113	-50.902893
24057		-13.513880	7.758276	-50.901681
24058		-13.517510	7.763821	-50.901329
24059		-13.518411	7.771562	-50.899825
24060		-13.518751	7.779885	-50.892705
24061		-13.520973	7.789266	-50.884208
24062		-13.524334	7.801340	-50.875270
24063		-13.524895	7.814776	-50.868962
24064		-13.521059	7.825764	-50.864686
24065		-13.512492	7.834579	-50.861543
24066		-13.506228	7.841534	-50.862930
24067		-13.505158	7.849019	-50.866296
24068		-13.504650	7.855751	-50.868442
24069		-13.507243	7.860598	-50.873548
24070		-13.510943	7.864362	-50.874242
24071		-13.514554	7.869140	-50.878107
24072		-13.517738	7.874922	-50.881209
24073		-13.517622	7.883477	-50.884997
24074		-13.515555	7.892751	-50.889147
24075		-13.508260	7.897955	-50.894029
24076		-13.498497	7.904355	-50.901399
24077		-13.481473	7.908618	-50.911824
24078		-13.469677	7.912825	-50.919031
24079		-13.464488	7.919569	-50.926884
24080		-13.464084	7.925693	-50.931829
24081		-13.464477	7.931974	-50.933513
24082		-13.469180	7.939922	-50.934355
24083		-13.468982	7.946860	-50.930754
24084		-13.468442	7.951854	-50.926683
24085		-13.470182	7.954482	-50.929587
24086		-13.468164	7.954660	-50.925698
24087		-13.470277	7.953197	-50.928303
24088		-13.467372	7.950918	-50.930552
24089		-13.465135	7.948453	-50.937009
24090		-13.459705	7.948337	-50.944992
24091		-13.452548	7.950494	-50.949408
24092		-13.444905	7.951171	-50.950663
24093		-13.438354	7.952858	-50.952186
24094		-13.430073	7.955593	-50.948574
24095		-13.426028	7.959464	-50.946502
24096		-13.423460	7.964904	-50.944383
24097		-13.420538	7.967961	-50.944145
24098		-13.414852	7.973208	-50.941798
24099		-13.411723	7.978917	-50.943371
24100		-13.406076	7.986502	-50.944526
24101		-13.401305	7.990890	-50.944213
24102		-13.402483	7.994763	-50.945821
24103		-13.398520	7.995774	-50.949100
24104		-13.387892	7.996523	-50.956047
24105		-13.379487	7.995963	-50.965695
24106		-13.373612	7.996394	-50.975767
24107		-13.365505	7.996811	-50.983403
24108		-13.356982	7.999452	-50.991931
24109		-13.338821	8.005647	-50.995245
24110		-13.321353	8.010724	-50.998999
24111		-13.305817	8.016330	-51.003980
24112		-13.288363	8.021408	-51.007743
24113		-13.273658	8.023598	-51.016401
24114		-13.260072	8.021791	-51.026957
24115		-13.243825	8.020841	-51.041963
24116		-13.228247	8.019193	-51.055863
24117		-13.215713	8.019260	-51.070603
24118		-13.206282	8.018891	-51.080809
24119		-13.201150	8.021328	-51.086481
24120		-13.200906	8.023019	-51.090434
24121		-13.202713	8.024000	-51.093264
24122		-13.199326	8.025809	-51.095606
24123		-13.191223	8.026088	-51.103421
24124		-13.181720	8.025155	-51.109112
24125		-13.173400	8.022774	-51.119890
24126		-13.160349	8.021909	-51.128810
24127		-13.146371	8.019052	-51.135659
24128		-13.132728	8.016998	-51.140358
24129		-13.119084	8.016564	-51.144774
24130		-13.105889	8.015735	-51.146400
24131		-13.092417	8.014409	-51.143557
24132		-13.075379	8.013406	-51.135173
24133		-13.060094	8.007912	-51.121420
24134		-13.046633	8.000945	-51.108352
24135		-13.032560	7.991249	-51.091214
24136		-13.017871	7.983658	-51.068670
24137		-13.000014	7.970753	-51.048010
24138		-12.976608	7.958205	-51.026195
24139		-12.948858	7.942529	-51.010258
24140		-12.917304	7.922393	-50.989552
24141		-12.887778	7.898115	-50.963316
24142		-12.864392	7.866394	-50.929540
24143		-12.832060	7.826022	-50.891700
24144		-12.785537	7.777550	-50.848272
24145		-12.723557	7.723974	-50.801792
24146		-12.648870	7.667783	-50.752809
24147		-12.571941	7.612269	-50.710003
24148		-12.500646	7.558495	-50.665014
24149		-12.452964	7.513709	-50.624988
24150		-12.422376	7.478321	-50.590472
24151		-12.399510	7.450474	-50.567374
24152		-12.383513	7.428390	-50.558153
24153		-12.364964	7.403123	-50.558210
24154		-12.347266	7.373861	-50.565192
24155		-12.329493	7.342283	-50.569008
24156		-12.319468	7.310542	-50.568503
24157		-12.316288	7.286212	-50.555133
24158		-12.319662	7.267679	-50.533624
24159		-12.327409	7.254741	-50.509584
24160		-12.336742	7.248985	-50.488467
24161		-12.339806	7.245141	-50.478072
24162		-12.332402	7.237757	-50.473286
24163		-12.317160	7.229208	-50.471167
24164		-12.300779	7.211819	-50.473805
24165		-12.282172	7.188998	-50.477032
24166		-12.260189	7.170075	-50.480053
24167		-12.240700	7.149205	-50.483606
24168		-12.233822	7.120906	-50.489957
24169		-12.227123	7.084701	-50.504978
24170		-12.211403	7.044663	-50.527145
24171		-12.191244	6.993821	-50.561883
24172		-12.160833	6.935240	-50.615599
24173		-12.104950	6.876733	-50.684752
24174		-12.028151	6.823728	-50.760484
24175		-11.963376	6.786011	-50.842124
24176		-11.915953	6.762680	-50.922800
24177		-11.864808	6.745659	-50.999869
24178		-11.826943	6.732091	-51.069701
24179		-11.803602	6.722810	-51.128865
24180		-11.797128	6.713649	-51.178076
24181		-11.808977	6.696980	-51.224146
24182		-11.815557	6.665208	-51.269629
24183		-11.819010	6.630545	-51.314147
24184		-11.825657	6.595518	-51.360391
24185		-11.838383	6.559185	-51.407238
24186		-11.864418	6.524891	-51.453449
24187		-11.896533	6.490937	-51.500273
24188		-11.936265	6.461150	-51.543677
24189		-11.977719	6.429850	-51.582125
24190		-12.026620	6.395739	-51.619017
24191		-12.090317	6.353814	-51.657421
24192		-12.149638	6.304512	-51.693140
24193		-12.204762	6.251419	-51.726085
24194		-12.244575	6.197510	-51.750650
24195		-12.274607	6.140853	-51.768112
24196		-12.306105	6.081486	-51.776835
24197		-12.329302	6.021612	-51.775920
24198		-12.357518	5.961800	-51.763781
24199		-12.383569	5.902862	-51.744231
24200		-12.406010	5.847810	-51.717764
24201		-12.421153	5.794883	-51.681516
24202		-12.434367	5.736748	-51.637808
24203		-12.443363	5.675530	-51.587527
24204		-12.461330	5.615001	-51.534647
24205		-12.470314	5.544094	-51.476946
24206		-12.484485	5.479236	-51.423971
24207		-12.499745	5.412554	-51.370271
24208		-12.513185	5.344701	-51.319090
24209		-12.530395	5.271885	-51.266531
24210		-12.556566	5.195552	-51.215341
24211		-12.588536	5.117955	-51.162345
24212		-12.621405	5.031383	-51.103193
24213		-12.665597	4.941832	-51.042096
24214		-12.720566	4.848521	-50.985052
24215		-12.776698	4.753429	-50.934531
24216		-12.833652	4.656997	-50.885635
24217		-12.882405	4.551432	-50.836225
24218		-12.946740	4.443581	-50.794714
24219		-13.004464	4.335471	-50.757094
24220		-13.060980	4.225095	-50.722600
24221		-13.111975	4.124736	-50.695406
24222		-13.157566	4.024974	-50.665952
24223		-13.225885	3.924920	-50.642493
24224		-13.295158	3.833333	-50.613525
24225		-13.360421	3.732573	-50.575754
24226		-13.437496	3.624614	-50.541305
24227		-13.494521	3.521943	-50.498030
24228		-13.557080	3.411610	-50.442199
24229		-13.625244	3.297104	-50.381246
24230		-13.679064	3.180195	-50.315472
24231		-13.732319	3.071948	-50.243674
24232		-13.768817	2.971160	-50.161228
24233		-13.795128	2.878840	-50.068677
24234		-13.820148	2.793351	-49.965702
24235		-13.844547	2.715544	-49.861024
24236		-13.880881	2.647211	-49.750078
24237		-13.922110	2.576767	-49.626985
24238		-13.979004	2.501202	-49.493158
24239		-14.030478	2.417696	-49.349979
24240		-14.073619	2.337102	-49.200503
24241		-14.109595	2.267358	-49.044927
24242		-14.148588	2.198104	-48.876919
24243		-14.195135	2.133454	-48.694144
24244		-14.243627	2.078670	-48.503327
24245		-14.300169	2.027417	-48.304986
24246		-14.350872	1.975244	-48.100332
24247		-14.399951	1.918834	-47.887194
24248		-14.449127	1.862073	-47.673903
24249		-14.490111	1.812427	-47.459025
24250		-14.519648	1.768290	-47.238769
24251		-14.545101	1.726953	-47.020808
24252		-14.573446	1.686713	-46.792966
24253		-14.600646	1.653686	-46.562648
24254		-14.617961	1.624824	-46.324544
24255		-14.647309	1.592007	-46.080024
24256		-14.670905	1.557252	-45.832490
24257		-14.711342	1.524750	-45.587010
24258		-14.755074	1.489655	-45.335166
24259		-14.794802	1.449113	-45.083345
24260		-14.829086	1.411053	-44.834384
24261		-14.850908	1.384757	-44.587589
24262		-14.875669	1.364160	-44.344918
24263		-14.891695	1.357881	-44.105879
24264		-14.905640	1.356411	-43.861419
24265		-14.910242	1.348560	-43.613445
24266		-14.910154	1.334883	-43.371746
24267		-14.902614	1.321372	-43.132401
24268		-14.896831	1.312099	-42.899780
24269		-14.888035	1.310106	-42.661021
24270		-14.886583	1.306923	-42.415647
24271		-14.893043	1.303172	-42.166279
24272		-14.900887	1.301042	-41.912727
24273		-14.910454	1.302106	-41.660727
24274		-14.911838	1.304040	-41.412942
24275		-14.904002	1.299837	-41.172639
24276		-14.897043	1.289236	-40.941736
24277		-14.890095	1.269973	-40.716351
24278		-14.882765	1.247020	-40.497231
24279		-14.864424	1.225033	-40.281519
24280		-14.853834	1.202507	-40.073562
24281		-14.834526	1.184932	-39.875195
24282		-14.788996	1.171069	-39.687347
24283		-14.734508	1.159432	-39.499978
24284		-14.691365	1.150879	-39.316455
24285		-14.652019	1.142977	-39.137882
24286		-14.626070	1.128858	-38.954975
24287		-14.608104	1.116010	-38.769506
24288		-14.589026	1.105395	-38.580062
24289		-14.565165	1.092162	-38.386305
24290		-14.543011	1.078083	-38.197557
24291		-14.523375	1.071099	-38.013164
24292		-14.494287	1.062271	-37.836729
24293		-14.454834	1.049431	-37.666251
24294		-14.395506	1.031351	-37.488249
24295		-14.337234	1.005506	-37.301518
24296		-14.284559	0.974085	-37.104864
24297		-14.252945	0.947126	-36.909747
24298		-14.222907	0.925472	-36.713964
24299		-14.173809	0.914774	-36.517974
24300		-14.104062	0.906186	-36.317394
24301		-14.029893	0.901076	-36.113023
24302		-13.949879	0.898006	-35.900594
24303		-13.879481	0.900868	-35.682935
24304		-13.818985	0.903611	-35.465362
24305		-13.764617	0.904824	-35.251816
24306		-13.720781	0.894855	-35.046705
24307		-13.670962	0.884761	-34.853466
24308		-13.607435	0.874504	-34.670756
24309		-13.530796	0.861188	-34.496333
24310		-13.447063	0.860242	-34.325060
24311		-13.354173	0.861012	-34.150682
24312		-13.269413	0.861460	-33.969709
24313		-13.197208	0.860417	-33.787027
24314		-13.128499	0.858038	-33.607428
24315		-13.064192	0.851582	-33.441778
24316		-12.989607	0.854377	-33.286357
24317		-12.904650	0.863046	-33.129821
24318		-12.832322	0.876364	-32.972269
24319		-12.779200	0.899208	-32.813078
24320		-12.735604	0.928172	-32.656140
24321		-12.696714	0.952626	-32.507598
24322		-12.659257	0.970233	-32.364337
24323		-12.625267	0.988986	-32.221089
24324		-12.587424	1.005504	-32.071837
24325		-12.540770	1.022025	-31.924935
24326		-12.491093	1.033422	-31.781416
24327		-12.439893	1.050468	-31.641213
24328		-12.382656	1.077765	-31.495777
24329		-12.326528	1.108854	-31.342825
24330		-12.277094	1.143875	-31.185436
24331		-12.227455	1.176151	-31.017599
24332		-12.184602	1.223102	-30.844776
24333		-12.126162	1.279692	-30.665675
24334		-12.068943	1.337666	-30.476225
24335		-12.024685	1.401891	-30.285222
24336		-11.968568	1.446584	-30.103233
24337		-11.912543	1.483126	-29.938863
24338		-11.860784	1.530734	-29.794256
24339		-11.811151	1.594545	-29.657332
24340		-11.765427	1.672732	-29.524346
24341		-11.714938	1.753242	-29.386091
24342		-11.662299	1.821793	-29.249696
24343		-11.603321	1.877695	-29.117029
24344		-11.539941	1.919981	-28.991089
24345		-11.477338	1.934198	-28.867218
24346		-11.432632	1.929838	-28.749597
24347		-11.410991	1.928934	-28.655132
24348		-11.390358	1.942914	-28.590033
24349		-11.374923	1.970140	-28.538086
24350		-11.371016	2.012969	-28.502370
24351		-11.375136	2.054820	-28.472455
24352		-11.375740	2.082479	-28.448904
24353		-11.371255	2.097535	-28.425748
24354		-11.366816	2.106347	-28.405095
24355		-11.369609	2.123301	-28.391953
24356		-11.368336	2.144016	-28.381697
24357		-11.362778	2.167996	-28.367692
24358		-11.353129	2.197364	-28.343891
24359		-11.342678	2.223048	-28.313193
24360		-11.339921	2.242591	-28.276119
24361		-11.339256	2.265726	-28.241709
24362		-11.332179	2.290678	-28.206527
24363		-11.318515	2.315030	-28.170628
24364		-11.298656	2.339583	-28.136994
24365		-11.270392	2.366656	-28.100809
24366		-11.239572	2.387395	-28.064283
24367		-11.214370	2.400720	-28.023615
24368		-11.188629	2.410906	-27.982645
24369		-11.160147	2.422793	-27.944650
24370		-11.139111	2.436791	-27.908868
24371		-11.117025	2.453465	-27.881166
24372		-11.098372	2.465606	-27.859807
24373		-11.079592	2.477672	-27.838152
24374		-11.072219	2.487793	-27.817430
24375		-11.071628	2.494841	-27.799096
24376		-11.081603	2.500752	-27.784399
24377		-11.087649	2.510797	-27.777640
24378		-11.085507	2.528190	-27.774496
24379		-11.085812	2.543678	-27.777959
24380		-11.074441	2.556180	-27.779292
24381		-11.061272	2.567605	-27.775286
24382		-11.050240	2.578288	-27.767853
24383		-11.052624	2.584229	-27.758279
24384		-11.051686	2.599261	-27.750068
24385		-11.048887	2.617489	-27.744151
24386		-11.043010	2.634869	-27.741536
24387		-11.029154	2.649157	-27.736225
24388		-11.006369	2.654813	-27.730759
24389		-10.993094	2.659938	-27.728917
24390		-10.979036	2.661398	-27.723796
24391		-10.968365	2.668522	-27.718300
24392		-10.971342	2.679574	-27.708484
24393		-10.974228	2.694556	-27.694195
24394		-10.974450	2.707024	-27.676661
24395		-10.966531	2.716414	-27.658095
24396		-10.954942	2.721615	-27.640451
24397		-10.944021	2.723844	-27.622051
24398		-10.938984	2.719180	-27.606374
24399		-10.936589	2.710756	-27.596323
24400		-10.937808	2.702149	-27.587008
24401		-10.948399	2.694746	-27.580603
24402		-10.958017	2.685817	-27.578212
24403		-10.964765	2.680507	-27.580015
24404		-10.974627	2.680817	-27.592296
24405		-10.977538	2.688381	-27.609491
24406		-10.985565	2.700448	-27.629333
24407		-10.996967	2.718338	-27.652968
24408		-11.012827	2.743652	-27.680004
24409		-11.038518	2.775109	-27.709381
24410		-11.080291	2.806150	-27.740699
24411		-11.127426	2.840096	-27.782107
24412		-11.173883	2.874798	-27.824238
24413		-11.205222	2.903079	-27.870665
24414		-11.225400	2.933434	-27.916478
24415		-11.238518	2.962166	-27.953275
24416		-11.247223	2.987590	-27.985783
24417		-11.250617	3.020753	-28.017576
24418		-11.256943	3.054590	-28.055054
24419		-11.257865	3.097921	-28.091064
24420		-11.262247	3.142753	-28.126768
24421		-11.265303	3.187277	-28.159194
24422		-11.270163	3.232633	-28.190372
24423		-11.274586	3.285387	-28.222993
24424		-11.281188	3.341604	-28.257435
24425		-11.292938	3.387785	-28.292543
24426		-11.296451	3.442793	-28.323912
24427		-11.292216	3.493328	-28.344211
24428		-11.269553	3.540189	-28.360464
24429		-11.253569	3.589805	-28.376100
24430		-11.234091	3.637619	-28.389094
24431		-11.206794	3.684957	-28.402047
24432		-11.182410	3.732843	-28.416395
24433		-11.156203	3.783973	-28.432808
24434		-11.130050	3.830909	-28.449559
24435		-11.099947	3.861307	-28.466750
24436		-11.048668	3.873689	-28.477036
24437		-10.981112	3.877983	-28.483505
24438		-10.914264	3.879300	-28.485173
24439		-10.846176	3.878687	-28.486338
24440		-10.772120	3.878334	-28.482313
24441		-10.689013	3.875458	-28.479216
24442		-10.598153	3.865989	-28.478533
24443		-10.485526	3.857449	-28.485039
24444		-10.365438	3.859074	-28.490275
24445		-10.240823	3.853163	-28.490081
24446		-10.122662	3.849415	-28.487715
24447		-10.009659	3.854012	-28.483580
24448		-9.905027	3.871839	-28.477232
24449		-9.806431	3.901460	-28.471883
24450		-9.714547	3.943796	-28.469586
24451		-9.637096	3.993701	-28.468254
24452		-9.564076	4.052374	-28.470973
24453		-9.481841	4.122264	-28.471289
24454		-9.402132	4.194022	-28.476731
24455		-9.323996	4.268379	-28.484009
24456		-9.258788	4.351312	-28.491074
24457		-9.203890	4.430818	-28.495948
24458		-9.151077	4.499438	-28.497371
24459		-9.100515	4.553860	-28.487733
24460		-9.060883	4.591519	-28.475161
24461		-9.014493	4.620368	-28.458336
24462		-8.962496	4.637916	-28.438259
24463		-8.912328	4.642507	-28.418678
24464		-8.855258	4.641792	-28.404532
24465		-8.793764	4.641921	-28.393508
24466		-8.741589	4.649083	-28.385760
24467		-8.713219	4.660844	-28.386925
24468		-8.703825	4.671353	-28.389732
24469		-8.698113	4.664104	-28.395887
24470		-8.679805	4.642261	-28.407429
24471		-8.654128	4.614460	-28.421156
24472		-8.622543	4.585154	-28.438069
24473		-8.592727	4.552798	-28.453425
24474		-8.569641	4.519201	-28.465282
24475		-8.559007	4.484060	-28.470584
24476		-8.555539	4.458169	-28.475764
24477		-8.570102	4.441606	-28.482944
24478		-8.600650	4.428919	-28.496118
24479		-8.619038	4.414681	-28.512481
24480		-8.635100	4.398597	-28.532996
24481		-8.640438	4.379352	-28.558926
24482		-8.631647	4.359154	-28.591107
24483		-8.619150	4.341187	-28.631138
24484		-8.617801	4.327157	-28.676598
24485		-8.634216	4.318005	-28.735295
24486		-8.662857	4.314558	-28.799516
24487		-8.699582	4.314116	-28.868845
24488		-8.749918	4.311608	-28.947016
24489		-8.802564	4.306716	-29.031200
24490		-8.832938	4.299791	-29.123152
24491		-8.844001	4.285908	-29.219119
24492		-8.843324	4.272796	-29.315325
24493		-8.846885	4.258489	-29.406078
24494		-8.875465	4.236430	-29.486277
24495		-8.917772	4.202630	-29.561638
24496		-8.973317	4.152257	-29.638333
24497		-9.050793	4.087286	-29.713121
24498		-9.122046	4.020237	-29.793579
24499		-9.184963	3.945893	-29.882401
24500		-9.241148	3.874525	-29.985136
24501		-9.296928	3.812353	-30.101312
24502		-9.369354	3.756283	-30.224611
24503		-9.449192	3.715503	-30.358227
24504		-9.528093	3.694177	-30.503233
24505		-9.615984	3.684334	-30.663227
24506		-9.708273	3.684280	-30.838528
24507		-9.802801	3.694739	-31.022663
24508		-9.909690	3.715319	-31.207732
24509		-10.000851	3.734258	-31.387080
24510		-10.083075	3.748520	-31.563275
24511		-10.165205	3.763715	-31.743505
24512		-10.245947	3.777887	-31.926380
24513		-10.347556	3.778992	-32.107939
24514		-10.469923	3.764592	-32.285748
24515		-10.609721	3.732219	-32.454485
24516		-10.738313	3.685892	-32.629350
24517		-10.841480	3.629734	-32.807117
24518		-10.919991	3.573915	-32.997932
24519		-10.978380	3.527336	-33.196660
24520		-11.026450	3.489503	-33.398187
24521		-11.070509	3.453278	-33.594797
24522		-11.121760	3.416154	-33.782006
24523		-11.184357	3.384214	-33.961227
24524		-11.251296	3.353009	-34.130597
24525		-11.311317	3.315423	-34.297955
24526		-11.363996	3.276083	-34.466593
24527		-11.398531	3.227047	-34.639378
24528		-11.424763	3.176410	-34.822175
24529		-11.449760	3.134046	-35.016409
24530		-11.483725	3.110526	-35.222879
24531		-11.538481	3.105722	-35.439005
24532		-11.616386	3.109114	-35.650177
24533		-11.705496	3.114627	-35.856528
24534		-11.792955	3.113656	-36.061337
24535		-11.873370	3.097192	-36.262301
24536		-11.946104	3.077891	-36.469838
24537		-11.999328	3.059516	-36.686000
24538		-12.049335	3.039213	-36.907437
24539		-12.094575	3.028932	-37.137885
24540		-12.143660	3.028413	-37.369208
24541		-12.199101	3.037131	-37.602424
24542		-12.260317	3.052239	-37.840731
24543		-12.326653	3.064518	-38.076892
24544		-12.397962	3.073763	-38.310907
24545		-12.470259	3.077815	-38.546206
24546		-12.545123	3.079329	-38.779543
24547		-12.625863	3.087777	-39.012147
24548		-12.709446	3.105179	-39.249614
24549		-12.793131	3.122976	-39.490719
24550		-12.886628	3.144952	-39.734134
24551		-12.979094	3.167030	-39.983775
24552		-13.073783	3.185162	-40.236783
24553		-13.184149	3.193157	-40.497758
24554		-13.304739	3.194796	-40.777059
24555		-13.402038	3.191758	-41.056500
24556		-13.499327	3.186097	-41.331845
24557		-13.593446	3.172869	-41.599977
24558		-13.675787	3.145540	-41.858146
24559		-13.733241	3.111337	-42.100375
24560		-13.761685	3.080427	-42.328330
24561		-13.769562	3.049090	-42.547761
24562		-13.778719	3.018766	-42.756399
24563		-13.798287	3.006228	-42.960554
24564		-13.822126	2.997606	-43.169791
24565		-13.844712	2.987511	-43.375673
24566		-13.869327	2.979933	-43.577851
24567		-13.882247	2.975005	-43.778872
24568		-13.877106	2.971101	-43.971776
24569		-13.868287	2.979059	-44.154793
24570		-13.860544	2.999736	-44.326060
24571		-13.860974	3.029505	-44.488674
24572		-13.866776	3.062713	-44.645272
24573		-13.886558	3.095724	-44.799250
24574		-13.907612	3.131558	-44.952657
24575		-13.921865	3.164190	-45.096740
24576		-13.930585	3.196974	-45.237921
24577		-13.932084	3.235866	-45.379051
24578		-13.923763	3.284412	-45.519592
24579		-13.918052	3.336525	-45.663838
24580		-13.912855	3.389543	-45.813211
24581		-13.908864	3.445286	-45.962654
24582		-13.907143	3.496717	-46.111224
24583		-13.908341	3.544252	-46.261687
24584		-13.902089	3.594212	-46.403842
24585		-13.884948	3.647283	-46.540075
24586		-13.869420	3.705950	-46.670847
24587		-13.847877	3.765726	-46.792686
24588		-13.836168	3.828521	-46.920619
24589		-13.826631	3.889538	-47.052544
24590		-13.817288	3.954054	-47.189650
24591		-13.813457	4.019392	-47.327487
24592		-13.815649	4.087775	-47.465055
24593		-13.814450	4.154532	-47.606263
24594		-13.804482	4.222371	-47.746969
24595		-13.788022	4.295389	-47.888039
24596		-13.772916	4.371037	-48.020649
24597		-13.759333	4.442617	-48.148974
24598		-13.752577	4.513300	-48.269767
24599		-13.738979	4.583298	-48.387203
24600		-13.721265	4.649428	-48.500141
24601		-13.704848	4.709687	-48.609690
24602		-13.691916	4.765821	-48.718023
24603		-13.680247	4.818645	-48.825464
24604		-13.661287	4.868510	-48.923629
24605		-13.642314	4.915590	-49.027292
24606		-13.625184	4.956608	-49.130812
24607		-13.600000	4.996164	-49.229888
24608		-13.575691	5.037378	-49.324328
24609		-13.550536	5.081822	-49.413612
24610		-13.523178	5.127865	-49.497925
24611		-13.501065	5.172308	-49.579278
24612		-13.476634	5.217403	-49.659668
24613		-13.445174	5.264508	-49.738889
24614		-13.416995	5.308777	-49.810993
24615		-13.389375	5.350648	-49.882642
24616		-13.361549	5.397397	-49.951065
24617		-13.335181	5.442529	-50.013365
24618		-13.311164	5.486928	-50.074983
24619		-13.286169	5.533328	-50.136891
24620		-13.266935	5.574520	-50.207014
24621		-13.242598	5.617252	-50.273731
24622		-13.221480	5.655205	-50.341953
24623		-13.201292	5.690032	-50.401388
24624		-13.179671	5.723928	-50.451011
24625		-13.159051	5.759097	-50.493007
24626		-13.141572	5.792495	-50.529772
24627		-13.119744	5.822230	-50.563499
24628		-13.102549	5.845999	-50.597147
24629		-13.082406	5.870601	-50.640437
24630		-13.069021	5.895772	-50.684804
24631		-13.055658	5.922280	-50.730105
24632		-13.038467	5.953618	-50.769465
24633		-13.013708	5.987410	-50.803607
24634		-12.984848	6.021916	-50.829054
24635		-12.956336	6.055731	-50.852822
24636		-12.930329	6.083331	-50.875037
24637		-12.898052	6.109317	-50.902932
24638		-12.874130	6.135797	-50.926001
24639		-12.863506	6.165082	-50.950382
24640		-12.863267	6.196968	-50.970000
24641		-12.865287	6.224917	-50.991176
24642		-12.861727	6.248764	-51.011371
24643		-12.866616	6.268203	-51.036482
24644		-12.870994	6.284248	-51.060583
24645		-12.880507	6.303415	-51.081257
24646		-12.889153	6.324942	-51.100163
24647		-12.889504	6.348278	-51.113966
24648		-12.879089	6.370166	-51.118578
24649		-12.866961	6.391158	-51.120114
24650		-12.859911	6.410289	-51.119136
24651		-12.859477	6.430669	-51.116117
24652		-12.864577	6.446521	-51.118080
24653		-12.874605	6.462627	-51.121845
24654		-12.887394	6.478335	-51.125830
24655		-12.899987	6.491854	-51.132572
24656		-12.905593	6.506207	-51.136695
24657		-12.901824	6.519973	-51.134672
24658		-12.900013	6.531965	-51.129525
24659		-12.898982	6.543548	-51.123737
24660		-12.896772	6.558498	-51.116888
24661		-12.901488	6.571826	-51.109391
24662		-12.914237	6.579491	-51.103032
24663		-12.923939	6.587746	-51.100294
24664		-12.923190	6.597887	-51.101274
24665		-12.915173	6.609169	-51.104860
24666		-12.905311	6.620565	-51.105557
24667		-12.897522	6.632573	-51.106537
24668		-12.890243	6.642470	-51.112049
24669		-12.887805	6.651786	-51.116112
24670		-12.886656	6.662140	-51.120684
24671		-12.883788	6.672561	-51.124219
24672		-12.880951	6.679955	-51.127822
24673		-12.875578	6.689063	-51.132902
24674		-12.870819	6.699384	-51.134689
24675		-12.868862	6.711191	-51.129965
24676		-12.874864	6.724486	-51.127325
24677		-12.885596	6.734348	-51.122312
24678		-12.901563	6.742561	-51.120956
24679		-12.914854	6.751908	-51.116464
24680		-12.922724	6.760494	-51.116658
24681		-12.924621	6.771229	-51.120354
24682		-12.920492	6.780550	-51.129000
24683		-12.915723	6.788458	-51.141205
24684		-12.912448	6.793961	-51.150836
24685		-12.914131	6.798879	-51.159175
24686		-12.923995	6.803563	-51.165493
24687		-12.942136	6.803894	-51.169248
24688		-12.956790	6.803427	-51.173917
24689		-12.970839	6.803501	-51.180808
24690		-12.984568	6.806141	-51.187107
24691		-12.996422	6.809620	-51.194808
24692		-13.003717	6.816227	-51.200740
24693		-13.011375	6.819436	-51.204347
24694		-13.016365	6.822874	-51.213888
24695		-13.016355	6.826648	-51.225850
24696		-13.015918	6.832489	-51.239630
24697		-13.019059	6.839755	-51.256740
24698		-13.023988	6.848974	-51.278769
24699		-13.033617	6.857908	-51.297546
24700		-13.049065	6.867853	-51.317177
24701		-13.060126	6.876926	-51.334737
24702		-13.066712	6.886780	-51.348477
24703		-13.071218	6.898607	-51.363599
24704		-13.070044	6.908940	-51.373719
24705		-13.068714	6.916041	-51.385105
24706		-13.066678	6.923520	-51.397372
24707		-13.062307	6.929954	-51.416997
24708		-13.052866	6.937840	-51.433570
24709		-13.040073	6.948936	-51.447613
24710		-13.023840	6.957056	-51.459520
24711		-13.008366	6.963975	-51.467512
24712		-13.000543	6.968613	-51.473647
24713		-12.997535	6.974298	-51.477088
24714		-12.996689	6.980452	-51.481275
24715		-12.994543	6.981367	-51.489826
24716		-12.992337	6.985501	-51.496780
24717		-12.987738	6.991962	-51.496788
24718		-12.980936	6.997291	-51.491997
24719		-12.974980	7.002747	-51.483793
24720		-12.971460	7.004266	-51.471811
24721		-12.965798	7.003280	-51.461812
24722		-12.959825	7.000828	-51.450130
24723		-12.953660	6.999135	-51.447200
24724		-12.946665	6.995980	-51.446413
24725		-12.931822	6.992700	-51.445108
24726		-12.920736	6.990057	-51.443580
24727		-12.913026	6.988268	-51.440599
24728		-12.907336	6.986019	-51.435287
24729		-12.901835	6.984486	-51.428270
24730		-12.900991	6.982356	-51.418046
24731		-12.902207	6.984101	-51.412948
24732		-12.905559	6.985066	-51.407161
24733		-12.906141	6.981933	-51.401734
24734		-12.905140	6.981946	-51.400242
24735		-12.900102	6.983157	-51.401669
24736		-12.896230	6.986440	-51.405188
24737		-12.890162	6.988980	-51.409260
24738		-12.885234	6.994215	-51.412456
24739		-12.879909	6.997778	-51.421102
24740		-12.876878	7.000136	-51.431905
24741		-12.872649	7.005019	-51.438675
24742		-12.868335	7.011623	-51.444730
24743		-12.861086	7.018075	-51.445663
24744		-12.851853	7.024711	-51.443463
24745		-12.845116	7.034326	-51.438501
24746		-12.842241	7.042500	-51.431717
24747		-12.839247	7.051324	-51.428392
24748		-12.835722	7.062318	-51.419331
24749		-12.825215	7.068630	-51.413563
24750		-12.812795	7.074412	-51.407823
24751		-12.795715	7.081670	-51.400935
24752		-12.779753	7.088233	-51.395559
24753		-12.768353	7.093214	-51.390979
24754		-12.754862	7.102331	-51.385089
24755		-12.742462	7.109420	-51.374463
24756		-12.745781	7.113149	-51.369061
24757		-12.760626	7.111704	-51.371769
24758		-12.771662	7.112573	-51.379686
24759		-12.777836	7.114191	-51.395699
24760		-12.779787	7.116175	-51.416224
24761		-12.778541	7.117377	-51.439660
24762		-12.782365	7.119140	-51.456601
24763		-12.791062	7.121733	-51.472206
24764		-12.803829	7.123089	-51.485030
24765		-12.829301	7.128853	-51.495594
24766		-12.863641	7.137488	-51.505834
24767		-12.901650	7.148848	-51.514266
24768		-12.938170	7.164122	-51.529809
24769		-12.966495	7.178736	-51.551520
24770		-12.978451	7.189266	-51.582879
24771		-12.976617	7.200374	-51.621955
24772		-12.966778	7.206025	-51.662984
24773		-12.948714	7.207722	-51.698998
24774		-12.929560	7.204340	-51.721732
24775		-12.914317	7.193297	-51.732693
24776		-12.898533	7.178764	-51.737322
24777		-12.873808	7.165627	-51.736372
24778		-12.842019	7.151613	-51.734074
24779		-12.805757	7.135033	-51.724528
24780		-12.765969	7.114372	-51.711235
24781		-12.727401	7.092077	-51.691778
24782		-12.699939	7.064090	-51.668467
24783		-12.682303	7.032098	-51.641593
24784		-12.676958	6.995449	-51.611454
24785		-12.683931	6.954713	-51.588346
24786		-12.692173	6.910615	-51.578071
24787		-12.695719	6.861519	-51.581765
24788		-12.700291	6.817117	-51.606198
24789		-12.699467	6.775553	-51.638765
24790		-12.696098	6.740460	-51.670681
24791		-12.696530	6.711136	-51.688305
24792		-12.702863	6.683692	-51.685436
24793		-12.729618	6.649365	-51.673330
24794		-12.760685	6.609607	-51.665271
24795		-12.791747	6.562059	-51.659559
24796		-12.808029	6.513014	-51.659939
24797		-12.819917	6.467273	-51.670757
24798		-12.835577	6.426117	-51.684221
24799		-12.853853	6.386478	-51.702166
24800		-12.856484	6.348745	-51.720888
24801		-12.850332	6.316968	-51.739736
24802		-12.849815	6.287918	-51.757929
24803		-12.837607	6.262998	-51.777674
24804		-12.816110	6.247616	-51.792720
24805		-12.815122	6.234340	-51.803292
24806		-12.821306	6.215324	-51.813006
24807		-12.822226	6.193442	-51.831362
24808		-12.821859	6.170132	-51.856632
24809		-12.817625	6.143022	-51.887675
24810		-12.812981	6.112193	-51.920857
24811		-12.820086	6.076985	-51.959810
24812		-12.837599	6.038680	-52.005378
24813		-12.843150	6.000963	-52.042230
24814		-12.842890	5.967911	-52.072163
24815		-12.847939	5.938292	-52.097541
24816		-12.859442	5.909168	-52.116388
24817		-12.871506	5.882846	-52.125835
24818		-12.884008	5.861387	-52.128739
24819		-12.899688	5.844467	-52.126036
24820		-12.913353	5.832554	-52.117994
24821		-12.926538	5.813265	-52.102831
24822		-12.932812	5.793979	-52.083255
24823		-12.925054	5.770830	-52.059384
24824		-12.891120	5.749313	-52.030942
24825		-12.853314	5.734879	-51.999656
24826		-12.821687	5.718840	-51.963368
24827		-12.801928	5.688473	-51.919826
24828		-12.797232	5.649436	-51.882406
24829		-12.789965	5.606161	-51.845863
24830		-12.774236	5.557712	-51.808281
24831		-12.763054	5.507546	-51.771623
24832		-12.754930	5.451272	-51.730200
24833		-12.749627	5.387030	-51.684847
24834		-12.755196	5.317642	-51.637555
24835		-12.767289	5.240649	-51.587646
24836		-12.794298	5.150527	-51.536796
24837		-12.830646	5.051376	-51.488424
24838		-12.863566	4.944198	-51.440141
24839		-12.888360	4.833870	-51.388846
24840		-12.909225	4.719273	-51.331984
24841		-12.934137	4.597030	-51.273595
24842		-12.962812	4.475919	-51.212597
24843		-12.979369	4.353330	-51.149514
24844		-13.000038	4.233616	-51.077406
24845		-13.021793	4.109764	-51.000889
24846		-13.044569	3.988570	-50.908810
24847		-13.065245	3.872975	-50.807375
24848		-13.095752	3.757972	-50.698940
24849		-13.132078	3.643606	-50.592073
24850		-13.174629	3.523072	-50.486098
24851		-13.226507	3.396393	-50.381152
24852		-13.282341	3.267656	-50.274774
24853		-13.335396	3.138696	-50.168798
24854		-13.376204	3.016131	-50.056962
24855		-13.405237	2.901793	-49.941122
24856		-13.435967	2.795081	-49.816168
24857		-13.463981	2.693908	-49.678522
24858		-13.489725	2.591119	-49.527850
24859		-13.524137	2.494499	-49.366170
24860		-13.559987	2.397524	-49.188597
24861		-13.608657	2.304070	-49.004264
24862		-13.658204	2.216085	-48.809504
24863		-13.702635	2.128402	-48.606523
24864		-13.756485	2.036628	-48.401373
24865		-13.807964	1.958059	-48.192741
24866		-13.855893	1.878227	-47.983610
24867		-13.895416	1.801922	-47.771444
24868		-13.925330	1.733062	-47.553183
24869		-13.950266	1.668072	-47.324542
24870		-13.973917	1.610517	-47.086881
24871		-13.995253	1.564819	-46.844405
24872		-14.014340	1.525489	-46.593413
24873		-14.033330	1.497179	-46.338310
24874		-14.049653	1.476035	-46.076660
24875		-14.062719	1.454897	-45.810382
24876		-14.071064	1.432513	-45.543738
24877		-14.069715	1.413747	-45.280405
24878		-14.053851	1.395495	-45.020059
24879		-14.033844	1.381493	-44.760980
24880		-14.011672	1.378762	-44.500679
24881		-13.997718	1.384837	-44.238248
24882		-14.001065	1.397539	-43.973486
24883		-14.026489	1.417941	-43.703498
24884		-14.066106	1.439227	-43.435679
24885		-14.106853	1.461261	-43.181077
24886		-14.127593	1.484569	-42.934025
24887		-14.123413	1.515634	-42.691721
24888		-14.106210	1.550809	-42.448589
24889		-14.095651	1.591271	-42.208497
24890		-14.085247	1.638667	-41.975318
24891		-14.081962	1.691749	-41.747304
24892		-14.090493	1.746730	-41.520703
24893		-14.107304	1.808466	-41.302435
24894		-14.129009	1.873179	-41.091348
24895		-14.158511	1.922293	-40.894117
24896		-14.185817	1.967280	-40.715703
24897		-14.208057	2.003874	-40.545846
24898		-14.233676	2.033383	-40.379414
24899		-14.258672	2.066209	-40.218638
24900		-14.273627	2.103447	-40.059042
24901		-14.291740	2.146708	-39.895772
24902		-14.309462	2.186900	-39.726070
24903		-14.340555	2.219336	-39.561023
24904		-14.381866	2.244667	-39.402104
24905		-14.425075	2.256807	-39.258796
24906		-14.458283	2.252392	-39.121720
24907		-14.492793	2.238263	-38.984104
24908		-14.517607	2.217086	-38.843518
24909		-14.529311	2.198485	-38.701597
24910		-14.535770	2.182613	-38.551836
24911		-14.536799	2.170743	-38.398350
24912		-14.533094	2.164812	-38.241401
24913		-14.539464	2.178183	-38.085041
24914		-14.544465	2.211210	-37.917392
24915		-14.547118	2.235892	-37.739263
24916		-14.542950	2.253911	-37.543170
24917		-14.546231	2.263765	-37.337638
24918		-14.550276	2.262960	-37.122945
24919		-14.571249	2.243567	-36.908978
24920		-14.606554	2.217866	-36.708977
24921		-14.612738	2.191370	-36.522204
24922		-14.582546	2.162263	-36.340113
24923		-14.537225	2.133968	-36.161727
24924		-14.487611	2.106298	-35.982428
24925		-14.435978	2.077507	-35.804680
24926		-14.393163	2.046733	-35.628026
24927		-14.355785	2.019428	-35.454763
24928		-14.320780	2.000596	-35.284550
24929		-14.276411	1.978164	-35.111859
24930		-14.232262	1.964309	-34.938194
24931		-14.200353	1.955873	-34.767740
24932		-14.173519	1.954574	-34.600232
24933		-14.139537	1.948196	-34.429841
24934		-14.123143	1.941880	-34.267516
24935		-14.113591	1.951218	-34.110705
24936		-14.101138	1.969577	-33.963584
24937		-14.085306	1.996951	-33.820940
24938		-14.060693	2.024850	-33.679948
24939		-14.032555	2.047462	-33.544615
24940		-14.003625	2.075940	-33.408490
24941		-13.985780	2.104940	-33.273695
24942		-13.966546	2.147950	-33.138391
24943		-13.945369	2.202706	-33.002521
24944		-13.920922	2.254982	-32.862033
24945		-13.893445	2.304848	-32.721171
24946		-13.866645	2.341047	-32.581839
24947		-13.851736	2.365868	-32.449896
24948		-13.840103	2.399791	-32.326147
24949		-13.825027	2.428830	-32.206387
24950		-13.799866	2.464005	-32.080272
24951		-13.753697	2.502961	-31.950350
24952		-13.693890	2.539627	-31.813194
24953		-13.614894	2.573311	-31.670388
24954		-13.526164	2.608313	-31.518915
24955		-13.463195	2.641213	-31.359650
24956		-13.400922	2.663310	-31.180629
24957		-13.362557	2.689167	-31.003043
24958		-13.333042	2.723324	-30.829493
24959		-13.304872	2.755660	-30.652550
24960		-13.273705	2.781852	-30.472957
24961		-13.229273	2.794181	-30.297180
24962		-13.171289	2.792291	-30.123346
24963		-13.106615	2.785360	-29.958603
24964		-13.042045	2.781414	-29.801497
24965		-12.960549	2.778574	-29.641378
24966		-12.904279	2.783877	-29.482097
24967		-12.866183	2.805482	-29.328337
24968		-12.828834	2.831225	-29.184945
24969		-12.791861	2.858879	-29.050175
24970		-12.748918	2.880892	-28.925474
24971		-12.712857	2.901268	-28.805887
24972		-12.681947	2.928791	-28.694598
24973		-12.644743	2.956268	-28.583305
24974		-12.608245	2.984630	-28.474095
24975		-12.568001	3.016771	-28.362226
24976		-12.517239	3.046572	-28.246873
24977		-12.464957	3.075703	-28.133524
24978		-12.430359	3.104423	-28.025571
24979		-12.387022	3.128998	-27.930265
24980		-12.353317	3.162025	-27.840073
24981		-12.319471	3.189094	-27.749369
24982		-12.278167	3.220122	-27.657901
24983		-12.225628	3.249411	-27.562196
24984		-12.175920	3.282994	-27.462680
24985		-12.127281	3.314387	-27.358633
24986		-12.092795	3.344099	-27.257929
24987		-12.063082	3.382610	-27.156869
24988		-12.035782	3.424860	-27.054424
24989		-12.001404	3.467713	-26.950468
24990		-11.958099	3.512386	-26.842137
24991		-11.904579	3.554878	-26.729821
24992		-11.848247	3.594978	-26.614012
24993		-11.800470	3.634618	-26.498447
24994		-11.768532	3.680839	-26.391191
24995		-11.735041	3.718955	-26.284038
24996		-11.710159	3.758545	-26.182312
24997		-11.685797	3.798657	-26.086862
24998		-11.655534	3.837378	-25.996709
24999		-11.622210	3.871347	-25.911230
25000		-11.573720	3.889665	-25.825920
25001		-11.527138	3.908778	-25.742526
25002		-11.506483	3.925487	-25.664769
25003		-11.493849	3.950514	-25.594851
25004		-11.481885	3.982250	-25.529686
25005		-11.463248	4.013218	-25.466856
25006		-11.433955	4.043126	-25.405153
25007		-11.406029	4.067430	-25.344946
25008		-11.395712	4.080528	-25.283778
25009		-11.388585	4.088818	-25.229663
25010		-11.384836	4.104193	-25.183718
25011		-11.372365	4.125277	-25.139636
25012		-11.359441	4.149447	-25.098720
25013		-11.339957	4.169173	-25.057491
25014		-11.313622	4.186020	-25.017887
25015		-11.300091	4.189954	-24.977918
25016		-11.290590	4.200149	-24.941156
25017		-11.296876	4.213592	-24.910575
25018		-11.302539	4.239494	-24.883927
25019		-11.311272	4.274048	-24.854196
25020		-11.313852	4.312486	-24.825277
25021		-11.303339	4.348015	-24.791819
25022		-11.287520	4.382993	-24.756023
25023		-11.272915	4.412084	-24.723076
25024		-11.272070	4.431856	-24.688587
25025		-11.278870	4.432766	-24.655482
25026		-11.296087	4.415208	-24.627094
25027		-11.312966	4.404727	-24.603571
25028		-11.327090	4.405310	-24.587525
25029		-11.332535	4.405887	-24.572817
25030		-11.319410	4.406472	-24.559654
25031		-11.297658	4.401272	-24.547564
25032		-11.261521	4.394961	-24.534864
25033		-11.223119	4.390792	-24.528048
25034		-11.183048	4.387877	-24.523881
25035		-11.125293	4.374811	-24.507201
25036		-11.068324	4.362997	-24.475194
25037		-11.022974	4.369243	-24.427291
25038		-10.967441	4.382656	-24.370186
25039		-10.913022	4.407334	-24.312852
25040		-10.854482	4.438977	-24.258222
25041		-10.792445	4.476627	-24.207301
25042		-10.733010	4.518272	-24.156251
25043		-10.679657	4.563588	-24.104098
25044		-10.619388	4.613430	-24.055340
25045		-10.568254	4.665952	-24.008770
25046		-10.496371	4.710964	-23.967891
25047		-10.416630	4.737870	-23.938385
25048		-10.376231	4.749302	-23.930308
25049		-10.358707	4.744475	-23.929831
25050		-10.342598	4.730428	-23.927664
25051		-10.320517	4.732070	-23.924062
25052		-10.294886	4.741571	-23.915174
25053		-10.273798	4.758159	-23.912000
25054		-10.249105	4.786440	-23.910325
25055		-10.236540	4.816299	-23.909922
25056		-10.223464	4.847366	-23.908902
25057		-10.199958	4.881329	-23.910853
25058		-10.164311	4.917358	-23.914306
25059		-10.109433	4.955830	-23.913043
25060		-10.047337	4.996441	-23.904146
25061		-9.978703	5.044070	-23.891355
25062		-9.909008	5.093748	-23.871162
25063		-9.848468	5.140360	-23.852796
25064		-9.799150	5.179652	-23.840190
25065		-9.748402	5.210957	-23.829735
25066		-9.687739	5.234321	-23.820812
25067		-9.614515	5.253200	-23.807311
25068		-9.536848	5.276611	-23.795359
25069		-9.459777	5.304640	-23.776577
25070		-9.388950	5.336690	-23.757153
25071		-9.322680	5.372178	-23.736258
25072		-9.262719	5.417312	-23.715465
25073		-9.208963	5.460709	-23.689676
25074		-9.149819	5.507005	-23.661853
25075		-9.091071	5.553955	-23.635480
25076		-9.033696	5.601016	-23.610809
25077		-8.987872	5.641491	-23.587560
25078		-8.944983	5.684486	-23.574011
25079		-8.905638	5.725359	-23.566149
25080		-8.877870	5.755760	-23.555027
25081		-8.847969	5.776915	-23.541448
25082		-8.809703	5.785070	-23.527560
25083		-8.759718	5.774941	-23.512520
25084		-8.699704	5.750768	-23.502239
25085		-8.665864	5.721911	-23.489865
25086		-8.638344	5.685741	-23.482710
25087		-8.604130	5.627555	-23.473041
25088		-8.585782	5.550254	-23.460955
25089		-8.553685	5.466455	-23.447311
25090		-8.487967	5.371560	-23.433770
25091		-8.397153	5.265718	-23.420852
25092		-8.281726	5.164590	-23.412142
25093		-8.152579	5.077953	-23.405706
25094		-8.043100	5.007207	-23.413746
25095		-7.973273	4.957319	-23.425099
25096		-7.931085	4.934173	-23.444493
25097		-7.910008	4.925487	-23.465115
25098		-7.913106	4.909009	-23.482156
25099		-7.918269	4.876719	-23.500624
25100		-7.916686	4.825855	-23.517016
25101		-7.902531	4.766759	-23.541740
25102		-7.867948	4.710021	-23.579906
25103		-7.833907	4.656365	-23.623793
25104		-7.811646	4.617655	-23.674614
25105		-7.789106	4.601736	-23.732049
25106		-7.779877	4.595391	-23.788140
25107		-7.781581	4.589143	-23.845597
25108		-7.775809	4.582542	-23.904639
25109		-7.776030	4.570227	-23.967312
25110		-7.760010	4.555206	-24.034629
25111		-7.732536	4.545063	-24.105070
25112		-7.701074	4.534283	-24.172205
25113		-7.678620	4.526106	-24.231414
25114		-7.682338	4.530121	-24.273401
25115		-7.696507	4.544492	-24.299277
25116		-7.736957	4.558008	-24.312423
25117		-7.787253	4.564229	-24.330732
25118		-7.827308	4.558301	-24.358354
25119		-7.864142	4.540026	-24.400413
25120		-7.881932	4.516784	-24.457725
25121		-7.902765	4.492773	-24.526807
25122		-7.945462	4.478226	-24.599078
25123		-7.995683	4.477396	-24.673752
25124		-8.039830	4.487608	-24.750002
25125		-8.068853	4.504417	-24.826786
25126		-8.080062	4.519870	-24.900630
25127		-8.065441	4.517802	-24.964782
25128		-8.038284	4.501937	-25.021152
25129		-8.012078	4.476433	-25.071113
25130		-8.009482	4.443862	-25.119098
25131		-8.036947	4.405099	-25.164958
25132		-8.082505	4.369729	-25.219779
25133		-8.124562	4.349898	-25.288649
25134		-8.159953	4.342149	-25.374062
25135		-8.179808	4.350083	-25.475051
25136		-8.190109	4.367379	-25.586855
25137		-8.199565	4.385118	-25.702484
25138		-8.204542	4.397625	-25.816082
25139		-8.219492	4.395288	-25.929904
25140		-8.240322	4.377640	-26.038424
25141		-8.264927	4.352542	-26.147979
25142		-8.307934	4.321799	-26.264582
25143		-8.350660	4.297779	-26.393126
25144		-8.392689	4.278051	-26.528411
25145		-8.437661	4.261034	-26.665368
25146		-8.477275	4.251932	-26.799313
25147		-8.519420	4.243034	-26.924146
25148		-8.568251	4.228999	-27.037587
25149		-8.611298	4.204768	-27.140564
25150		-8.665343	4.161855	-27.230750
25151		-8.729993	4.101659	-27.320003
25152		-8.793163	4.028180	-27.413992
25153		-8.855984	3.943115	-27.519220
25154		-8.923548	3.855601	-27.633393
25155		-8.991709	3.777897	-27.753698
25156		-9.065443	3.718802	-27.887500
25157		-9.148467	3.669394	-28.028540
25158		-9.225800	3.625637	-28.176139
25159		-9.285144	3.588021	-28.325713
25160		-9.343143	3.549912	-28.481102
25161		-9.398655	3.506065	-28.640093
25162		-9.451301	3.450609	-28.801600
25163		-9.505940	3.388771	-28.964393
25164		-9.563475	3.318193	-29.131197
25165		-9.623175	3.243563	-29.293446
25166		-9.693011	3.165193	-29.452585
25167		-9.762842	3.092117	-29.607601
25168		-9.820776	3.024991	-29.768322
25169		-9.872198	2.956916	-29.941190
25170		-9.922830	2.894265	-30.126943
25171		-9.985992	2.841481	-30.322565
25172		-10.063282	2.795420	-30.518038
25173		-10.154825	2.752801	-30.710252
25174		-10.259231	2.704884	-30.893344
25175		-10.360362	2.650405	-31.068284
25176		-10.445449	2.587758	-31.240728
25177		-10.511152	2.515690	-31.417766
25178		-10.561410	2.435985	-31.600468
25179		-10.596817	2.347799	-31.792501
25180		-10.622777	2.261991	-31.990450
25181		-10.634542	2.180997	-32.193583
25182		-10.651305	2.105441	-32.385481
25183		-10.681854	2.029684	-32.568854
25184		-10.719324	1.949785	-32.738473
25185		-10.761820	1.865265	-32.891778
25186		-10.812895	1.778912	-33.031134
25187		-10.874005	1.697715	-33.162983
25188		-10.941129	1.625876	-33.294262
25189		-11.010142	1.559944	-33.422751
25190		-11.079988	1.500327	-33.546724
25191		-11.141601	1.439052	-33.660252
25192		-11.197719	1.373890	-33.770716
25193		-11.242256	1.303905	-33.880081
25194		-11.282850	1.242312	-33.989271
25195		-11.324030	1.189889	-34.101651
25196		-11.366873	1.147456	-34.221673
25197		-11.408106	1.111353	-34.341707
25198		-11.449315	1.079783	-34.467378
25199		-11.491233	1.043771	-34.596584
25200		-11.528702	1.006438	-34.730789
25201		-11.555696	0.968705	-34.871171
25202		-11.570255	0.929985	-35.013113
25203		-11.575264	0.890891	-35.155548
25204		-11.577920	0.860671	-35.294296
25205		-11.584608	0.832660	-35.425672
25206		-11.606841	0.808125	-35.546229
25207		-11.633196	0.784365	-35.658733
25208		-11.655347	0.760331	-35.767551
25209		-11.669898	0.737636	-35.886853
25210		-11.679928	0.718177	-36.018860
25211		-11.689177	0.691912	-36.159485
25212		-11.701256	0.669844	-36.310765
25213		-11.709423	0.657615	-36.464875
25214		-11.720096	0.653348	-36.617207
25215		-11.731076	0.654710	-36.765497
25216		-11.739207	0.652780	-36.906099
25217		-11.732505	0.641773	-37.035078
25218		-11.719098	0.617051	-37.166359
25219		-11.693466	0.590297	-37.300300
25220		-11.672219	0.564704	-37.443376
25221		-11.661398	0.547848	-37.594721
25222		-11.665905	0.542659	-37.748163
25223		-11.674405	0.544018	-37.899826
25224		-11.678938	0.549994	-38.052200
25225		-11.673541	0.550424	-38.203550
25226		-11.658102	0.544900	-38.356067
25227		-11.640110	0.539420	-38.509747
25228		-11.620792	0.528487	-38.666462
25229		-11.590401	0.527173	-38.822025
25230		-11.565814	0.543272	-38.984003
25231		-11.552218	0.568304	-39.153086
25232		-11.548982	0.598055	-39.328733
25233		-11.549991	0.630118	-39.512043
25234		-11.558529	0.663640	-39.698918
25235		-11.559789	0.697228	-39.891531
25236		-11.550305	0.731349	-40.091430
25237		-11.526749	0.770693	-40.294872
25238		-11.500461	0.825898	-40.494336
25239		-11.474916	0.893602	-40.685052
25240		-11.458419	0.970713	-40.865354
25241		-11.447206	1.063574	-41.039949
25242		-11.438956	1.156698	-41.207735
25243		-11.420433	1.236026	-41.375456
25244		-11.393841	1.300347	-41.547499
25245		-11.343517	1.357562	-41.734162
25246		-11.285740	1.423179	-41.932677
25247		-11.249053	1.493588	-42.140420
25248		-11.229408	1.577580	-42.349268
25249		-11.232636	1.677282	-42.555418
25250		-11.252077	1.782412	-42.756116
25251		-11.275300	1.873543	-42.948380
25252		-11.284850	1.954974	-43.140352
25253		-11.287791	2.028208	-43.334524
25254		-11.280283	2.099689	-43.531424
25255		-11.270867	2.178344	-43.723557
25256		-11.271390	2.266772	-43.907315
25257		-11.277740	2.371019	-44.084237
25258		-11.291646	2.488015	-44.254846
25259		-11.292554	2.601547	-44.412150
25260		-11.267622	2.703724	-44.567833
25261		-11.232960	2.797740	-44.725566
25262		-11.183940	2.884224	-44.888796
25263		-11.134527	2.964814	-45.055825
25264		-11.093864	3.044307	-45.227919
