// General information: 
//  MT Manager version: 2022.2.0 
//  XDA version: 2022.2.0 build 7381 rev 124627 built on 2023-07-19
// Device information: 
//  DeviceId: 00B44876
//  ProductCode: MTW2-3A7G6
//  Firmware Version: 4.3.5
//  Hardware Version: 2.0.0
// Device settings: 
//  Filter Profile: human(46.1)
//  Option Flags: Orientation Smoother Disabled, Position/Velocity Smoother Disabled, Continuous Zero Rotation Update Disabled, AHS Disabled, ICC Disabled
// Coordinate system: ENU
PacketCounter	SampleTimeFine	Roll	Pitch	Yaw
22119		-1.741619	2.710448	12.399317
22120		-1.739400	2.721040	12.401407
22121		-1.740513	2.726436	12.402623
22122		-1.737683	2.729174	12.405292
22123		-1.730237	2.732898	12.408107
22124		-1.718739	2.736113	12.412702
22125		-1.701157	2.740313	12.415286
22126		-1.688210	2.737631	12.421279
22127		-1.683699	2.731757	12.426204
22128		-1.680967	2.722008	12.432657
22129		-1.682347	2.711372	12.440307
22130		-1.676234	2.700169	12.444727
22131		-1.664937	2.686569	12.449319
22132		-1.652496	2.678713	12.453285
22133		-1.639483	2.665266	12.453779
22134		-1.628926	2.644036	12.452718
22135		-1.622695	2.617980	12.449008
22136		-1.614692	2.594991	12.448058
22137		-1.609155	2.579833	12.446247
22138		-1.603260	2.569522	12.443169
22139		-1.598334	2.552216	12.441715
22140		-1.591674	2.532096	12.436955
22141		-1.584330	2.508538	12.429020
22142		-1.577632	2.478800	12.422083
22143		-1.566434	2.447933	12.414922
22144		-1.560310	2.421598	12.407972
22145		-1.552268	2.396487	12.403598
22146		-1.546212	2.368739	12.399618
22147		-1.541388	2.343803	12.398302
22148		-1.543063	2.324826	12.396296
22149		-1.549669	2.298520	12.395207
22150		-1.555486	2.264969	12.392821
22151		-1.552534	2.227087	12.392752
22152		-1.539559	2.194534	12.392005
22153		-1.523344	2.170986	12.390270
22154		-1.499137	2.151744	12.390474
22155		-1.475779	2.128699	12.392767
22156		-1.451573	2.093995	12.394315
22157		-1.434956	2.053583	12.396182
22158		-1.418708	2.017857	12.399453
22159		-1.409775	2.002727	12.402103
22160		-1.396267	2.008079	12.404078
22161		-1.379916	2.024889	12.402870
22162		-1.364242	2.055131	12.404024
22163		-1.342318	2.095734	12.406539
22164		-1.310445	2.151029	12.413620
22165		-1.274099	2.221339	12.422479
22166		-1.248174	2.318352	12.437939
22167		-1.241338	2.448809	12.463005
22168		-1.239976	2.599861	12.494305
22169		-1.247527	2.778098	12.509943
22170		-1.288823	2.936130	12.499074
22171		-1.370698	3.072847	12.452567
22172		-1.533436	3.299362	12.372086
22173		-1.536301	3.415015	12.335688
22174		-1.530269	3.587851	12.275432
22175		-1.504623	3.880713	12.223892
22176		-1.470439	4.190084	12.154452
22177		-1.412501	4.496924	12.070914
22178		-1.344016	4.791833	11.984475
22179		-1.299028	5.022488	11.896257
22180		-1.322983	5.173778	11.821937
22181		-1.387281	5.256374	11.761502
22182		-1.456423	5.331882	11.720664
22183		-1.516678	5.405527	11.701607
22184		-1.574296	5.477333	11.695691
22185		-1.601904	5.592236	11.708360
22186		-1.619742	5.769153	11.725212
22187		-1.599309	5.978373	11.757882
22188		-1.579846	6.141394	11.788395
22189		-1.569439	6.227471	11.806861
22190		-1.608650	6.276108	11.823471
22191		-1.669560	6.314532	11.840688
22192		-1.736048	6.360077	11.865244
22193		-1.786624	6.447300	11.904144
22194		-1.823823	6.590119	11.962661
22195		-1.854184	6.755360	12.031712
22196		-1.891478	6.916280	12.104509
22197		-1.951527	7.050645	12.175983
22198		-2.043531	7.148595	12.242611
22199		-2.172628	7.200133	12.304508
22200		-2.329060	7.233443	12.365132
22201		-2.479852	7.271533	12.424015
22202		-2.608376	7.326424	12.476113
22203		-2.724520	7.360322	12.521202
22204		-2.862941	7.355259	12.549895
22205		-3.028528	7.307809	12.571833
22206		-3.201054	7.245215	12.585211
22207		-3.380585	7.167536	12.588007
22208		-3.569375	7.080601	12.585456
22209		-3.771198	6.974906	12.587451
22210		-3.990062	6.858196	12.597146
22211		-4.209802	6.726456	12.622876
22212		-4.406443	6.574574	12.652396
22213		-4.544139	6.411426	12.679135
22214		-4.628112	6.260911	12.702399
22215		-4.687826	6.120551	12.714183
22216		-4.761935	5.980336	12.716834
22217		-4.885554	5.823162	12.718174
22218		-5.041472	5.648230	12.728514
22219		-5.197597	5.443417	12.742831
22220		-5.325732	5.209249	12.755259
22221		-5.438512	4.937735	12.759210
22222		-5.550383	4.616136	12.755945
22223		-5.663088	4.230348	12.751589
22224		-5.786968	3.814181	12.754649
22225		-5.913803	3.387060	12.767490
22226		-6.028015	2.940832	12.785804
22227		-6.133754	2.460001	12.794776
22228		-6.245174	1.966724	12.787418
22229		-6.399196	1.499302	12.756942
22230		-6.586008	1.079935	12.713147
22231		-6.757110	0.693927	12.659378
22232		-6.888474	0.339364	12.598812
22233		-6.981433	-0.002452	12.533973
22234		-7.048011	-0.331899	12.460535
22235		-7.093887	-0.655034	12.384671
22236		-7.162412	-0.966058	12.318192
22237		-7.305677	-1.290743	12.253479
22238		-7.517865	-1.615046	12.191848
22239		-7.764753	-1.938417	12.135257
22240		-8.025442	-2.215058	12.084695
22241		-8.272183	-2.447038	12.032087
22242		-8.457205	-2.619518	11.971843
22243		-8.563562	-2.730624	11.899234
22244		-8.613315	-2.809165	11.818432
22245		-8.653170	-2.891956	11.741766
22246		-8.709204	-2.969175	11.661262
22247		-8.806334	-3.044491	11.581894
22248		-8.940654	-3.107694	11.509245
22249		-9.084935	-3.154951	11.435276
22250		-9.220920	-3.195047	11.352110
22251		-9.339724	-3.234662	11.260713
22252		-9.430565	-3.258696	11.163678
22253		-9.510006	-3.277108	11.062446
22254		-9.586239	-3.302104	10.967476
22255		-9.664154	-3.335234	10.878604
22256		-9.728127	-3.361583	10.783003
22257		-9.781237	-3.368882	10.673685
22258		-9.831228	-3.348615	10.543899
22259		-9.871118	-3.282943	10.384996
22260		-9.906318	-3.179333	10.204124
22261		-9.937321	-3.057247	10.008774
22262		-9.976698	-2.939954	9.810125
22263		-10.027508	-2.843713	9.621514
22264		-10.076688	-2.765965	9.447267
22265		-10.105971	-2.716563	9.290122
22266		-10.101273	-2.671736	9.147695
22267		-10.067792	-2.595615	9.005716
22268		-10.008760	-2.470724	8.845952
22269		-9.946610	-2.305016	8.652371
22270		-9.869912	-2.113763	8.445932
22271		-9.781003	-1.931817	8.228427
22272		-9.674425	-1.754224	8.013517
22273		-9.562321	-1.559990	7.799069
22274		-9.451016	-1.328193	7.592226
22275		-9.350118	-1.085238	7.410542
22276		-9.266196	-0.846612	7.248198
22277		-9.165276	-0.624550	7.082920
22278		-9.026790	-0.417484	6.907237
22279		-8.874757	-0.210448	6.708666
22280		-8.708588	-0.007334	6.504362
22281		-8.576367	0.164412	6.329773
22282		-8.493242	0.283737	6.194385
22283		-8.454913	0.352991	6.101989
22284		-8.463919	0.380635	6.045995
22285		-8.487505	0.375785	6.022741
22286		-8.506878	0.350665	6.021647
22287		-8.503791	0.317197	6.034884
22288		-8.478135	0.283806	6.051663
22289		-8.424055	0.266568	6.074245
22290		-8.368099	0.275361	6.094215
22291		-8.318778	0.299792	6.112307
22292		-8.276995	0.337608	6.140438
22293		-8.217825	0.368859	6.183952
22294		-8.142038	0.410292	6.245006
22295		-8.074751	0.473333	6.312055
22296		-8.030981	0.525395	6.355779
22297		-8.019197	0.559709	6.384651
22298		-8.044036	0.559138	6.402311
22299		-8.103017	0.515913	6.423517
22300		-8.162663	0.432354	6.469161
22301		-8.193040	0.317625	6.548727
22302		-8.193373	0.186970	6.663252
22303		-8.159316	0.054397	6.810565
22304		-8.115746	-0.076206	6.970056
22305		-8.109374	-0.200506	7.098808
22306		-8.150150	-0.332617	7.197490
22307		-8.249217	-0.468759	7.288850
22308		-8.386875	-0.592295	7.370874
22309		-8.483710	-0.713207	7.450893
22310		-8.564545	-0.886098	7.541960
22311		-8.662384	-1.084263	7.642445
22312		-8.745018	-1.263222	7.742529
22313		-8.826489	-1.427796	7.856876
22314		-8.908254	-1.602784	7.967524
22315		-8.978445	-1.788395	8.080029
22316		-9.047821	-1.975322	8.165627
22317		-9.112731	-2.179064	8.232815
22318		-9.200538	-2.412860	8.292854
22319		-9.307466	-2.710636	8.331827
22320		-9.409962	-3.085570	8.335470
22321		-9.439064	-3.583723	8.351317
22322		-9.481383	-4.209639	8.365771
22323		-9.539345	-4.902788	8.361170
22324		-9.602557	-5.567544	8.326725
22325		-9.706375	-6.156139	8.256778
22326		-9.881304	-6.673500	8.134843
22327		-10.104464	-7.156221	7.956669
22328		-10.393935	-7.693343	7.768247
22329		-10.755676	-8.328248	7.608498
22330		-11.171910	-9.044098	7.481988
22331		-11.592229	-9.898757	7.432158
22332		-11.958155	-10.641204	7.444828
22333		-12.304627	-11.001980	7.486155
22334		-12.417424	-11.070371	7.532999
22335		-12.330753	-10.957064	7.589751
22336		-12.117966	-10.770699	7.599168
22337		-11.871526	-10.627432	7.554297
22338		-11.570107	-10.446443	7.441140
22339		-11.255475	-10.168476	7.254290
22340		-10.885556	-9.771832	7.089563
22341		-10.444926	-9.291845	7.005741
22342		-9.923456	-8.792879	7.028521
22343		-9.432718	-8.300842	7.163081
22344		-9.003603	-7.876204	7.373030
22345		-8.716499	-7.671390	7.596851
22346		-8.646504	-7.629856	7.868135
22347		-8.757269	-7.845645	8.149480
22348		-8.921109	-8.166145	8.432796
22349		-9.071832	-8.475817	8.628293
22350		-9.095224	-8.685572	8.726562
22351		-9.129831	-8.870999	8.801612
22352		-9.139410	-9.038153	8.854457
22353		-9.107118	-9.158450	8.894941
22354		-9.004083	-9.252847	8.898959
22355		-8.843280	-9.353753	8.877597
22356		-8.651828	-9.442310	8.870361
22357		-8.455380	-9.530846	8.900207
22358		-8.256296	-9.608711	8.967420
22359		-8.054033	-9.656784	9.045623
22360		-7.875289	-9.680053	9.128892
22361		-7.703658	-9.675971	9.212151
22362		-7.552872	-9.652638	9.300754
22363		-7.426552	-9.632019	9.382995
22364		-7.315549	-9.616073	9.456286
22365		-7.246802	-9.594737	9.501075
22366		-7.230582	-9.565909	9.537004
22367		-7.284121	-9.519457	9.581303
22368		-7.393509	-9.471438	9.643708
22369		-7.526638	-9.422824	9.710259
22370		-7.634882	-9.389663	9.759532
22371		-7.671695	-9.379487	9.785302
22372		-7.643538	-9.382408	9.780828
22373		-7.570145	-9.385094	9.757386
22374		-7.500225	-9.384735	9.730741
22375		-7.463696	-9.375463	9.710956
22376		-7.464937	-9.363640	9.699149
22377		-7.486978	-9.358970	9.690704
22378		-7.503857	-9.364229	9.682485
22379		-7.505223	-9.379977	9.676659
22380		-7.484861	-9.399980	9.662548
22381		-7.446674	-9.415383	9.643089
22382		-7.388607	-9.439637	9.619564
22383		-7.325292	-9.466751	9.584421
22384		-7.260866	-9.495632	9.546289
22385		-7.209659	-9.517227	9.507231
22386		-7.182003	-9.525116	9.472396
22387		-7.176187	-9.516696	9.441004
22388		-7.192331	-9.498678	9.411168
22389		-7.217380	-9.481712	9.384755
22390		-7.218284	-9.466263	9.324561
22391		-7.215177	-9.458501	9.273208
22392		-7.199383	-9.462831	9.211813
22393		-7.166785	-9.490635	9.144463
22394		-7.139896	-9.525636	9.078471
22395		-7.118007	-9.560895	9.002494
22396		-7.093989	-9.584492	8.919606
22397		-7.081907	-9.597221	8.848330
22398		-7.083953	-9.591917	8.771834
22399		-7.073764	-9.575495	8.687043
22400		-7.059211	-9.577360	8.606825
22401		-7.028913	-9.598989	8.528108
22402		-6.988836	-9.639124	8.448162
22403		-6.946655	-9.682028	8.363624
22404		-6.900619	-9.712983	8.276742
22405		-6.861905	-9.725123	8.196084
22406		-6.833630	-9.711611	8.108800
22407		-6.814417	-9.679754	8.024428
22408		-6.814790	-9.627536	7.947757
22409		-6.847292	-9.599080	7.910083
22410		-6.854658	-9.601747	7.872839
22411		-6.829204	-9.621662	7.829791
22412		-6.778569	-9.656487	7.787499
22413		-6.725307	-9.668855	7.760456
22414		-6.704744	-9.646029	7.760356
22415		-6.714306	-9.589119	7.776422
22416		-6.763139	-9.494587	7.806320
22417		-6.847336	-9.369619	7.838195
22418		-6.944617	-9.233437	7.869325
22419		-7.034192	-9.114060	7.897881
22420		-7.094834	-9.046744	7.936424
22421		-7.111303	-9.041176	7.981520
22422		-7.083036	-9.088775	8.032059
22423		-7.018696	-9.155335	8.090284
22424		-6.947153	-9.213417	8.160571
22425		-6.881234	-9.248776	8.248769
22426		-6.816072	-9.263170	8.366697
22427		-6.750784	-9.257888	8.494614
22428		-6.675974	-9.260508	8.611884
22429		-6.594551	-9.275936	8.719897
22430		-6.512785	-9.308157	8.817406
22431		-6.445263	-9.355201	8.906946
22432		-6.390381	-9.405028	8.986935
22433		-6.352733	-9.445584	9.047832
22434		-6.329192	-9.471160	9.096436
22435		-6.317437	-9.471676	9.152448
22436		-6.316731	-9.460823	9.226255
22437		-6.310753	-9.433189	9.314126
22438		-6.283110	-9.413513	9.420693
22439		-6.227242	-9.398390	9.537023
22440		-6.138701	-9.399876	9.658998
22441		-6.017516	-9.419609	9.778771
22442		-5.879201	-9.460818	9.893803
22443		-5.749331	-9.516039	9.988683
22444		-5.633264	-9.567121	10.073791
22445		-5.533447	-9.600028	10.154887
22446		-5.444550	-9.617826	10.233647
22447		-5.373588	-9.617959	10.296998
22448		-5.318440	-9.595889	10.346394
22449		-5.273816	-9.555056	10.388649
22450		-5.230299	-9.511324	10.442904
22451		-5.197591	-9.467710	10.496076
22452		-5.173224	-9.432747	10.555525
22453		-5.174046	-9.406259	10.627804
22454		-5.204499	-9.390518	10.709620
22455		-5.240635	-9.364343	10.800180
22456		-5.276926	-9.331936	10.899078
22457		-5.319935	-9.295327	11.010006
22458		-5.371374	-9.259561	11.132420
22459		-5.417895	-9.226457	11.266890
22460		-5.453714	-9.196183	11.402186
22461		-5.469397	-9.162345	11.543935
22462		-5.466228	-9.133526	11.683634
22463		-5.455905	-9.113492	11.820449
22464		-5.453664	-9.100890	11.941086
22465		-5.457245	-9.078926	12.041623
22466		-5.459044	-9.047332	12.122300
22467		-5.459667	-9.011449	12.201801
22468		-5.454479	-8.962428	12.281457
22469		-5.447036	-8.899562	12.354506
22470		-5.416471	-8.824599	12.418338
22471		-5.375606	-8.739955	12.472534
22472		-5.342576	-8.654551	12.530806
22473		-5.325452	-8.561555	12.616905
22474		-5.307540	-8.453261	12.722847
22475		-5.295806	-8.359644	12.836058
22476		-5.278138	-8.361349	12.933343
22477		-5.239517	-8.250344	13.009590
22478		-5.191938	-8.151256	13.073766
22479		-5.133791	-8.079451	13.148490
22480		-5.109027	-7.999559	13.241743
22481		-5.116785	-7.946377	13.343352
22482		-5.145052	-7.929455	13.440141
22483		-5.176868	-7.884228	13.530914
22484		-5.199870	-7.811744	13.632841
22485		-5.223149	-7.753546	13.736811
22486		-5.235199	-7.708619	13.815420
22487		-5.216808	-7.654697	13.884015
22488		-5.193009	-7.607321	13.955724
22489		-5.173403	-7.590329	14.030446
22490		-5.154962	-7.575361	14.094064
22491		-5.148470	-7.532784	14.151713
22492		-5.143708	-7.492666	14.217106
22493		-5.146936	-7.464768	14.297875
22494		-5.168287	-7.455304	14.391479
22495		-5.186518	-7.449004	14.467614
22496		-5.207335	-7.456614	14.530941
22497		-5.228117	-7.468643	14.584898
22498		-5.245614	-7.488208	14.636054
22499		-5.255609	-7.519898	14.690232
22500		-5.253070	-7.548106	14.750723
22501		-5.238946	-7.564815	14.805998
22502		-5.210240	-7.575761	14.861101
22503		-5.167696	-7.593757	14.915825
22504		-5.114438	-7.637458	14.960085
22505		-5.048186	-7.692867	14.986052
22506		-4.967139	-7.749987	14.992061
22507		-4.857368	-7.814501	14.979019
22508		-4.721148	-7.891158	14.949430
22509		-4.566818	-7.977094	14.899176
22510		-4.401539	-8.038059	14.847310
22511		-4.270021	-8.063290	14.793939
22512		-4.152760	-8.065343	14.741812
22513		-4.065648	-8.049796	14.706560
22514		-4.019499	-8.040539	14.684694
22515		-3.991616	-8.046050	14.669069
22516		-3.963234	-8.076665	14.655179
22517		-3.915316	-8.149567	14.647540
22518		-3.848068	-8.264332	14.642427
22519		-3.755775	-8.398382	14.630571
22520		-3.652182	-8.540603	14.610335
22521		-3.544570	-8.692129	14.582682
22522		-3.422532	-8.853633	14.551788
22523		-3.279746	-9.024854	14.518598
22524		-3.119455	-9.181631	14.482543
22525		-2.956192	-9.313443	14.426182
22526		-2.825797	-9.385730	14.364357
22527		-2.772333	-9.416264	14.317946
22528		-2.789585	-9.438690	14.295859
22529		-2.838887	-9.468251	14.289057
22530		-2.885765	-9.510972	14.292985
22531		-2.902917	-9.569219	14.302504
22532		-2.875187	-9.626458	14.304569
22533		-2.800687	-9.676683	14.304599
22534		-2.695167	-9.719023	14.312773
22535		-2.574747	-9.750562	14.324916
22536		-2.456538	-9.770327	14.342249
22537		-2.360509	-9.787970	14.359254
22538		-2.290166	-9.792865	14.380054
22539		-2.241861	-9.785077	14.396986
22540		-2.195957	-9.765520	14.409844
22541		-2.156313	-9.746422	14.411775
22542		-2.116322	-9.729366	14.410139
22543		-2.086074	-9.721335	14.406015
22544		-2.062226	-9.725672	14.399809
22545		-2.035194	-9.741189	14.391294
22546		-2.006881	-9.760383	14.383110
22547		-1.975235	-9.789883	14.373940
22548		-1.939773	-9.825563	14.365349
22549		-1.903557	-9.867870	14.354421
22550		-1.866424	-9.917564	14.340860
22551		-1.825755	-9.981206	14.322568
22552		-1.789060	-10.044236	14.301505
22553		-1.749971	-10.119011	14.276300
22554		-1.700897	-10.214688	14.237903
22555		-1.652680	-10.327836	14.197204
22556		-1.611994	-10.441036	14.173330
22557		-1.588699	-10.554213	14.160222
22558		-1.556573	-10.658912	14.146565
22559		-1.519037	-10.753570	14.165544
22560		-1.510637	-10.797250	14.195008
22561		-1.500560	-10.800678	14.204237
22562		-1.465229	-10.784829	14.177014
22563		-1.322786	-10.774965	14.136727
22564		-1.112603	-10.756229	14.093811
22565		-0.892126	-10.685050	14.048676
22566		-0.733781	-10.626401	13.985966
22567		-0.560012	-10.621421	13.930098
22568		-0.371245	-10.669080	13.876568
22569		-0.254491	-10.796863	13.845618
22570		-0.254208	-10.956881	13.827379
22571		-0.327647	-11.126788	13.834690
22572		-0.440330	-11.280057	13.867662
22573		-0.564409	-11.401855	13.912573
22574		-0.673845	-11.470589	13.968656
22575		-0.800543	-11.511952	14.027376
22576		-0.925867	-11.477028	14.107115
22577		-1.036994	-11.292474	14.256617
22578		-1.143806	-10.859605	14.449318
22579		-1.166096	-10.116935	14.614031
22580		-1.046628	-9.159298	14.698953
22581		-0.847707	-8.200028	14.679675
22582		-0.587881	-7.348292	14.603594
22583		-0.263310	-6.582529	14.521689
22584		0.059791	-5.815691	14.477804
22585		0.374276	-4.896796	14.510376
22586		0.653678	-3.832484	14.628689
22587		0.944143	-2.636331	14.854838
22588		1.155374	-1.481996	15.138474
22589		1.334046	-0.434079	15.414925
22590		1.331423	0.457215	15.607448
22591		1.282224	1.146228	15.759210
22592		1.249746	1.685487	15.881213
22593		1.201442	2.129051	15.951193
22594		1.146189	2.514883	16.013647
22595		1.069260	2.831126	16.050260
22596		0.988813	3.143868	16.068387
22597		0.874070	3.520309	16.084067
22598		0.792932	3.944665	16.097586
22599		0.738023	4.404919	16.087811
22600		0.665015	4.838006	16.055906
22601		0.584083	5.172115	16.008192
22602		0.549970	5.439000	15.981234
22603		0.483524	5.731888	15.957978
22604		0.370388	5.970463	15.922790
22605		0.257636	6.144829	15.890467
22606		0.131698	6.308130	15.862488
22607		0.005228	6.444870	15.835011
22608		-0.075305	6.552718	15.812666
22609		-0.121048	6.657539	15.791671
22610		-0.162905	6.743502	15.766982
22611		-0.184233	6.780787	15.745543
22612		-0.183731	6.801083	15.738119
22613		-0.183565	6.822083	15.729622
22614		-0.189372	6.809095	15.713568
22615		-0.199119	6.775238	15.701651
22616		-0.218972	6.782925	15.694385
22617		-0.232553	6.812188	15.682955
22618		-0.241422	6.832620	15.667571
22619		-0.250065	6.829934	15.649728
22620		-0.256550	6.811050	15.636654
22621		-0.264929	6.788100	15.627041
22622		-0.264040	6.749152	15.620171
22623		-0.258350	6.698603	15.613507
22624		-0.256727	6.646602	15.610849
22625		-0.253337	6.602922	15.607479
22626		-0.239316	6.578477	15.604718
22627		-0.232110	6.560804	15.596809
22628		-0.233933	6.525384	15.583107
22629		-0.239854	6.461582	15.570437
22630		-0.248841	6.371464	15.559563
22631		-0.259637	6.255087	15.548553
22632		-0.266999	6.099107	15.538392
22633		-0.265547	5.887043	15.538704
22634		-0.244448	5.619127	15.543585
22635		-0.189041	5.314658	15.553662
22636		-0.121506	5.048619	15.564313
22637		-0.063797	4.860844	15.570811
22638		-0.005318	4.759760	15.570076
22639		0.045921	4.719879	15.569395
22640		0.086417	4.700881	15.563198
22641		0.101901	4.660570	15.557364
22642		0.101125	4.597049	15.556760
22643		0.102722	4.510831	15.570086
22644		0.127066	4.429939	15.588951
22645		0.155225	4.323301	15.617158
22646		0.208053	4.166123	15.715486
22647		0.202834	3.904810	15.785623
22648		0.257026	3.670459	15.848234
22649		0.309545	3.537461	15.890086
22650		0.361136	3.311746	15.885731
22651		0.436402	2.999996	15.850766
22652		0.480234	2.695741	15.787971
22653		0.569430	2.438121	15.718626
22654		0.682807	2.257931	15.656404
22655		0.786474	2.154526	15.588015
22656		0.893743	2.106465	15.514835
22657		1.000882	2.072876	15.443533
22658		1.102289	2.035579	15.374814
22659		1.199778	1.978852	15.318056
22660		1.269925	1.883082	15.280133
22661		1.315303	1.756823	15.268788
22662		1.339733	1.641995	15.286644
22663		1.356241	1.561189	15.331495
22664		1.379365	1.530959	15.394142
22665		1.387513	1.520600	15.456330
22666		1.386674	1.509316	15.510663
22667		1.380327	1.506091	15.551467
22668		1.355753	1.522830	15.586923
22669		1.315605	1.555517	15.618774
22670		1.247037	1.597177	15.649340
22671		1.157393	1.622009	15.680981
22672		1.032512	1.609156	15.706880
22673		0.889565	1.551441	15.726200
22674		0.746964	1.466860	15.743452
22675		0.600107	1.365238	15.761437
22676		0.428937	1.271556	15.776970
22677		0.233866	1.193980	15.771344
22678		0.029089	1.105342	15.747749
22679		-0.143995	0.992535	15.717708
22680		-0.262550	0.861862	15.696679
22681		-0.336439	0.714671	15.687937
22682		-0.402008	0.553115	15.684497
22683		-0.461017	0.380032	15.674113
22684		-0.524234	0.194166	15.654819
22685		-0.614660	0.019026	15.624378
22686		-0.763523	-0.141157	15.590950
22687		-0.960140	-0.294321	15.560977
22688		-1.180047	-0.435255	15.542237
22689		-1.387733	-0.564994	15.539649
22690		-1.546396	-0.684329	15.555725
22691		-1.649509	-0.799923	15.589176
22692		-1.708890	-0.919997	15.634595
22693		-1.749048	-1.033009	15.680501
22694		-1.810353	-1.142321	15.721675
22695		-1.913056	-1.254345	15.747957
22696		-2.058159	-1.377276	15.758736
22697		-2.210186	-1.516808	15.761351
22698		-2.329858	-1.674956	15.763302
22699		-2.405308	-1.853345	15.770726
22700		-2.453114	-2.041078	15.778150
22701		-2.485804	-2.236032	15.785919
22702		-2.513450	-2.415421	15.786610
22703		-2.561066	-2.571434	15.776876
22704		-2.630062	-2.701663	15.755735
22705		-2.704450	-2.810616	15.718686
22706		-2.763053	-2.892359	15.665260
22707		-2.797115	-2.953264	15.590066
22708		-2.808077	-2.987536	15.491217
22709		-2.786324	-2.991820	15.372672
22710		-2.743097	-2.977182	15.248589
22711		-2.695541	-2.948363	15.121343
22712		-2.654896	-2.908014	14.993652
22713		-2.632817	-2.879062	14.868780
22714		-2.629197	-2.872517	14.748659
22715		-2.634349	-2.893057	14.643125
22716		-2.637648	-2.924461	14.551999
22717		-2.637765	-2.957041	14.474131
22718		-2.626589	-2.967871	14.409441
22719		-2.589048	-2.953516	14.355806
22720		-2.521656	-2.904281	14.314206
22721		-2.437163	-2.842136	14.283875
22722		-2.357427	-2.777397	14.260407
22723		-2.272131	-2.723877	14.242137
22724		-2.170793	-2.683928	14.221406
22725		-2.068739	-2.671079	14.183121
22726		-1.990262	-2.678171	14.120572
22727		-1.937798	-2.695687	14.043350
22728		-1.897614	-2.705408	13.963726
22729		-1.867959	-2.725819	13.879061
22730		-1.850624	-2.773542	13.781447
22731		-1.862593	-2.844988	13.668616
22732		-1.892683	-2.922847	13.544432
22733		-1.923171	-2.979916	13.415837
22734		-1.946970	-2.998803	13.290518
22735		-1.965108	-2.975221	13.167568
22736		-1.985136	-2.927149	13.057038
22737		-2.006407	-2.864141	12.965273
22738		-2.025031	-2.808385	12.896435
22739		-2.032630	-2.753938	12.834213
22740		-2.034777	-2.717559	12.765833
22741		-2.048183	-2.720413	12.691844
22742		-2.071025	-2.752385	12.605523
22743		-2.109935	-2.796357	12.523316
22744		-2.149290	-2.823861	12.454703
22745		-2.175965	-2.817888	12.403394
22746		-2.173086	-2.763006	12.361686
22747		-2.163862	-2.665309	12.329652
22748		-2.180974	-2.539985	12.301227
22749		-2.249763	-2.426117	12.269763
22750		-2.379663	-2.331284	12.235100
22751		-2.543715	-2.268462	12.206949
22752		-2.684551	-2.249985	12.200567
22753		-2.789748	-2.242722	12.214434
22754		-2.852518	-2.229023	12.229881
22755		-2.866244	-2.196888	12.232238
22756		-2.863096	-2.139025	12.219532
22757		-2.862956	-2.060185	12.179887
22758		-2.884589	-1.981590	12.110779
22759		-2.917925	-1.920241	12.032837
22760		-2.942467	-1.879988	11.957422
22761		-2.935000	-1.841762	11.883432
22762		-2.917878	-1.782412	11.806499
22763		-2.891162	-1.699353	11.711948
22764		-2.840552	-1.597400	11.600249
22765		-2.787836	-1.488884	11.472690
22766		-2.755066	-1.374117	11.349545
22767		-2.685835	-1.312007	11.273077
22768		-2.763460	-1.366930	11.098449
22769		-2.753634	-1.306346	10.856447
22770		-2.620615	-1.177441	10.604551
22771		-2.471925	-1.047473	10.384206
22772		-2.319433	-0.915414	10.197704
22773		-2.193787	-0.820105	10.055641
22774		-2.129328	-0.770294	9.960311
22775		-2.124877	-0.789932	9.919070
22776		-2.167480	-0.877152	9.920356
22777		-2.232846	-1.024003	9.952189
22778		-2.264532	-1.199795	10.014694
22779		-2.270340	-1.418357	10.086561
22780		-2.251947	-1.617460	10.155161
22781		-2.231262	-1.783350	10.204847
22782		-2.165160	-1.930754	10.238242
22783		-2.092025	-2.085997	10.251433
22784		-2.030274	-2.286544	10.241672
22785		-2.003795	-2.564404	10.228869
22786		-2.025536	-2.911385	10.216210
22787		-2.110442	-3.292661	10.218634
22788		-2.250979	-3.711008	10.231764
22789		-2.417710	-4.120918	10.237229
22790		-2.579296	-4.539327	10.241024
22791		-2.718097	-4.978733	10.224627
22792		-2.833398	-5.457215	10.183584
22793		-2.933616	-5.972673	10.142463
22794		-3.030177	-6.515197	10.119375
22795		-3.122577	-7.064737	10.119758
22796		-3.213527	-7.602884	10.140773
22797		-3.310234	-8.117857	10.167959
22798		-3.424178	-8.600739	10.190180
22799		-3.550170	-9.050659	10.200771
22800		-3.684793	-9.467960	10.198269
22801		-3.803968	-9.842754	10.190250
22802		-3.918955	-10.168867	10.178787
22803		-4.028119	-10.455610	10.159112
22804		-4.113899	-10.779959	10.137067
22805		-4.226055	-11.154615	10.144173
22806		-4.359421	-11.479711	10.182484
22807		-4.493376	-11.739840	10.188958
22808		-4.579698	-11.982588	10.171331
22809		-4.650056	-12.204703	10.132667
22810		-4.728412	-12.395825	10.082995
22811		-4.754689	-12.534162	10.021911
22812		-4.731317	-12.599779	9.940161
22813		-4.688094	-12.616430	9.845813
22814		-4.633738	-12.626465	9.729768
22815		-4.573857	-12.641518	9.589828
22816		-4.524605	-12.671711	9.433025
22817		-4.490743	-12.699506	9.263267
22818		-4.439752	-12.663409	9.084576
22819		-4.335430	-12.502288	8.923192
22820		-4.183160	-12.204212	8.795460
22821		-3.992707	-11.827721	8.709440
22822		-3.803942	-11.442039	8.668434
22823		-3.571719	-11.004295	8.668822
22824		-3.267526	-10.586992	8.715265
22825		-3.095633	-10.242738	8.740204
22826		-3.093253	-10.101554	8.712714
22827		-3.110600	-10.085008	8.687074
22828		-3.106960	-10.066483	8.692532
22829		-3.140006	-10.064580	8.705396
22830		-3.212357	-10.100797	8.703702
22831		-3.305122	-10.187718	8.715640
22832		-3.393925	-10.283532	8.763727
22833		-3.488103	-10.375025	8.805734
22834		-3.522297	-10.403276	8.812885
22835		-3.535840	-10.399632	8.812228
22836		-3.542163	-10.379719	8.807843
22837		-3.544911	-10.348349	8.818891
22838		-3.566908	-10.326531	8.836879
22839		-3.591651	-10.317404	8.858480
22840		-3.612753	-10.307852	8.868546
22841		-3.618814	-10.304509	8.871539
22842		-3.614062	-10.311349	8.875542
22843		-3.623828	-10.332464	8.882264
22844		-3.636608	-10.341357	8.886168
22845		-3.644141	-10.344454	8.893164
22846		-3.653484	-10.339191	8.910320
22847		-3.660883	-10.325747	8.922947
22848		-3.656058	-10.311031	8.933180
22849		-3.644986	-10.290244	8.935660
22850		-3.630745	-10.273152	8.935009
22851		-3.630056	-10.263080	8.935169
22852		-3.635919	-10.254690	8.933049
22853		-3.660895	-10.253205	8.920058
22854		-3.673189	-10.266784	8.928291
22855		-3.699641	-10.279508	8.932157
22856		-3.724611	-10.293198	8.936769
22857		-3.736722	-10.308534	8.940408
22858		-3.741762	-10.322075	8.949917
22859		-3.729439	-10.337706	8.957862
22860		-3.703112	-10.344130	8.963244
22861		-3.685912	-10.361745	8.982190
22862		-3.666636	-10.370440	9.003483
22863		-3.654869	-10.361556	9.018761
22864		-3.661549	-10.359564	9.051089
22865		-3.705623	-10.367305	9.055703
22866		-3.720992	-10.372976	9.060652
22867		-3.751985	-10.375378	9.067516
22868		-3.767761	-10.384275	9.082196
22869		-3.766538	-10.386780	9.100745
22870		-3.774493	-10.389627	9.124723
22871		-3.807765	-10.403906	9.163290
22872		-3.842953	-10.424480	9.199750
22873		-3.857969	-10.446820	9.229589
22874		-3.867587	-10.465745	9.245927
22875		-3.864923	-10.485483	9.247157
22876		-3.848516	-10.507450	9.239581
22877		-3.850796	-10.517212	9.230728
22878		-3.874273	-10.525546	9.216259
22879		-3.907673	-10.543815	9.198875
22880		-3.942124	-10.563879	9.182807
22881		-3.972245	-10.585495	9.164846
22882		-3.991098	-10.607295	9.140203
22883		-3.987652	-10.621424	9.120654
22884		-3.981822	-10.628146	9.098810
22885		-3.965166	-10.633235	9.068111
22886		-3.946606	-10.633085	9.028755
22887		-3.944506	-10.622447	8.983612
22888		-3.962345	-10.600698	8.942992
22889		-3.993944	-10.593424	8.906812
22890		-4.014251	-10.594209	8.869921
22891		-4.019218	-10.591721	8.831928
22892		-4.020032	-10.582810	8.797316
22893		-4.018571	-10.570016	8.792516
22894		-4.015576	-10.570056	8.800872
22895		-4.004997	-10.560139	8.810872
22896		-4.006283	-10.552246	8.832457
22897		-4.022813	-10.547443	8.866996
22898		-4.047793	-10.545314	8.907167
22899		-4.066646	-10.539577	8.953012
22900		-4.082511	-10.525584	9.003999
22901		-4.098271	-10.505078	9.059408
22902		-4.122292	-10.486588	9.114853
22903		-4.148296	-10.474842	9.177531
22904		-4.180092	-10.465173	9.246469
22905		-4.216728	-10.452600	9.321933
22906		-4.251699	-10.441416	9.407433
22907		-4.277893	-10.433626	9.505253
22908		-4.301998	-10.434936	9.609048
22909		-4.312376	-10.439883	9.722622
22910		-4.313105	-10.444615	9.841258
22911		-4.306858	-10.452998	9.959543
22912		-4.296938	-10.462323	10.081180
22913		-4.295175	-10.471194	10.209283
22914		-4.302019	-10.473684	10.334702
22915		-4.314768	-10.471466	10.454616
22916		-4.336880	-10.469597	10.569431
22917		-4.356317	-10.463072	10.687766
22918		-4.382251	-10.455516	10.812267
22919		-4.405984	-10.446424	10.941937
22920		-4.419928	-10.436300	11.086093
22921		-4.427646	-10.423278	11.237036
22922		-4.433245	-10.400384	11.396034
22923		-4.438810	-10.378327	11.557376
22924		-4.432844	-10.360539	11.714129
22925		-4.428462	-10.336838	11.869383
22926		-4.433278	-10.305642	12.012243
22927		-4.454153	-10.276581	12.143279
22928		-4.482289	-10.237004	12.269219
22929		-4.519719	-10.196287	12.401909
22930		-4.560174	-10.152045	12.541999
22931		-4.606366	-10.102216	12.691521
22932		-4.653623	-10.054460	12.841096
22933		-4.700657	-9.999061	12.992582
22934		-4.741780	-9.949494	13.150714
22935		-4.773513	-9.909056	13.322287
22936		-4.791825	-9.881414	13.507292
22937		-4.809014	-9.849635	13.698004
22938		-4.825757	-9.814627	13.883388
22939		-4.827651	-9.768795	14.057471
22940		-4.825011	-9.715668	14.218814
22941		-4.821213	-9.674484	14.382295
22942		-4.815307	-9.641146	14.555724
22943		-4.812279	-9.616224	14.745120
22944		-4.814570	-9.598759	14.941950
22945		-4.808715	-9.581182	15.144231
22946		-4.792577	-9.558937	15.350205
22947		-4.764502	-9.530705	15.557622
22948		-4.735183	-9.492412	15.758447
22949		-4.706170	-9.449588	15.953575
22950		-4.671453	-9.409888	16.154593
22951		-4.634376	-9.370100	16.360651
22952		-4.602691	-9.327817	16.577144
22953		-4.578792	-9.281573	16.799043
22954		-4.545071	-9.239208	17.014550
22955		-4.495911	-9.202592	17.215738
22956		-4.430736	-9.166617	17.405701
22957		-4.359565	-9.128183	17.588280
22958		-4.301996	-9.091595	17.762803
22959		-4.257515	-9.048157	17.931204
22960		-4.231133	-9.003470	18.089795
22961		-4.215173	-8.969232	18.246493
22962		-4.198750	-8.939954	18.403245
22963		-4.181414	-8.905763	18.559676
22964		-4.156468	-8.870296	18.712079
22965		-4.120216	-8.828147	18.855081
22966		-4.069994	-8.790131	18.980725
22967		-4.019594	-8.750301	19.091527
22968		-3.978737	-8.718021	19.193166
22969		-3.951470	-8.690488	19.291120
22970		-3.946006	-8.664202	19.383446
22971		-3.945712	-8.634986	19.458499
22972		-3.930082	-8.613552	19.520416
22973		-3.900036	-8.592404	19.570165
22974		-3.871442	-8.580023	19.608041
22975		-3.849294	-8.578477	19.632940
22976		-3.837362	-8.584095	19.648154
22977		-3.824407	-8.592085	19.655916
22978		-3.797046	-8.602262	19.650146
22979		-3.759491	-8.618501	19.633741
22980		-3.712707	-8.640097	19.605855
22981		-3.661888	-8.687677	19.571362
22982		-3.610799	-8.755711	19.529987
22983		-3.556469	-8.858644	19.478561
22984		-3.492748	-8.982941	19.412315
22985		-3.405428	-9.104094	19.331990
22986		-3.295421	-9.211396	19.235984
22987		-3.181175	-9.297617	19.128835
22988		-3.076411	-9.363587	19.028800
22989		-2.976588	-9.411711	18.937027
22990		-2.870577	-9.443286	18.850155
22991		-2.766768	-9.467581	18.765909
22992		-2.659584	-9.490283	18.687261
22993		-2.554990	-9.517462	18.614877
22994		-2.473507	-9.549111	18.553012
22995		-2.428242	-9.582384	18.494589
22996		-2.424203	-9.602240	18.442727
22997		-2.464875	-9.620803	18.399296
22998		-2.521427	-9.638723	18.374132
22999		-2.580706	-9.659787	18.359910
23000		-2.616963	-9.673543	18.352322
23001		-2.619051	-9.683313	18.342685
23002		-2.594620	-9.694978	18.332024
23003		-2.559484	-9.706641	18.328812
23004		-2.521550	-9.724838	18.330315
23005		-2.501974	-9.748993	18.335497
23006		-2.503719	-9.774729	18.348090
23007		-2.519107	-9.799817	18.362208
23008		-2.535889	-9.831391	18.377071
23009		-2.553566	-9.871298	18.388625
23010		-2.559839	-9.917681	18.399084
23011		-2.552737	-9.958289	18.405183
23012		-2.528877	-9.991121	18.401917
23013		-2.496179	-10.026156	18.399986
23014		-2.459998	-10.067024	18.393919
23015		-2.422720	-10.114406	18.383628
23016		-2.404048	-10.162985	18.382676
23017		-2.396253	-10.215377	18.370778
23018		-2.381547	-10.262135	18.357878
23019		-2.370923	-10.293202	18.332998
23020		-2.368960	-10.309391	18.280861
23021		-2.376804	-10.301453	18.202985
23022		-2.361761	-10.276923	18.132215
23023		-2.330056	-10.247302	18.059288
23024		-2.311109	-10.225733	17.992194
23025		-2.302353	-10.213567	17.928295
23026		-2.298863	-10.203640	17.871002
23027		-2.287045	-10.190159	17.831530
23028		-2.274438	-10.170470	17.796386
23029		-2.257554	-10.148937	17.750461
23030		-2.213688	-10.111102	17.698139
23031		-2.158063	-10.081140	17.638228
23032		-2.104890	-10.065485	17.577685
23033		-2.051473	-10.048925	17.523485
23034		-2.018209	-10.030888	17.473124
23035		-1.995229	-10.014255	17.427621
23036		-1.970557	-10.010691	17.392486
23037		-1.964094	-10.047606	17.364042
23038		-1.985724	-10.107988	17.333128
23039		-2.014132	-10.192764	17.305139
23040		-2.035762	-10.293665	17.279042
23041		-2.046596	-10.397916	17.254291
23042		-2.068765	-10.526105	17.236135
23043		-2.106654	-10.675001	17.230561
23044		-2.146812	-10.817677	17.223933
23045		-2.194609	-10.954552	17.218848
23046		-2.233124	-11.082647	17.219498
23047		-2.253881	-11.204074	17.212856
23048		-2.261260	-11.325386	17.199722
23049		-2.264292	-11.467611	17.190364
23050		-2.267093	-11.620334	17.189597
23051		-2.280844	-11.768955	17.202205
23052		-2.325295	-11.900442	17.231197
23053		-2.390912	-11.965238	17.275440
23054		-2.480330	-11.926096	17.343870
23055		-2.536817	-11.711896	17.429866
23056		-2.448214	-11.255682	17.515103
23057		-2.222432	-10.586224	17.524745
23058		-1.893677	-9.885907	17.456102
23059		-1.524888	-9.288185	17.346991
23060		-1.165883	-8.803718	17.245858
23061		-0.857905	-8.252592	17.166171
23062		-0.676152	-7.636217	17.105553
23063		-0.528386	-6.927990	17.081272
23064		-0.397843	-6.032947	17.071857
23065		-0.299548	-4.957869	17.055912
23066		-0.223458	-3.668942	17.029719
23067		-0.137110	-2.178958	16.977914
23068		0.052570	-0.609350	16.884143
23069		0.215955	0.838205	16.739208
23070		0.074223	1.784554	16.630691
23071		0.056022	2.490033	16.632379
23072		-0.157890	3.093033	16.631165
23073		-0.489436	3.576362	16.640001
23074		-0.719538	3.980230	16.649843
23075		-0.919677	4.269856	16.633088
23076		-1.018148	4.532703	16.622124
23077		-1.056143	4.755069	16.620752
23078		-1.073786	4.971743	16.632591
23079		-1.090140	5.206987	16.657050
23080		-1.106258	5.436385	16.681880
23081		-1.122298	5.626583	16.700504
23082		-1.142432	5.762206	16.713116
23083		-1.154866	5.837786	16.720871
23084		-1.155369	5.859659	16.721024
23085		-1.143048	5.839623	16.718984
23086		-1.127915	5.817375	16.717594
23087		-1.113264	5.807031	16.717290
23088		-1.092564	5.801912	16.717697
23089		-1.069155	5.796290	16.713906
23090		-1.052824	5.786121	16.714711
23091		-1.048825	5.773944	16.714672
23092		-1.042771	5.753203	16.711917
23093		-1.031162	5.716081	16.701127
23094		-1.022024	5.665976	16.693230
23095		-1.011027	5.603653	16.686577
23096		-0.991602	5.536874	16.683443
23097		-0.959321	5.470068	16.679473
23098		-0.921003	5.415325	16.675865
23099		-0.882512	5.365057	16.667734
23100		-0.860712	5.304448	16.657447
23101		-0.858187	5.227649	16.640656
23102		-0.872531	5.128187	16.621310
23103		-0.905433	5.002435	16.605517
23104		-0.934184	4.856245	16.591518
23105		-0.935266	4.696551	16.578768
23106		-0.884516	4.522085	16.566602
23107		-0.772980	4.313444	16.558522
23108		-0.614673	4.078539	16.583721
23109		-0.503643	3.913040	16.597575
23110		-0.411105	3.738416	16.622951
23111		-0.386650	3.517941	16.632285
23112		-0.353205	3.221849	16.645817
23113		-0.370228	2.893329	16.656124
23114		-0.443269	2.583976	16.666201
23115		-0.517748	2.318918	16.660441
23116		-0.563202	2.102714	16.644003
23117		-0.569700	1.927812	16.631932
23118		-0.505215	1.791150	16.617707
23119		-0.410909	1.698685	16.591470
23120		-0.318297	1.630619	16.552407
23121		-0.259933	1.551579	16.503308
23122		-0.235022	1.461588	16.442232
23123		-0.252556	1.353091	16.359985
23124		-0.283443	1.200947	16.296247
23125		-0.313839	1.008644	16.215343
23126		-0.295716	0.856305	16.155767
23127		-0.253678	0.748161	16.109054
23128		-0.196427	0.672072	16.067113
23129		-0.163808	0.611687	16.017917
23130		-0.158387	0.560714	15.962871
23131		-0.160088	0.521256	15.915062
23132		-0.166522	0.503177	15.882478
23133		-0.182344	0.522523	15.861884
23134		-0.204497	0.579995	15.846503
23135		-0.234183	0.650131	15.828429
23136		-0.267164	0.704073	15.809086
23137		-0.295723	0.731933	15.795437
23138		-0.329046	0.741926	15.786865
23139		-0.384677	0.749966	15.785894
23140		-0.480271	0.741683	15.779820
23141		-0.611637	0.709075	15.773324
23142		-0.755892	0.647905	15.761696
23143		-0.902409	0.563273	15.761282
23144		-1.057008	0.469916	15.769324
23145		-1.221962	0.374379	15.785299
23146		-1.387793	0.289676	15.803086
23147		-1.532292	0.216737	15.820614
23148		-1.648237	0.174118	15.832699
23149		-1.759697	0.142413	15.841840
23150		-1.901247	0.108602	15.848542
23151		-2.083579	0.033237	15.853373
23152		-2.283003	-0.092464	15.864872
23153		-2.483904	-0.273298	15.892309
23154		-2.685530	-0.498930	15.939518
23155		-2.882371	-0.750420	15.998728
23156		-3.068983	-1.018292	16.062580
23157		-3.231789	-1.294739	16.120985
23158		-3.377805	-1.562241	16.178847
23159		-3.521300	-1.817045	16.244062
23160		-3.661296	-2.045914	16.320307
23161		-3.799339	-2.252415	16.403035
23162		-3.950451	-2.431085	16.491584
23163		-4.095598	-2.594619	16.574280
23164		-4.214202	-2.732739	16.652738
23165		-4.301205	-2.858408	16.729591
23166		-4.369988	-2.980218	16.804263
23167		-4.425743	-3.099263	16.873237
23168		-4.470568	-3.220719	16.938725
23169		-4.507497	-3.372206	17.004676
23170		-4.541071	-3.552672	17.068824
23171		-4.575304	-3.743799	17.123320
23172		-4.619388	-3.914083	17.166910
23173		-4.657487	-4.039738	17.199183
23174		-4.688122	-4.119405	17.212964
23175		-4.695574	-4.162031	17.204337
23176		-4.670907	-4.170914	17.171117
23177		-4.632786	-4.153340	17.122478
23178		-4.601115	-4.122732	17.058887
23179		-4.584306	-4.100383	16.982299
23180		-4.582729	-4.103618	16.900888
23181		-4.588563	-4.153978	16.812226
23182		-4.594288	-4.246775	16.725947
23183		-4.617101	-4.383502	16.640333
23184		-4.652775	-4.555226	16.558638
23185		-4.698659	-4.739832	16.474678
23186		-4.743967	-4.901324	16.382501
23187		-4.761586	-5.022911	16.277824
23188		-4.735529	-5.094234	16.160804
23189		-4.661879	-5.102758	16.023189
23190		-4.563601	-5.051744	15.865490
23191		-4.484319	-4.969379	15.687430
23192		-4.436302	-4.903795	15.497613
23193		-4.401981	-4.875665	15.303517
23194		-4.369593	-4.888670	15.117966
23195		-4.338432	-4.951985	14.944288
23196		-4.319432	-5.046136	14.786034
23197		-4.315106	-5.160835	14.646137
23198		-4.311608	-5.263430	14.527679
23199		-4.291193	-5.336944	14.421362
23200		-4.249354	-5.371472	14.318449
23201		-4.195519	-5.362782	14.197616
23202		-4.133919	-5.312524	14.053274
23203		-4.086973	-5.259879	13.885950
23204		-4.047681	-5.217293	13.707835
23205		-4.027622	-5.201753	13.543311
23206		-4.017524	-5.210032	13.400785
23207		-4.014223	-5.250449	13.293190
23208		-4.004357	-5.314812	13.226740
23209		-3.972677	-5.388182	13.199294
23210		-3.930678	-5.454385	13.181672
23211		-3.909883	-5.512072	13.149308
23212		-3.926225	-5.563407	13.082733
23213		-3.968387	-5.613101	12.982964
23214		-4.016427	-5.655334	12.869589
23215		-4.053859	-5.685202	12.755997
23216		-4.072793	-5.698951	12.646483
23217		-4.077575	-5.705252	12.539821
23218		-4.076443	-5.711134	12.432570
23219		-4.059219	-5.721142	12.327168
23220		-4.026851	-5.732614	12.228426
23221		-4.011126	-5.749430	12.131366
23222		-4.024831	-5.771314	12.026795
23223		-4.060454	-5.800725	11.911059
23224		-4.094124	-5.836145	11.781170
23225		-4.123146	-5.852356	11.635427
23226		-4.147634	-5.853749	11.473985
23227		-4.153822	-5.851363	11.290927
23228		-4.157481	-5.868332	11.101593
23229		-4.161232	-5.915902	10.917918
23230		-4.147092	-5.993372	10.750554
23231		-4.120213	-6.102309	10.602901
23232		-4.063196	-6.206818	10.462325
23233		-4.013184	-6.298184	10.309489
23234		-3.981021	-6.346029	10.132379
23235		-3.966770	-6.355490	9.941158
23236		-3.966170	-6.328098	9.741629
23237		-3.977374	-6.276097	9.540882
23238		-3.992895	-6.223597	9.364225
23239		-4.011760	-6.201800	9.228959
23240		-4.024851	-6.192220	9.143141
23241		-4.030600	-6.193360	9.112877
23242		-4.023978	-6.188554	9.123098
23243		-4.037666	-6.168607	9.137363
23244		-4.084218	-6.149955	9.143536
23245		-4.148820	-6.131203	9.139829
23246		-4.198837	-6.114595	9.132112
23247		-4.227886	-6.095522	9.124511
23248		-4.229921	-6.068682	9.123753
23249		-4.217420	-6.046746	9.136925
23250		-4.168175	-6.023321	9.166161
23251		-4.103000	-5.999710	9.217697
23252		-4.055110	-5.985068	9.259534
23253		-4.039465	-5.978543	9.277408
23254		-4.049009	-5.966496	9.267417
23255		-4.074634	-5.957084	9.236174
23256		-4.080444	-5.944591	9.187236
23257		-4.056809	-5.923682	9.120325
23258		-3.996117	-5.884793	9.046077
23259		-3.890804	-5.822173	8.964115
23260		-3.759832	-5.752898	8.883743
23261		-3.615002	-5.680081	8.805904
23262		-3.483495	-5.620689	8.734020
23263		-3.381069	-5.603274	8.672704
23264		-3.285595	-5.618423	8.628866
23265		-3.205644	-5.645356	8.602050
23266		-3.144216	-5.663462	8.593878
23267		-3.101861	-5.663061	8.596726
23268		-3.081215	-5.652047	8.614115
23269		-3.063720	-5.642096	8.638318
23270		-3.030334	-5.645921	8.664577
23271		-2.989831	-5.664045	8.681491
23272		-2.947111	-5.694530	8.683424
23273		-2.906247	-5.733663	8.678498
23274		-2.875390	-5.775682	8.672867
23275		-2.851013	-5.816682	8.668693
23276		-2.830349	-5.842211	8.670770
23277		-2.814459	-5.849163	8.674635
23278		-2.802801	-5.849624	8.682009
23279		-2.796143	-5.851651	8.685880
23280		-2.799873	-5.857850	8.690897
23281		-2.806238	-5.879803	8.695362
23282		-2.818073	-5.914664	8.700846
23283		-2.826307	-5.946117	8.707182
23284		-2.837473	-5.969511	8.712537
23285		-2.833472	-5.997284	8.715401
23286		-2.816870	-6.029870	8.718171
23287		-2.813687	-6.062060	8.723223
23288		-2.817323	-6.089266	8.736570
23289		-2.823560	-6.110639	8.759255
23290		-2.828910	-6.136735	8.780616
23291		-2.836474	-6.183283	8.797697
23292		-2.828096	-6.272890	8.810378
23293		-2.800529	-6.420400	8.821257
23294		-2.785950	-6.605673	8.830131
23295		-2.793046	-6.804181	8.848526
23296		-2.825635	-6.983048	8.871642
23297		-2.881960	-7.142280	8.901042
23298		-2.941648	-7.291980	8.927368
23299		-2.980801	-7.457386	8.948711
23300		-2.994646	-7.658119	8.974312
23301		-2.992381	-7.883567	9.011045
23302		-2.998865	-8.131107	9.060499
23303		-3.090690	-8.474610	9.149504
23304		-3.113452	-8.857737	9.198878
23305		-3.150869	-9.335801	9.265300
23306		-3.187195	-9.866327	9.344679
23307		-3.226867	-10.411036	9.442216
23308		-3.265139	-10.933381	9.553203
23309		-3.295171	-11.392373	9.671512
23310		-3.316260	-11.760702	9.782986
23311		-3.329483	-12.036943	9.868036
23312		-3.341849	-12.243049	9.924268
23313		-3.350856	-12.405353	9.958153
23314		-3.363640	-12.549700	9.969440
23315		-3.384752	-12.693555	9.964964
23316		-3.415484	-12.846853	9.943424
23317		-3.468813	-13.040198	9.918824
23318		-3.551125	-13.282736	9.920133
23319		-3.649441	-13.545783	9.936454
23320		-3.765913	-13.858867	9.956725
23321		-3.910917	-14.261026	10.001260
23322		-4.059753	-14.692775	10.065281
23323		-4.207388	-15.054811	10.135724
23324		-4.327989	-15.269963	10.197653
23325		-4.404068	-15.344908	10.247298
23326		-4.446512	-15.360021	10.279509
23327		-4.464657	-15.378961	10.294358
23328		-4.457351	-15.430552	10.297361
23329		-4.435701	-15.496141	10.293552
23330		-4.388069	-15.557414	10.276364
23331		-4.306701	-15.609417	10.257668
23332		-4.206468	-15.622296	10.232363
23333		-4.115653	-15.587057	10.200981
23334		-3.997422	-15.532663	10.173579
23335		-3.873594	-15.470913	10.152245
23336		-3.748230	-15.397316	10.143029
23337		-3.637424	-15.292071	10.144622
23338		-3.549791	-15.124503	10.164690
23339		-3.480735	-14.900340	10.191374
23340		-3.403766	-14.645317	10.203172
23341		-3.305485	-14.367671	10.216683
23342		-3.175250	-14.057701	10.219599
23343		-2.971410	-13.669780	10.211371
23344		-2.726948	-13.310981	10.239262
23345		-2.587678	-13.077699	10.211732
23346		-2.525956	-12.955412	10.154343
23347		-2.497937	-12.906786	10.110220
23348		-2.482844	-12.837137	10.101933
23349		-2.515406	-12.757035	10.112664
23350		-2.569174	-12.696875	10.124286
23351		-2.610789	-12.673642	10.136533
23352		-2.642386	-12.665616	10.153095
23353		-2.658446	-12.662308	10.168696
23354		-2.642480	-12.651414	10.176568
23355		-2.610031	-12.630967	10.174242
23356		-2.572759	-12.594285	10.171228
23357		-2.559146	-12.542769	10.176229
23358		-2.559108	-12.492743	10.189685
23359		-2.570280	-12.457202	10.195133
23360		-2.572793	-12.424384	10.187990
23361		-2.563006	-12.385335	10.175781
23362		-2.543327	-12.345226	10.174795
23363		-2.520584	-12.317063	10.167288
23364		-2.486442	-12.285603	10.153408
23365		-2.459466	-12.244512	10.137537
23366		-2.452837	-12.200919	10.127350
23367		-2.456182	-12.158192	10.127178
23368		-2.479976	-12.125352	10.134394
23369		-2.516886	-12.100763	10.148479
23370		-2.549744	-12.085864	10.167254
23371		-2.574456	-12.078356	10.179924
23372		-2.578744	-12.071062	10.183461
23373		-2.579508	-12.062184	10.184994
23374		-2.594646	-12.045491	10.186197
23375		-2.627237	-12.026928	10.182201
23376		-2.664081	-12.013875	10.187434
23377		-2.705815	-12.007417	10.196942
23378		-2.755589	-12.002801	10.198378
23379		-2.788920	-11.992803	10.198581
23380		-2.804028	-11.979916	10.198071
23381		-2.799774	-11.967301	10.198685
23382		-2.799082	-11.965984	10.205857
23383		-2.795654	-11.967461	10.206384
23384		-2.795598	-11.967643	10.202335
23385		-2.812749	-11.967040	10.186029
23386		-2.841210	-11.961020	10.154581
23387		-2.862901	-11.951418	10.111765
23388		-2.883508	-11.947389	10.059336
23389		-2.906189	-11.941665	9.977690
23390		-2.919201	-11.937087	9.870331
23391		-2.945687	-11.937978	9.734708
23392		-3.013844	-11.953009	9.575436
23393		-3.119114	-11.962522	9.411526
23394		-3.261388	-11.970978	9.257471
23395		-3.415863	-11.987348	9.114545
23396		-3.559893	-11.994058	8.977419
23397		-3.678494	-11.990959	8.862059
23398		-3.769581	-11.993624	8.774448
23399		-3.826399	-11.994827	8.697929
23400		-3.878012	-11.983261	8.638169
23401		-3.934249	-11.962007	8.598006
23402		-4.002400	-11.934894	8.576501
23403		-4.085091	-11.905541	8.576420
23404		-4.154460	-11.878620	8.596284
23405		-4.205071	-11.849023	8.628907
23406		-4.239191	-11.816066	8.673754
23407		-4.267733	-11.780969	8.728526
23408		-4.290821	-11.746065	8.783115
23409		-4.322563	-11.707595	8.830274
23410		-4.380636	-11.662090	8.873709
23411		-4.456841	-11.617541	8.920415
23412		-4.542506	-11.580681	8.972545
23413		-4.612679	-11.543311	9.025623
23414		-4.661614	-11.511525	9.077684
23415		-4.697988	-11.478384	9.117233
23416		-4.730604	-11.447280	9.130719
23417		-4.763681	-11.408847	9.116905
23418		-4.815205	-11.377442	9.092231
23419		-4.901934	-11.352917	9.065909
23420		-5.010797	-11.313800	9.045291
23421		-5.136033	-11.273631	9.036306
23422		-5.239905	-11.246190	9.033795
23423		-5.292616	-11.229774	9.033425
23424		-5.293866	-11.213538	9.021219
23425		-5.268937	-11.188653	8.992478
23426		-5.242984	-11.155306	8.952424
23427		-5.247390	-11.111655	8.907849
23428		-5.282421	-11.063082	8.871486
23429		-5.322438	-11.020647	8.838277
23430		-5.380237	-10.990292	8.818499
23431		-5.441955	-10.962014	8.818156
23432		-5.521386	-10.920195	8.829646
23433		-5.595478	-10.876546	8.855426
23434		-5.658890	-10.828912	8.901256
23435		-5.689397	-10.785835	8.977627
23436		-5.738679	-10.754051	9.054031
23437		-5.779092	-10.717199	9.132305
23438		-5.817117	-10.682549	9.211677
23439		-5.851421	-10.651047	9.297901
23440		-5.875243	-10.621890	9.397534
23441		-5.892571	-10.596443	9.497691
23442		-5.906798	-10.560915	9.597298
23443		-5.915931	-10.522980	9.707617
23444		-5.919814	-10.483123	9.815580
23445		-5.931662	-10.438610	9.925837
23446		-5.943306	-10.393853	10.034846
23447		-5.954055	-10.352558	10.147664
23448		-5.961892	-10.298788	10.265781
23449		-5.968257	-10.247397	10.387032
23450		-5.967892	-10.193566	10.508117
23451		-5.961255	-10.128460	10.624179
23452		-5.958006	-10.052676	10.729526
23453		-5.955533	-9.973814	10.827799
23454		-5.966013	-9.885318	10.925042
23455		-5.986886	-9.796760	11.015388
23456		-5.999294	-9.712691	11.100251
23457		-6.011876	-9.637193	11.181918
23458		-6.032559	-9.566903	11.262017
23459		-6.057502	-9.501314	11.345796
23460		-6.082958	-9.438345	11.434486
23461		-6.111317	-9.369999	11.537909
23462		-6.133839	-9.306289	11.659523
23463		-6.144399	-9.248691	11.792093
23464		-6.143923	-9.194884	11.928037
23465		-6.129946	-9.137493	12.057330
23466		-6.108693	-9.066113	12.179875
23467		-6.095161	-8.976798	12.300021
23468		-6.084601	-8.878373	12.412940
23469		-6.071772	-8.781602	12.522694
23470		-6.054554	-8.684622	12.634026
23471		-6.044682	-8.588960	12.750658
23472		-6.039585	-8.497959	12.866834
23473		-6.038824	-8.398539	12.979657
23474		-6.031236	-8.283402	13.079799
23475		-5.997256	-8.163334	13.173136
23476		-5.951642	-8.037270	13.263241
23477		-5.904976	-7.910935	13.351949
23478		-5.855398	-7.792800	13.446363
23479		-5.801208	-7.690222	13.548513
23480		-5.760086	-7.592787	13.644553
23481		-5.717260	-7.493643	13.732916
23482		-5.683961	-7.397289	13.818902
23483		-5.649314	-7.310421	13.906311
23484		-5.619189	-7.225213	13.983458
23485		-5.595328	-7.137180	14.050979
23486		-5.564982	-7.033039	14.103602
23487		-5.532090	-6.917737	14.145413
23488		-5.494108	-6.800657	14.183922
23489		-5.450677	-6.689736	14.214549
23490		-5.420410	-6.601604	14.251131
23491		-5.394188	-6.530674	14.299563
23492		-5.353610	-6.463650	14.359703
23493		-5.305106	-6.387545	14.423966
23494		-5.236322	-6.289606	14.496004
23495		-5.129558	-6.170136	14.577120
23496		-4.986107	-6.030048	14.657171
23497		-4.831479	-5.902137	14.741022
23498		-4.663447	-5.773444	14.822008
23499		-4.491824	-5.632981	14.896856
23500		-4.307671	-5.492450	14.967182
23501		-4.136116	-5.370532	15.052400
23502		-3.958975	-5.260448	15.145157
23503		-3.766240	-5.161612	15.247151
23504		-3.572776	-5.085366	15.353370
23505		-3.394869	-5.046730	15.464645
23506		-3.295885	-5.077980	15.571236
23507		-3.279993	-5.183372	15.668908
23508		-3.346871	-5.325971	15.770425
23509		-3.485970	-5.483084	15.871263
23510		-3.644922	-5.648932	15.974947
23511		-3.781599	-5.785868	16.081739
23512		-3.884177	-5.915996	16.161330
23513		-3.925996	-6.056365	16.208263
23514		-3.991445	-6.232241	16.221105
23515		-4.005659	-6.451051	16.227953
23516		-3.973384	-6.663524	16.249468
23517		-3.954760	-6.841017	16.275914
23518		-3.929367	-6.987316	16.308360
23519		-3.910268	-7.117180	16.364255
23520		-3.908313	-7.220728	16.445768
23521		-3.890295	-7.287072	16.540570
23522		-3.825693	-7.289139	16.629296
23523		-3.724273	-7.220252	16.706027
23524		-3.613075	-7.105781	16.740583
23525		-3.447174	-7.016255	16.736174
23526		-3.250285	-7.007326	16.715781
23527		-3.107503	-6.967038	16.672105
23528		-3.021520	-6.830770	16.617774
23529		-2.843420	-6.698742	16.621219
23530		-2.431542	-6.490242	16.749190
23531		-1.788089	-5.958573	16.725780
23532		-1.450102	-5.545846	16.577013
23533		-1.218561	-5.313624	16.483123
23534		-0.933352	-5.047085	16.399509
23535		-0.751521	-4.771247	16.328940
23536		-0.594193	-4.519682	16.302214
23537		-0.438339	-4.331186	16.289577
23538		-0.279890	-4.173296	16.271103
23539		-0.158533	-4.018378	16.248931
23540		-0.027603	-3.802743	16.243417
23541		0.128180	-3.471325	16.230439
23542		0.315159	-3.097800	16.225985
23543		0.503706	-2.765509	16.228076
23544		0.680859	-2.473611	16.214446
23545		0.818921	-2.212230	16.186503
23546		0.866616	-1.971289	16.148458
23547		0.874679	-1.770742	16.117881
23548		0.837768	-1.614512	16.087413
23549		0.768831	-1.468380	16.064529
23550		0.687741	-1.303317	16.044864
23551		0.628721	-1.137975	16.027032
23552		0.588255	-0.947398	16.006980
23553		0.577181	-0.725760	15.989465
23554		0.581949	-0.479355	15.969030
23555		0.604445	-0.255969	15.950195
23556		0.619313	-0.041486	15.937724
23557		0.616409	0.142862	15.932669
23558		0.598964	0.290125	15.927246
23559		0.564728	0.425676	15.920138
23560		0.536515	0.559061	15.913670
23561		0.522153	0.693607	15.908997
23562		0.523711	0.830580	15.904201
23563		0.534352	0.960175	15.894507
23564		0.540345	1.073380	15.884554
23565		0.527452	1.194385	15.884689
23566		0.516727	1.325182	15.889652
23567		0.512655	1.449862	15.890248
23568		0.517027	1.565501	15.882746
23569		0.522545	1.669927	15.871620
23570		0.523601	1.765830	15.858090
23571		0.542128	1.842321	15.840078
23572		0.573420	1.893193	15.826975
23573		0.610436	1.926741	15.810688
23574		0.654138	1.954196	15.798397
23575		0.702789	1.978894	15.790722
23576		0.759508	2.015896	15.789405
23577		0.826257	2.059961	15.790230
23578		0.905391	2.110401	15.789085
23579		0.994574	2.160738	15.785955
23580		1.079090	2.208811	15.783253
23581		1.158109	2.238504	15.785045
23582		1.232571	2.260934	15.790934
23583		1.291944	2.291068	15.795513
23584		1.360750	2.306068	15.778968
23585		1.447307	2.298025	15.744629
23586		1.521545	2.284741	15.713116
23587		1.570195	2.268112	15.694651
23588		1.607251	2.238416	15.686017
23589		1.633690	2.183187	15.680109
23590		1.657515	2.107770	15.673519
23591		1.668748	2.022935	15.667207
23592		1.675150	1.922271	15.662437
23593		1.694409	1.814190	15.675025
23594		1.690857	1.736159	15.658447
23595		1.681938	1.652803	15.655751
23596		1.681338	1.579813	15.664851
23597		1.697638	1.538942	15.674959
23598		1.717926	1.525016	15.691639
23599		1.746386	1.535729	15.712641
23600		1.793882	1.570477	15.735807
23601		1.835758	1.614711	15.761794
23602		1.861458	1.587672	15.835969
23603		1.864295	1.501847	15.874203
23604		1.878703	1.404720	15.919276
23605		1.906849	1.305542	15.965816
23606		1.925745	1.205168	16.016010
23607		1.966946	1.107570	16.082323
23608		2.039497	1.032595	16.153122
23609		2.129879	0.965611	16.236340
23610		2.233753	0.910022	16.321144
23611		2.291615	0.859236	16.380350
23612		2.324194	0.815211	16.413866
23613		2.316149	0.769854	16.415097
23614		2.276709	0.727404	16.391023
23615		2.218343	0.696091	16.349287
23616		2.171596	0.683590	16.313164
23617		2.154738	0.676218	16.301255
23618		2.147239	0.670094	16.319181
23619		2.131199	0.666125	16.368428
23620		2.086227	0.649449	16.439018
23621		2.016719	0.612878	16.521634
23622		1.937360	0.573226	16.608433
23623		1.835753	0.520922	16.694775
23624		1.720641	0.452746	16.777680
23625		1.601712	0.361879	16.857296
23626		1.479486	0.243650	16.938634
23627		1.371332	0.113253	17.023869
23628		1.250399	0.001799	17.108905
23629		1.133107	-0.084486	17.188308
23630		1.034026	-0.134409	17.259480
23631		0.952402	-0.167885	17.310785
23632		0.891092	-0.183522	17.349537
23633		0.821434	-0.197507	17.384747
23634		0.722706	-0.225654	17.426240
23635		0.617689	-0.269844	17.482281
23636		0.507587	-0.335029	17.553952
23637		0.372243	-0.432101	17.636619
23638		0.198857	-0.546754	17.722381
23639		-0.006518	-0.676147	17.804532
23640		-0.224861	-0.822925	17.885592
23641		-0.437226	-0.986085	17.969111
23642		-0.629105	-1.150980	18.051562
23643		-0.808962	-1.314964	18.129519
23644		-0.969654	-1.473608	18.200465
23645		-1.099212	-1.627063	18.262307
23646		-1.199236	-1.767545	18.321824
23647		-1.298615	-1.902772	18.375155
23648		-1.411387	-2.041995	18.422931
23649		-1.541035	-2.197309	18.463055
23650		-1.669947	-2.360114	18.504404
23651		-1.787230	-2.526303	18.546822
23652		-1.891875	-2.687469	18.577957
23653		-1.980354	-2.833357	18.598267
23654		-2.032360	-2.955567	18.601394
23655		-2.053308	-3.062246	18.589651
23656		-2.036878	-3.161253	18.568531
23657		-2.009417	-3.278024	18.538345
23658		-1.988740	-3.418042	18.504180
23659		-1.982429	-3.575477	18.460485
23660		-1.984224	-3.738478	18.398865
23661		-1.990187	-3.907187	18.314792
23662		-1.998437	-4.059418	18.198675
23663		-2.013812	-4.186225	18.051734
23664		-2.035882	-4.287328	17.882786
23665		-2.053096	-4.376451	17.706188
23666		-2.055518	-4.446420	17.524700
23667		-2.047644	-4.503328	17.339604
23668		-2.034801	-4.557770	17.148893
23669		-2.024477	-4.618220	16.949181
23670		-2.021623	-4.697206	16.746354
23671		-2.025114	-4.787023	16.544759
23672		-2.023834	-4.872638	16.352181
23673		-2.025826	-4.950497	16.171722
23674		-2.029854	-5.014700	15.997624
23675		-2.033044	-5.066626	15.827842
23676		-2.023491	-5.115266	15.666004
23677		-2.003643	-5.166230	15.506864
23678		-1.977850	-5.213787	15.351965
23679		-1.957711	-5.260471	15.205727
23680		-1.937764	-5.306576	15.065868
23681		-1.924219	-5.337131	14.935837
23682		-1.910606	-5.349923	14.817803
23683		-1.896187	-5.339313	14.707805
23684		-1.867293	-5.303328	14.604054
23685		-1.810080	-5.232025	14.501138
23686		-1.733181	-5.146043	14.393574
23687		-1.647541	-5.055034	14.284281
23688		-1.554018	-4.969866	14.175417
23689		-1.461436	-4.905694	14.069406
23690		-1.376997	-4.865338	13.974866
23691		-1.314957	-4.863740	13.895863
23692		-1.277364	-4.895114	13.826601
23693		-1.262723	-4.943950	13.754735
23694		-1.251194	-5.012928	13.692446
23695		-1.241922	-5.092217	13.631872
23696		-1.227991	-5.164728	13.571813
23697		-1.211225	-5.228849	13.512744
23698		-1.195021	-5.281573	13.454497
23699		-1.181221	-5.328413	13.395484
23700		-1.172347	-5.385492	13.343806
23701		-1.166100	-5.454446	13.289985
23702		-1.158994	-5.528591	13.233542
23703		-1.150735	-5.614794	13.174180
23704		-1.140839	-5.719015	13.121191
23705		-1.135988	-5.837719	13.071884
23706		-1.128361	-5.949332	13.029745
23707		-1.124941	-6.041164	12.986337
23708		-1.116912	-6.112374	12.941896
23709		-1.116688	-6.169155	12.890686
23710		-1.125282	-6.222761	12.819799
23711		-1.138708	-6.273950	12.735781
23712		-1.150956	-6.323836	12.647963
23713		-1.159602	-6.366099	12.550245
23714		-1.169190	-6.409610	12.445739
23715		-1.177479	-6.455422	12.336297
23716		-1.188972	-6.494868	12.219539
23717		-1.200771	-6.523004	12.106621
23718		-1.196118	-6.525253	11.993867
23719		-1.185822	-6.507408	11.879055
23720		-1.174672	-6.474384	11.752051
23721		-1.169984	-6.438339	11.616688
23722		-1.177415	-6.396487	11.482662
23723		-1.197182	-6.357406	11.361492
23724		-1.216594	-6.313252	11.269626
23725		-1.231243	-6.260667	11.206466
23726		-1.240257	-6.205484	11.172490
23727		-1.245632	-6.159555	11.159216
23728		-1.251889	-6.126426	11.153470
23729		-1.272916	-6.139586	11.156818
23730		-1.302586	-6.181324	11.171306
23731		-1.338758	-6.222530	11.187200
23732		-1.386947	-6.258034	11.211286
23733		-1.437675	-6.269183	11.237353
23734		-1.474912	-6.252765	11.275583
23735		-1.494176	-6.212178	11.322098
23736		-1.501515	-6.154290	11.372447
23737		-1.504088	-6.093423	11.416474
23738		-1.508428	-6.046542	11.446830
23739		-1.512782	-6.033164	11.463446
23740		-1.518680	-6.057469	11.469997
23741		-1.526608	-6.101021	11.474817
23742		-1.525115	-6.145018	11.475800
23743		-1.511036	-6.172006	11.479144
23744		-1.479374	-6.165471	11.486958
23745		-1.422712	-6.122588	11.502988
23746		-1.361967	-6.044140	11.523471
23747		-1.298780	-5.940373	11.545077
23748		-1.239438	-5.820829	11.559374
23749		-1.178596	-5.713840	11.560754
23750		-1.137385	-5.639782	11.534337
23751		-1.125308	-5.610202	11.474322
23752		-1.131027	-5.629017	11.389924
23753		-1.140553	-5.682990	11.291018
23754		-1.153263	-5.751679	11.205564
23755		-1.147864	-5.818402	11.131018
23756		-1.088031	-5.860518	11.085715
23757		-1.004018	-6.073271	11.099874
23758		-1.093891	-6.301258	10.945996
23759		-1.063120	-6.411557	10.710242
23760		-0.933376	-6.452974	10.432004
23761		-0.834271	-6.470764	10.157685
23762		-0.700662	-6.428221	9.905534
23763		-0.611786	-6.382880	9.685621
23764		-0.587859	-6.378698	9.500984
23765		-0.635304	-6.435408	9.341863
23766		-0.678123	-6.533480	9.201552
23767		-0.685554	-6.642991	9.087522
23768		-0.681417	-6.752617	8.994880
23769		-0.664153	-6.863699	8.905464
23770		-0.653500	-6.986097	8.820573
23771		-0.650895	-7.105279	8.735237
23772		-0.656034	-7.214605	8.652767
23773		-0.681008	-7.323743	8.578411
23774		-0.715398	-7.438409	8.518123
23775		-0.716324	-7.555205	8.479656
23776		-0.672400	-7.677478	8.460685
23777		-0.613271	-7.805475	8.458186
23778		-0.565511	-7.938842	8.450002
23779		-0.542902	-8.096752	8.443241
23780		-0.543830	-8.267270	8.446600
23781		-0.579029	-8.452472	8.444782
23782		-0.638403	-8.675125	8.447469
23783		-0.707944	-8.935342	8.460248
23784		-0.770891	-9.202001	8.484794
23785		-0.839277	-9.459903	8.520583
23786		-0.885898	-9.688398	8.559164
23787		-0.903398	-9.877507	8.593440
23788		-0.898755	-10.041060	8.620323
23789		-0.866495	-10.172049	8.639141
23790		-0.838685	-10.261081	8.644422
23791		-0.842848	-10.339497	8.640524
23792		-0.872519	-10.435365	8.627786
23793		-0.928852	-10.567761	8.623706
23794		-0.996018	-10.719593	8.626497
23795		-1.063965	-10.878176	8.644468
23796		-1.154059	-11.047818	8.665672
23797		-1.255623	-11.227906	8.683795
23798		-1.358571	-11.411357	8.695954
23799		-1.457984	-11.587171	8.722435
23800		-1.540677	-11.750699	8.734655
23801		-1.595385	-11.901257	8.737532
23802		-1.641996	-12.042203	8.732027
23803		-1.685246	-12.172339	8.711905
23804		-1.723114	-12.289703	8.683144
23805		-1.776382	-12.389282	8.640551
23806		-1.835850	-12.486076	8.584213
23807		-1.898445	-12.600348	8.525791
23808		-1.963879	-12.747723	8.471484
23809		-2.040298	-12.936716	8.459586
23810		-2.177541	-13.129926	8.496064
23811		-2.346068	-13.323762	8.574150
23812		-2.551404	-13.515966	8.649848
23813		-2.747462	-13.665046	8.723773
23814		-2.928864	-13.729090	8.782963
23815		-3.089680	-13.711903	8.827748
23816		-3.227067	-13.695517	8.866088
23817		-3.331091	-13.720258	8.885037
23818		-3.397853	-13.781103	8.891393
23819		-3.423777	-13.755563	8.890779
23820		-3.427313	-13.539702	8.893592
23821		-3.408745	-13.118991	8.906143
23822		-3.364824	-12.601949	8.895947
23823		-3.287200	-12.119818	8.886420
23824		-3.190735	-11.734423	8.869779
23825		-3.072268	-11.431506	8.874149
23826		-2.969682	-11.161237	8.916504
23827		-2.890405	-10.880005	8.984144
23828		-2.782612	-10.591600	9.054642
23829		-2.639891	-10.290199	9.127513
23830		-2.448386	-9.982247	9.194754
23831		-2.218845	-9.666412	9.278717
23832		-1.973725	-9.315151	9.371775
23833		-1.726340	-8.942361	9.488819
23834		-1.519267	-8.534705	9.618229
23835		-1.356339	-8.231358	9.747330
23836		-1.300270	-8.011754	9.840326
23837		-1.358118	-7.945755	9.869159
23838		-1.428639	-8.012177	9.916277
23839		-1.474956	-8.175897	9.964003
23840		-1.502121	-8.318160	9.983441
23841		-1.493931	-8.457788	9.975743
23842		-1.491655	-8.587563	9.943627
23843		-1.491387	-8.703379	9.914394
23844		-1.508030	-8.801597	9.886854
23845		-1.527281	-8.880747	9.881687
23846		-1.540831	-8.956739	9.878356
23847		-1.566482	-9.019850	9.887224
23848		-1.583323	-9.054535	9.892835
23849		-1.572525	-9.079013	9.906865
23850		-1.566751	-9.096389	9.920338
23851		-1.569481	-9.105348	9.937758
23852		-1.586179	-9.100985	9.944997
23853		-1.614074	-9.089656	9.954516
23854		-1.663317	-9.072632	9.950616
23855		-1.724211	-9.062886	9.948172
23856		-1.807771	-9.052244	9.943998
23857		-1.891786	-9.035750	9.938325
23858		-1.939114	-9.030792	9.924551
23859		-1.965435	-9.028994	9.913080
23860		-1.976824	-9.027642	9.903768
23861		-1.987833	-9.035148	9.916939
23862		-2.004058	-9.054867	9.926576
23863		-2.021947	-9.080280	9.951409
23864		-2.043525	-9.107044	9.969069
23865		-2.063378	-9.146166	9.982987
23866		-2.068946	-9.204364	9.990639
23867		-2.071802	-9.263663	10.016080
23868		-2.089549	-9.316744	10.028962
23869		-2.098238	-9.362414	10.039597
23870		-2.110138	-9.403615	10.046722
23871		-2.130484	-9.433681	10.061721
23872		-2.154850	-9.453299	10.067088
23873		-2.186553	-9.464455	10.083984
23874		-2.218131	-9.477043	10.093629
23875		-2.229620	-9.493306	10.110462
23876		-2.228826	-9.503992	10.115860
23877		-2.236341	-9.509308	10.126163
23878		-2.240536	-9.530307	10.133570
23879		-2.279307	-9.549569	10.153095
23880		-2.347268	-9.552081	10.149812
23881		-2.401111	-9.573619	10.155598
23882		-2.438326	-9.603693	10.153028
23883		-2.471609	-9.634385	10.140790
23884		-2.471114	-9.671252	10.119995
23885		-2.444553	-9.698260	10.101950
23886		-2.420537	-9.704720	10.067988
23887		-2.414554	-9.700454	10.033613
23888		-2.440469	-9.701838	9.990671
23889		-2.492657	-9.721413	9.959183
23890		-2.551632	-9.744263	9.920697
23891		-2.600445	-9.767788	9.877594
23892		-2.622564	-9.788638	9.825034
23893		-2.615012	-9.813361	9.776626
23894		-2.585618	-9.827215	9.720690
23895		-2.543616	-9.838083	9.671494
23896		-2.506903	-9.850717	9.619537
23897		-2.494447	-9.866076	9.571763
23898		-2.500617	-9.865604	9.544956
23899		-2.513579	-9.867931	9.535757
23900		-2.509362	-9.859900	9.517211
23901		-2.489682	-9.848593	9.509498
23902		-2.465278	-9.836589	9.506541
23903		-2.429394	-9.826716	9.512501
23904		-2.391645	-9.820114	9.528346
23905		-2.352692	-9.820666	9.548800
23906		-2.317429	-9.835779	9.580584
23907		-2.278819	-9.868699	9.632172
23908		-2.237068	-9.902324	9.683033
23909		-2.178156	-9.928678	9.732942
23910		-2.117652	-9.937129	9.773700
23911		-2.068542	-9.932773	9.806554
23912		-2.033972	-9.912636	9.836365
23913		-2.019292	-9.884922	9.869147
23914		-2.020797	-9.858605	9.904400
23915		-2.043879	-9.840818	9.948242
23916		-2.070556	-9.847226	10.005499
23917		-2.072487	-9.883031	10.078900
23918		-2.052444	-9.921601	10.157445
23919		-2.023737	-9.938274	10.237354
23920		-1.991970	-9.936100	10.329069
23921		-1.963916	-9.918847	10.431287
23922		-1.949109	-9.884123	10.539691
23923		-1.943952	-9.844769	10.655197
23924		-1.953824	-9.805582	10.771750
23925		-1.957029	-9.792786	10.890263
23926		-1.946713	-9.803633	11.003833
23927		-1.935398	-9.807470	11.096012
23928		-1.931866	-9.802639	11.181563
23929		-1.933807	-9.791666	11.262136
23930		-1.945153	-9.770528	11.340979
23931		-1.961363	-9.733827	11.421265
23932		-1.984902	-9.692062	11.506283
23933		-2.013298	-9.657380	11.592921
23934		-2.038880	-9.631232	11.681162
23935		-2.067241	-9.617427	11.778748
23936		-2.079225	-9.612392	11.888492
23937		-2.068477	-9.617085	11.998805
23938		-2.035145	-9.619842	12.099094
23939		-2.003974	-9.610957	12.190437
23940		-1.988144	-9.589064	12.269229
23941		-1.996330	-9.575068	12.334058
23942		-2.033478	-9.551944	12.399676
23943		-2.100500	-9.524971	12.475662
23944		-2.176223	-9.499411	12.568460
23945		-2.254714	-9.476634	12.677760
23946		-2.327628	-9.457212	12.796016
23947		-2.386762	-9.437456	12.921670
23948		-2.437605	-9.425292	13.047158
23949		-2.475797	-9.415896	13.171921
23950		-2.501440	-9.406320	13.288845
23951		-2.520622	-9.399510	13.399624
23952		-2.541694	-9.394002	13.506361
23953		-2.565515	-9.390339	13.613515
23954		-2.589658	-9.386597	13.721387
23955		-2.612857	-9.383801	13.837018
23956		-2.636286	-9.384042	13.962391
23957		-2.650945	-9.386008	14.088055
23958		-2.664024	-9.384053	14.206901
23959		-2.672387	-9.384181	14.313853
23960		-2.672425	-9.387393	14.415519
23961		-2.669375	-9.391138	14.519516
23962		-2.662773	-9.399197	14.632276
23963		-2.658133	-9.408523	14.757786
23964		-2.649281	-9.428271	14.900032
23965		-2.657249	-9.455843	15.061508
23966		-2.683435	-9.488990	15.234081
23967		-2.711085	-9.532192	15.416574
23968		-2.725869	-9.581260	15.596831
23969		-2.728365	-9.632161	15.775319
23970		-2.719159	-9.686165	15.954571
23971		-2.696735	-9.735585	16.138041
23972		-2.671899	-9.766545	16.321493
23973		-2.645104	-9.791137	16.502587
23974		-2.625612	-9.805124	16.668968
23975		-2.633865	-9.801057	16.829747
23976		-2.663657	-9.790642	16.981769
23977		-2.686548	-9.782846	17.124464
23978		-2.691854	-9.770732	17.267925
23979		-2.694754	-9.754628	17.412451
23980		-2.693294	-9.735274	17.561291
23981		-2.684595	-9.704681	17.705831
23982		-2.663364	-9.664253	17.841042
23983		-2.634910	-9.621846	17.971088
23984		-2.610841	-9.584998	18.098514
23985		-2.593069	-9.543503	18.219737
23986		-2.580524	-9.502962	18.345186
23987		-2.570974	-9.460228	18.475885
23988		-2.555403	-9.424463	18.617021
23989		-2.539633	-9.386836	18.763282
23990		-2.528028	-9.357311	18.911569
23991		-2.504136	-9.327500	19.044079
23992		-2.470675	-9.293426	19.161223
23993		-2.453481	-9.259246	19.267070
23994		-2.453469	-9.227116	19.370949
23995		-2.474574	-9.187054	19.475926
23996		-2.500864	-9.151255	19.576644
23997		-2.515293	-9.113469	19.664954
23998		-2.521763	-9.079108	19.744334
23999		-2.510511	-9.049119	19.815010
24000		-2.487799	-9.016014	19.879773
24001		-2.458808	-8.982844	19.936318
24002		-2.429920	-8.952673	19.978307
24003		-2.417806	-8.918242	20.020651
24004		-2.419418	-8.888638	20.065535
24005		-2.428699	-8.863610	20.115347
24006		-2.444515	-8.838088	20.168516
24007		-2.453729	-8.812008	20.218409
24008		-2.448649	-8.786911	20.258273
24009		-2.441243	-8.763179	20.298721
24010		-2.448485	-8.746659	20.347876
24011		-2.469818	-8.734762	20.411422
24012		-2.500656	-8.723201	20.481991
24013		-2.526115	-8.708714	20.559124
24014		-2.550587	-8.695397	20.637815
24015		-2.567711	-8.689726	20.708527
24016		-2.584702	-8.693725	20.771432
24017		-2.608642	-8.701892	20.831660
24018		-2.636173	-8.711556	20.892546
24019		-2.663050	-8.710996	20.953642
24020		-2.691301	-8.696673	21.003957
24021		-2.714113	-8.681302	21.043204
24022		-2.738083	-8.670773	21.082253
24023		-2.769466	-8.667882	21.122738
24024		-2.807966	-8.674136	21.162030
24025		-2.854897	-8.680974	21.194333
24026		-2.882512	-8.677464	21.210441
24027		-2.890809	-8.662582	21.217849
24028		-2.907839	-8.652638	21.226693
24029		-2.912571	-8.648747	21.234766
24030		-2.901086	-8.643892	21.232018
24031		-2.890491	-8.635241	21.218584
24032		-2.873043	-8.638893	21.193824
24033		-2.844373	-8.657654	21.165783
24034		-2.816703	-8.694276	21.144978
24035		-2.787207	-8.749990	21.134950
24036		-2.742895	-8.817695	21.136753
24037		-2.683097	-8.882975	21.144061
24038		-2.607845	-8.944133	21.156485
24039		-2.519975	-9.008856	21.162579
24040		-2.432255	-9.061736	21.156138
24041		-2.343890	-9.102721	21.139419
24042		-2.263682	-9.127836	21.112995
24043		-2.200008	-9.150786	21.082232
24044		-2.141017	-9.170560	21.051594
24045		-2.091453	-9.191459	21.019102
24046		-2.048302	-9.212436	20.991151
24047		-2.011237	-9.229858	20.961723
24048		-1.981429	-9.248021	20.933851
24049		-1.959038	-9.262434	20.903579
24050		-1.947969	-9.266872	20.877493
24051		-1.953543	-9.273377	20.857295
24052		-1.974711	-9.278306	20.848211
24053		-2.003331	-9.283614	20.848153
24054		-2.019231	-9.283926	20.850217
24055		-2.018181	-9.282731	20.851770
24056		-2.002687	-9.284002	20.854925
24057		-1.981117	-9.292039	20.860977
24058		-1.958500	-9.298673	20.867615
24059		-1.934196	-9.301949	20.874797
24060		-1.918287	-9.301733	20.884236
24061		-1.902673	-9.292421	20.890893
24062		-1.888271	-9.285213	20.893917
24063		-1.885116	-9.285654	20.899196
24064		-1.884363	-9.295725	20.905304
24065		-1.881587	-9.311698	20.910307
24066		-1.867285	-9.328147	20.910282
24067		-1.854035	-9.343817	20.908648
24068		-1.846975	-9.351471	20.901783
24069		-1.853054	-9.360114	20.895168
24070		-1.860797	-9.363550	20.885152
24071		-1.863052	-9.360827	20.873890
24072		-1.862201	-9.357187	20.865824
24073		-1.867492	-9.354306	20.857115
24074		-1.868234	-9.359669	20.847226
24075		-1.860633	-9.368389	20.833858
24076		-1.848870	-9.378148	20.820760
24077		-1.842402	-9.390155	20.811035
24078		-1.835090	-9.397218	20.797325
24079		-1.832507	-9.402197	20.784200
24080		-1.834530	-9.397706	20.770629
24081		-1.840605	-9.388064	20.757187
24082		-1.842920	-9.372255	20.745468
24083		-1.841269	-9.359397	20.731898
24084		-1.834400	-9.358095	20.718530
24085		-1.830452	-9.359081	20.705519
24086		-1.833341	-9.361550	20.701381
24087		-1.834065	-9.367969	20.697556
24088		-1.830905	-9.380232	20.701662
24089		-1.825815	-9.385035	20.730339
24090		-1.803310	-9.353655	20.743398
24091		-1.762078	-9.309028	20.739354
24092		-1.697772	-9.263092	20.730469
24093		-1.630586	-9.217170	20.712232
24094		-1.589443	-9.177848	20.693491
24095		-1.586392	-9.139648	20.674824
24096		-1.601752	-9.093031	20.639930
24097		-1.590837	-9.046607	20.612315
24098		-1.548637	-8.990931	20.597001
24099		-1.512974	-8.955641	20.590906
24100		-1.502334	-8.936253	20.592359
24101		-1.495429	-8.914377	20.599818
24102		-1.477951	-8.888989	20.606663
24103		-1.465324	-8.869904	20.614469
24104		-1.452654	-8.847845	20.607063
24105		-1.433381	-8.818586	20.586492
24106		-1.400875	-8.776815	20.555117
24107		-1.343569	-8.699400	20.519069
24108		-1.281499	-8.591111	20.466739
24109		-1.191784	-8.496539	20.399622
24110		-1.105292	-8.437050	20.317723
24111		-1.049057	-8.425674	20.256958
24112		-1.023076	-8.439724	20.219843
24113		-1.034907	-8.485122	20.199762
24114		-1.086615	-8.563641	20.185276
24115		-1.156245	-8.667531	20.179396
24116		-1.213098	-8.771911	20.169640
24117		-1.266712	-8.871379	20.154784
24118		-1.309054	-8.963260	20.140299
24119		-1.354400	-9.035916	20.119806
24120		-1.398752	-9.088019	20.095768
24121		-1.440973	-9.136446	20.069154
24122		-1.498038	-9.187118	20.045639
24123		-1.561465	-9.228524	20.025732
24124		-1.658698	-9.260779	20.010545
24125		-1.775423	-9.255026	20.008505
24126		-1.905298	-9.198061	20.026998
24127		-2.014846	-9.066269	20.062671
24128		-2.089429	-8.857682	20.123104
24129		-2.049694	-8.537290	20.228445
24130		-1.860354	-8.031687	20.327689
24131		-1.625523	-7.298409	20.327608
24132		-1.294616	-6.514910	20.250950
24133		-0.953077	-5.801551	20.151406
24134		-0.551696	-5.078148	20.078601
24135		-0.130362	-4.226207	19.997640
24136		0.205811	-3.326697	19.914120
24137		0.424603	-2.394848	19.854101
24138		0.580240	-1.403419	19.809563
24139		0.527142	-0.404379	19.764702
24140		0.464384	0.563011	19.738971
24141		0.338751	1.523164	19.721710
24142		0.206212	2.505538	19.713378
24143		0.052058	3.579126	19.728453
24144		-0.057795	4.680397	19.749559
24145		-0.133820	5.669275	19.727455
24146		-0.152493	6.522506	19.676946
24147		-0.170584	7.208240	19.631022
24148		-0.221863	7.747907	19.605856
24149		-0.298365	8.116001	19.607764
24150		-0.395972	8.344924	19.623987
24151		-0.495624	8.490792	19.641230
24152		-0.574500	8.582516	19.660357
24153		-0.618993	8.641146	19.679005
24154		-0.626223	8.681996	19.691353
24155		-0.597988	8.692774	19.694073
24156		-0.555715	8.655534	19.687992
24157		-0.524794	8.573479	19.679996
24158		-0.521889	8.482672	19.676124
24159		-0.542089	8.427266	19.675827
24160		-0.567546	8.411503	19.675390
24161		-0.594677	8.413176	19.672493
24162		-0.619759	8.417542	19.669216
24163		-0.634635	8.409683	19.667598
24164		-0.638752	8.392339	19.661735
24165		-0.636894	8.362265	19.655216
24166		-0.627942	8.319275	19.647493
24167		-0.623357	8.262161	19.640292
24168		-0.632142	8.211218	19.636712
24169		-0.637215	8.172339	19.632232
24170		-0.631619	8.140292	19.624052
24171		-0.616286	8.111990	19.610421
24172		-0.592705	8.094214	19.593664
24173		-0.569194	8.084542	19.572632
24174		-0.551257	8.073458	19.553198
24175		-0.541652	8.045279	19.532967
24176		-0.531560	7.999837	19.515299
24177		-0.518598	7.942593	19.502990
24178		-0.510047	7.879552	19.488521
24179		-0.483728	7.786863	19.480751
24180		-0.441235	7.740905	19.450432
24181		-0.393915	7.700365	19.415156
24182		-0.349850	7.674800	19.378714
24183		-0.330855	7.668616	19.341782
24184		-0.331268	7.665606	19.297212
24185		-0.329264	7.652163	19.234657
24186		-0.320247	7.669357	19.189139
24187		-0.317171	7.702430	19.169291
24188		-0.317550	7.705768	19.152771
24189		-0.324309	7.716485	19.143823
24190		-0.321317	7.716301	19.146360
24191		-0.324869	7.670254	19.132643
24192		-0.315921	7.668174	19.115450
24193		-0.319886	7.667072	19.094782
24194		-0.320996	7.652940	19.057903
24195		-0.327207	7.650547	19.008017
24196		-0.341631	7.646440	18.965006
24197		-0.362040	7.636171	18.924192
24198		-0.388439	7.632203	18.889726
24199		-0.414851	7.634775	18.863520
24200		-0.433791	7.647894	18.836764
24201		-0.436205	7.672801	18.799178
24202		-0.445553	7.666918	18.747337
24203		-0.481975	7.609492	18.671996
24204		-0.538823	7.492473	18.591793
24205		-0.608225	7.332180	18.519311
24206		-0.699153	7.172721	18.464835
24207		-0.782606	7.040457	18.436359
24208		-0.850468	6.937842	18.428496
24209		-0.898023	6.860657	18.429953
24210		-0.922684	6.800916	18.440424
24211		-0.948395	6.740284	18.453348
24212		-0.980726	6.687047	18.463922
24213		-1.038918	6.620401	18.463757
24214		-1.118120	6.528342	18.457164
24215		-1.200474	6.408190	18.451756
24216		-1.273607	6.261714	18.457047
24217		-1.356182	6.108755	18.472719
24218		-1.433212	5.969824	18.501655
24219		-1.494445	5.849352	18.532370
24220		-1.549756	5.739229	18.554940
24221		-1.595078	5.655845	18.569147
24222		-1.617679	5.582368	18.574189
24223		-1.627413	5.496991	18.564754
24224		-1.643323	5.386371	18.547806
24225		-1.667065	5.239409	18.529810
24226		-1.691870	5.056857	18.513610
24227		-1.714185	4.843034	18.495309
24228		-1.732372	4.609731	18.474862
24229		-1.748780	4.358174	18.449879
24230		-1.787770	4.108287	18.419414
24231		-1.837022	3.859302	18.385796
24232		-1.895905	3.616892	18.342229
24233		-1.951904	3.383414	18.292436
24234		-1.994935	3.155173	18.235745
24235		-2.020100	2.929680	18.174832
24236		-2.037487	2.697915	18.103838
24237		-2.060147	2.447929	18.014111
24238		-2.106709	2.185801	17.914450
24239		-2.203663	1.956353	17.819229
24240		-2.329442	1.779124	17.741186
24241		-2.442651	1.634805	17.681842
24242		-2.526019	1.536620	17.633340
24243		-2.559568	1.484882	17.587086
24244		-2.562358	1.471315	17.540478
24245		-2.540309	1.470643	17.487972
24246		-2.512813	1.459703	17.422018
24247		-2.497004	1.407920	17.344326
24248		-2.516385	1.288315	17.255752
24249		-2.579707	1.094914	17.171303
24250		-2.666050	0.851056	17.104642
24251		-2.752201	0.606428	17.061395
24252		-2.818436	0.400941	17.030598
24253		-2.857351	0.246137	17.000536
24254		-2.853726	0.153691	16.948207
24255		-2.824308	0.105584	16.871549
24256		-2.790441	0.066058	16.772530
24257		-2.763865	0.015421	16.661517
24258		-2.745733	-0.042517	16.544255
24259		-2.736850	-0.116324	16.430562
24260		-2.728827	-0.186719	16.317403
24261		-2.713116	-0.248173	16.208824
24262		-2.685543	-0.301386	16.107511
24263		-2.654459	-0.357259	16.009713
24264		-2.637162	-0.430772	15.913713
24265		-2.628676	-0.533230	15.820110
24266		-2.629845	-0.658640	15.724154
24267		-2.645820	-0.806916	15.620172
24268		-2.672475	-0.988087	15.516368
24269		-2.702038	-1.191531	15.412346
24270		-2.717411	-1.398089	15.319270
24271		-2.713738	-1.590505	15.246345
24272		-2.690739	-1.768344	15.196792
24273		-2.652991	-1.916973	15.160408
24274		-2.613765	-2.030593	15.129962
24275		-2.590111	-2.117748	15.087859
24276		-2.576825	-2.194274	15.034643
24277		-2.559063	-2.268424	14.969532
24278		-2.529257	-2.354555	14.907137
24279		-2.482676	-2.442587	14.853597
24280		-2.421931	-2.533151	14.813188
24281		-2.360232	-2.639661	14.781654
24282		-2.299315	-2.748311	14.750037
24283		-2.254544	-2.850922	14.715181
24284		-2.248184	-2.945151	14.666244
24285		-2.276856	-3.025792	14.596783
24286		-2.330158	-3.092268	14.519737
24287		-2.372430	-3.146815	14.446864
24288		-2.387456	-3.194826	14.384473
24289		-2.365999	-3.232132	14.332391
24290		-2.317791	-3.260465	14.271622
24291		-2.280565	-3.290528	14.189303
24292		-2.263530	-3.326869	14.079912
24293		-2.270772	-3.365431	13.959363
24294		-2.290253	-3.408201	13.842517
24295		-2.311803	-3.446933	13.739451
24296		-2.321133	-3.479782	13.659303
24297		-2.314988	-3.506326	13.592597
24298		-2.297655	-3.538668	13.539799
24299		-2.270877	-3.580489	13.500698
24300		-2.242327	-3.625756	13.461052
24301		-2.216118	-3.677831	13.411092
24302		-2.195090	-3.735021	13.359768
24303		-2.197703	-3.806211	13.296229
24304		-2.227626	-3.898217	13.228869
24305		-2.270034	-3.988461	13.171980
24306		-2.303589	-4.066345	13.129765
24307		-2.314227	-4.133098	13.102543
24308		-2.328557	-4.204674	13.070649
24309		-2.348694	-4.297428	13.034139
24310		-2.380276	-4.407769	12.995777
24311		-2.427824	-4.535460	12.960672
24312		-2.482252	-4.659092	12.919851
24313		-2.556896	-4.758735	12.861076
24314		-2.624337	-4.820203	12.781915
24315		-2.664922	-4.843490	12.687889
24316		-2.691370	-4.811538	12.578482
24317		-2.699488	-4.745295	12.463469
24318		-2.686495	-4.656106	12.350931
24319		-2.652055	-4.566041	12.236343
24320		-2.609993	-4.490465	12.123002
24321		-2.562958	-4.445554	12.010499
24322		-2.523793	-4.430511	11.891357
24323		-2.505624	-4.445578	11.760877
24324		-2.500421	-4.468971	11.630861
24325		-2.511241	-4.489353	11.510187
24326		-2.504096	-4.488079	11.403153
24327		-2.494255	-4.458418	11.309193
24328		-2.471399	-4.403324	11.233851
24329		-2.445394	-4.323626	11.168075
24330		-2.422818	-4.235552	11.109977
24331		-2.404915	-4.163604	11.064448
24332		-2.389775	-4.113594	11.043958
24333		-2.386742	-4.109928	11.054231
24334		-2.346083	-4.150615	11.109824
24335		-2.422503	-4.374409	11.108975
24336		-2.467263	-4.587677	10.973321
24337		-2.393579	-4.683560	10.763126
24338		-2.271569	-4.701332	10.578729
24339		-2.158809	-4.687861	10.436759
24340		-2.089744	-4.621975	10.272358
24341		-2.053469	-4.526216	10.082666
24342		-2.049465	-4.446469	9.904450
24343		-2.072267	-4.392163	9.760796
24344		-2.103689	-4.359082	9.657051
24345		-2.146876	-4.358609	9.582683
24346		-2.185030	-4.391567	9.527835
24347		-2.195817	-4.442916	9.482060
24348		-2.185927	-4.492815	9.448981
24349		-2.152259	-4.532459	9.439358
24350		-2.095319	-4.568438	9.428850
24351		-2.023978	-4.612401	9.417406
24352		-1.956580	-4.684575	9.406131
24353		-1.893839	-4.799985	9.403724
24354		-1.806931	-4.967775	9.404006
24355		-1.692442	-5.171328	9.416222
24356		-1.586381	-5.405688	9.421869
24357		-1.495456	-5.647062	9.425515
24358		-1.409716	-5.871693	9.428829
24359		-1.345902	-6.081600	9.432076
24360		-1.286960	-6.275427	9.426628
24361		-1.226970	-6.463935	9.424425
24362		-1.160729	-6.634144	9.411757
24363		-1.103377	-6.775791	9.390830
24364		-1.054755	-6.881216	9.365029
24365		-1.005668	-6.954433	9.339578
24366		-0.947749	-7.001334	9.316704
24367		-0.892623	-7.031287	9.303679
24368		-0.847876	-7.056633	9.285535
24369		-0.823339	-7.086489	9.279333
24370		-0.800037	-7.118493	9.271203
24371		-0.790018	-7.170358	9.278708
24372		-0.773753	-7.230513	9.282405
24373		-0.761103	-7.294261	9.292345
24374		-0.749909	-7.361639	9.295728
24375		-0.745834	-7.430308	9.304652
24376		-0.743093	-7.489452	9.316229
24377		-0.735330	-7.541926	9.334464
24378		-0.717578	-7.585372	9.345658
24379		-0.692040	-7.624085	9.356211
24380		-0.658299	-7.649198	9.350778
24381		-0.628562	-7.669885	9.340512
24382		-0.625200	-7.702932	9.321288
24383		-0.656141	-7.760918	9.305394
24384		-0.706453	-7.836930	9.288969
24385		-0.759449	-7.920490	9.276681
24386		-0.814666	-7.989366	9.255872
24387		-0.879334	-8.031882	9.236236
24388		-0.946598	-8.045824	9.213433
24389		-1.001983	-8.053702	9.194655
24390		-1.022370	-8.089988	9.177819
24391		-1.066588	-8.163165	9.160092
24392		-1.084204	-8.261121	9.123665
24393		-1.120518	-8.392741	9.074099
24394		-1.160778	-8.556627	9.021404
24395		-1.202855	-8.741571	8.974218
24396		-1.277460	-8.946926	8.917928
24397		-1.371348	-9.176532	8.869830
24398		-1.467214	-9.386186	8.832210
24399		-1.569945	-9.536669	8.818213
24400		-1.651985	-9.621514	8.813190
24401		-1.716146	-9.684868	8.818408
24402		-1.762190	-9.755022	8.856702
24403		-1.909914	-9.913004	8.884926
24404		-2.021677	-10.214112	8.926797
24405		-2.191117	-10.641318	8.996292
24406		-2.366078	-11.074801	9.048491
24407		-2.499769	-11.447176	9.098846
24408		-2.619963	-11.705836	9.114431
24409		-2.720397	-11.867646	9.114449
24410		-2.810134	-11.978827	9.080058
24411		-2.885488	-12.073201	9.035918
24412		-2.966647	-12.151797	8.973659
24413		-3.051919	-12.241623	8.916571
24414		-3.148209	-12.331087	8.882990
24415		-3.237140	-12.401695	8.875250
24416		-3.292469	-12.447899	8.897540
24417		-3.311119	-12.464435	8.943335
24418		-3.276045	-12.442682	8.989709
24419		-3.185474	-12.410657	9.044921
24420		-3.076463	-12.336324	9.104049
24421		-2.935398	-12.186584	9.177753
24422		-2.758938	-11.965713	9.274642
24423		-2.560342	-11.680866	9.370899
24424		-2.353346	-11.354301	9.461540
24425		-2.164409	-10.991893	9.536275
24426		-1.968398	-10.612798	9.576952
24427		-1.713528	-10.261876	9.609410
24428		-1.536563	-10.061646	9.583502
24429		-1.432211	-9.900503	9.540864
24430		-1.418910	-9.823716	9.529087
24431		-1.447774	-9.840962	9.523181
24432		-1.471936	-9.876219	9.508954
24433		-1.497773	-9.914268	9.502535
24434		-1.505796	-9.970358	9.487719
24435		-1.492086	-10.041017	9.486486
24436		-1.477943	-10.115941	9.477946
24437		-1.465143	-10.182337	9.465456
24438		-1.458243	-10.247165	9.459488
24439		-1.455484	-10.308954	9.458472
24440		-1.452051	-10.361972	9.456886
24441		-1.456881	-10.406564	9.456840
24442		-1.454499	-10.446943	9.447292
24443		-1.448139	-10.488626	9.433996
24444		-1.443137	-10.520043	9.406538
24445		-1.437425	-10.534360	9.383771
24446		-1.438985	-10.538463	9.367251
24447		-1.452639	-10.528493	9.363413
24448		-1.480809	-10.515029	9.362240
24449		-1.513006	-10.500844	9.378336
24450		-1.539723	-10.486663	9.392496
24451		-1.556248	-10.473051	9.412267
24452		-1.557396	-10.451391	9.436130
24453		-1.552795	-10.427417	9.460439
24454		-1.562711	-10.409680	9.470364
24455		-1.581199	-10.395161	9.490380
24456		-1.626403	-10.379397	9.509567
24457		-1.693728	-10.365389	9.526190
24458		-1.755433	-10.356117	9.549214
24459		-1.807962	-10.356414	9.588837
24460		-1.897664	-10.363054	9.590684
24461		-1.958473	-10.362660	9.599950
24462		-2.017515	-10.366712	9.602415
24463		-2.081846	-10.371071	9.610200
24464		-2.146726	-10.378251	9.606879
24465		-2.229639	-10.381405	9.603681
24466		-2.321082	-10.390007	9.606398
24467		-2.414884	-10.398541	9.606520
24468		-2.496502	-10.415082	9.599448
24469		-2.548608	-10.434965	9.593549
24470		-2.595319	-10.450522	9.568514
24471		-2.649599	-10.462748	9.536858
24472		-2.717370	-10.472489	9.502838
24473		-2.801046	-10.482787	9.464952
24474		-2.880723	-10.491324	9.416947
24475		-2.952696	-10.505538	9.367166
24476		-3.008224	-10.518789	9.305718
24477		-3.040157	-10.534676	9.253437
24478		-3.049892	-10.549897	9.199953
24479		-3.045142	-10.548381	9.140636
24480		-3.040877	-10.535493	9.076716
24481		-3.052831	-10.515568	9.006460
24482		-3.073958	-10.492354	8.924232
24483		-3.122023	-10.475327	8.828366
24484		-3.186381	-10.461648	8.731020
24485		-3.245158	-10.453819	8.635641
24486		-3.283621	-10.444929	8.554390
24487		-3.300644	-10.434059	8.483916
24488		-3.296214	-10.427926	8.425006
24489		-3.271493	-10.427024	8.377235
24490		-3.241200	-10.411810	8.346142
24491		-3.230570	-10.395436	8.327792
24492		-3.250854	-10.367456	8.304978
24493		-3.298163	-10.332806	8.278864
24494		-3.366430	-10.297890	8.254458
24495		-3.434041	-10.269893	8.233077
24496		-3.490292	-10.246527	8.216232
24497		-3.529824	-10.225111	8.209742
24498		-3.551636	-10.195439	8.217915
24499		-3.564662	-10.163968	8.239804
24500		-3.576559	-10.133839	8.272596
24501		-3.591636	-10.105601	8.317207
24502		-3.604000	-10.080893	8.373451
24503		-3.618346	-10.061205	8.434764
24504		-3.633385	-10.043515	8.497348
24505		-3.656188	-10.029147	8.568313
24506		-3.674254	-10.013146	8.650814
24507		-3.684097	-10.001548	8.747984
24508		-3.674287	-9.990667	8.864385
24509		-3.657951	-9.977287	8.990709
24510		-3.647282	-9.961627	9.117855
24511		-3.652325	-9.948753	9.251459
24512		-3.672705	-9.937076	9.390307
24513		-3.707040	-9.929468	9.530738
24514		-3.749354	-9.930483	9.669845
24515		-3.771423	-9.946343	9.816425
24516		-3.759829	-9.960831	9.964231
24517		-3.730359	-9.965193	10.109942
24518		-3.687947	-9.969327	10.252737
24519		-3.655078	-9.968437	10.389911
24520		-3.647260	-9.967233	10.523389
24521		-3.663862	-9.963837	10.645040
24522		-3.694272	-9.960541	10.756688
24523		-3.738745	-9.961709	10.858066
24524		-3.779357	-9.966611	10.949581
24525		-3.813507	-9.967392	11.031187
24526		-3.843308	-9.963783	11.111500
24527		-3.868832	-9.958461	11.184720
24528		-3.890345	-9.949015	11.250472
24529		-3.916797	-9.936344	11.307565
24530		-3.954528	-9.920486	11.368650
24531		-3.999853	-9.903373	11.437727
24532		-4.045290	-9.887574	11.519191
24533		-4.089997	-9.878000	11.608765
24534		-4.122683	-9.864409	11.705887
24535		-4.147710	-9.854139	11.802302
24536		-4.159779	-9.839313	11.901113
24537		-4.158154	-9.826682	12.004816
24538		-4.154984	-9.809405	12.113465
24539		-4.155085	-9.795081	12.222014
24540		-4.158621	-9.776191	12.337851
24541		-4.165871	-9.750152	12.447511
24542		-4.176029	-9.723879	12.557195
24543		-4.186213	-9.686738	12.671961
24544		-4.192543	-9.647430	12.794096
24545		-4.193569	-9.613579	12.926525
24546		-4.181371	-9.571100	13.069059
24547		-4.173554	-9.535380	13.219581
24548		-4.180575	-9.500268	13.373292
24549		-4.185798	-9.459396	13.523260
24550		-4.180166	-9.414743	13.681044
24551		-4.178385	-9.368968	13.842241
24552		-4.165220	-9.319253	14.009295
24553		-4.142986	-9.274842	14.175298
24554		-4.119970	-9.229260	14.339336
24555		-4.108047	-9.182740	14.493417
24556		-4.100882	-9.136926	14.627309
24557		-4.105656	-9.097502	14.752154
24558		-4.126223	-9.059953	14.864056
24559		-4.152765	-9.028489	14.960655
24560		-4.180294	-8.997995	15.046792
24561		-4.202817	-8.972529	15.130280
24562		-4.215551	-8.945647	15.213616
24563		-4.221322	-8.918256	15.289295
24564		-4.224345	-8.893898	15.361684
24565		-4.231070	-8.876484	15.434406
24566		-4.241256	-8.855220	15.511830
24567		-4.259449	-8.840890	15.592359
24568		-4.275124	-8.827261	15.677885
24569		-4.279753	-8.813776	15.769153
24570		-4.275189	-8.797900	15.871680
24571		-4.272914	-8.783443	15.980818
24572		-4.273990	-8.772054	16.091690
24573		-4.269879	-8.757379	16.209150
24574		-4.268582	-8.746637	16.326308
24575		-4.263629	-8.728288	16.438857
24576		-4.250297	-8.711242	16.547688
24577		-4.241953	-8.699078	16.669056
24578		-4.247847	-8.690061	16.801886
24579		-4.248257	-8.685096	16.941999
24580		-4.233150	-8.677185	17.082776
24581		-4.211268	-8.660785	17.217740
24582		-4.186640	-8.641629	17.342993
24583		-4.162365	-8.608448	17.453126
24584		-4.132052	-8.574859	17.553342
24585		-4.112450	-8.548072	17.646648
24586		-4.101906	-8.523905	17.742280
24587		-4.103032	-8.502869	17.837640
24588		-4.100370	-8.483684	17.927115
24589		-4.094235	-8.461551	18.016075
24590		-4.079429	-8.437336	18.097176
24591		-4.055681	-8.410297	18.173528
24592		-4.032246	-8.386286	18.249128
24593		-4.013487	-8.364003	18.324958
24594		-3.992807	-8.342472	18.396005
24595		-3.980017	-8.326465	18.465809
24596		-3.983451	-8.306075	18.538008
24597		-3.986560	-8.283831	18.600321
24598		-3.977443	-8.255363	18.651873
24599		-3.958830	-8.229015	18.705685
24600		-3.939781	-8.200757	18.762044
24601		-3.924647	-8.175529	18.820232
24602		-3.912614	-8.153538	18.883814
24603		-3.906556	-8.143442	18.944669
24604		-3.905209	-8.136023	19.006309
24605		-3.908237	-8.129008	19.063825
24606		-3.910499	-8.119678	19.119496
24607		-3.913179	-8.105116	19.174357
24608		-3.910812	-8.087339	19.224708
24609		-3.904649	-8.065451	19.270210
24610		-3.889991	-8.040949	19.314821
24611		-3.876371	-8.016392	19.357768
24612		-3.869766	-8.005829	19.402422
24613		-3.867389	-7.995986	19.445370
24614		-3.857709	-7.988893	19.477984
24615		-3.842623	-7.981713	19.500793
24616		-3.828562	-7.975174	19.522551
24617		-3.807305	-7.964207	19.543144
24618		-3.784451	-7.956242	19.563239
24619		-3.760930	-7.945160	19.579664
24620		-3.747095	-7.940392	19.597625
24621		-3.747127	-7.939352	19.621803
24622		-3.749661	-7.941605	19.641315
24623		-3.750610	-7.940152	19.661356
24624		-3.742452	-7.938038	19.679650
24625		-3.727674	-7.943999	19.695384
24626		-3.713973	-7.953526	19.708634
24627		-3.690990	-7.958371	19.714096
24628		-3.660550	-7.962910	19.711909
24629		-3.641884	-7.971941	19.709237
24630		-3.647189	-7.982214	19.714443
24631		-3.663391	-7.991161	19.723755
24632		-3.671574	-7.999489	19.734029
24633		-3.674521	-8.010531	19.741148
24634		-3.671424	-8.024811	19.747488
24635		-3.662508	-8.041812	19.749928
24636		-3.649551	-8.061731	19.750148
24637		-3.627926	-8.086040	19.750737
24638		-3.602679	-8.100295	19.745142
24639		-3.567684	-8.107457	19.739272
24640		-3.542094	-8.124219	19.738384
24641		-3.541587	-8.151476	19.746724
24642		-3.546852	-8.182232	19.758517
24643		-3.545307	-8.203121	19.764617
24644		-3.531331	-8.213507	19.762795
24645		-3.506763	-8.215376	19.754408
24646		-3.480168	-8.216615	19.742607
24647		-3.454152	-8.218025	19.727122
24648		-3.437109	-8.219442	19.715380
24649		-3.436467	-8.226786	19.710200
24650		-3.440249	-8.237756	19.709443
24651		-3.441816	-8.252539	19.707899
24652		-3.435280	-8.265599	19.708622
24653		-3.416569	-8.271721	19.707312
24654		-3.386951	-8.276882	19.702050
24655		-3.357538	-8.280679	19.699351
24656		-3.333131	-8.288123	19.701808
24657		-3.313784	-8.304386	19.708311
24658		-3.300206	-8.323052	19.718350
24659		-3.294557	-8.345744	19.728403
24660		-3.295245	-8.360799	19.735397
24661		-3.287923	-8.368080	19.735060
24662		-3.272930	-8.368912	19.731207
24663		-3.254694	-8.366118	19.724416
24664		-3.233517	-8.364140	19.718267
24665		-3.218874	-8.364424	19.714467
24666		-3.204888	-8.367576	19.714373
24667		-3.197469	-8.377045	19.715090
24668		-3.178118	-8.390250	19.716880
24669		-3.174079	-8.401058	19.724396
24670		-3.171537	-8.420558	19.731007
24671		-3.157111	-8.441890	19.728782
24672		-3.159217	-8.463817	19.731811
24673		-3.162883	-8.489271	19.734841
24674		-3.151346	-8.513880	19.731149
24675		-3.137321	-8.539595	19.731771
24676		-3.131541	-8.565598	19.737842
24677		-3.127346	-8.585877	19.745849
24678		-3.126664	-8.599161	19.755155
24679		-3.129623	-8.608399	19.763591
24680		-3.133413	-8.619246	19.773379
24681		-3.141413	-8.635310	19.781104
24682		-3.139174	-8.656423	19.782677
24683		-3.125373	-8.682821	19.779551
24684		-3.112662	-8.706337	19.774431
24685		-3.104965	-8.736686	19.774745
24686		-3.102884	-8.763689	19.772174
24687		-3.101021	-8.786329	19.761844
24688		-3.102465	-8.814572	19.753079
24689		-3.117686	-8.848130	19.752934
24690		-3.123236	-8.887779	19.747284
24691		-3.121447	-8.915363	19.734121
24692		-3.124447	-8.934856	19.722611
24693		-3.112757	-8.933203	19.712041
24694		-3.087337	-8.908662	19.719001
24695		-3.066353	-8.892884	19.741091
24696		-3.092495	-8.910990	19.759952
24697		-3.097507	-8.930045	19.763742
24698		-3.069586	-8.938228	19.772094
24699		-3.043120	-8.924476	19.800344
24700		-3.039205	-8.910518	19.829629
24701		-3.022865	-8.898072	19.858654
24702		-2.994834	-8.866522	19.890468
24703		-3.025212	-8.832646	19.899122
24704		-3.029014	-8.798684	19.898593
24705		-3.029109	-8.767974	19.890169
24706		-3.028246	-8.724647	19.873847
24707		-3.033095	-8.698345	19.848680
24708		-3.034905	-8.689410	19.821645
24709		-3.027604	-8.671455	19.784656
24710		-3.017113	-8.650728	19.742927
24711		-3.009072	-8.636075	19.707404
24712		-2.990807	-8.630363	19.674760
24713		-2.968763	-8.618767	19.649178
24714		-2.942123	-8.605415	19.652660
24715		-2.951402	-8.543114	19.650975
24716		-2.963291	-8.465199	19.647310
24717		-2.963445	-8.401071	19.628970
24718		-2.948900	-8.345363	19.603968
24719		-2.941566	-8.288932	19.571734
24720		-2.927257	-8.207527	19.541888
24721		-2.908854	-8.111820	19.507274
24722		-2.860521	-8.029588	19.474434
24723		-2.812077	-7.976102	19.440639
24724		-2.781138	-7.932928	19.403439
24725		-2.765125	-7.892121	19.376450
24726		-2.792066	-7.860587	19.355507
24727		-2.850421	-7.867772	19.342172
24728		-2.916380	-7.892516	19.337808
24729		-2.989262	-7.918760	19.339032
24730		-3.051407	-7.937647	19.336878
24731		-3.123019	-7.969231	19.326953
24732		-3.191732	-8.000579	19.317804
24733		-3.257247	-8.020682	19.327434
24734		-3.319476	-8.025781	19.348732
24735		-3.369407	-8.029095	19.368881
24736		-3.408816	-8.040083	19.377130
24737		-3.460931	-8.060379	19.377904
24738		-3.523594	-8.082349	19.377645
24739		-3.595353	-8.084011	19.376216
24740		-3.671038	-8.027082	19.387057
24741		-3.731541	-7.895775	19.404700
24742		-3.750712	-7.702595	19.416381
24743		-3.733459	-7.464034	19.412047
24744		-3.697963	-7.191489	19.385470
24745		-3.641488	-6.902079	19.338079
24746		-3.558107	-6.626672	19.281876
24747		-3.507163	-6.377763	19.218960
24748		-3.479064	-6.174251	19.173544
24749		-3.492485	-6.028010	19.136763
24750		-3.595969	-5.942434	19.116630
24751		-3.764019	-5.921631	19.150355
24752		-3.788002	-5.785764	19.417959
24753		-3.430763	-5.178250	19.799591
24754		-2.986423	-4.272692	19.861626
24755		-2.749757	-3.646855	19.859221
24756		-2.557654	-3.356638	19.889411
24757		-2.376211	-3.202169	19.900382
24758		-2.266784	-2.992294	19.920113
24759		-2.214010	-2.726624	19.979572
24760		-2.175340	-2.468348	20.059018
24761		-2.137103	-2.221525	20.132750
24762		-2.102722	-1.967165	20.197296
24763		-2.072768	-1.683221	20.252471
24764		-1.989009	-1.349106	20.300496
24765		-1.849845	-1.003085	20.343428
24766		-1.668921	-0.652207	20.386982
24767		-1.467992	-0.300971	20.428300
24768		-1.274091	0.037912	20.459508
24769		-1.085653	0.360525	20.474121
24770		-0.893958	0.690385	20.485093
24771		-0.729550	1.004136	20.481372
24772		-0.607712	1.254511	20.474064
24773		-0.472574	1.473341	20.461394
24774		-0.384462	1.637341	20.445207
24775		-0.334098	1.766175	20.432719
24776		-0.300757	1.890022	20.420643
24777		-0.279333	2.019268	20.403515
24778		-0.246274	2.166442	20.386277
24779		-0.193635	2.356620	20.372858
24780		-0.130508	2.566473	20.356656
24781		-0.050373	2.753262	20.344057
24782		0.028239	2.940287	20.328197
24783		0.080903	3.101943	20.308306
24784		0.113643	3.240654	20.298503
24785		0.116134	3.370243	20.291514
24786		0.091728	3.468780	20.288062
24787		0.062336	3.533838	20.288007
24788		0.041471	3.582899	20.289360
24789		0.037828	3.620688	20.296607
24790		0.065035	3.650577	20.301972
24791		0.107802	3.658168	20.301015
24792		0.148259	3.659147	20.294057
24793		0.187510	3.654577	20.292257
24794		0.215197	3.638536	20.291815
24795		0.221908	3.626556	20.291895
24796		0.209887	3.633639	20.278182
24797		0.219740	3.624226	20.244200
24798		0.249960	3.615525	20.218403
24799		0.273789	3.627428	20.190164
24800		0.293778	3.661280	20.175279
24801		0.306218	3.696207	20.169997
24802		0.321260	3.735684	20.168147
24803		0.324896	3.764053	20.164986
24804		0.321455	3.768179	20.172793
24805		0.322102	3.726035	20.190632
24806		0.327243	3.651869	20.212472
24807		0.351751	3.560830	20.229337
24808		0.388781	3.462945	20.235468
24809		0.427669	3.355894	20.237826
24810		0.460474	3.252048	20.239874
24811		0.487898	3.186438	20.233612
24812		0.524473	3.162454	20.220583
24813		0.554327	3.144887	20.199997
24814		0.561147	3.113771	20.174842
24815		0.567572	3.075599	20.147672
24816		0.572542	2.999991	20.116937
24817		0.580571	2.913641	20.085334
24818		0.603414	2.821740	20.061097
24819		0.630105	2.711721	20.031339
24820		0.666905	2.561553	19.998936
24821		0.725411	2.353426	19.958017
24822		0.796752	2.080290	19.917624
24823		0.889406	1.742899	19.889033
24824		0.989139	1.379735	19.878404
24825		1.086238	1.012509	19.876972
24826		1.176110	0.636788	19.886888
24827		1.236370	0.251239	19.891332
24828		1.268176	-0.135786	19.886468
24829		1.264186	-0.502149	19.874572
24830		1.228572	-0.843723	19.864776
24831		1.205185	-1.147450	19.866187
24832		1.195015	-1.414371	19.876688
24833		1.197835	-1.653043	19.892028
24834		1.203791	-1.873781	19.910737
24835		1.197732	-2.091840	19.927657
24836		1.182467	-2.304712	19.940335
24837		1.156722	-2.521603	19.951654
24838		1.103784	-2.731594	19.961174
24839		1.035952	-2.931711	19.973544
24840		0.955597	-3.110504	19.984788
24841		0.877391	-3.253539	20.001455
24842		0.791276	-3.366373	20.021514
24843		0.708342	-3.466082	20.043742
24844		0.630659	-3.561008	20.067068
24845		0.556080	-3.657438	20.087281
24846		0.490865	-3.752080	20.104470
24847		0.440774	-3.830837	20.111436
24848		0.403618	-3.894779	20.103552
24849		0.363061	-3.952033	20.079367
24850		0.314276	-4.008878	20.044222
24851		0.255895	-4.074170	19.995434
24852		0.174409	-4.162815	19.943360
24853		0.066071	-4.287561	19.892308
24854		-0.053016	-4.426226	19.845185
24855		-0.165295	-4.571144	19.805249
24856		-0.275344	-4.710932	19.766420
24857		-0.381736	-4.831826	19.722656
24858		-0.470298	-4.927131	19.671018
24859		-0.538790	-5.013874	19.610506
24860		-0.591691	-5.096391	19.551624
24861		-0.625856	-5.166084	19.484379
24862		-0.635559	-5.204024	19.407774
24863		-0.617068	-5.202472	19.319109
24864		-0.567447	-5.164308	19.214090
24865		-0.520183	-5.099418	19.084387
24866		-0.505012	-5.047088	18.940541
24867		-0.522996	-5.031764	18.789614
24868		-0.554651	-5.056375	18.647530
24869		-0.593491	-5.125301	18.521329
24870		-0.633531	-5.222098	18.405483
24871		-0.655498	-5.320177	18.303139
24872		-0.664184	-5.416721	18.210578
24873		-0.665326	-5.511558	18.128583
24874		-0.668512	-5.615081	18.049414
24875		-0.691241	-5.726230	17.961767
24876		-0.733540	-5.837950	17.860321
24877		-0.781241	-5.936723	17.733555
24878		-0.817770	-6.006467	17.583802
24879		-0.843826	-6.068726	17.422129
24880		-0.850798	-6.117272	17.256411
24881		-0.846096	-6.160037	17.093303
24882		-0.834889	-6.198441	16.937574
24883		-0.812717	-6.232763	16.798752
24884		-0.795008	-6.264996	16.679724
24885		-0.774524	-6.296887	16.583784
24886		-0.761981	-6.325350	16.505293
24887		-0.768717	-6.363728	16.443763
24888		-0.784499	-6.405828	16.396796
24889		-0.799554	-6.445499	16.364784
24890		-0.793612	-6.472926	16.347460
24891		-0.756983	-6.487512	16.355951
24892		-0.668954	-6.469565	16.378936
24893		-0.524053	-6.400338	16.395767
24894		-0.360635	-6.305331	16.398635
24895		-0.216501	-6.211638	16.370183
24896		-0.105398	-6.157907	16.305758
24897		-0.027678	-6.159732	16.212382
24898		0.024695	-6.206464	16.101483
24899		0.068041	-6.269076	15.994391
24900		0.108468	-6.326615	15.897082
24901		0.153624	-6.367590	15.812803
24902		0.207702	-6.389328	15.741189
24903		0.266254	-6.398053	15.677356
24904		0.327068	-6.402254	15.617956
24905		0.378674	-6.428749	15.554318
24906		0.420880	-6.475705	15.484907
24907		0.447454	-6.548512	15.422093
24908		0.466733	-6.626161	15.370220
24909		0.477112	-6.721731	15.320715
24910		0.483033	-6.828028	15.263586
24911		0.470616	-6.931080	15.195866
24912		0.456413	-7.015673	15.116628
24913		0.449657	-7.092574	15.037263
24914		0.449931	-7.168402	14.962951
24915		0.448631	-7.249701	14.899589
24916		0.445528	-7.321740	14.851271
24917		0.451365	-7.391440	14.810095
24918		0.465496	-7.464728	14.769493
24919		0.473520	-7.561786	14.727722
24920		0.459847	-7.678618	14.684047
24921		0.430875	-7.796229	14.642070
24922		0.396096	-7.905913	14.602766
24923		0.370865	-8.006617	14.568629
24924		0.350275	-8.104066	14.546447
24925		0.334394	-8.196610	14.528733
24926		0.322259	-8.283824	14.501487
24927		0.308874	-8.368737	14.460943
24928		0.299660	-8.450451	14.403704
24929		0.297675	-8.517984	14.330672
24930		0.310659	-8.563000	14.244890
24931		0.337469	-8.576048	14.151101
24932		0.368879	-8.566708	14.053548
24933		0.400381	-8.544826	13.959604
24934		0.454786	-8.512680	13.865086
24935		0.515126	-8.480889	13.769260
24936		0.564744	-8.475244	13.664444
24937		0.590448	-8.512106	13.538530
24938		0.609572	-8.587956	13.418340
24939		0.615031	-8.691388	13.296363
24940		0.624111	-8.804031	13.191502
24941		0.628178	-8.897137	13.099511
24942		0.634408	-8.963913	13.025276
24943		0.640482	-9.006283	12.959006
24944		0.649904	-9.019641	12.893019
24945		0.661575	-9.007084	12.825271
24946		0.670250	-8.982111	12.743173
24947		0.664521	-8.971344	12.647065
24948		0.655339	-8.987318	12.551633
24949		0.642094	-9.032839	12.472891
24950		0.621840	-9.099595	12.419259
24951		0.603399	-9.172237	12.392134
24952		0.586494	-9.228851	12.393786
24953		0.565835	-9.256629	12.407726
24954		0.547132	-9.254012	12.426102
24955		0.535794	-9.231391	12.433523
24956		0.530150	-9.195011	12.424852
24957		0.517344	-9.167019	12.391859
24958		0.490761	-9.146095	12.334304
24959		0.450815	-9.128334	12.265483
24960		0.425075	-9.105948	12.192240
24961		0.416971	-9.075597	12.112187
24962		0.424701	-9.044440	12.038885
24963		0.437380	-9.015695	11.964251
24964		0.449635	-9.005954	11.887957
24965		0.458242	-9.004204	11.805376
24966		0.460933	-9.015896	11.712194
24967		0.455574	-9.031029	11.610339
24968		0.447966	-9.047298	11.506394
24969		0.446560	-9.081683	11.406440
24970		0.431889	-9.126600	11.278784
24971		0.435976	-9.160616	11.134963
24972		0.476377	-9.176494	10.985096
24973		0.520278	-9.174718	10.847325
24974		0.553617	-9.157988	10.717630
24975		0.570218	-9.132196	10.602355
24976		0.565367	-9.102638	10.492661
24977		0.552742	-9.074778	10.395048
24978		0.521886	-9.049021	10.316804
24979		0.476221	-9.041320	10.263124
24980		0.423060	-9.048255	10.219109
24981		0.365547	-9.075909	10.194098
24982		0.321849	-9.106147	10.177228
24983		0.283926	-9.150738	10.160290
24984		0.251534	-9.237548	10.132099
24985		0.229312	-9.389326	10.107595
24986		0.213469	-9.597752	10.076656
24987		0.184416	-9.835160	10.038306
24988		0.141190	-10.084745	9.984078
24989		0.081159	-10.344986	9.931764
24990		0.015520	-10.602155	9.880337
24991		-0.049705	-10.833647	9.828151
24992		-0.120723	-11.028064	9.765284
24993		-0.198830	-11.197175	9.689388
24994		-0.265768	-11.333385	9.578600
24995		-0.331368	-11.449435	9.455623
24996		-0.379658	-11.526248	9.327805
24997		-0.411290	-11.560641	9.210922
24998		-0.442759	-11.570862	9.084418
24999		-0.482881	-11.605415	8.961868
25000		-0.515200	-11.660738	8.826633
25001		-0.550447	-11.751068	8.685054
25002		-0.593811	-11.873664	8.524128
25003		-0.663531	-12.020809	8.384127
25004		-0.787177	-12.199091	8.264782
25005		-0.905359	-12.388052	8.194585
25006		-1.009936	-12.556538	8.164136
25007		-1.099084	-12.703892	8.173614
25008		-1.179688	-12.835029	8.191550
25009		-1.253353	-12.949281	8.204175
25010		-1.312318	-13.072656	8.205171
25011		-1.376121	-13.211912	8.197937
25012		-1.427906	-13.352656	8.188455
25013		-1.424653	-13.495327	8.208447
25014		-1.391170	-13.612258	8.250357
25015		-1.353280	-13.701519	8.326237
25016		-1.356414	-13.768190	8.406982
25017		-1.355700	-13.790225	8.505850
25018		-1.354281	-13.766658	8.605914
25019		-1.328674	-13.725538	8.711477
25020		-1.280016	-13.671591	8.807776
25021		-1.203568	-13.576060	8.887206
25022		-1.150227	-13.493689	8.940998
25023		-1.126341	-13.410094	8.965083
25024		-1.055136	-13.262531	8.973686
25025		-0.950521	-13.039706	8.989088
25026		-0.827952	-12.752369	9.015450
25027		-0.690819	-12.410479	9.068694
25028		-0.562598	-12.075579	9.128265
25029		-0.449880	-11.794039	9.182282
25030		-0.347154	-11.576276	9.201777
25031		-0.226662	-11.415597	9.234682
25032		-0.088075	-11.329619	9.294260
25033		0.009216	-11.305854	9.385270
25034		0.038266	-11.324398	9.491086
25035		0.025855	-11.343913	9.561022
25036		0.021031	-11.315394	9.610077
25037		-0.047200	-11.252537	9.669631
25038		-0.126497	-11.175946	9.742612
25039		-0.226511	-11.124773	9.850877
25040		-0.342708	-11.105086	9.975922
25041		-0.449527	-11.103877	10.124902
25042		-0.544450	-11.107772	10.274820
25043		-0.627958	-11.106889	10.427116
25044		-0.682936	-11.110505	10.564725
25045		-0.725899	-11.112220	10.662677
25046		-0.766962	-11.084895	10.739023
25047		-0.822187	-11.068675	10.822684
25048		-0.898470	-11.070777	10.878961
25049		-0.982875	-11.078150	10.917302
25050		-1.059579	-11.075532	10.944056
25051		-1.126200	-11.061488	10.975085
25052		-1.195172	-11.050273	10.994489
25053		-1.244952	-11.040747	11.015720
25054		-1.279357	-11.031777	11.025830
25055		-1.303842	-11.026827	11.024196
25056		-1.312767	-11.018536	11.027222
25057		-1.353765	-11.005950	11.035974
25058		-1.401975	-10.997682	11.036014
25059		-1.449083	-10.997111	11.034422
25060		-1.501465	-10.996304	11.021706
25061		-1.544470	-10.999267	11.016635
25062		-1.571288	-11.009327	11.002315
25063		-1.583900	-11.018479	10.984906
25064		-1.593719	-11.027497	10.964952
25065		-1.603746	-11.027662	10.957869
25066		-1.624223	-11.023156	10.950710
25067		-1.639015	-11.011492	10.954377
25068		-1.646078	-10.998430	10.953565
25069		-1.639937	-10.988311	10.962075
25070		-1.622509	-10.981303	10.962151
25071		-1.598093	-10.973976	10.970672
25072		-1.580465	-10.972073	10.977193
25073		-1.567208	-10.971210	10.993255
25074		-1.562076	-10.969594	11.007571
25075		-1.559304	-10.970696	11.028437
25076		-1.554920	-10.973404	11.043847
25077		-1.531651	-10.984099	11.068674
25078		-1.507303	-10.983655	11.078565
25079		-1.477297	-10.979698	11.088503
25080		-1.457576	-10.971442	11.101280
25081		-1.456179	-10.960966	11.120607
25082		-1.461854	-10.945221	11.129687
25083		-1.483712	-10.934522	11.146368
25084		-1.508804	-10.932851	11.143763
25085		-1.573033	-10.946382	11.123685
25086		-1.581217	-10.970806	11.116575
25087		-1.567864	-10.997131	11.105554
25088		-1.549062	-11.015999	11.098390
25089		-1.536915	-11.036484	11.089880
25090		-1.548328	-11.057708	11.074994
25091		-1.597518	-11.077826	11.059275
25092		-1.655522	-11.099301	11.034944
25093		-1.718546	-11.112615	11.013389
25094		-1.760228	-11.124740	10.990449
25095		-1.773317	-11.127491	10.979492
25096		-1.778179	-11.120981	10.967065
25097		-1.794058	-11.113588	10.963764
25098		-1.830171	-11.111127	10.961858
25099		-1.875899	-11.121514	10.964355
25100		-1.919170	-11.142993	10.955485
25101		-1.947616	-11.161245	10.949432
25102		-1.985395	-11.174439	10.941178
25103		-2.033126	-11.182223	10.933869
25104		-2.079501	-11.187410	10.926887
25105		-2.125115	-11.188983	10.925527
25106		-2.162276	-11.196822	10.916279
25107		-2.179207	-11.204944	10.906106
25108		-2.193144	-11.217842	10.883762
25109		-2.193731	-11.238318	10.859978
25110		-2.191715	-11.253599	10.826984
25111		-2.199260	-11.259305	10.800207
25112		-2.215754	-11.259987	10.764921
25113		-2.243011	-11.258746	10.732209
25114		-2.289625	-11.257642	10.688884
25115		-2.352237	-11.259726	10.646513
25116		-2.410419	-11.275318	10.602813
25117		-2.455173	-11.297138	10.562763
25118		-2.490174	-11.315404	10.511147
25119		-2.517080	-11.335893	10.470214
25120		-2.540410	-11.342575	10.439836
25121		-2.572038	-11.345214	10.431915
25122		-2.584289	-11.346675	10.438096
25123		-2.568154	-11.349595	10.467207
25124		-2.521696	-11.336754	10.487845
25125		-2.488207	-11.311908	10.519339
25126		-2.487445	-11.286911	10.544296
25127		-2.529508	-11.257577	10.565155
25128		-2.603327	-11.232507	10.575117
25129		-2.706538	-11.207889	10.580638
25130		-2.817749	-11.188738	10.571089
25131		-2.909345	-11.187783	10.554756
25132		-2.955826	-11.184541	10.539574
25133		-2.962029	-11.182439	10.538355
25134		-2.954331	-11.173127	10.543821
25135		-2.959084	-11.159644	10.564287
25136		-2.990233	-11.148055	10.586752
25137		-3.045372	-11.132279	10.609005
25138		-3.118113	-11.110248	10.620175
25139		-3.195403	-11.099151	10.637056
25140		-3.263272	-11.092837	10.643029
25141		-3.310555	-11.097333	10.656085
25142		-3.330596	-11.112106	10.668850
25143		-3.337402	-11.126694	10.698577
25144		-3.336951	-11.137433	10.736340
25145		-3.335617	-11.147028	10.791788
25146		-3.334826	-11.151204	10.857326
25147		-3.338828	-11.158368	10.947505
25148		-3.331037	-11.172336	11.047731
25149		-3.316513	-11.186839	11.162916
25150		-3.285489	-11.209397	11.274877
25151		-3.247955	-11.239635	11.392976
25152		-3.208488	-11.275614	11.505312
25153		-3.170006	-11.311507	11.619307
25154		-3.142069	-11.346444	11.723623
25155		-3.123962	-11.377059	11.828081
25156		-3.109574	-11.407630	11.930678
25157		-3.098954	-11.443736	12.027571
25158		-3.077396	-11.480820	12.117513
25159		-3.050337	-11.514787	12.198913
25160		-3.019605	-11.543742	12.266644
25161		-3.001158	-11.566018	12.324541
25162		-3.002834	-11.580324	12.374935
25163		-3.017612	-11.586969	12.429419
25164		-3.038437	-11.594003	12.487720
25165		-3.062885	-11.602299	12.555519
25166		-3.082308	-11.613647	12.623835
25167		-3.093217	-11.621323	12.695447
25168		-3.100914	-11.631654	12.772372
25169		-3.107033	-11.644961	12.856263
25170		-3.112812	-11.650825	12.947342
25171		-3.123582	-11.657748	13.046992
25172		-3.140269	-11.666182	13.151595
25173		-3.164462	-11.676538	13.264041
25174		-3.190672	-11.691603	13.374135
25175		-3.225558	-11.710130	13.471697
25176		-3.269591	-11.728356	13.560115
25177		-3.320250	-11.745014	13.653900
25178		-3.366366	-11.760035	13.769130
25179		-3.400539	-11.766504	13.907683
25180		-3.427770	-11.770051	14.065943
25181		-3.443927	-11.770519	14.224359
25182		-3.456424	-11.768266	14.378314
25183		-3.466857	-11.774031	14.522022
25184		-3.478021	-11.780478	14.655236
25185		-3.496090	-11.788423	14.776262
25186		-3.516539	-11.791226	14.889993
25187		-3.537363	-11.786921	14.996142
25188		-3.561191	-11.779808	15.088164
25189		-3.590442	-11.773910	15.173900
25190		-3.621166	-11.767546	15.247524
25191		-3.644174	-11.760893	15.307621
25192		-3.665741	-11.755650	15.362310
25193		-3.679959	-11.744292	15.406369
25194		-3.694058	-11.732582	15.447903
25195		-3.714449	-11.725776	15.488125
25196		-3.736026	-11.717725	15.527408
25197		-3.768966	-11.709745	15.579215
25198		-3.805390	-11.709561	15.638195
25199		-3.830452	-11.708023	15.700919
25200		-3.847141	-11.703652	15.764990
25201		-3.851054	-11.688188	15.818092
25202		-3.850014	-11.669186	15.866514
25203		-3.853145	-11.652258	15.905842
25204		-3.864823	-11.634836	15.953304
25205		-3.891457	-11.620458	16.013920
25206		-3.915208	-11.609785	16.090439
25207		-3.935984	-11.599108	16.186190
25208		-3.949486	-11.585211	16.289764
25209		-3.951602	-11.569950	16.397092
25210		-3.948302	-11.554118	16.508175
25211		-3.943834	-11.543555	16.610049
25212		-3.952446	-11.529601	16.703804
25213		-3.971753	-11.516296	16.787509
25214		-3.990289	-11.502742	16.869153
25215		-4.011976	-11.489636	16.957086
25216		-4.027726	-11.479147	17.059668
25217		-4.030464	-11.469972	17.171732
25218		-4.030878	-11.463134	17.286225
25219		-4.031128	-11.455427	17.392684
25220		-4.039031	-11.448785	17.492052
25221		-4.054906	-11.437086	17.597201
25222		-4.069752	-11.423281	17.712733
25223		-4.081116	-11.410596	17.840500
25224		-4.084832	-11.400162	17.978201
25225		-4.087825	-11.392009	18.120003
25226		-4.086765	-11.382323	18.265897
25227		-4.076990	-11.369906	18.413764
25228		-4.061050	-11.351266	18.558053
25229		-4.046922	-11.330475	18.692970
25230		-4.042012	-11.307228	18.816341
25231		-4.046672	-11.284670	18.943687
25232		-4.057880	-11.268813	19.091916
25233		-4.063768	-11.251013	19.254002
25234		-4.056638	-11.233055	19.418140
25235		-4.043120	-11.207353	19.575740
25236		-4.021135	-11.172948	19.721958
25237		-3.998360	-11.135555	19.859539
25238		-3.985027	-11.107584	20.003604
25239		-3.987029	-11.086092	20.164986
25240		-3.995508	-11.063558	20.317840
25241		-4.022161	-11.055153	20.470860
25242		-4.050450	-11.041572	20.612027
25243		-4.072294	-11.036185	20.751426
25244		-4.093172	-11.021119	20.884837
25245		-4.106814	-11.005518	21.009319
25246		-4.107011	-10.977325	21.119068
25247		-4.096760	-10.943075	21.225066
25248		-4.086644	-10.908110	21.319921
25249		-4.089205	-10.875578	21.419915
25250		-4.106568	-10.851676	21.522592
25251		-4.129481	-10.838756	21.627810
25252		-4.142240	-10.821089	21.728549
25253		-4.136504	-10.796476	21.818285
25254		-4.113391	-10.759702	21.893716
25255		-4.079603	-10.719174	21.951012
25256		-4.034061	-10.669322	21.995725
25257		-3.995619	-10.623097	22.041222
25258		-3.979863	-10.586770	22.101542
25259		-3.988608	-10.555763	22.174881
25260		-3.990595	-10.524555	22.252951
25261		-3.983084	-10.491835	22.315499
25262		-3.968830	-10.455603	22.365000
25263		-3.943387	-10.415637	22.394415
25264		-3.922231	-10.380324	22.420138
25265		-3.909720	-10.349328	22.457409
25266		-3.913984	-10.332906	22.512289
25267		-3.933956	-10.317116	22.578505
25268		-3.954752	-10.293593	22.655167
25269		-3.973354	-10.269827	22.726441
25270		-3.978671	-10.244364	22.789420
25271		-3.987221	-10.221940	22.854798
25272		-3.991798	-10.203696	22.916632
25273		-3.984308	-10.189721	22.981336
25274		-3.966919	-10.176680	23.049491
25275		-3.944435	-10.166514	23.122659
25276		-3.925488	-10.160199	23.196351
25277		-3.905633	-10.153798	23.266157
25278		-3.883099	-10.158583	23.329865
25279		-3.868448	-10.174181	23.390942
25280		-3.868301	-10.190405	23.449409
25281		-3.862714	-10.201875	23.489649
25282		-3.846578	-10.207932	23.516201
25283		-3.824656	-10.217152	23.532711
25284		-3.799054	-10.226735	23.537284
25285		-3.770118	-10.233353	23.536351
25286		-3.739201	-10.245639	23.527898
25287		-3.711030	-10.266350	23.519550
25288		-3.684116	-10.283066	23.504246
25289		-3.656434	-10.292565	23.484179
25290		-3.630691	-10.293771	23.456923
25291		-3.610345	-10.283656	23.432605
25292		-3.591189	-10.268571	23.403878
25293		-3.565890	-10.262685	23.374583
25294		-3.545584	-10.250503	23.341750
25295		-3.532446	-10.240523	23.312107
25296		-3.530964	-10.231557	23.286736
25297		-3.539198	-10.221548	23.265255
25298		-3.547578	-10.213512	23.249318
25299		-3.558553	-10.214354	23.237114
25300		-3.567804	-10.220281	23.228043
25301		-3.570926	-10.223133	23.221537
25302		-3.567771	-10.221418	23.224548
25303		-3.562053	-10.210751	23.239855
25304		-3.565957	-10.195385	23.264887
25305		-3.559425	-10.178979	23.287149
25306		-3.539332	-10.160912	23.307354
25307		-3.522799	-10.141827	23.325219
25308		-3.513651	-10.125752	23.340777
25309		-3.498407	-10.107541	23.357632
25310		-3.506363	-10.092373	23.374821
25311		-3.514059	-10.091781	23.384314
25312		-3.517070	-10.100182	23.389301
25313		-3.524677	-10.122238	23.393846
25314		-3.523349	-10.146055	23.390298
25315		-3.511067	-10.173778	23.379274
25316		-3.502155	-10.180699	23.380013
25317		-3.530857	-10.174290	23.373107
25318		-3.561104	-10.159309	23.371349
25319		-3.562040	-10.141247	23.361785
25320		-3.571555	-10.121161	23.354142
25321		-3.592036	-10.100990	23.350577
25322		-3.609098	-10.084601	23.344287
25323		-3.600493	-10.080680	23.348112
25324		-3.537872	-10.059370	23.366556
25325		-3.524097	-10.042732	23.377432
25326		-3.549400	-10.008274	23.360160
25327		-3.537878	-9.924011	23.331714
25328		-3.493825	-9.807648	23.311410
25329		-3.449699	-9.677031	23.291269
25330		-3.419272	-9.540798	23.258839
25331		-3.371656	-9.396602	23.209153
25332		-3.287319	-9.272280	23.146263
25333		-3.208397	-9.219660	23.089270
25334		-3.193493	-9.223142	23.036401
25335		-3.238760	-9.267582	22.991964
25336		-3.338632	-9.369688	22.977699
25337		-3.467107	-9.486975	22.979658
25338		-3.595874	-9.574437	22.999013
25339		-3.690914	-9.617227	23.030073
25340		-3.761053	-9.628422	23.055323
25341		-3.815981	-9.602616	23.068157
25342		-3.855220	-9.562369	23.058742
25343		-3.872011	-9.524897	23.027869
25344		-3.880244	-9.514151	22.987181
25345		-3.888499	-9.524664	22.944162
25346		-3.947338	-9.551548	22.909952
25347		-4.032645	-9.557455	22.881442
25348		-4.111272	-9.526839	22.870715
25349		-4.156966	-9.417707	22.865629
25350		-4.152699	-9.215911	22.872235
25351		-4.113832	-8.923690	22.899779
25352		-3.975409	-8.507633	22.952683
25353		-3.729038	-7.940092	23.019711
25354		-3.429273	-7.340987	23.077324
25355		-3.156097	-6.814603	23.103884
25356		-2.970603	-6.394664	23.112372
25357		-2.873288	-6.060517	23.126081
25358		-2.789615	-5.726145	23.166922
25359		-2.769316	-5.321627	23.234532
25360		-2.794809	-4.774041	23.326652
25361		-2.774749	-4.130516	23.417476
25362		-2.654464	-3.380997	23.484228
25363		-2.415752	-2.495785	23.547479
25364		-2.039302	-1.504706	23.618909
25365		-1.587637	-0.462151	23.688273
25366		-1.123537	0.544925	23.754376
25367		-0.744322	1.385858	23.794512
25368		-0.584166	2.045889	23.826056
25369		-0.537601	2.580219	23.864498
