// General information: 
//  MT Manager version: 2022.2.0 
//  XDA version: 2022.2.0 build 7381 rev 124627 built on 2023-07-19
// Device information: 
//  DeviceId: 00B44856
//  ProductCode: MTW2-3A7G6
//  Firmware Version: 4.3.5
//  Hardware Version: 2.0.0
// Device settings: 
//  Filter Profile: human(46.1)
//  Option Flags: Orientation Smoother Disabled, Position/Velocity Smoother Disabled, Continuous Zero Rotation Update Disabled, AHS Disabled, ICC Disabled
// Coordinate system: ENU
PacketCounter	SampleTimeFine	Roll	Pitch	Yaw
22119		-39.018904	67.309642	-65.444062
22120		-39.081582	67.299608	-65.499312
22121		-39.123119	67.288721	-65.541455
22122		-39.161824	67.277203	-65.574435
22123		-39.213136	67.266602	-65.610132
22124		-39.261784	67.253779	-65.639496
22125		-39.280516	67.232725	-65.650394
22126		-39.268257	67.204750	-65.642852
22127		-39.227092	67.171404	-65.615639
22128		-39.165319	67.137707	-65.579873
22129		-39.106731	67.112375	-65.548667
22130		-39.055359	67.093212	-65.519331
22131		-38.998236	67.074465	-65.484485
22132		-38.949549	67.054305	-65.451346
22133		-38.913612	67.031848	-65.420422
22134		-38.889535	67.008810	-65.392965
22135		-38.876621	66.991803	-65.373549
22136		-38.863655	66.984046	-65.359486
22137		-38.852329	66.983019	-65.351109
22138		-38.833177	66.987816	-65.344432
22139		-38.820593	66.996485	-65.354353
22140		-38.810660	67.007734	-65.370764
22141		-38.802250	67.014204	-65.386602
22142		-38.792867	67.016201	-65.396782
22143		-38.790861	67.013429	-65.405854
22144		-38.779654	67.002810	-65.404594
22145		-38.738792	66.987493	-65.378232
22146		-38.679928	66.969940	-65.342285
22147		-38.619300	66.954628	-65.304524
22148		-38.565756	66.941316	-65.276918
22149		-38.496901	66.922087	-65.238103
22150		-38.413345	66.898862	-65.186887
22151		-38.336289	66.870306	-65.136707
22152		-38.259005	66.839359	-65.075645
22153		-38.173035	66.802553	-64.999462
22154		-38.078287	66.762922	-64.918806
22155		-37.991977	66.715189	-64.845914
22156		-37.843939	66.657050	-64.738274
22157		-37.664300	66.588217	-64.632454
22158		-37.477529	66.516657	-64.525545
22159		-37.259849	66.434165	-64.394805
22160		-37.053219	66.358137	-64.273545
22161		-36.916743	66.302171	-64.194075
22162		-36.816251	66.260274	-64.128448
22163		-36.734254	66.219318	-64.067023
22164		-36.643506	66.169334	-63.986378
22165		-36.524576	66.105377	-63.879919
22166		-36.392203	66.030927	-63.760485
22167		-36.224401	65.943383	-63.612908
22168		-36.060645	65.857639	-63.467117
22169		-35.928002	65.786166	-63.332959
22170		-35.800907	65.725249	-63.193227
22171		-35.663119	65.681091	-63.057892
22172		-35.514591	65.639045	-62.907782
22173		-35.286880	65.580798	-62.679322
22174		-34.982706	65.517998	-62.357189
22175		-34.571325	65.486966	-61.975617
22176		-34.072803	65.478822	-61.540581
22177		-33.492416	65.452697	-61.031916
22178		-32.842679	65.416476	-60.474017
22179		-32.191884	65.381386	-59.916982
22180		-31.572981	65.344856	-59.374411
22181		-30.946837	65.312012	-58.822758
22182		-30.326077	65.282908	-58.261121
22183		-29.712374	65.256236	-57.700329
22184		-29.117247	65.229935	-57.140456
22185		-28.544956	65.194620	-56.572007
22186		-27.956488	65.143876	-55.977276
22187		-27.365100	65.077089	-55.365798
22188		-26.807210	64.999535	-54.765271
22189		-26.271204	64.904664	-54.165838
22190		-25.736701	64.799702	-53.553186
22191		-25.204005	64.690475	-52.938812
22192		-24.709643	64.576784	-52.335460
22193		-24.273388	64.455023	-51.753075
22194		-23.881575	64.326139	-51.181408
22195		-23.513650	64.187710	-50.614469
22196		-23.150111	64.038433	-50.040102
22197		-22.757685	63.875005	-49.429502
22198		-22.334446	63.695189	-48.784929
22199		-21.870671	63.496000	-48.104754
22200		-21.370208	63.267483	-47.393187
22201		-20.860559	63.016727	-46.674882
22202		-20.321604	62.737336	-45.932629
22203		-19.750142	62.426073	-45.168656
22204		-19.171768	62.092093	-44.388846
22205		-18.591023	61.750257	-43.599451
22206		-17.979720	61.400881	-42.774759
22207		-17.334207	61.042613	-41.921984
22208		-16.642050	60.672693	-41.034315
22209		-15.925506	60.295821	-40.139863
22210		-15.222924	59.907677	-39.260129
22211		-14.570726	59.504703	-38.407114
22212		-13.972193	59.090727	-37.556601
22213		-13.398634	58.674376	-36.686806
22214		-12.804916	58.251909	-35.786530
22215		-12.172825	57.815165	-34.858694
22216		-11.519377	57.366484	-33.914192
22217		-10.878474	56.919857	-32.967511
22218		-10.273967	56.470974	-32.013567
22219		-9.689385	56.014718	-31.046342
22220		-9.108491	55.553130	-30.084110
22221		-8.510827	55.091775	-29.121398
22222		-7.905802	54.628144	-28.164985
22223		-7.289352	54.166890	-27.216222
22224		-6.675514	53.709870	-26.268778
22225		-6.074126	53.256621	-25.317189
22226		-5.489703	52.807632	-24.375069
22227		-4.920203	52.369615	-23.440218
22228		-4.355718	51.944610	-22.509771
22229		-3.802857	51.530102	-21.587091
22230		-3.262923	51.134978	-20.670075
22231		-2.719494	50.749464	-19.749376
22232		-2.178156	50.366994	-18.825915
22233		-1.635707	49.992562	-17.913275
22234		-1.106913	49.618764	-17.018822
22235		-0.587955	49.257878	-16.149663
22236		-0.071077	48.920997	-15.297002
22237		0.433945	48.601872	-14.458883
22238		0.932908	48.297365	-13.630698
22239		1.428438	48.000519	-12.804311
22240		1.927325	47.704638	-11.981494
22241		2.415455	47.412631	-11.171080
22242		2.875811	47.117288	-10.376621
22243		3.289749	46.802504	-9.601845
22244		3.664117	46.476934	-8.841878
22245		4.023074	46.154004	-8.080695
22246		4.379966	45.844903	-7.319352
22247		4.741746	45.544227	-6.559531
22248		5.081229	45.244778	-5.801793
22249		5.394174	44.958311	-5.058854
22250		5.681322	44.681410	-4.335516
22251		5.943661	44.403127	-3.636833
22252		6.201681	44.110824	-2.953106
22253		6.479946	43.801598	-2.278307
22254		6.776314	43.484462	-1.610781
22255		7.081922	43.162873	-0.938059
22256		7.390026	42.839805	-0.268513
22257		7.704633	42.532483	0.395757
22258		8.030907	42.239827	1.054529
22259		8.358766	41.945656	1.710610
22260		8.695996	41.655060	2.359642
22261		9.050563	41.368614	3.011083
22262		9.420957	41.083019	3.660714
22263		9.800945	40.795337	4.304306
22264		10.162188	40.516619	4.937328
22265		10.497613	40.258622	5.555733
22266		10.816796	40.002406	6.171438
22267		11.163621	39.741567	6.791046
22268		11.542450	39.485030	7.414636
22269		11.924688	39.231653	8.030781
22270		12.275721	38.991231	8.627127
22271		12.586314	38.749641	9.210225
22272		12.820232	38.504889	9.781173
22273		13.027997	38.266349	10.330530
22274		13.261327	38.035422	10.853086
22275		13.473353	37.819948	11.336425
22276		13.631738	37.622170	11.774349
22277		13.777102	37.427313	12.180959
22278		13.915210	37.219329	12.563800
22279		14.106926	37.015027	12.933950
22280		14.310833	36.817943	13.286888
22281		14.501799	36.620231	13.617758
22282		14.667655	36.422593	13.923874
22283		14.824994	36.233272	14.211704
22284		14.961637	36.039543	14.473001
22285		15.086398	35.859039	14.718501
22286		15.183651	35.690536	14.948135
22287		15.241500	35.531327	15.171130
22288		15.305411	35.391293	15.390083
22289		15.359071	35.255679	15.602673
22290		15.409511	35.117186	15.804536
22291		15.465019	34.993230	15.994353
22292		15.513544	34.876087	16.173344
22293		15.564882	34.755613	16.340960
22294		15.594161	34.635132	16.506250
22295		15.625897	34.523357	16.670424
22296		15.677815	34.421267	16.831930
22297		15.734256	34.322254	16.983895
22298		15.790984	34.218287	17.123490
22299		15.858482	34.118188	17.254194
22300		15.929339	34.023648	17.375733
22301		16.000826	33.931807	17.496317
22302		16.062256	33.851421	17.619173
22303		16.107467	33.785570	17.742416
22304		16.165050	33.728422	17.858022
22305		16.236380	33.683126	17.962119
22306		16.296189	33.645027	18.060834
22307		16.337587	33.611083	18.149089
22308		16.373229	33.577518	18.223113
22309		16.382864	33.548555	18.292319
22310		16.378043	33.525521	18.350223
22311		16.369105	33.515712	18.398723
22312		16.356284	33.512537	18.441271
22313		16.346869	33.509830	18.479554
22314		16.354852	33.498253	18.514299
22315		16.344415	33.480046	18.545776
22316		16.331746	33.467773	18.580999
22317		16.311021	33.457868	18.611482
22318		16.281505	33.447887	18.635620
22319		16.251871	33.440016	18.655813
22320		16.230001	33.435603	18.680168
22321		16.229540	33.430103	18.714942
22322		16.242787	33.421744	18.761597
22323		16.253707	33.414504	18.812624
22324		16.282086	33.418236	18.867054
22325		16.299232	33.431070	18.921011
22326		16.284721	33.440519	18.971433
22327		16.246455	33.448197	19.023505
22328		16.171294	33.440091	19.069782
22329		16.048871	33.418003	19.114406
22330		15.896432	33.389703	19.161415
22331		15.719778	33.367962	19.207986
22332		15.528307	33.355494	19.250217
22333		15.332370	33.342215	19.292383
22334		15.104313	33.344276	19.347169
22335		14.864118	33.341292	19.398998
22336		14.616214	33.333093	19.444077
22337		14.393349	33.328668	19.486924
22338		14.187508	33.330952	19.520922
22339		14.037139	33.332219	19.551327
22340		13.953800	33.328232	19.580743
22341		13.941044	33.324689	19.602174
22342		13.971916	33.307514	19.619915
22343		14.008047	33.261762	19.626059
22344		14.039139	33.215857	19.627919
22345		14.063408	33.171279	19.622634
22346		14.077117	33.142448	19.620923
22347		14.089815	33.108925	19.630432
22348		14.040732	33.070227	19.641745
22349		13.957235	33.041036	19.675811
22350		13.824024	33.021022	19.721367
22351		13.672933	33.018220	19.769068
22352		13.507328	33.028618	19.808636
22353		13.376037	33.033402	19.842065
22354		13.285652	33.038087	19.878245
22355		13.270944	33.047795	19.917848
22356		13.317638	33.060629	19.960795
22357		13.407301	33.081828	20.000442
22358		13.531142	33.088063	20.038333
22359		13.635703	33.095228	20.070434
22360		13.722981	33.091685	20.089897
22361		13.775289	33.077097	20.093410
22362		13.791710	33.064474	20.087300
22363		13.771765	33.059728	20.080350
22364		13.733744	33.055381	20.071498
22365		13.694321	33.051225	20.075701
22366		13.647324	33.047822	20.090658
22367		13.584549	33.042799	20.108542
22368		13.512752	33.027643	20.125722
22369		13.445196	33.010678	20.142942
22370		13.391094	32.994362	20.160030
22371		13.359198	32.983914	20.175192
22372		13.360819	32.986318	20.199150
22373		13.412492	32.998795	20.227169
22374		13.485111	33.010121	20.251924
22375		13.554429	33.017937	20.277589
22376		13.633348	33.014957	20.299620
22377		13.721856	33.007392	20.321690
22378		13.808467	33.002311	20.342075
22379		13.895446	32.998346	20.356873
22380		13.968437	32.998029	20.369727
22381		14.017626	33.000453	20.378235
22382		14.038286	33.011088	20.378899
22383		14.040500	33.023506	20.381349
22384		14.043929	33.034793	20.386521
22385		14.080754	33.043460	20.395925
22386		14.128512	33.044227	20.405902
22387		14.182948	33.043639	20.407875
22388		14.250968	33.041978	20.410475
22389		14.321439	33.039585	20.406087
22390		14.391469	33.039916	20.401051
22391		14.466702	33.048506	20.400312
22392		14.536304	33.060104	20.401626
22393		14.592667	33.085231	20.408745
22394		14.641036	33.106872	20.413153
22395		14.674690	33.128093	20.409446
22396		14.711397	33.150590	20.410304
22397		14.768192	33.179087	20.409010
22398		14.849723	33.207858	20.402947
22399		14.955732	33.235547	20.392690
22400		15.054521	33.270957	20.385107
22401		15.172303	33.312675	20.375834
22402		15.290555	33.350338	20.361655
22403		15.384368	33.393234	20.337932
22404		15.477484	33.431327	20.305733
22405		15.542434	33.469701	20.271044
22406		15.595103	33.505725	20.226239
22407		15.644227	33.550408	20.169839
22408		15.680303	33.605223	20.097275
22409		15.729655	33.688257	20.024099
22410		15.768342	33.777869	19.946822
22411		15.790742	33.871176	19.873076
22412		15.772114	33.961926	19.805199
22413		15.733903	34.046880	19.737733
22414		15.703167	34.127108	19.663706
22415		15.658390	34.204964	19.576495
22416		15.631693	34.284923	19.474224
22417		15.645501	34.371208	19.344045
22418		15.703440	34.468246	19.182055
22419		15.760442	34.584019	18.987686
22420		15.819289	34.713349	18.767037
22421		15.873266	34.853660	18.534725
22422		15.895141	34.996901	18.305804
22423		15.894270	35.151419	18.071377
22424		15.885749	35.318734	17.829239
22425		15.871902	35.500943	17.575208
22426		15.839577	35.685723	17.316773
22427		15.773679	35.882480	17.060701
22428		15.742552	36.100510	16.796478
22429		15.746475	36.327743	16.517072
22430		15.752928	36.555749	16.221445
22431		15.765252	36.790156	15.905132
22432		15.779592	37.026013	15.571353
22433		15.797881	37.270994	15.223785
22434		15.814803	37.526590	14.865122
22435		15.810372	37.780375	14.488077
22436		15.789085	38.034200	14.099950
22437		15.752968	38.294575	13.695116
22438		15.707066	38.575817	13.277791
22439		15.659896	38.885906	12.849203
22440		15.616719	39.227690	12.406932
22441		15.570546	39.600286	11.936556
22442		15.520314	39.994331	11.438478
22443		15.447519	40.401866	10.909019
22444		15.354743	40.796549	10.357736
22445		15.242526	41.165736	9.792875
22446		15.101810	41.509863	9.231025
22447		14.934371	41.846251	8.669987
22448		14.739206	42.169910	8.105604
22449		14.525608	42.492237	7.526894
22450		14.310268	42.833053	6.935092
22451		14.102495	43.192337	6.322897
22452		13.902452	43.558554	5.696456
22453		13.720198	43.933031	5.069096
22454		13.549462	44.304697	4.438091
22455		13.368070	44.666660	3.800596
22456		13.166212	45.010360	3.158316
22457		12.914245	45.336947	2.509312
22458		12.619470	45.665797	1.852296
22459		12.320243	46.031892	1.202528
22460		12.039063	46.430384	0.562388
22461		11.764115	46.845544	-0.086025
22462		11.509814	47.283405	-0.730192
22463		11.265217	47.736983	-1.375388
22464		11.019756	48.188294	-2.026412
22465		10.748990	48.633208	-2.698330
22466		10.443068	49.066609	-3.392185
22467		10.095736	49.501902	-4.110055
22468		9.718406	49.938233	-4.840387
22469		9.339208	50.378009	-5.575012
22470		8.967067	50.840106	-6.308586
22471		8.602052	51.324566	-7.040033
22472		8.253000	51.818345	-7.779215
22473		7.911484	52.311637	-8.545741
22474		7.551278	52.782832	-9.349820
22475		7.138318	53.247539	-10.193833
22476		6.685397	53.692090	-11.063281
22477		6.201440	54.116354	-11.961370
22478		5.685769	54.544134	-12.871208
22479		5.133376	54.980512	-13.799741
22480		4.547675	55.411449	-14.743770
22481		3.931188	55.835092	-15.712030
22482		3.260948	56.252159	-16.704689
22483		2.542639	56.651871	-17.702830
22484		1.776791	57.053624	-18.724074
22485		0.964426	57.457820	-19.754902
22486		0.159785	57.838151	-20.770907
22487		-0.658982	58.201547	-21.812604
22488		-1.515865	58.566304	-22.866349
22489		-2.383217	58.913945	-23.922235
22490		-3.257460	59.242899	-24.992696
22491		-4.151950	59.571921	-26.080633
22492		-5.043661	59.893453	-27.174889
22493		-5.963084	60.213575	-28.275333
22494		-6.886914	60.509213	-29.374612
22495		-7.845534	60.774243	-30.494725
22496		-8.832739	61.019510	-31.616408
22497		-9.811949	61.246104	-32.729900
22498		-10.751161	61.466025	-33.831824
22499		-11.663030	61.679375	-34.914765
22500		-12.583362	61.885114	-35.992508
22501		-13.500878	62.077148	-37.062266
22502		-14.439471	62.255169	-38.125027
22503		-15.384023	62.424519	-39.171365
22504		-16.297584	62.575475	-40.176791
22505		-17.156159	62.715742	-41.144202
22506		-17.928446	62.845967	-42.050757
22507		-18.642282	62.971409	-42.917843
22508		-19.323869	63.107222	-43.754246
22509		-19.977350	63.250841	-44.553560
22510		-20.570939	63.388471	-45.313927
22511		-21.081598	63.525434	-46.012933
22512		-21.591064	63.640005	-46.715978
22513		-22.205450	63.756959	-47.453575
22514		-22.860458	63.860756	-48.179858
22515		-23.481078	63.944754	-48.888555
22516		-24.021244	64.011580	-49.569443
22517		-24.503115	64.078389	-50.220176
22518		-24.953011	64.150450	-50.823370
22519		-25.401733	64.228906	-51.372670
22520		-25.847747	64.312185	-51.858886
22521		-26.276734	64.388578	-52.268870
22522		-26.665555	64.456902	-52.598274
22523		-26.989635	64.513404	-52.851090
22524		-27.207096	64.566738	-53.021797
22525		-27.316908	64.612379	-53.119855
22526		-27.310676	64.659980	-53.142240
22527		-27.229957	64.697017	-53.134727
22528		-27.161005	64.712042	-53.129736
22529		-27.141819	64.702916	-53.136019
22530		-27.162995	64.678061	-53.154580
22531		-27.196178	64.653532	-53.185553
22532		-27.253412	64.638046	-53.238252
22533		-27.339716	64.634519	-53.309742
22534		-27.467606	64.639331	-53.397613
22535		-27.605796	64.638470	-53.485312
22536		-27.741688	64.626214	-53.565251
22537		-27.881549	64.613119	-53.637758
22538		-28.015529	64.604239	-53.700171
22539		-28.115000	64.598766	-53.742780
22540		-28.171542	64.598653	-53.766050
22541		-28.235019	64.607576	-53.800183
22542		-28.278859	64.618882	-53.824700
22543		-28.312640	64.632455	-53.852267
22544		-28.336291	64.644175	-53.878409
22545		-28.361101	64.658474	-53.908069
22546		-28.389756	64.680087	-53.943154
22547		-28.429662	64.707587	-53.979871
22548		-28.480535	64.739193	-54.022660
22549		-28.543684	64.776913	-54.070360
22550		-28.592579	64.813295	-54.103205
22551		-28.636114	64.844727	-54.137117
22552		-28.682242	64.876435	-54.176116
22553		-28.730341	64.904956	-54.214997
22554		-28.785252	64.929710	-54.257679
22555		-28.832717	64.955939	-54.300596
22556		-28.863934	64.979964	-54.340651
22557		-28.879940	65.001370	-54.379646
22558		-28.859242	65.007545	-54.397316
22559		-28.853646	65.009287	-54.426009
22560		-28.850024	65.017872	-54.456205
22561		-28.831834	65.027726	-54.466023
22562		-28.809393	65.037335	-54.471716
22563		-28.749934	65.038215	-54.449268
22564		-28.678243	65.039341	-54.417584
22565		-28.637890	65.055313	-54.436134
22566		-28.597682	65.059778	-54.466616
22567		-28.542121	65.044242	-54.484112
22568		-28.483274	65.024326	-54.503355
22569		-28.445160	65.001699	-54.532037
22570		-28.414672	64.967533	-54.560891
22571		-28.405845	64.935350	-54.592064
22572		-28.405630	64.904595	-54.610299
22573		-28.405396	64.879537	-54.619176
22574		-28.389951	64.865502	-54.606792
22575		-28.376119	64.852715	-54.590731
22576		-28.356933	64.835778	-54.569780
22577		-28.358709	64.820158	-54.569549
22578		-28.357403	64.806373	-54.572263
22579		-28.316836	64.785548	-54.536913
22580		-28.201015	64.756463	-54.441522
22581		-28.048621	64.748044	-54.318035
22582		-27.892147	64.764859	-54.201670
22583		-27.773016	64.810906	-54.129297
22584		-27.697815	64.853559	-54.091997
22585		-27.620753	64.864396	-54.039863
22586		-27.517145	64.852870	-53.964909
22587		-27.398488	64.841237	-53.875053
22588		-27.263729	64.841241	-53.784610
22589		-27.141217	64.849512	-53.711302
22590		-27.040319	64.853001	-53.638101
22591		-26.959399	64.845285	-53.554951
22592		-26.908083	64.835487	-53.471164
22593		-26.900687	64.826129	-53.395493
22594		-26.938373	64.826395	-53.335379
22595		-27.032588	64.844120	-53.303899
22596		-27.169247	64.865990	-53.282464
22597		-27.320461	64.893268	-53.257489
22598		-27.454696	64.921292	-53.208553
22599		-27.540155	64.948835	-53.121838
22600		-27.589050	64.982067	-53.015982
22601		-27.625691	65.021867	-52.929597
22602		-27.667082	65.067324	-52.868761
22603		-27.713936	65.115906	-52.836552
22604		-27.777266	65.148097	-52.825668
22605		-27.845287	65.172506	-52.839444
22606		-27.917054	65.210019	-52.861423
22607		-27.993391	65.249437	-52.892100
22608		-28.075503	65.283944	-52.924039
22609		-28.186915	65.316984	-52.955784
22610		-28.323149	65.349671	-52.990369
22611		-28.476768	65.386766	-53.036378
22612		-28.642199	65.416684	-53.093789
22613		-28.793884	65.433252	-53.144186
22614		-28.914912	65.434857	-53.174755
22615		-29.012101	65.438347	-53.206067
22616		-29.080920	65.451295	-53.231540
22617		-29.116162	65.470288	-53.249632
22618		-29.129858	65.494370	-53.266058
22619		-29.136016	65.522003	-53.289819
22620		-29.149656	65.555141	-53.324024
22621		-29.160022	65.575075	-53.348942
22622		-29.159724	65.583450	-53.356460
22623		-29.164421	65.591391	-53.359202
22624		-29.179956	65.601266	-53.365758
22625		-29.186133	65.609475	-53.365189
22626		-29.175512	65.613100	-53.352547
22627		-29.150546	65.619011	-53.326073
22628		-29.124686	65.621905	-53.300736
22629		-29.089754	65.630802	-53.278997
22630		-29.045343	65.638118	-53.256896
22631		-28.962530	65.633107	-53.216113
22632		-28.866120	65.620978	-53.176658
22633		-28.746626	65.605437	-53.132409
22634		-28.591411	65.587692	-53.078230
22635		-28.391601	65.554345	-53.017483
22636		-28.160719	65.505265	-52.950724
22637		-27.876553	65.442713	-52.840065
22638		-27.537808	65.367991	-52.698138
22639		-27.197904	65.290843	-52.535590
22640		-26.870139	65.231072	-52.361826
22641		-26.581917	65.190432	-52.217558
22642		-26.347315	65.171124	-52.108298
22643		-26.144960	65.155571	-52.010106
22644		-25.958227	65.135473	-51.911318
22645		-25.763796	65.102731	-51.791943
22646		-25.544126	65.054863	-51.654284
22647		-25.306122	64.997523	-51.495511
22648		-25.058652	64.943904	-51.310769
22649		-24.787944	64.907787	-51.101999
22650		-24.483230	64.869635	-50.834823
22651		-24.104806	64.824715	-50.500529
22652		-23.688251	64.783712	-50.144281
22653		-23.265788	64.739708	-49.772730
22654		-22.819855	64.699145	-49.363773
22655		-22.374835	64.671209	-48.935942
22656		-21.918185	64.648017	-48.484117
22657		-21.435613	64.609699	-48.001197
22658		-20.936375	64.556175	-47.499663
22659		-20.443423	64.497908	-47.002947
22660		-19.990057	64.442091	-46.524564
22661		-19.572637	64.379109	-46.058473
22662		-19.177892	64.303201	-45.577920
22663		-18.778949	64.203199	-45.075202
22664		-18.366677	64.072108	-44.550887
22665		-17.941516	63.907826	-44.006309
22666		-17.525975	63.714083	-43.459607
22667		-17.122320	63.503109	-42.902419
22668		-16.721428	63.275483	-42.334608
22669		-16.315502	63.029358	-41.759936
22670		-15.893422	62.755679	-41.172143
22671		-15.458784	62.442483	-40.569472
22672		-15.038913	62.106731	-39.966237
22673		-14.635369	61.758681	-39.355026
22674		-14.242309	61.401363	-38.720785
22675		-13.841353	61.031966	-38.055740
22676		-13.412635	60.646485	-37.347656
22677		-12.937218	60.239181	-36.593376
22678		-12.455936	59.822409	-35.832635
22679		-11.989050	59.405930	-35.068374
22680		-11.523062	58.978186	-34.288778
22681		-11.037080	58.534892	-33.491248
22682		-10.524194	58.083039	-32.683877
22683		-9.982393	57.632849	-31.871527
22684		-9.424606	57.184037	-31.060691
22685		-8.855234	56.717708	-30.239285
22686		-8.282525	56.224675	-29.408108
22687		-7.724471	55.716373	-28.591812
22688		-7.209919	55.222492	-27.789487
22689		-6.731405	54.752142	-26.991780
22690		-6.271796	54.293733	-26.189683
22691		-5.835769	53.846777	-25.390193
22692		-5.418023	53.412876	-24.591544
22693		-5.021138	53.001186	-23.791104
22694		-4.660518	52.613788	-22.991388
22695		-4.317276	52.248041	-22.188395
22696		-3.990859	51.901010	-21.380924
22697		-3.675888	51.562422	-20.569689
22698		-3.372404	51.233623	-19.763878
22699		-3.071756	50.919167	-18.964451
22700		-2.782273	50.616878	-18.169301
22701		-2.489206	50.334843	-17.373466
22702		-2.188223	50.066172	-16.586732
22703		-1.865005	49.812650	-15.802031
22704		-1.522634	49.566405	-15.008364
22705		-1.161743	49.330734	-14.204639
22706		-0.768460	49.109044	-13.391942
22707		-0.360577	48.889445	-12.584340
22708		0.085946	48.671735	-11.769823
22709		0.550784	48.451740	-10.961629
22710		1.008107	48.236332	-10.175848
22711		1.456233	48.018500	-9.411260
22712		1.888749	47.792720	-8.663727
22713		2.315158	47.557585	-7.929413
22714		2.750309	47.321126	-7.203224
22715		3.184911	47.082742	-6.487607
22716		3.599980	46.842318	-5.797353
22717		3.997847	46.597771	-5.126490
22718		4.378372	46.351156	-4.475975
22719		4.734644	46.113006	-3.841985
22720		5.071703	45.879834	-3.223811
22721		5.389408	45.647976	-2.621040
22722		5.680786	45.430241	-2.033957
22723		5.977758	45.240270	-1.466326
22724		6.274570	45.062708	-0.908288
22725		6.546490	44.889491	-0.351930
22726		6.814441	44.716987	0.201687
22727		7.065748	44.553608	0.760731
22728		7.283955	44.395085	1.323231
22729		7.489700	44.219544	1.889841
22730		7.681327	44.014695	2.458324
22731		7.877095	43.795814	3.023168
22732		8.092363	43.581043	3.587180
22733		8.314893	43.373094	4.139565
22734		8.566386	43.158726	4.680441
22735		8.870890	42.939060	5.213555
22736		9.198994	42.704923	5.729920
22737		9.522842	42.458495	6.220998
22738		9.846469	42.213515	6.686744
22739		10.134096	41.967439	7.127282
22740		10.404613	41.738419	7.547556
22741		10.660360	41.511545	7.963755
22742		10.880952	41.277312	8.379324
22743		11.108290	41.045527	8.807187
22744		11.319792	40.838353	9.242167
22745		11.510366	40.641698	9.665714
22746		11.658246	40.454705	10.063204
22747		11.770672	40.288009	10.432486
22748		11.846380	40.117681	10.774470
22749		11.882175	39.951525	11.104415
22750		11.927154	39.786610	11.431228
22751		11.969754	39.635066	11.761565
22752		12.018296	39.497305	12.093558
22753		12.062247	39.353945	12.416665
22754		12.086898	39.219483	12.734821
22755		12.105789	39.078190	13.046098
22756		12.108375	38.923210	13.350861
22757		12.133358	38.762009	13.641901
22758		12.165453	38.582664	13.909101
22759		12.224913	38.397626	14.157978
22760		12.301024	38.208874	14.388997
22761		12.383010	38.017058	14.606543
22762		12.473523	37.838245	14.819503
22763		12.578046	37.672487	15.029746
22764		12.683087	37.515502	15.238096
22765		12.762958	37.366171	15.432629
22766		12.869555	37.216394	15.623746
22767		12.971738	37.076430	15.817085
22768		13.102304	36.963999	16.018213
22769		13.276064	36.864981	16.210093
22770		13.396341	36.771134	16.388502
22771		13.492270	36.700445	16.555111
22772		13.579094	36.638208	16.708813
22773		13.663893	36.580712	16.853241
22774		13.775868	36.519405	16.974289
22775		13.910669	36.470885	17.070683
22776		14.080668	36.448388	17.151315
22777		14.290166	36.455635	17.217451
22778		14.478225	36.493419	17.274598
22779		14.594187	36.545888	17.323865
22780		14.699954	36.592438	17.365227
22781		14.738246	36.631188	17.405406
22782		14.721132	36.644095	17.430381
22783		14.685208	36.632397	17.444727
22784		14.651126	36.620938	17.455426
22785		14.609718	36.623443	17.473994
22786		14.602261	36.638975	17.495153
22787		14.615080	36.663525	17.515378
22788		14.629264	36.687903	17.530528
22789		14.623432	36.702357	17.536617
22790		14.584290	36.707343	17.532419
22791		14.510492	36.712754	17.527143
22792		14.432384	36.718185	17.522186
22793		14.335061	36.724600	17.517409
22794		14.275543	36.744054	17.517163
22795		14.254322	36.772059	17.520598
22796		14.258160	36.799079	17.513837
22797		14.251101	36.831722	17.502976
22798		14.257562	36.855169	17.485258
22799		14.234341	36.881299	17.468613
22800		14.208343	36.908023	17.452436
22801		14.174906	36.935767	17.443098
22802		14.134327	36.958418	17.443567
22803		14.107871	36.976585	17.457095
22804		14.097039	36.992653	17.477750
22805		14.091530	37.007153	17.500830
22806		14.117953	37.007161	17.519468
22807		14.153600	37.007694	17.537628
22808		14.174558	37.014189	17.563181
22809		14.201845	37.023139	17.596683
22810		14.239136	37.024799	17.629372
22811		14.253528	37.014868	17.653797
22812		14.254044	37.006503	17.668560
22813		14.252019	37.004913	17.677047
22814		14.240424	37.002337	17.691101
22815		14.225249	36.999753	17.710215
22816		14.221494	36.990885	17.727749
22817		14.240372	36.991146	17.748313
22818		14.249419	36.990571	17.767776
22819		14.263270	36.996417	17.793963
22820		14.266556	36.994375	17.816906
22821		14.271409	36.993355	17.839516
22822		14.266824	36.989552	17.862298
22823		14.271940	37.000100	17.889877
22824		14.309187	37.003444	17.918217
22825		14.349338	36.990828	17.940020
22826		14.409748	36.995068	17.966717
22827		14.483065	36.999891	17.998363
22828		14.553341	37.001254	18.024343
22829		14.579171	36.998734	18.040736
22830		14.578547	37.005426	18.056385
22831		14.581760	37.030344	18.077410
22832		14.571745	37.063400	18.102616
22833		14.531748	37.078167	18.124235
22834		14.460426	37.080346	18.143929
22835		14.414581	37.093037	18.170450
22836		14.391031	37.100553	18.190169
22837		14.368558	37.106468	18.202933
22838		14.366388	37.106540	18.206413
22839		14.374305	37.104757	18.207455
22840		14.382101	37.108626	18.210397
22841		14.398215	37.120145	18.212262
22842		14.420838	37.129063	18.212773
22843		14.433864	37.138783	18.220071
22844		14.418004	37.146298	18.227505
22845		14.392619	37.152462	18.236822
22846		14.361309	37.155949	18.241462
22847		14.339018	37.165961	18.250606
22848		14.338844	37.179539	18.262375
22849		14.345473	37.191694	18.271241
22850		14.356892	37.206754	18.279591
22851		14.387965	37.223693	18.288765
22852		14.410119	37.237576	18.301398
22853		14.441983	37.253866	18.315316
22854		14.488327	37.267394	18.328341
22855		14.521646	37.281268	18.339088
22856		14.559619	37.299687	18.349592
22857		14.600727	37.313831	18.358268
22858		14.637098	37.335621	18.369114
22859		14.672932	37.359227	18.383551
22860		14.684457	37.383869	18.395388
22861		14.684663	37.414499	18.409558
22862		14.689591	37.434581	18.423315
22863		14.687850	37.451018	18.431072
22864		14.689312	37.464399	18.434792
22865		14.668944	37.460207	18.433550
22866		14.625186	37.448282	18.418974
22867		14.587585	37.441307	18.399541
22868		14.553541	37.444295	18.377614
22869		14.484069	37.452057	18.351317
22870		14.378629	37.455977	18.313186
22871		14.265439	37.450423	18.267738
22872		14.157627	37.442721	18.220309
22873		14.068777	37.460697	18.176606
22874		14.016010	37.499351	18.137509
22875		13.984498	37.541286	18.108069
22876		13.959781	37.580894	18.089164
22877		13.953699	37.625837	18.073892
22878		13.953738	37.658487	18.057803
22879		13.952789	37.682979	18.040457
22880		13.955059	37.704452	18.019048
22881		13.988043	37.731929	17.996541
22882		14.040467	37.767162	17.975876
22883		14.093266	37.801923	17.953033
22884		14.167661	37.825122	17.934598
22885		14.237492	37.844257	17.905350
22886		14.310642	37.867390	17.871751
22887		14.378463	37.897388	17.824616
22888		14.435885	37.936292	17.762881
22889		14.484136	37.980818	17.684374
22890		14.524650	38.030435	17.591429
22891		14.546731	38.088614	17.485374
22892		14.608109	38.155543	17.371141
22893		14.666251	38.233251	17.245559
22894		14.707842	38.319586	17.105748
22895		14.718485	38.418454	16.946498
22896		14.695656	38.537599	16.774532
22897		14.667995	38.664723	16.588094
22898		14.631293	38.791612	16.390381
22899		14.555171	38.916802	16.188471
22900		14.472326	39.048994	15.980044
22901		14.396762	39.196555	15.765629
22902		14.325722	39.349878	15.536957
22903		14.255796	39.501168	15.284869
22904		14.176213	39.651793	15.007710
22905		14.089916	39.806891	14.701643
22906		14.003147	39.963970	14.371240
22907		13.901244	40.131558	14.024042
22908		13.786399	40.314135	13.665894
22909		13.648089	40.509807	13.312663
22910		13.451625	40.706596	12.962768
22911		13.242301	40.915638	12.620901
22912		13.036933	41.123104	12.280168
22913		12.821678	41.329399	11.938114
22914		12.611082	41.535643	11.585156
22915		12.405824	41.745844	11.216669
22916		12.212782	41.958352	10.820635
22917		12.032662	42.172620	10.400754
22918		11.855668	42.387346	9.949621
22919		11.670990	42.606036	9.473287
22920		11.462626	42.825501	8.976721
22921		11.237333	43.053736	8.469330
22922		11.006662	43.298967	7.957299
22923		10.767069	43.556504	7.440034
22924		10.514886	43.818541	6.915464
22925		10.254790	44.082531	6.373056
22926		9.983390	44.348580	5.816966
22927		9.692372	44.612534	5.233471
22928		9.384518	44.872921	4.625804
22929		9.058415	45.138412	3.996327
22930		8.710028	45.399997	3.355484
22931		8.350259	45.654384	2.706020
22932		7.987990	45.891656	2.048161
22933		7.616726	46.117277	1.374775
22934		7.227575	46.337554	0.682857
22935		6.814241	46.565981	-0.032104
22936		6.386345	46.815396	-0.754359
22937		5.944609	47.082540	-1.476260
22938		5.506792	47.354128	-2.186349
22939		5.069099	47.616385	-2.894978
22940		4.609018	47.858042	-3.622214
22941		4.114520	48.091252	-4.374174
22942		3.575971	48.349983	-5.148897
22943		2.976938	48.631173	-5.951938
22944		2.335452	48.927032	-6.786268
22945		1.665077	49.235819	-7.656425
22946		0.987029	49.549605	-8.537581
22947		0.317725	49.861182	-9.426939
22948		-0.340648	50.167387	-10.309804
22949		-0.995915	50.471767	-11.198008
22950		-1.650880	50.784127	-12.081639
22951		-2.311914	51.104909	-12.971906
22952		-2.986192	51.432270	-13.874491
22953		-3.679848	51.758371	-14.795732
22954		-4.395430	52.094372	-15.739412
22955		-5.158755	52.438702	-16.714914
22956		-5.975430	52.788339	-17.717277
22957		-6.826627	53.137293	-18.750376
22958		-7.679692	53.479114	-19.789554
22959		-8.544410	53.808481	-20.843995
22960		-9.401039	54.130803	-21.890928
22961		-10.274206	54.437180	-22.940677
22962		-11.181568	54.742522	-23.989541
22963		-12.105011	55.053921	-25.026380
22964		-13.018270	55.366610	-26.053050
22965		-13.909220	55.685476	-27.067310
22966		-14.772157	55.998923	-28.068651
22967		-15.608415	56.299979	-29.072873
22968		-16.421729	56.580541	-30.063741
22969		-17.231514	56.841823	-31.053711
22970		-18.069456	57.100971	-32.072375
22971		-18.932594	57.352151	-33.096118
22972		-19.787410	57.589881	-34.101911
22973		-20.643803	57.819204	-35.103673
22974		-21.488833	58.054529	-36.082961
22975		-22.284672	58.288542	-37.030616
22976		-23.019354	58.507641	-37.950694
22977		-23.702033	58.724308	-38.836556
22978		-24.333189	58.930397	-39.691839
22979		-24.907617	59.114352	-40.519980
22980		-25.431859	59.278486	-41.304549
22981		-25.930208	59.425819	-42.074541
22982		-26.466572	59.579053	-42.853619
22983		-27.009087	59.741319	-43.613539
22984		-27.503536	59.895317	-44.315998
22985		-27.924016	60.039113	-44.947154
22986		-28.271400	60.178797	-45.500428
22987		-28.572772	60.326044	-45.987946
22988		-28.835501	60.478867	-46.403943
22989		-29.051322	60.631079	-46.747005
22990		-29.221520	60.773144	-47.032068
22991		-29.318275	60.906699	-47.248731
22992		-29.308595	61.025337	-47.379653
22993		-29.203019	61.128409	-47.442614
22994		-29.029903	61.226306	-47.452774
22995		-28.803886	61.326231	-47.424442
22996		-28.529559	61.427469	-47.348218
22997		-28.234958	61.518574	-47.272965
22998		-28.007722	61.590398	-47.230333
22999		-27.871298	61.642496	-47.225289
23000		-27.810462	61.674550	-47.241314
23001		-27.796171	61.689652	-47.266948
23002		-27.796307	61.700644	-47.278844
23003		-27.797076	61.712615	-47.270973
23004		-27.810469	61.728383	-47.252391
23005		-27.851572	61.749747	-47.224675
23006		-27.924991	61.761398	-47.205868
23007		-28.015588	61.768715	-47.197118
23008		-28.103931	61.770209	-47.195456
23009		-28.173846	61.767242	-47.195765
23010		-28.222820	61.768181	-47.199525
23011		-28.247260	61.777862	-47.207460
23012		-28.258237	61.793407	-47.217885
23013		-28.259364	61.817991	-47.226844
23014		-28.269103	61.843488	-47.241762
23015		-28.287004	61.874375	-47.265058
23016		-28.321041	61.906322	-47.294510
23017		-28.355223	61.936562	-47.318595
23018		-28.385364	61.964899	-47.334709
23019		-28.402375	62.003040	-47.337602
23020		-28.423965	62.051906	-47.348689
23021		-28.438424	62.106720	-47.358612
23022		-28.459216	62.164412	-47.373595
23023		-28.474074	62.216204	-47.384444
23024		-28.469220	62.264472	-47.390659
23025		-28.451189	62.304019	-47.394811
23026		-28.425038	62.340729	-47.394957
23027		-28.396982	62.379198	-47.397561
23028		-28.372266	62.411095	-47.393787
23029		-28.353121	62.439306	-47.388672
23030		-28.335355	62.468786	-47.374538
23031		-28.321473	62.493418	-47.357399
23032		-28.300480	62.517558	-47.332459
23033		-28.284665	62.542217	-47.314318
23034		-28.273487	62.560873	-47.300984
23035		-28.256763	62.577213	-47.287263
23036		-28.231304	62.592390	-47.273196
23037		-28.219415	62.617895	-47.275564
23038		-28.212141	62.648972	-47.286278
23039		-28.218759	62.674224	-47.308225
23040		-28.225694	62.691738	-47.327773
23041		-28.235747	62.709410	-47.343316
23042		-28.258274	62.726715	-47.360585
23043		-28.260128	62.738159	-47.356474
23044		-28.250551	62.752657	-47.337149
23045		-28.248345	62.768297	-47.323612
23046		-28.261678	62.781822	-47.315879
23047		-28.275314	62.792819	-47.311304
23048		-28.283963	62.805604	-47.308232
23049		-28.279451	62.816727	-47.309482
23050		-28.261860	62.825462	-47.312281
23051		-28.230642	62.835237	-47.316708
23052		-28.198607	62.842485	-47.324747
23053		-28.157723	62.850661	-47.324888
23054		-28.105725	62.861398	-47.307004
23055		-28.050637	62.869567	-47.264365
23056		-27.991080	62.880858	-47.192461
23057		-27.927731	62.902467	-47.098788
23058		-27.870426	62.944448	-46.997350
23059		-27.827697	63.005478	-46.917719
23060		-27.816223	63.068274	-46.886354
23061		-27.805660	63.104008	-46.870590
23062		-27.738386	63.106601	-46.815856
23063		-27.605821	63.083784	-46.699208
23064		-27.425756	63.059949	-46.534923
23065		-27.223621	63.054918	-46.338955
23066		-27.034193	63.076783	-46.118226
23067		-26.858539	63.117048	-45.871018
23068		-26.674576	63.164267	-45.599277
23069		-26.488291	63.207665	-45.316268
23070		-26.324006	63.253281	-45.070673
23071		-26.227065	63.276226	-44.916402
23072		-26.184588	63.247260	-44.821662
23073		-26.092216	63.168057	-44.723394
23074		-25.959456	63.072958	-44.607343
23075		-25.819035	63.005779	-44.501160
23076		-25.721106	62.978306	-44.422916
23077		-25.725286	62.994304	-44.398714
23078		-25.817170	63.016836	-44.417233
23079		-25.937109	63.014190	-44.426217
23080		-26.055512	62.982940	-44.408446
23081		-26.144556	62.936313	-44.362957
23082		-26.203023	62.898704	-44.314423
23083		-26.223746	62.876959	-44.281519
23084		-26.216144	62.882344	-44.277781
23085		-26.188947	62.905830	-44.303323
23086		-26.155993	62.931911	-44.354020
23087		-26.117301	62.954180	-44.408416
23088		-26.080780	62.975251	-44.456665
23089		-26.048659	62.996490	-44.489098
23090		-26.031490	63.019695	-44.506531
23091		-26.025273	63.045168	-44.507696
23092		-26.020967	63.067682	-44.491871
23093		-26.033053	63.089213	-44.480069
23094		-26.056571	63.108361	-44.481412
23095		-26.080897	63.122146	-44.494131
23096		-26.089580	63.130664	-44.508125
23097		-26.078929	63.134566	-44.524404
23098		-26.058309	63.134332	-44.546298
23099		-26.023429	63.138823	-44.562596
23100		-25.989856	63.139474	-44.580808
23101		-25.942733	63.138545	-44.573692
23102		-25.878022	63.133915	-44.544491
23103		-25.794601	63.131023	-44.495150
23104		-25.697442	63.133445	-44.437019
23105		-25.603651	63.148928	-44.385890
23106		-25.528282	63.168937	-44.356093
23107		-25.477341	63.195814	-44.364715
23108		-25.450582	63.222984	-44.410461
23109		-25.407959	63.229047	-44.464977
23110		-25.347782	63.237021	-44.507240
23111		-25.278520	63.249790	-44.545928
23112		-25.197687	63.276618	-44.581366
23113		-25.104823	63.322833	-44.612328
23114		-25.014036	63.372939	-44.631834
23115		-24.935881	63.414408	-44.645043
23116		-24.877897	63.452231	-44.662900
23117		-24.872907	63.490461	-44.706825
23118		-24.897680	63.526883	-44.755882
23119		-24.926189	63.549296	-44.792219
23120		-24.939183	63.552635	-44.808587
23121		-24.930479	63.537069	-44.802612
23122		-24.887902	63.510338	-44.773058
23123		-24.807315	63.475420	-44.716732
23124		-24.697138	63.433934	-44.632873
23125		-24.555383	63.385564	-44.517852
23126		-24.401202	63.332069	-44.377941
23127		-24.226940	63.290271	-44.227773
23128		-24.058957	63.229990	-44.059958
23129		-23.861254	63.138107	-43.858034
23130		-23.633594	63.026661	-43.626872
23131		-23.380229	62.902834	-43.369526
23132		-23.095140	62.781446	-43.086231
23133		-22.796615	62.663259	-42.793679
23134		-22.497812	62.556896	-42.495967
23135		-22.206724	62.455791	-42.196668
23136		-21.916814	62.351220	-41.888630
23137		-21.629139	62.238004	-41.578610
23138		-21.347369	62.114350	-41.269335
23139		-21.056326	61.976328	-40.954002
23140		-20.741460	61.811234	-40.617149
23141		-20.398240	61.622310	-40.264482
23142		-20.021667	61.417096	-39.889862
23143		-19.624421	61.204167	-39.499077
23144		-19.211100	60.977999	-39.081789
23145		-18.797508	60.739225	-38.641770
23146		-18.396510	60.495862	-38.187399
23147		-18.007704	60.255985	-37.720247
23148		-17.630619	60.014273	-37.241444
23149		-17.257245	59.765527	-36.750626
23150		-16.884474	59.496695	-36.244966
23151		-16.475138	59.195247	-35.703935
23152		-16.025312	58.866609	-35.141439
23153		-15.568459	58.533352	-34.583826
23154		-15.130380	58.212183	-34.037575
23155		-14.708231	57.894956	-33.494520
23156		-14.301376	57.586059	-32.957427
23157		-13.913700	57.272718	-32.427579
23158		-13.549285	56.952222	-31.894903
23159		-13.197599	56.625768	-31.351069
23160		-12.862600	56.298673	-30.797410
23161		-12.538052	55.975285	-30.233177
23162		-12.218317	55.657074	-29.662934
23163		-11.900043	55.340821	-29.080674
23164		-11.580389	55.030456	-28.486670
23165		-11.271154	54.729366	-27.892087
23166		-10.970770	54.440566	-27.286300
23167		-10.687406	54.161348	-26.680154
23168		-10.419954	53.893076	-26.074311
23169		-10.158529	53.630308	-25.471455
23170		-9.888104	53.364700	-24.865913
23171		-9.599669	53.101723	-24.264079
23172		-9.300392	52.839052	-23.662436
23173		-8.980604	52.572909	-23.055196
23174		-8.643591	52.307884	-22.435548
23175		-8.296097	52.039386	-21.806093
23176		-7.935487	51.780670	-21.164153
23177		-7.556868	51.530199	-20.511865
23178		-7.175309	51.289253	-19.849940
23179		-6.789168	51.056670	-19.185908
23180		-6.403454	50.828517	-18.513025
23181		-6.025167	50.600531	-17.837586
23182		-5.628527	50.373421	-17.151827
23183		-5.212210	50.157145	-16.469867
23184		-4.799566	49.956612	-15.794434
23185		-4.405804	49.761666	-15.121474
23186		-4.014945	49.581251	-14.452269
23187		-3.637272	49.408424	-13.784363
23188		-3.267971	49.236682	-13.107520
23189		-2.896467	49.059412	-12.419517
23190		-2.525867	48.880360	-11.731648
23191		-2.139638	48.701340	-11.051957
23192		-1.767377	48.527839	-10.385441
23193		-1.416414	48.354256	-9.726561
23194		-1.063123	48.167524	-9.071683
23195		-0.704363	47.980130	-8.422167
23196		-0.364216	47.798269	-7.781172
23197		-0.033712	47.618696	-7.151648
23198		0.285355	47.441812	-6.526387
23199		0.605486	47.255449	-5.899836
23200		0.937171	47.061086	-5.264865
23201		1.262695	46.864743	-4.635707
23202		1.586640	46.660497	-4.019568
23203		1.880128	46.453885	-3.420528
23204		2.131989	46.243560	-2.837745
23205		2.398639	46.014597	-2.266354
23206		2.672806	45.778945	-1.704958
23207		2.956418	45.542358	-1.161705
23208		3.242569	45.310330	-0.627776
23209		3.515246	45.095685	-0.109508
23210		3.777928	44.887560	0.399277
23211		4.022451	44.692483	0.904179
23212		4.254478	44.496774	1.399638
23213		4.481975	44.282914	1.891245
23214		4.675021	44.064278	2.380767
23215		4.829078	43.827584	2.863615
23216		4.976021	43.589185	3.346146
23217		5.131001	43.357036	3.826604
23218		5.304489	43.148865	4.300320
23219		5.483591	42.954941	4.764436
23220		5.669906	42.763569	5.209992
23221		5.899379	42.560553	5.639690
23222		6.137109	42.356399	6.045096
23223		6.386540	42.154993	6.431874
23224		6.664801	41.971400	6.811393
23225		6.970026	41.797653	7.184494
23226		7.286540	41.636113	7.549757
23227		7.620231	41.480762	7.909719
23228		7.950114	41.320840	8.269928
23229		8.270443	41.178108	8.624817
23230		8.593428	41.046722	8.972150
23231		8.912517	40.916251	9.313621
23232		9.212495	40.787125	9.657009
23233		9.546156	40.656081	10.007104
23234		9.880089	40.529526	10.367531
23235		10.206925	40.397570	10.728244
23236		10.514152	40.236532	11.069581
23237		10.794263	40.045200	11.396276
23238		11.039077	39.843566	11.713271
23239		11.267858	39.642963	12.022978
23240		11.486068	39.451636	12.324528
23241		11.721069	39.275219	12.620138
23242		11.965732	39.085474	12.917201
23243		12.183357	38.889533	13.216550
23244		12.383530	38.685106	13.510565
23245		12.536572	38.478866	13.796024
23246		12.639664	38.293016	14.066639
23247		12.728480	38.122191	14.317223
23248		12.807176	37.968012	14.552012
23249		12.897105	37.826422	14.781675
23250		12.985861	37.695467	15.005290
23251		13.089410	37.571904	15.223829
23252		13.194184	37.458842	15.430524
23253		13.295251	37.362448	15.620723
23254		13.393796	37.273748	15.791263
23255		13.488871	37.201907	15.939281
23256		13.580801	37.149338	16.069311
23257		13.685829	37.115453	16.185053
23258		13.767086	37.105183	16.287515
23259		13.846177	37.108328	16.369139
23260		13.911772	37.108297	16.433420
23261		13.962887	37.117084	16.483895
23262		14.033599	37.142315	16.524472
23263		14.113750	37.175885	16.551657
23264		14.161007	37.209095	16.571141
23265		14.187046	37.244663	16.592932
23266		14.214826	37.268509	16.612468
23267		14.220806	37.282898	16.621279
23268		14.205871	37.292163	16.624900
23269		14.189097	37.301870	16.613232
23270		14.153077	37.303852	16.594117
23271		14.118025	37.302502	16.581676
23272		14.090245	37.309182	16.584954
23273		14.096504	37.308331	16.597898
23274		14.105853	37.300527	16.614720
23275		14.106541	37.291558	16.636359
23276		14.102093	37.282018	16.651774
23277		14.113992	37.267706	16.668299
23278		14.140486	37.250376	16.690603
23279		14.178823	37.239659	16.720461
23280		14.240950	37.228617	16.749975
23281		14.291843	37.216747	16.776677
23282		14.330797	37.210851	16.804173
23283		14.363305	37.201712	16.829941
23284		14.397401	37.189148	16.855540
23285		14.406986	37.177904	16.886446
23286		14.404092	37.172969	16.914825
23287		14.405490	37.164507	16.943984
23288		14.410473	37.147861	16.966541
23289		14.419749	37.128793	16.987316
23290		14.429456	37.111150	17.007479
23291		14.459515	37.100331	17.025892
23292		14.493472	37.096986	17.045671
23293		14.522629	37.097599	17.070713
23294		14.534593	37.097326	17.098769
23295		14.550501	37.097192	17.128407
23296		14.575956	37.087873	17.154641
23297		14.591950	37.076998	17.171623
23298		14.604962	37.069704	17.183190
23299		14.632444	37.065278	17.195890
23300		14.664882	37.064174	17.208631
23301		14.690902	37.071981	17.229019
23302		14.722898	37.074819	17.252050
23303		14.718550	37.071439	17.274709
23304		14.691339	37.043490	17.291752
23305		14.678889	37.026352	17.313758
23306		14.694965	36.998319	17.329235
23307		14.713436	36.976694	17.339998
23308		14.744378	36.960760	17.353703
23309		14.792406	36.947141	17.376476
23310		14.845484	36.935300	17.409247
23311		14.900652	36.923570	17.439639
23312		14.936664	36.903100	17.477561
23313		14.951798	36.877406	17.525912
23314		14.969490	36.854392	17.581418
23315		15.003267	36.821518	17.643119
23316		15.055157	36.786543	17.704585
23317		15.118958	36.750997	17.767891
23318		15.180370	36.716678	17.824271
23319		15.237843	36.687775	17.874892
23320		15.281369	36.670607	17.925176
23321		15.309542	36.651676	17.981724
23322		15.330832	36.634158	18.042203
23323		15.317444	36.626484	18.092502
23324		15.267187	36.620433	18.129306
23325		15.193967	36.621777	18.163178
23326		15.114672	36.626735	18.188564
23327		15.030070	36.631339	18.204619
23328		14.978484	36.639793	18.216344
23329		14.933318	36.646107	18.229868
23330		14.906809	36.657283	18.244778
23331		14.905334	36.667041	18.259978
23332		14.886382	36.665176	18.265659
23333		14.845547	36.664308	18.268429
23334		14.797740	36.667048	18.273877
23335		14.744881	36.675790	18.283498
23336		14.704399	36.683823	18.294715
23337		14.700469	36.689277	18.309317
23338		14.696907	36.694378	18.327765
23339		14.701767	36.704445	18.345327
23340		14.713372	36.711161	18.360403
23341		14.728931	36.721589	18.378721
23342		14.754636	36.731704	18.403324
23343		14.767081	36.743787	18.424474
23344		14.801175	36.755909	18.445391
23345		14.824354	36.764739	18.459396
23346		14.837575	36.774229	18.469601
23347		14.868127	36.777834	18.481973
23348		14.898558	36.775246	18.499332
23349		14.923539	36.777014	18.511700
23350		14.943494	36.779006	18.522813
23351		14.936375	36.794054	18.531259
23352		14.913779	36.802769	18.532193
23353		14.855965	36.808499	18.525461
23354		14.814110	36.820690	18.525357
23355		14.764130	36.842324	18.527943
23356		14.720358	36.860091	18.532867
23357		14.693587	36.863900	18.536217
23358		14.681986	36.862455	18.543124
23359		14.672515	36.861372	18.546713
23360		14.679569	36.863294	18.545752
23361		14.703254	36.875026	18.543228
23362		14.727470	36.890624	18.540793
23363		14.748659	36.904324	18.543036
23364		14.748752	36.915930	18.545935
23365		14.750638	36.923354	18.560868
23366		14.750263	36.924269	18.582711
23367		14.757920	36.922072	18.604457
23368		14.784613	36.920030	18.624510
23369		14.823618	36.922561	18.640381
23370		14.870899	36.928879	18.655038
23371		14.907286	36.948448	18.672242
23372		14.940815	36.981938	18.692476
23373		14.983940	37.009099	18.717697
23374		15.015357	37.026134	18.746297
23375		15.036582	37.036356	18.769137
23376		15.053007	37.036341	18.779058
23377		15.063978	37.028021	18.781744
23378		15.086388	37.031364	18.784186
23379		15.113312	37.037017	18.783368
23380		15.131662	37.045453	18.781447
23381		15.136034	37.065133	18.777679
23382		15.124321	37.089659	18.769409
23383		15.080024	37.105632	18.747348
23384		15.018151	37.126420	18.719053
23385		14.959732	37.150256	18.686944
23386		14.911038	37.179806	18.650339
23387		14.884845	37.217908	18.615949
23388		14.875292	37.260901	18.578517
23389		14.880758	37.315263	18.550861
23390		14.910526	37.376163	18.524839
23391		14.957730	37.430640	18.502956
23392		15.007740	37.481667	18.476423
23393		15.059557	37.531921	18.437719
23394		15.096353	37.586121	18.385617
23395		15.116514	37.654669	18.324308
23396		15.112354	37.746037	18.253209
23397		15.119881	37.841643	18.173486
23398		15.092696	37.933863	18.081590
23399		15.062329	38.026902	17.984556
23400		15.025651	38.116942	17.877738
23401		14.955457	38.207978	17.753759
23402		14.851143	38.292801	17.612063
23403		14.725885	38.376387	17.447856
23404		14.577656	38.460221	17.275192
23405		14.382304	38.550102	17.091629
23406		14.188822	38.640723	16.901791
23407		14.009123	38.733896	16.707580
23408		13.831605	38.833918	16.505334
23409		13.666285	38.935844	16.288549
23410		13.503283	39.042480	16.049027
23411		13.339856	39.158709	15.781175
23412		13.196257	39.286915	15.502341
23413		13.065215	39.418278	15.211387
23414		12.928391	39.549989	14.913064
23415		12.829052	39.686791	14.617366
23416		12.742283	39.834288	14.328760
23417		12.668664	39.988348	14.040091
23418		12.610801	40.134710	13.735044
23419		12.551540	40.271003	13.405673
23420		12.494340	40.415851	13.055672
23421		12.437270	40.573673	12.695541
23422		12.372531	40.757858	12.334781
23423		12.328371	40.978981	11.998437
23424		12.257833	41.221906	11.700880
23425		12.189589	41.485124	11.445609
23426		12.134256	41.740539	11.223136
23427		12.050500	41.978676	11.012695
23428		11.947377	42.176382	10.795082
23429		11.835098	42.336365	10.552389
23430		11.725271	42.477186	10.287002
23431		11.630154	42.612229	9.999525
23432		11.570679	42.752308	9.696902
23433		11.551203	42.896350	9.372942
23434		11.560518	43.035905	9.032115
23435		11.563789	43.176108	8.671261
23436		11.553256	43.324225	8.301297
23437		11.492376	43.478322	7.906081
23438		11.385736	43.638017	7.497488
23439		11.251126	43.809556	7.075756
23440		11.074104	43.977646	6.655368
23441		10.881444	44.143284	6.241576
23442		10.681462	44.314646	5.833222
23443		10.473999	44.499253	5.433881
23444		10.246637	44.687119	5.024227
23445		10.013405	44.880986	4.600443
23446		9.756766	45.090521	4.147711
23447		9.468477	45.311147	3.661190
23448		9.165131	45.538482	3.144409
23449		8.859556	45.773194	2.600359
23450		8.567584	46.014015	2.036987
23451		8.302564	46.277180	1.463716
23452		8.054771	46.566527	0.876057
23453		7.827303	46.890072	0.278019
23454		7.615997	47.238863	-0.328035
23455		7.398978	47.600127	-0.940412
23456		7.161114	47.963970	-1.551440
23457		6.883364	48.318959	-2.163924
23458		6.568053	48.657777	-2.773455
23459		6.195630	48.996430	-3.403633
23460		5.767445	49.354596	-4.046404
23461		5.268854	49.725277	-4.720859
23462		4.720935	50.100120	-5.426657
23463		4.140205	50.470535	-6.155184
23464		3.546291	50.837150	-6.892168
23465		2.961554	51.207422	-7.621884
23466		2.419742	51.573920	-8.334360
23467		1.923731	51.935866	-9.029382
23468		1.447639	52.294497	-9.713108
23469		0.957289	52.647093	-10.406899
23470		0.446664	52.995192	-11.117127
23471		-0.093969	53.325317	-11.848698
23472		-0.643521	53.638228	-12.594532
23473		-1.201542	53.940602	-13.348910
23474		-1.768779	54.236933	-14.101599
23475		-2.327084	54.529844	-14.842698
23476		-2.861480	54.825380	-15.571732
23477		-3.375731	55.103905	-16.289009
23478		-3.855580	55.361813	-16.986210
23479		-4.337863	55.617263	-17.685325
23480		-4.845406	55.877802	-18.382996
23481		-5.369267	56.136498	-19.069893
23482		-5.898028	56.387948	-19.742983
23483		-6.414438	56.631060	-20.401040
23484		-6.912835	56.860808	-21.036853
23485		-7.405962	57.086167	-21.661656
23486		-7.895219	57.313358	-22.265659
23487		-8.385104	57.541547	-22.860666
23488		-8.863687	57.758452	-23.442547
23489		-9.330055	57.956529	-24.017187
23490		-9.801474	58.136033	-24.591408
23491		-10.293562	58.310851	-25.174583
23492		-10.804566	58.487824	-25.765039
23493		-11.321751	58.667001	-26.365891
23494		-11.818861	58.832122	-26.958797
23495		-12.294533	58.984119	-27.535695
23496		-12.754422	59.117367	-28.105367
23497		-13.232184	59.244263	-28.685254
23498		-13.752481	59.379735	-29.288022
23499		-14.317287	59.530205	-29.920671
23500		-14.911432	59.683344	-30.560847
23501		-15.519154	59.831691	-31.213693
23502		-16.118642	59.969255	-31.865835
23503		-16.692164	60.094702	-32.498087
23504		-17.267285	60.213370	-33.129568
23505		-17.864891	60.328410	-33.766899
23506		-18.491882	60.447218	-34.419287
23507		-19.148045	60.566542	-35.092608
23508		-19.805078	60.679011	-35.761391
23509		-20.469308	60.787453	-36.436014
23510		-21.125813	60.892822	-37.100250
23511		-21.748291	60.996360	-37.740853
23512		-22.324409	61.098407	-38.357032
23513		-22.893285	61.206226	-38.976999
23514		-23.441409	61.312413	-39.581410
23515		-23.946211	61.408036	-40.168576
23516		-24.412073	61.490984	-40.745069
23517		-24.869007	61.570257	-41.323717
23518		-25.303589	61.655129	-41.891564
23519		-25.716887	61.735902	-42.443807
23520		-26.102394	61.809067	-42.973948
23521		-26.471799	61.878812	-43.493659
23522		-26.841485	61.951966	-44.005486
23523		-27.200136	62.027520	-44.495363
23524		-27.514278	62.095694	-44.947341
23525		-27.780323	62.157694	-45.368708
23526		-28.012358	62.221991	-45.759246
23527		-28.225155	62.288714	-46.134026
23528		-28.438924	62.367028	-46.508888
23529		-28.656763	62.447827	-46.873335
23530		-28.846525	62.526176	-47.204772
23531		-28.974925	62.603563	-47.494684
23532		-29.055414	62.687800	-47.739482
23533		-29.053951	62.750704	-47.928958
23534		-29.028629	62.791162	-48.110717
23535		-29.026269	62.824957	-48.317900
23536		-29.053646	62.850334	-48.512947
23537		-29.088414	62.873430	-48.689164
23538		-29.121527	62.898925	-48.842568
23539		-29.182967	62.925630	-48.985774
23540		-29.270187	62.951032	-49.109539
23541		-29.376846	62.978085	-49.218807
23542		-29.484696	63.017243	-49.323194
23543		-29.565710	63.068249	-49.414338
23544		-29.588987	63.121878	-49.476426
23545		-29.558766	63.173348	-49.514326
23546		-29.503269	63.224964	-49.531513
23547		-29.439836	63.267652	-49.531207
23548		-29.369463	63.302533	-49.510379
23549		-29.306246	63.330627	-49.474656
23550		-29.258983	63.360792	-49.441717
23551		-29.216915	63.399447	-49.409489
23552		-29.191641	63.444241	-49.379846
23553		-29.188790	63.496963	-49.362331
23554		-29.203197	63.555578	-49.352088
23555		-29.246012	63.617358	-49.349636
23556		-29.312123	63.672764	-49.354175
23557		-29.384377	63.712811	-49.352628
23558		-29.461621	63.736452	-49.343856
23559		-29.523124	63.745712	-49.327231
23560		-29.559488	63.755468	-49.308760
23561		-29.581077	63.774482	-49.295938
23562		-29.596868	63.803573	-49.299097
23563		-29.608173	63.840931	-49.310850
23564		-29.632319	63.869039	-49.332965
23565		-29.648771	63.882668	-49.342592
23566		-29.656127	63.884206	-49.333733
23567		-29.686152	63.884656	-49.332593
23568		-29.733670	63.884426	-49.336725
23569		-29.775671	63.889391	-49.342725
23570		-29.797685	63.902341	-49.347027
23571		-29.796565	63.921110	-49.341026
23572		-29.790395	63.953879	-49.340065
23573		-29.790827	63.992135	-49.358970
23574		-29.789556	64.038791	-49.388297
23575		-29.801236	64.089480	-49.440616
23576		-29.830049	64.138257	-49.501989
23577		-29.871365	64.183603	-49.561486
23578		-29.933102	64.230348	-49.628525
23579		-29.993944	64.272645	-49.687253
23580		-30.048282	64.315015	-49.740759
23581		-30.074375	64.354664	-49.777484
23582		-30.073486	64.392675	-49.798571
23583		-30.041292	64.422224	-49.797609
23584		-29.997422	64.446088	-49.788165
23585		-29.971940	64.471249	-49.796742
23586		-29.976029	64.497459	-49.825122
23587		-29.996391	64.515227	-49.866356
23588		-30.013515	64.524417	-49.903240
23589		-30.028057	64.523274	-49.932160
23590		-30.045701	64.516353	-49.960156
23591		-30.060531	64.508677	-49.976058
23592		-30.066129	64.502742	-49.981666
23593		-30.069921	64.500240	-49.988390
23594		-30.082649	64.494422	-49.995196
23595		-30.087107	64.476438	-49.990963
23596		-30.099560	64.454739	-49.989416
23597		-30.121957	64.426881	-49.991613
23598		-30.146867	64.388446	-49.993861
23599		-30.167948	64.343070	-49.989323
23600		-30.177528	64.294202	-49.971360
23601		-30.168858	64.239358	-49.933712
23602		-30.138127	64.174891	-49.873357
23603		-30.078910	64.096162	-49.789877
23604		-29.967531	63.994609	-49.629812
23605		-29.812810	63.909419	-49.444440
23606		-29.656162	63.832177	-49.233117
23607		-29.454126	63.743545	-48.979172
23608		-29.195634	63.648328	-48.687640
23609		-28.888572	63.546805	-48.375616
23610		-28.521401	63.436660	-48.032152
23611		-28.087739	63.323678	-47.648168
23612		-27.605764	63.212182	-47.233816
23613		-27.096769	63.106325	-46.788048
23614		-26.586134	62.997880	-46.313471
23615		-26.097585	62.891095	-45.836508
23616		-25.664331	62.791883	-45.377900
23617		-25.287882	62.695018	-44.949023
23618		-24.956357	62.593683	-44.549342
23619		-24.643042	62.478721	-44.167224
23620		-24.329985	62.350708	-43.790340
23621		-24.021656	62.213354	-43.411945
23622		-23.738135	62.073097	-43.043448
23623		-23.487842	61.929290	-42.683878
23624		-23.279603	61.780158	-42.336484
23625		-23.114067	61.622267	-42.001347
23626		-22.960865	61.448574	-41.656575
23627		-22.792079	61.254725	-41.287085
23628		-22.594189	61.049405	-40.879249
23629		-22.372917	60.846964	-40.441396
23630		-22.137246	60.648881	-39.992532
23631		-21.864731	60.451117	-39.520352
23632		-21.551551	60.249081	-39.019804
23633		-21.200758	60.035479	-38.492147
23634		-20.828295	59.809284	-37.948839
23635		-20.445943	59.565645	-37.396436
23636		-20.064547	59.309340	-36.840859
23637		-19.674220	59.030596	-36.274727
23638		-19.265860	58.730622	-35.691203
23639		-18.827548	58.420033	-35.088661
23640		-18.380052	58.101010	-34.472904
23641		-17.932296	57.774238	-33.851939
23642		-17.492708	57.444839	-33.236792
23643		-17.074906	57.109614	-32.636395
23644		-16.677328	56.772268	-32.046975
23645		-16.286709	56.441076	-31.468532
23646		-15.902524	56.117055	-30.896419
23647		-15.537813	55.805856	-30.330466
23648		-15.206430	55.514117	-29.764162
23649		-14.922115	55.244120	-29.203545
23650		-14.670925	54.989972	-28.631642
23651		-14.424335	54.743234	-28.051144
23652		-14.167915	54.493223	-27.463594
23653		-13.905501	54.232587	-26.861539
23654		-13.612407	53.979741	-26.245174
23655		-13.286604	53.733688	-25.623031
23656		-12.935383	53.497646	-24.987089
23657		-12.585415	53.280896	-24.357271
23658		-12.213090	53.084468	-23.729392
23659		-11.836844	52.895447	-23.101558
23660		-11.424666	52.702440	-22.455030
23661		-10.979610	52.510795	-21.791666
23662		-10.520051	52.324962	-21.117817
23663		-10.040312	52.130685	-20.433560
23664		-9.545996	51.927591	-19.737460
23665		-9.075791	51.729935	-19.049620
23666		-8.611727	51.531640	-18.367480
23667		-8.139122	51.332404	-17.683724
23668		-7.693811	51.133587	-17.006404
23669		-7.226993	50.927719	-16.327370
23670		-6.777941	50.724559	-15.639531
23671		-6.336478	50.529208	-14.955608
23672		-5.919921	50.333355	-14.275821
23673		-5.521364	50.141162	-13.603815
23674		-5.141170	49.950163	-12.937965
23675		-4.764806	49.759659	-12.282997
23676		-4.378584	49.572705	-11.646753
23677		-3.998123	49.395305	-11.029217
23678		-3.640337	49.223412	-10.433088
23679		-3.295848	49.046701	-9.859854
23680		-2.973362	48.858669	-9.297234
23681		-2.659712	48.665382	-8.748118
23682		-2.353590	48.468649	-8.206594
23683		-2.041122	48.288588	-7.681684
23684		-1.711465	48.129292	-7.172770
23685		-1.399251	47.980034	-6.693314
23686		-1.100023	47.844695	-6.237661
23687		-0.836329	47.726383	-5.812157
23688		-0.606873	47.609413	-5.412840
23689		-0.378217	47.485590	-5.031876
23690		-0.169112	47.361054	-4.664089
23691		0.035370	47.232742	-4.306592
23692		0.229817	47.091045	-3.959255
23693		0.427357	46.958755	-3.611974
23694		0.620038	46.841141	-3.270189
23695		0.814790	46.732009	-2.928650
23696		1.013570	46.624257	-2.587465
23697		1.213121	46.514116	-2.252022
23698		1.403188	46.400430	-1.923991
23699		1.591567	46.270558	-1.596980
23700		1.767557	46.142813	-1.275162
23701		1.940342	46.017285	-0.959588
23702		2.131241	45.886291	-0.631658
23703		2.329578	45.746666	-0.293859
23704		2.517480	45.615365	0.044711
23705		2.725374	45.486129	0.381110
23706		2.933993	45.347325	0.722378
23707		3.141108	45.207614	1.061824
23708		3.367828	45.061511	1.405496
23709		3.594173	44.905648	1.751034
23710		3.820161	44.755298	2.106426
23711		4.046351	44.607068	2.463706
23712		4.282560	44.456570	2.821471
23713		4.536751	44.291532	3.182035
23714		4.790509	44.119714	3.548194
23715		5.039284	43.956640	3.925002
23716		5.310475	43.796833	4.300673
23717		5.599223	43.637850	4.675843
23718		5.875536	43.491546	5.047007
23719		6.165763	43.348260	5.413840
23720		6.482132	43.211590	5.783885
23721		6.787452	43.073218	6.156286
23722		7.104610	42.928239	6.537035
23723		7.414923	42.774118	6.919489
23724		7.715344	42.616588	7.303795
23725		8.023164	42.454967	7.672329
23726		8.316175	42.294121	8.031691
23727		8.582154	42.140105	8.383297
23728		8.830253	41.988240	8.729012
23729		9.068200	41.827288	9.073216
23730		9.272298	41.654140	9.419266
23731		9.469402	41.468739	9.764016
23732		9.644423	41.279708	10.109291
23733		9.812683	41.088686	10.453479
23734		9.974026	40.894507	10.788946
23735		10.121257	40.701920	11.110854
23736		10.256855	40.504641	11.415853
23737		10.395654	40.307060	11.704782
23738		10.528281	40.112890	11.985451
23739		10.651837	39.926414	12.257095
23740		10.768775	39.744781	12.514609
23741		10.883618	39.563107	12.760833
23742		10.971218	39.400315	13.002476
23743		11.065171	39.245558	13.238896
23744		11.156603	39.096834	13.474968
23745		11.237762	38.946933	13.710603
23746		11.335360	38.793973	13.938833
23747		11.439889	38.641510	14.157020
23748		11.544434	38.500861	14.368279
23749		11.653097	38.376287	14.566554
23750		11.788456	38.253310	14.761723
23751		11.916241	38.131434	14.952214
23752		12.051467	38.017181	15.139195
23753		12.182099	37.900336	15.315540
23754		12.306045	37.780257	15.482366
23755		12.422219	37.665037	15.646032
23756		12.521432	37.560333	15.809288
23757		12.619473	37.461800	15.975746
23758		12.726581	37.376599	16.137326
23759		12.810532	37.261016	16.276689
23760		12.859754	37.160735	16.418836
23761		12.926692	37.090947	16.572206
23762		13.029811	37.025168	16.726467
23763		13.143298	36.952106	16.873773
23764		13.263555	36.868623	16.994997
23765		13.397700	36.793578	17.094560
23766		13.539497	36.734670	17.178078
23767		13.680415	36.708881	17.263193
23768		13.860762	36.718400	17.351832
23769		14.019422	36.752944	17.443200
23770		14.134896	36.789217	17.528691
23771		14.203955	36.811508	17.599176
23772		14.234477	36.816038	17.653787
23773		14.244769	36.795758	17.689726
23774		14.245843	36.786101	17.723745
23775		14.247231	36.791474	17.750415
23776		14.270505	36.791736	17.772294
23777		14.264402	36.786693	17.792704
23778		14.241873	36.778422	17.814957
23779		14.201405	36.765619	17.838905
23780		14.148188	36.737872	17.866050
23781		14.090098	36.700419	17.897845
23782		14.051092	36.654930	17.936431
23783		14.034309	36.601628	17.983368
23784		14.049534	36.551065	18.046880
23785		14.103726	36.500812	18.124602
23786		14.177524	36.439223	18.209178
23787		14.250859	36.378442	18.288346
23788		14.317970	36.324808	18.366866
23789		14.366694	36.273932	18.450073
23790		14.441751	36.226315	18.537559
23791		14.548452	36.168625	18.628490
23792		14.637499	36.108106	18.715155
23793		14.723296	36.056968	18.795268
23794		14.803544	36.014126	18.874859
23795		14.870145	35.978138	18.948561
23796		14.919148	35.939471	19.023884
23797		14.960610	35.896791	19.099484
23798		14.975834	35.848594	19.176003
23799		14.967067	35.805301	19.251971
23800		14.938605	35.769661	19.321686
23801		14.900047	35.727084	19.386008
23802		14.875466	35.673004	19.447187
23803		14.860875	35.614350	19.505074
23804		14.860573	35.559828	19.568050
23805		14.868843	35.512041	19.632063
23806		14.888837	35.462643	19.697298
23807		14.897814	35.401087	19.768129
23808		14.904349	35.335904	19.844418
23809		14.913766	35.275653	19.927938
23810		14.908761	35.227524	20.008473
23811		14.928240	35.183469	20.082497
23812		14.940414	35.142972	20.159638
23813		14.928477	35.098981	20.234310
23814		14.910658	35.047786	20.313027
23815		14.880189	34.990674	20.389591
23816		14.839530	34.935114	20.458495
23817		14.792774	34.881899	20.516464
23818		14.744014	34.829523	20.562759
23819		14.686071	34.779460	20.600780
23820		14.636956	34.747430	20.636725
23821		14.592608	34.727205	20.669064
23822		14.551881	34.709592	20.695553
23823		14.492908	34.693384	20.718766
23824		14.452461	34.669715	20.731080
23825		14.428459	34.648022	20.736379
23826		14.438840	34.637646	20.737622
23827		14.467778	34.627008	20.731913
23828		14.458682	34.631730	20.729004
23829		14.437444	34.652258	20.727607
23830		14.377898	34.666643	20.727594
23831		14.293726	34.678996	20.732535
23832		14.210564	34.684879	20.745108
23833		14.151607	34.687359	20.764845
23834		14.130406	34.679390	20.787296
23835		14.166207	34.673465	20.807207
23836		14.230029	34.665318	20.828033
23837		14.309142	34.655121	20.848917
23838		14.379306	34.631003	20.867825
23839		14.445625	34.614400	20.893113
23840		14.463759	34.612010	20.923637
23841		14.447773	34.632925	20.962038
23842		14.390969	34.638834	20.993467
23843		14.314670	34.647792	21.013651
23844		14.251898	34.657352	21.025085
23845		14.213397	34.661682	21.028766
23846		14.214187	34.670679	21.036932
23847		14.233322	34.687843	21.042407
23848		14.248984	34.707132	21.043087
23849		14.271612	34.726057	21.043015
23850		14.271298	34.747647	21.045990
23851		14.247830	34.771151	21.045602
23852		14.218549	34.792509	21.051477
23853		14.196092	34.811775	21.069488
23854		14.206097	34.830201	21.096495
23855		14.233656	34.835578	21.119932
23856		14.266423	34.838156	21.136881
23857		14.301100	34.840675	21.150221
23858		14.320004	34.867370	21.168209
23859		14.363992	34.897818	21.182131
23860		14.412680	34.926905	21.194845
23861		14.422748	34.953356	21.191898
23862		14.424804	34.970151	21.181704
23863		14.414459	34.992566	21.167511
23864		14.417670	35.025702	21.153901
23865		14.426438	35.071811	21.143012
23866		14.440800	35.121189	21.137490
23867		14.438032	35.163238	21.135440
23868		14.437561	35.196990	21.133570
23869		14.431838	35.214000	21.132863
23870		14.430624	35.219756	21.131971
23871		14.447225	35.219665	21.128318
23872		14.490766	35.214642	21.120618
23873		14.550257	35.219412	21.105493
23874		14.600328	35.232256	21.079632
23875		14.631229	35.255250	21.051755
23876		14.647754	35.276209	21.024038
23877		14.656731	35.282656	21.002605
23878		14.631738	35.281294	20.980226
23879		14.589981	35.272066	20.943329
23880		14.554664	35.259209	20.895433
23881		14.548715	35.258115	20.844054
23882		14.570347	35.266550	20.795899
23883		14.619635	35.284825	20.749381
23884		14.684783	35.305468	20.713418
23885		14.696498	35.329141	20.690976
23886		14.705676	35.344646	20.679701
23887		14.698637	35.342702	20.667399
23888		14.644855	35.323987	20.653659
23889		14.580199	35.293893	20.636486
23890		14.525118	35.264915	20.619226
23891		14.504517	35.246974	20.598103
23892		14.520139	35.244596	20.576800
23893		14.551702	35.260864	20.556411
23894		14.599042	35.288724	20.531779
23895		14.645356	35.317981	20.501971
23896		14.684202	35.346995	20.465318
23897		14.715761	35.374437	20.418088
23898		14.744211	35.398689	20.362932
23899		14.784167	35.429800	20.306439
23900		14.826372	35.475069	20.240909
23901		14.898134	35.531032	20.166332
23902		14.976931	35.586567	20.074043
23903		15.055104	35.658214	19.964456
23904		15.121896	35.748923	19.842238
23905		15.177848	35.865931	19.702141
23906		15.221769	35.990779	19.547401
23907		15.234705	36.120462	19.390332
23908		15.217404	36.262315	19.247310
23909		15.187581	36.399304	19.110039
23910		15.118225	36.539014	18.973653
23911		15.026988	36.671531	18.830450
23912		14.929068	36.800131	18.670279
23913		14.844678	36.937302	18.482019
23914		14.793516	37.091174	18.258898
23915		14.771466	37.260977	17.989961
23916		14.752940	37.446378	17.689208
23917		14.711927	37.652564	17.374490
23918		14.656319	37.863639	17.069530
23919		14.617457	38.089888	16.787588
23920		14.591900	38.325073	16.522733
23921		14.528761	38.553427	16.257985
23922		14.412962	38.768245	15.977303
23923		14.249589	38.975980	15.672369
23924		14.073174	39.178552	15.335233
23925		13.903485	39.390111	14.968361
23926		13.734618	39.580596	14.587130
23927		13.553794	39.779601	14.207872
23928		13.444501	39.995178	13.845098
23929		13.360598	40.219733	13.495987
23930		13.288655	40.449373	13.148119
23931		13.227120	40.689863	12.787547
23932		13.172318	40.944224	12.407436
23933		13.123564	41.210706	12.002926
23934		13.078094	41.487827	11.573835
23935		12.982838	41.750599	11.121460
23936		12.869145	42.017079	10.670396
23937		12.743405	42.285365	10.241120
23938		12.555214	42.561396	9.840145
23939		12.381514	42.860744	9.469525
23940		12.206511	43.168660	9.105823
23941		11.994878	43.478645	8.739667
23942		11.748670	43.770769	8.353181
23943		11.466053	44.038478	7.936625
23944		11.153629	44.275978	7.490075
23945		10.830481	44.497880	7.015868
23946		10.507003	44.705616	6.521685
23947		10.190685	44.908942	6.012831
23948		9.886885	45.112213	5.496736
23949		9.594767	45.319818	4.980597
23950		9.311378	45.526579	4.468566
23951		9.035332	45.734276	3.968020
23952		8.773401	45.941755	3.481005
23953		8.527313	46.151718	3.004531
23954		8.299052	46.359276	2.537116
23955		8.083578	46.561872	2.073013
23956		7.869573	46.757615	1.615806
23957		7.631329	46.943736	1.146385
23958		7.373486	47.127758	0.667212
23959		7.081210	47.321418	0.168621
23960		6.742208	47.520471	-0.351738
23961		6.365094	47.718047	-0.879009
23962		5.970900	47.915759	-1.400915
23963		5.576503	48.120441	-1.908247
23964		5.204110	48.327701	-2.403606
23965		4.854536	48.534478	-2.892743
23966		4.535657	48.732848	-3.383516
23967		4.234537	48.922325	-3.882281
23968		3.945319	49.093852	-4.393546
23969		3.669769	49.249208	-4.919029
23970		3.390987	49.410619	-5.461859
23971		3.086113	49.590571	-6.017426
23972		2.750375	49.784311	-6.582170
23973		2.381037	49.976819	-7.168377
23974		1.981137	50.166507	-7.770781
23975		1.545835	50.354450	-8.400685
23976		1.082930	50.540365	-9.047983
23977		0.611469	50.727816	-9.704051
23978		0.139194	50.925936	-10.359575
23979		-0.337988	51.140129	-11.012435
23980		-0.822291	51.371617	-11.665091
23981		-1.319974	51.611000	-12.329954
23982		-1.825841	51.833909	-13.003813
23983		-2.356836	52.045794	-13.708057
23984		-2.935480	52.269873	-14.445918
23985		-3.587355	52.506099	-15.213838
23986		-4.282789	52.755133	-15.994484
23987		-5.010420	53.009632	-16.786298
23988		-5.737719	53.270535	-17.572525
23989		-6.450276	53.533566	-18.354375
23990		-7.137073	53.796040	-19.121325
23991		-7.799779	54.048573	-19.881521
23992		-8.458066	54.290541	-20.641577
23993		-9.144390	54.541445	-21.419125
23994		-9.864359	54.800759	-22.209970
23995		-10.597297	55.059203	-23.008347
23996		-11.318868	55.301784	-23.800323
23997		-12.010621	55.520148	-24.583557
23998		-12.665643	55.723029	-25.353082
23999		-13.297985	55.928953	-26.120206
24000		-13.931425	56.144946	-26.889108
24001		-14.556567	56.360772	-27.651630
24002		-15.163243	56.566508	-28.406408
24003		-15.752615	56.765323	-29.153075
24004		-16.304219	56.946135	-29.876234
24005		-16.809275	57.110689	-30.574093
24006		-17.301653	57.270372	-31.266086
24007		-17.791643	57.428256	-31.945469
24008		-18.276536	57.573173	-32.610837
24009		-18.767545	57.711142	-33.274466
24010		-19.277809	57.847196	-33.935448
24011		-19.778773	57.983721	-34.575718
24012		-20.252882	58.125432	-35.184783
24013		-20.669673	58.255941	-35.753520
24014		-21.002839	58.355964	-36.257927
24015		-21.283456	58.428459	-36.727017
24016		-21.598832	58.495923	-37.212199
24017		-21.960285	58.572165	-37.703780
24018		-22.313177	58.639720	-38.170693
24019		-22.632215	58.700690	-38.620704
24020		-22.905570	58.761202	-39.034228
24021		-23.133799	58.819660	-39.428177
24022		-23.336904	58.885319	-39.811277
24023		-23.558682	58.964926	-40.200857
24024		-23.806069	59.050175	-40.600447
24025		-24.057007	59.134204	-40.990046
24026		-24.292459	59.202862	-41.358521
24027		-24.552423	59.271931	-41.727218
24028		-24.840637	59.347187	-42.097148
24029		-25.114002	59.422297	-42.446514
24030		-25.387016	59.507405	-42.808200
24031		-25.662781	59.604311	-43.178803
24032		-25.904704	59.685022	-43.526015
24033		-26.148785	59.750999	-43.876378
24034		-26.439053	59.822639	-44.243163
24035		-26.750508	59.897978	-44.612136
24036		-27.061242	59.977095	-44.978063
24037		-27.360895	60.058574	-45.342772
24038		-27.634419	60.140783	-45.685277
24039		-27.905581	60.223319	-46.016173
24040		-28.165591	60.305714	-46.320075
24041		-28.399537	60.386643	-46.589917
24042		-28.596124	60.466717	-46.817539
24043		-28.739595	60.549909	-47.000658
24044		-28.841219	60.632069	-47.151597
24045		-28.887156	60.713330	-47.260058
24046		-28.877755	60.784566	-47.330321
24047		-28.840371	60.852477	-47.377108
24048		-28.780832	60.921966	-47.397967
24049		-28.697243	60.992124	-47.392581
24050		-28.614330	61.064269	-47.381778
24051		-28.549358	61.129511	-47.376277
24052		-28.505692	61.173804	-47.368708
24053		-28.494072	61.192785	-47.368056
24054		-28.519852	61.201742	-47.376101
24055		-28.559288	61.210828	-47.381000
24056		-28.603417	61.224594	-47.386585
24057		-28.636261	61.237545	-47.379661
24058		-28.669455	61.247382	-47.366917
24059		-28.722808	61.254708	-47.363381
24060		-28.793577	61.256468	-47.365165
24061		-28.862379	61.256221	-47.366347
24062		-28.928240	61.255828	-47.373897
24063		-28.963660	61.251622	-47.374614
24064		-28.975473	61.245049	-47.380708
24065		-28.981279	61.241769	-47.389566
24066		-28.989131	61.243315	-47.402763
24067		-29.016209	61.251678	-47.436218
24068		-29.046658	61.269809	-47.474034
24069		-29.077025	61.290203	-47.508871
24070		-29.112653	61.310515	-47.541131
24071		-29.147777	61.332942	-47.563829
24072		-29.190202	61.361375	-47.580342
24073		-29.248577	61.392432	-47.603050
24074		-29.311619	61.419426	-47.623478
24075		-29.377277	61.441032	-47.645261
24076		-29.433180	61.461339	-47.667605
24077		-29.482835	61.485345	-47.699774
24078		-29.524857	61.508580	-47.731445
24079		-29.551828	61.533759	-47.756321
24080		-29.570023	61.562193	-47.779762
24081		-29.588259	61.591897	-47.795246
24082		-29.619981	61.624594	-47.814667
24083		-29.669559	61.654024	-47.838040
24084		-29.732947	61.684004	-47.863870
24085		-29.795783	61.705496	-47.888705
24086		-29.846040	61.728277	-47.903562
24087		-29.888969	61.748433	-47.915839
24088		-29.928981	61.765282	-47.923313
24089		-29.960226	61.782958	-47.929070
24090		-29.981133	61.801271	-47.923097
24091		-29.971068	61.814961	-47.900876
24092		-29.949303	61.818290	-47.877779
24093		-29.926386	61.820225	-47.859087
24094		-29.917472	61.824904	-47.859042
24095		-29.887491	61.819103	-47.847388
24096		-29.818589	61.801971	-47.812494
24097		-29.726020	61.784232	-47.767566
24098		-29.630029	61.781820	-47.723453
24099		-29.558763	61.795927	-47.701615
24100		-29.499669	61.802715	-47.682260
24101		-29.440505	61.803352	-47.658660
24102		-29.388708	61.794041	-47.636113
24103		-29.344467	61.781819	-47.616832
24104		-29.311354	61.772118	-47.602196
24105		-29.286476	61.772128	-47.587565
24106		-29.249017	61.783201	-47.570996
24107		-29.199473	61.796406	-47.546349
24108		-29.129913	61.814413	-47.513173
24109		-29.046226	61.827597	-47.466464
24110		-28.949534	61.829897	-47.415055
24111		-28.871025	61.829123	-47.389568
24112		-28.810229	61.830389	-47.387610
24113		-28.759076	61.824442	-47.389718
24114		-28.701210	61.813004	-47.382752
24115		-28.638752	61.807107	-47.370839
24116		-28.591794	61.810974	-47.356845
24117		-28.571558	61.825996	-47.349054
24118		-28.584812	61.838724	-47.355724
24119		-28.597160	61.841669	-47.349745
24120		-28.604261	61.834806	-47.340687
24121		-28.594025	61.823456	-47.322596
24122		-28.576692	61.815231	-47.307712
24123		-28.559467	61.817940	-47.312577
24124		-28.534333	61.822172	-47.322855
24125		-28.487876	61.820267	-47.323020
24126		-28.430171	61.816069	-47.316294
24127		-28.374468	61.814156	-47.303801
24128		-28.318482	61.808350	-47.275308
24129		-28.269131	61.805082	-47.236428
24130		-28.223731	61.804552	-47.176868
24131		-28.160891	61.809477	-47.095951
24132		-28.083849	61.819093	-46.986075
24133		-28.007472	61.843176	-46.884520
24134		-27.953460	61.878831	-46.820101
24135		-27.904275	61.894950	-46.765969
24136		-27.832908	61.886296	-46.697392
24137		-27.739808	61.864108	-46.607855
24138		-27.629299	61.843855	-46.498042
24139		-27.506379	61.832329	-46.374494
24140		-27.372072	61.837129	-46.234553
24141		-27.303166	61.871870	-46.112520
24142		-27.316290	61.939556	-46.016621
24143		-27.395460	62.040440	-45.913195
24144		-27.489342	62.165188	-45.819057
24145		-27.574201	62.284809	-45.733398
24146		-27.659047	62.384769	-45.659807
24147		-27.721675	62.464353	-45.601925
24148		-27.750370	62.521183	-45.556800
24149		-27.722597	62.542358	-45.519291
24150		-27.647240	62.513575	-45.492596
24151		-27.556775	62.449865	-45.472052
24152		-27.480264	62.378231	-45.466913
24153		-27.440001	62.324863	-45.489446
24154		-27.449943	62.296827	-45.525223
24155		-27.514327	62.292745	-45.569393
24156		-27.605077	62.295290	-45.603673
24157		-27.715621	62.287116	-45.622746
24158		-27.825852	62.253627	-45.620478
24159		-27.920407	62.203398	-45.601344
24160		-27.993775	62.155009	-45.578182
24161		-28.046411	62.121846	-45.560831
24162		-28.080011	62.105451	-45.549148
24163		-28.073075	62.092286	-45.535296
24164		-28.010097	62.070160	-45.504788
24165		-27.911448	62.036668	-45.463003
24166		-27.805647	61.995288	-45.417357
24167		-27.727809	61.952020	-45.386251
24168		-27.666253	61.912462	-45.357276
24169		-27.613459	61.882173	-45.327648
24170		-27.559785	61.860083	-45.289320
24171		-27.500453	61.846796	-45.241701
24172		-27.428160	61.829981	-45.185372
24173		-27.334387	61.811850	-45.114393
24174		-27.220745	61.799768	-45.036133
24175		-27.087230	61.788768	-44.959771
24176		-26.928931	61.777285	-44.887513
24177		-26.745773	61.765576	-44.821994
24178		-26.541918	61.753879	-44.760615
24179		-26.334948	61.745472	-44.713966
24180		-26.133583	61.736702	-44.677740
24181		-25.943203	61.731317	-44.642822
24182		-25.766122	61.734208	-44.596022
24183		-25.630748	61.736792	-44.548684
24184		-25.515460	61.734027	-44.491147
24185		-25.399332	61.725775	-44.414933
24186		-25.253531	61.712017	-44.314148
24187		-25.088323	61.691574	-44.199431
24188		-24.906185	61.653880	-44.073283
24189		-24.700112	61.596903	-43.938843
24190		-24.489270	61.519901	-43.794080
24191		-24.241632	61.422736	-43.619879
24192		-23.961361	61.303546	-43.394293
24193		-23.652874	61.200139	-43.141869
24194		-23.346941	61.116038	-42.877032
24195		-23.019743	61.031773	-42.576017
24196		-22.652595	60.933710	-42.239971
24197		-22.239257	60.822813	-41.870788
24198		-21.794417	60.693931	-41.483609
24199		-21.331080	60.560889	-41.089752
24200		-20.884794	60.445895	-40.703144
24201		-20.450098	60.346046	-40.317144
24202		-20.007917	60.249791	-39.919889
24203		-19.563626	60.143560	-39.523142
24204		-19.123652	60.031151	-39.128884
24205		-18.697561	59.908607	-38.739475
24206		-18.283436	59.770480	-38.339848
24207		-17.895327	59.623867	-37.941576
24208		-17.542615	59.479645	-37.545831
24209		-17.221349	59.338892	-37.149620
24210		-16.919935	59.193362	-36.748296
24211		-16.623548	59.033105	-36.340371
24212		-16.330358	58.858622	-35.921365
24213		-16.049957	58.672275	-35.493954
24214		-15.796746	58.481738	-35.073038
24215		-15.570867	58.289237	-34.651371
24216		-15.369947	58.096520	-34.232201
24217		-15.183179	57.903516	-33.815908
24218		-15.008532	57.710247	-33.402783
24219		-14.840810	57.511658	-32.992757
24220		-14.661183	57.305937	-32.570992
24221		-14.458725	57.086592	-32.137474
24222		-14.225349	56.852782	-31.687788
24223		-13.972437	56.610720	-31.235453
24224		-13.714965	56.369034	-30.788876
24225		-13.445872	56.124421	-30.347569
24226		-13.166534	55.880371	-29.907733
24227		-12.867413	55.631218	-29.454832
24228		-12.549289	55.383129	-28.989693
24229		-12.210960	55.136898	-28.516318
24230		-11.864912	54.899986	-28.037716
24231		-11.510100	54.666101	-27.547090
24232		-11.151060	54.431515	-27.047767
24233		-10.784874	54.192409	-26.537223
24234		-10.415185	53.952829	-26.016173
24235		-10.045240	53.716459	-25.487824
24236		-9.680507	53.482085	-24.951387
24237		-9.325218	53.252836	-24.415773
24238		-8.969420	53.024533	-23.867438
24239		-8.609453	52.799981	-23.313424
24240		-8.245675	52.588518	-22.751584
24241		-7.892819	52.389673	-22.193027
24242		-7.543022	52.192399	-21.635936
24243		-7.204563	51.990680	-21.071915
24244		-6.882742	51.788871	-20.503107
24245		-6.545919	51.582640	-19.927418
24246		-6.202177	51.371859	-19.337797
24247		-5.873153	51.162649	-18.747045
24248		-5.542141	50.954659	-18.144475
24249		-5.220771	50.750414	-17.539589
24250		-4.920594	50.556870	-16.927868
24251		-4.671563	50.382739	-16.313527
24252		-4.457204	50.245461	-15.682620
24253		-4.224276	50.114781	-15.045075
24254		-3.969581	49.969706	-14.387766
24255		-3.750038	49.807078	-13.726968
24256		-3.525367	49.634772	-13.069926
24257		-3.284162	49.437201	-12.417460
24258		-3.039099	49.230845	-11.773705
24259		-2.773157	49.031648	-11.133583
24260		-2.468237	48.847446	-10.505008
24261		-2.130454	48.674615	-9.891605
24262		-1.768320	48.517896	-9.288410
24263		-1.388486	48.343644	-8.686611
24264		-1.005496	48.159580	-8.080593
24265		-0.613452	47.960607	-7.469070
24266		-0.222126	47.748704	-6.858464
24267		0.176333	47.543483	-6.249688
24268		0.577097	47.354419	-5.649700
24269		0.957961	47.182975	-5.059251
24270		1.307361	47.012937	-4.482550
24271		1.641525	46.849402	-3.912780
24272		1.933346	46.688296	-3.352718
24273		2.193724	46.533391	-2.793238
24274		2.438710	46.388846	-2.236381
24275		2.678933	46.247806	-1.694732
24276		2.943333	46.099911	-1.157794
24277		3.163391	45.956456	-0.637798
24278		3.384803	45.806693	-0.133534
24279		3.627988	45.646479	0.355228
24280		3.881987	45.498293	0.839131
24281		4.166704	45.368813	1.332002
24282		4.432751	45.246269	1.832455
24283		4.685246	45.123098	2.331272
24284		4.919832	44.981690	2.816112
24285		5.130709	44.813566	3.282691
24286		5.316478	44.628366	3.739951
24287		5.484619	44.429548	4.174136
24288		5.671802	44.211614	4.592973
24289		5.869643	44.001908	5.003295
24290		6.095531	43.815361	5.405393
24291		6.344594	43.631962	5.801027
24292		6.590784	43.449449	6.199295
24293		6.816738	43.259571	6.592670
24294		7.045491	43.043267	6.984139
24295		7.247990	42.826081	7.368279
24296		7.441832	42.615849	7.743843
24297		7.663952	42.409216	8.104201
24298		7.890208	42.209663	8.453991
24299		8.083914	42.003761	8.800091
24300		8.277605	41.791882	9.155429
24301		8.480634	41.586638	9.523609
24302		8.674847	41.385995	9.893168
24303		8.882494	41.180391	10.249822
24304		9.085214	40.982356	10.588677
24305		9.262716	40.783624	10.900595
24306		9.437809	40.594897	11.194483
24307		9.598898	40.400691	11.481736
24308		9.719876	40.212403	11.770823
24309		9.831209	40.029072	12.060399
24310		9.919079	39.841899	12.348664
24311		10.019557	39.656499	12.632369
24312		10.106990	39.471799	12.911470
24313		10.197724	39.290906	13.181674
24314		10.288855	39.112157	13.446577
24315		10.394167	38.937164	13.703610
24316		10.510031	38.767212	13.958557
24317		10.620000	38.596890	14.206398
24318		10.724869	38.436070	14.445109
24319		10.853694	38.282521	14.668611
24320		10.993937	38.138939	14.880903
24321		11.122534	38.006759	15.088904
24322		11.272810	37.878852	15.296068
24323		11.415545	37.751684	15.501207
24324		11.529292	37.621612	15.706663
24325		11.633121	37.483603	15.904960
24326		11.721509	37.339239	16.103567
24327		11.801453	37.191118	16.299824
24328		11.878604	37.045080	16.494214
24329		11.966618	36.903287	16.682325
24330		12.093702	36.753039	16.867934
24331		12.229170	36.598662	17.055291
24332		12.355064	36.454853	17.239302
24333		12.504816	36.324859	17.425768
24334		12.657785	36.197943	17.614376
24335		12.804349	36.082973	17.803079
24336		12.940963	35.950749	17.978641
24337		13.031296	35.804504	18.142449
24338		13.111681	35.685483	18.306600
24339		13.212474	35.575596	18.477972
24340		13.322987	35.463236	18.649172
24341		13.463658	35.340508	18.816211
24342		13.633702	35.195437	18.969670
24343		13.812018	35.061135	19.107619
24344		13.994932	34.955801	19.232408
24345		14.171181	34.891952	19.340398
24346		14.323122	34.874040	19.423428
24347		14.455093	34.874706	19.490036
24348		14.527458	34.891042	19.557182
24349		14.542506	34.916732	19.622307
24350		14.539979	34.932385	19.673504
24351		14.519663	34.937027	19.705384
24352		14.498995	34.929019	19.715504
24353		14.483321	34.916757	19.712028
24354		14.452073	34.910763	19.707261
24355		14.421503	34.919577	19.712925
24356		14.409484	34.922866	19.735141
24357		14.400047	34.907654	19.766836
24358		14.377840	34.882810	19.807537
24359		14.367156	34.848909	19.847200
24360		14.369827	34.813253	19.888320
24361		14.388968	34.789352	19.938239
24362		14.452006	34.782163	19.998795
24363		14.539087	34.767553	20.058158
24364		14.646039	34.749216	20.122518
24365		14.740047	34.730451	20.180593
24366		14.823023	34.708100	20.231206
24367		14.886101	34.690678	20.280219
24368		14.941990	34.685641	20.324873
24369		14.994928	34.691275	20.360688
24370		15.035070	34.696449	20.389862
24371		15.058930	34.700938	20.414258
24372		15.055430	34.701651	20.439792
24373		15.034004	34.706779	20.463288
24374		14.999307	34.706608	20.478405
24375		14.951210	34.704703	20.488523
24376		14.906862	34.708699	20.495247
24377		14.879870	34.713979	20.497353
24378		14.872960	34.709459	20.502516
24379		14.870561	34.705642	20.512832
24380		14.881542	34.696455	20.528738
24381		14.898129	34.678520	20.542480
24382		14.910755	34.662083	20.563119
24383		14.910954	34.650123	20.579353
24384		14.911401	34.655103	20.601368
24385		14.944067	34.668331	20.631505
24386		14.997687	34.664716	20.663628
24387		15.043269	34.653537	20.700372
24388		15.081078	34.632703	20.733013
24389		15.093019	34.611525	20.757616
24390		15.093088	34.595043	20.780768
24391		15.090599	34.589988	20.802426
24392		15.107349	34.591451	20.828391
24393		15.141802	34.591718	20.851761
24394		15.188687	34.576930	20.869590
24395		15.212302	34.551498	20.877959
24396		15.207221	34.536075	20.886429
24397		15.200604	34.529644	20.900404
24398		15.177687	34.540887	20.916264
24399		15.169180	34.558388	20.937021
24400		15.152015	34.578316	20.961497
24401		15.120630	34.596977	20.980847
24402		15.084603	34.607342	20.990388
24403		15.065896	34.614449	21.002066
24404		15.064918	34.627964	21.008105
24405		15.095287	34.659126	21.014891
24406		15.118112	34.676766	21.016980
24407		15.135817	34.712251	21.024306
24408		15.142246	34.748800	21.031291
24409		15.110333	34.777199	21.037103
24410		15.052602	34.808488	21.040726
24411		15.006619	34.847654	21.048948
24412		14.971945	34.888768	21.063498
24413		14.969427	34.933405	21.085016
24414		15.013206	34.972848	21.104393
24415		15.060960	35.000460	21.120764
24416		15.103328	35.023881	21.131131
24417		15.129374	35.040728	21.134212
24418		15.140259	35.054036	21.141725
24419		15.129920	35.068162	21.154179
24420		15.115220	35.082615	21.159314
24421		15.093242	35.099385	21.162496
24422		15.072173	35.122022	21.159578
24423		15.076595	35.147801	21.158546
24424		15.095573	35.172836	21.163775
24425		15.113326	35.196569	21.172608
24426		15.135352	35.210718	21.188663
24427		15.161062	35.221976	21.206986
24428		15.179708	35.225328	21.222149
24429		15.200110	35.239561	21.241712
24430		15.232739	35.236687	21.254161
24431		15.237758	35.225477	21.259323
24432		15.236922	35.235920	21.268881
24433		15.238853	35.255267	21.280846
24434		15.255874	35.281316	21.300299
24435		15.267226	35.311121	21.316321
24436		15.267638	35.329696	21.337057
24437		15.265657	35.340440	21.352689
24438		15.274929	35.357182	21.360663
24439		15.295740	35.376383	21.365163
24440		15.333838	35.392274	21.372207
24441		15.384255	35.405844	21.383585
24442		15.438817	35.424608	21.396113
24443		15.481607	35.435750	21.404477
24444		15.524546	35.435110	21.414869
24445		15.561534	35.432738	21.430300
24446		15.597030	35.428285	21.443473
24447		15.609767	35.413652	21.456667
24448		15.608584	35.398505	21.466480
24449		15.596191	35.385408	21.472790
24450		15.582786	35.369238	21.475470
24451		15.561508	35.357823	21.470148
24452		15.540239	35.352768	21.460372
24453		15.529994	35.352646	21.450870
24454		15.524283	35.351920	21.435813
24455		15.522124	35.352834	21.422716
24456		15.522269	35.345365	21.407458
24457		15.501120	35.336616	21.387875
24458		15.482368	35.333878	21.371230
24459		15.458629	35.338682	21.357741
24460		15.466520	35.354856	21.351001
24461		15.478933	35.359280	21.343904
24462		15.494105	35.371515	21.344385
24463		15.503447	35.383223	21.345557
24464		15.516415	35.385637	21.342018
24465		15.540804	35.387856	21.336989
24466		15.572303	35.389061	21.328202
24467		15.589866	35.381332	21.312051
24468		15.592313	35.382808	21.296867
24469		15.588760	35.393834	21.285256
24470		15.586525	35.408496	21.279089
24471		15.601192	35.430159	21.283304
24472		15.607466	35.445378	21.277152
24473		15.604452	35.460245	21.257056
24474		15.618268	35.487694	21.228499
24475		15.650159	35.527559	21.191018
24476		15.674583	35.577899	21.147532
24477		15.704169	35.621848	21.091960
24478		15.695047	35.666662	21.026083
24479		15.721652	35.712800	20.960326
24480		15.759631	35.754806	20.891075
24481		15.805185	35.807359	20.814585
24482		15.877438	35.863657	20.725306
24483		15.995155	35.928352	20.624201
24484		16.149602	36.009103	20.507120
24485		16.344728	36.097756	20.375960
24486		16.549950	36.199747	20.246815
24487		16.732374	36.314068	20.130511
24488		16.886773	36.429877	20.024593
24489		16.957494	36.539537	19.933279
24490		17.000442	36.638347	19.854936
24491		17.042159	36.722560	19.773395
24492		17.039554	36.794001	19.675670
24493		17.019505	36.861619	19.551648
24494		16.995304	36.936850	19.410811
24495		16.982773	37.020286	19.256428
24496		16.990222	37.112315	19.095168
24497		17.013669	37.219950	18.927001
24498		17.025563	37.340160	18.752704
24499		17.040843	37.469740	18.565578
24500		17.059236	37.607263	18.364795
24501		17.064441	37.748029	18.152019
24502		17.056521	37.892911	17.926169
24503		17.022538	38.044390	17.694161
24504		16.939749	38.205016	17.454081
24505		16.825147	38.360647	17.200474
24506		16.659797	38.497933	16.935866
24507		16.460483	38.629801	16.664223
24508		16.241179	38.754384	16.382070
24509		16.015856	38.882241	16.097420
24510		15.816791	39.024050	15.812250
24511		15.652981	39.187224	15.519691
24512		15.518417	39.358845	15.205555
24513		15.406131	39.533508	14.863325
24514		15.284911	39.711815	14.495419
24515		15.167866	39.894166	14.122938
24516		14.998246	40.075577	13.755072
24517		14.833974	40.271305	13.410247
24518		14.714914	40.461655	13.102081
24519		14.583888	40.647407	12.808232
24520		14.472270	40.832243	12.525081
24521		14.354465	41.006497	12.240340
24522		14.222763	41.161782	11.947159
24523		14.081780	41.296181	11.635583
24524		13.933725	41.406788	11.316398
24525		13.804132	41.499559	10.996760
24526		13.694776	41.581149	10.685129
24527		13.609983	41.669117	10.393508
24528		13.540506	41.767431	10.113665
24529		13.472443	41.876698	9.837506
24530		13.385733	41.994220	9.564524
24531		13.263160	42.112061	9.285180
24532		13.107633	42.231698	9.006747
24533		12.908037	42.355978	8.715581
24534		12.671518	42.484887	8.419882
24535		12.420844	42.627490	8.118840
24536		12.173970	42.789416	7.807903
24537		11.939163	42.964686	7.481152
24538		11.730775	43.150123	7.139141
24539		11.538449	43.350639	6.775237
24540		11.354467	43.558979	6.393362
24541		11.182586	43.770043	5.995798
24542		11.010535	43.980695	5.576376
24543		10.828048	44.183552	5.134243
24544		10.632607	44.377266	4.663095
24545		10.416131	44.574856	4.157944
24546		10.188705	44.782180	3.626341
24547		9.945160	44.997837	3.068444
24548		9.668778	45.223617	2.482762
24549		9.366074	45.455811	1.872591
24550		9.046631	45.692525	1.256980
24551		8.693739	45.928613	0.627183
24552		8.314425	46.170706	-0.013535
24553		7.906164	46.423830	-0.663710
24554		7.484900	46.675611	-1.315486
24555		7.068343	46.909595	-1.964616
24556		6.652365	47.132490	-2.603788
24557		6.258839	47.365860	-3.220330
24558		5.879642	47.611784	-3.808514
24559		5.522487	47.840454	-4.373200
24560		5.186758	48.055947	-4.923279
24561		4.851933	48.278058	-5.474347
24562		4.510481	48.492868	-6.022259
24563		4.151343	48.699169	-6.573205
24564		3.788553	48.909969	-7.120324
24565		3.432671	49.126919	-7.654327
24566		3.088244	49.345228	-8.166600
24567		2.760194	49.563790	-8.667569
24568		2.439615	49.771838	-9.168204
24569		2.117160	49.977314	-9.672863
24570		1.771850	50.187685	-10.178712
24571		1.381356	50.400304	-10.691029
24572		0.950124	50.614769	-11.210477
24573		0.503227	50.830267	-11.742008
24574		0.044543	51.039361	-12.296721
24575		-0.403694	51.232584	-12.863581
24576		-0.835611	51.401443	-13.443733
24577		-1.275815	51.566959	-14.044007
24578		-1.735801	51.747292	-14.649941
24579		-2.225001	51.938507	-15.259689
24580		-2.722740	52.140363	-15.865225
24581		-3.216981	52.343648	-16.467580
24582		-3.700946	52.548484	-17.062559
24583		-4.169615	52.754057	-17.648797
24584		-4.644989	52.962968	-18.231752
24585		-5.143633	53.176609	-18.818910
24586		-5.656526	53.384369	-19.407867
24587		-6.181814	53.581915	-20.000497
24588		-6.718431	53.780846	-20.589360
24589		-7.256243	53.972483	-21.161472
24590		-7.797566	54.157278	-21.720329
24591		-8.328427	54.346191	-22.268792
24592		-8.848660	54.543983	-22.812708
24593		-9.360509	54.744390	-23.350990
24594		-9.844829	54.942755	-23.877552
24595		-10.316116	55.135239	-24.407471
24596		-10.774692	55.318209	-24.930856
24597		-11.205812	55.470221	-25.441048
24598		-11.614057	55.604010	-25.946823
24599		-12.051022	55.742773	-26.474516
24600		-12.517893	55.902995	-27.010514
24601		-12.988415	56.083581	-27.546959
24602		-13.445710	56.269144	-28.072768
24603		-13.887826	56.455202	-28.591554
24604		-14.315098	56.629733	-29.095177
24605		-14.728395	56.794954	-29.580730
24606		-15.133334	56.949290	-30.046511
24607		-15.560501	57.099722	-30.509452
24608		-16.018985	57.248243	-30.971440
24609		-16.487174	57.393512	-31.429345
24610		-16.939648	57.532627	-31.877907
24611		-17.348796	57.665838	-32.312140
24612		-17.700532	57.787343	-32.724944
24613		-18.033695	57.905069	-33.138296
24614		-18.359348	58.021471	-33.547803
24615		-18.676223	58.134827	-33.960200
24616		-18.975070	58.238963	-34.356590
24617		-19.250406	58.337479	-34.737373
24618		-19.492993	58.423565	-35.089752
24619		-19.685602	58.484150	-35.403427
24620		-19.861806	58.531082	-35.714398
24621		-20.073551	58.592711	-36.041298
24622		-20.321017	58.663830	-36.375177
24623		-20.581099	58.742375	-36.703095
24624		-20.837168	58.822370	-37.015534
24625		-21.081919	58.904106	-37.316095
24626		-21.308296	58.986029	-37.596566
24627		-21.504790	59.065350	-37.857405
24628		-21.686953	59.140395	-38.106985
24629		-21.870099	59.209687	-38.361794
24630		-22.061901	59.277874	-38.613029
24631		-22.256549	59.346038	-38.855570
24632		-22.431052	59.407935	-39.078377
24633		-22.582512	59.466842	-39.286686
24634		-22.712479	59.517714	-39.474690
24635		-22.812568	59.555046	-39.642229
24636		-22.898744	59.586778	-39.803679
24637		-23.023045	59.624520	-39.988232
24638		-23.165319	59.668829	-40.171902
24639		-23.310886	59.713952	-40.345737
24640		-23.443407	59.762939	-40.501338
24641		-23.554746	59.809029	-40.637833
24642		-23.637197	59.848986	-40.743141
24643		-23.711941	59.889312	-40.828981
24644		-23.795937	59.927345	-40.905722
24645		-23.863747	59.966087	-40.959156
24646		-23.911339	60.006488	-40.992808
24647		-23.936591	60.047598	-41.007728
24648		-23.944859	60.089776	-41.011141
24649		-23.953654	60.128489	-41.027457
24650		-23.976299	60.160160	-41.061166
24651		-24.011745	60.185387	-41.103305
24652		-24.063936	60.209117	-41.152737
24653		-24.120039	60.237160	-41.197628
24654		-24.166278	60.264886	-41.225192
24655		-24.224224	60.302535	-41.246730
24656		-24.295572	60.344647	-41.258892
24657		-24.382149	60.382575	-41.273330
24658		-24.471611	60.410299	-41.292928
24659		-24.565754	60.433124	-41.331326
24660		-24.644862	60.453961	-41.368236
24661		-24.697887	60.473311	-41.401216
24662		-24.719069	60.503205	-41.422366
24663		-24.733691	60.541522	-41.445860
24664		-24.746375	60.580889	-41.462222
24665		-24.761140	60.613313	-41.473315
24666		-24.783017	60.634314	-41.483272
24667		-24.817265	60.651701	-41.505034
24668		-24.852690	60.669017	-41.525751
24669		-24.888888	60.692385	-41.556485
24670		-24.909585	60.715081	-41.582080
24671		-24.920798	60.734763	-41.603324
24672		-24.924680	60.760372	-41.621645
24673		-24.935961	60.781914	-41.637118
24674		-24.951998	60.798901	-41.652886
24675		-24.983820	60.816892	-41.680272
24676		-25.031249	60.832639	-41.715716
24677		-25.067915	60.841178	-41.745887
24678		-25.093489	60.848421	-41.766126
24679		-25.120286	60.856403	-41.777889
24680		-25.143937	60.865126	-41.785280
24681		-25.165395	60.871903	-41.793421
24682		-25.181196	60.875040	-41.798386
24683		-25.206299	60.876065	-41.810737
24684		-25.227903	60.879405	-41.829455
24685		-25.247750	60.883743	-41.862137
24686		-25.272139	60.898208	-41.904175
24687		-25.295460	60.914453	-41.945870
24688		-25.320775	60.935681	-41.981932
24689		-25.354330	60.954298	-42.013303
24690		-25.396745	60.966789	-42.036201
24691		-25.451787	60.981285	-42.068681
24692		-25.511942	60.995665	-42.102681
24693		-25.569349	61.003647	-42.139884
24694		-25.621305	61.006912	-42.187912
24695		-25.683069	61.013936	-42.256270
24696		-25.752864	61.019596	-42.336142
24697		-25.812342	61.017359	-42.407858
24698		-25.865223	61.020485	-42.469978
24699		-25.937973	61.036531	-42.544699
24700		-26.020072	61.057991	-42.625699
24701		-26.113287	61.074639	-42.704250
24702		-26.194882	61.087552	-42.765836
24703		-26.274242	61.106595	-42.831961
24704		-26.337014	61.127526	-42.893532
24705		-26.376279	61.149030	-42.951967
24706		-26.388328	61.172470	-42.998916
24707		-26.385042	61.196676	-43.035106
24708		-26.371861	61.225645	-43.056857
24709		-26.351904	61.256561	-43.074818
24710		-26.335385	61.278091	-43.088690
24711		-26.329366	61.292422	-43.111652
24712		-26.315364	61.299773	-43.128585
24713		-26.295268	61.303705	-43.136817
24714		-26.280557	61.313158	-43.148779
24715		-26.268024	61.324723	-43.158987
24716		-26.244861	61.333271	-43.147384
24717		-26.207458	61.341427	-43.125886
24718		-26.160016	61.347492	-43.091032
24719		-26.120204	61.346625	-43.068605
24720		-26.100292	61.337203	-43.062256
24721		-26.095557	61.318623	-43.059602
24722		-26.083179	61.301771	-43.048678
24723		-26.072662	61.296751	-43.042179
24724		-26.050660	61.292115	-43.032674
24725		-26.021659	61.277719	-43.017945
24726		-26.002285	61.260647	-43.010253
24727		-25.975844	61.243386	-42.993600
24728		-25.958581	61.231534	-42.983058
24729		-25.959429	61.223941	-42.982700
24730		-25.969846	61.213816	-42.980842
24731		-25.984742	61.206570	-42.978322
24732		-25.998589	61.202324	-42.977372
24733		-26.011472	61.200303	-42.977673
24734		-26.015444	61.199498	-42.984837
24735		-26.004212	61.199810	-42.987343
24736		-25.971369	61.203607	-42.984468
24737		-25.936828	61.208046	-42.985032
24738		-25.907279	61.210713	-42.988474
24739		-25.881528	61.211350	-42.991936
24740		-25.849582	61.213228	-42.985785
24741		-25.814731	61.214740	-42.973694
24742		-25.777125	61.218701	-42.950270
24743		-25.745469	61.231564	-42.925750
24744		-25.718885	61.247763	-42.900210
24745		-25.695490	61.262561	-42.881694
24746		-25.677606	61.273406	-42.874794
24747		-25.647472	61.278973	-42.864959
24748		-25.612128	61.274971	-42.857913
24749		-25.565121	61.266254	-42.846267
24750		-25.533150	61.261189	-42.841425
24751		-25.519977	61.252647	-42.849956
24752		-25.522449	61.242322	-42.868521
24753		-25.544584	61.235068	-42.903007
24754		-25.605563	61.240789	-42.950847
24755		-25.682579	61.250485	-42.988957
24756		-25.766275	61.262816	-43.049980
24757		-25.865795	61.276471	-43.134221
24758		-25.915800	61.276504	-43.203799
24759		-25.918505	61.266741	-43.235145
24760		-25.909747	61.260988	-43.256594
24761		-25.912478	61.263240	-43.298944
24762		-25.958601	61.276600	-43.374147
24763		-26.040364	61.297933	-43.462101
24764		-26.150038	61.329315	-43.562099
24765		-26.258373	61.363039	-43.660195
24766		-26.375595	61.392759	-43.754693
24767		-26.482822	61.418984	-43.837934
24768		-26.575995	61.444371	-43.914983
24769		-26.660176	61.464833	-43.983605
24770		-26.725049	61.484383	-44.037763
24771		-26.765024	61.500365	-44.081271
24772		-26.772778	61.516160	-44.113832
24773		-26.766695	61.526890	-44.138727
24774		-26.743825	61.536879	-44.155249
24775		-26.707645	61.551587	-44.152730
24776		-26.668790	61.573123	-44.135831
24777		-26.632441	61.598970	-44.105344
24778		-26.627539	61.621142	-44.066667
24779		-26.638945	61.633026	-44.024145
24780		-26.647066	61.634862	-43.969672
24781		-26.670206	61.630298	-43.922535
24782		-26.690840	61.615131	-43.879573
24783		-26.711966	61.591143	-43.836845
24784		-26.738336	61.568977	-43.794377
24785		-26.767722	61.561159	-43.759871
24786		-26.798033	61.561003	-43.734591
24787		-26.811792	61.557152	-43.687942
24788		-26.837302	61.539730	-43.637894
24789		-26.864575	61.505218	-43.580349
24790		-26.903223	61.458772	-43.525575
24791		-26.942486	61.405210	-43.477953
24792		-26.976843	61.341824	-43.436174
24793		-26.997903	61.272515	-43.388244
24794		-26.997881	61.206286	-43.331942
24795		-26.985809	61.142522	-43.266622
24796		-26.986086	61.090599	-43.204918
24797		-26.999941	61.063883	-43.157856
24798		-27.032664	61.065303	-43.130596
24799		-27.057099	61.062737	-43.095524
24800		-27.056180	61.039113	-43.024982
24801		-27.018490	61.003360	-42.927297
24802		-26.968915	60.969203	-42.831215
24803		-26.915329	60.941294	-42.744904
24804		-26.836495	60.915957	-42.649873
24805		-26.748138	60.887391	-42.554656
24806		-26.690874	60.863063	-42.479442
24807		-26.636492	60.837061	-42.423365
24808		-26.569963	60.805668	-42.365905
24809		-26.519594	60.770385	-42.309077
24810		-26.452254	60.726007	-42.235048
24811		-26.352905	60.674252	-42.141431
24812		-26.223145	60.623470	-42.025139
24813		-26.061129	60.585095	-41.885158
24814		-25.884281	60.550244	-41.727194
24815		-25.685902	60.509868	-41.552328
24816		-25.472182	60.468778	-41.372351
24817		-25.252934	60.424511	-41.187448
24818		-25.004121	60.381138	-40.986854
24819		-24.734079	60.344115	-40.781315
24820		-24.459522	60.308855	-40.571651
24821		-24.156890	60.271369	-40.343350
24822		-23.822027	60.228909	-40.096434
24823		-23.474561	60.183458	-39.846524
24824		-23.126936	60.133768	-39.597466
24825		-22.777610	60.072353	-39.346728
24826		-22.451903	60.001595	-39.106774
24827		-22.148657	59.919492	-38.875995
24828		-21.841476	59.825912	-38.635753
24829		-21.539409	59.719728	-38.385879
24830		-21.238106	59.596189	-38.118599
24831		-20.951859	59.460702	-37.842655
24832		-20.696080	59.316909	-37.568207
24833		-20.461069	59.161405	-37.288050
24834		-20.246324	58.998114	-37.001784
24835		-20.042543	58.832232	-36.712453
24836		-19.847994	58.661056	-36.414936
24837		-19.670281	58.489892	-36.113869
24838		-19.532361	58.324504	-35.814664
24839		-19.396604	58.161413	-35.513323
24840		-19.244634	57.984946	-35.191480
24841		-19.090620	57.796742	-34.847645
24842		-18.913218	57.593819	-34.476061
24843		-18.705992	57.371368	-34.082336
24844		-18.468354	57.134207	-33.670646
24845		-18.208371	56.888460	-33.239170
24846		-17.950759	56.643053	-32.804005
24847		-17.696934	56.406124	-32.369356
24848		-17.435163	56.175396	-31.933858
24849		-17.170355	55.941545	-31.492881
24850		-16.906044	55.705331	-31.033567
24851		-16.638760	55.471802	-30.559861
24852		-16.370081	55.239918	-30.070585
24853		-16.092570	55.005633	-29.546887
24854		-15.804611	54.770749	-29.008893
24855		-15.500724	54.536095	-28.457006
24856		-15.185216	54.295303	-27.887471
24857		-14.866441	54.056035	-27.305862
24858		-14.535774	53.828877	-26.716774
24859		-14.196987	53.605324	-26.114250
24860		-13.889849	53.392202	-25.508434
24861		-13.597499	53.183295	-24.911482
24862		-13.300558	52.976828	-24.326616
24863		-12.997931	52.771931	-23.738614
24864		-12.694557	52.567118	-23.131002
24865		-12.388668	52.360070	-22.506237
24866		-12.057482	52.155863	-21.863824
24867		-11.709938	51.953036	-21.202992
24868		-11.337308	51.754698	-20.532447
24869		-10.945983	51.553401	-19.871154
24870		-10.541583	51.351066	-19.226071
24871		-10.142232	51.143941	-18.593474
24872		-9.740200	50.942600	-17.959396
24873		-9.338267	50.758000	-17.329227
24874		-8.944450	50.581621	-16.705303
24875		-8.544425	50.406941	-16.077403
24876		-8.160906	50.245286	-15.449304
24877		-7.772737	50.081365	-14.816166
24878		-7.397530	49.911651	-14.176693
24879		-7.019319	49.752009	-13.531775
24880		-6.647736	49.585355	-12.892416
24881		-6.275809	49.414685	-12.259952
24882		-5.906853	49.251150	-11.642397
24883		-5.553699	49.108876	-11.055188
24884		-5.197851	48.970591	-10.490502
24885		-4.831125	48.822315	-9.935685
24886		-4.471658	48.677101	-9.395071
24887		-4.108304	48.525513	-8.867564
24888		-3.746263	48.368740	-8.354152
24889		-3.349156	48.210725	-7.849922
24890		-2.948679	48.064233	-7.366829
24891		-2.525419	47.924439	-6.900114
24892		-2.097153	47.794949	-6.444077
24893		-1.680709	47.683925	-5.998380
24894		-1.269517	47.584610	-5.546066
24895		-0.885532	47.503789	-5.083916
24896		-0.517937	47.435124	-4.618970
24897		-0.143189	47.350706	-4.149497
24898		0.206349	47.256748	-3.682735
24899		0.560526	47.154165	-3.224550
24900		0.902800	47.045628	-2.776530
24901		1.235766	46.942434	-2.337993
24902		1.541419	46.856396	-1.917390
24903		1.856191	46.768460	-1.517835
24904		2.176009	46.657891	-1.123747
24905		2.463276	46.526335	-0.736928
24906		2.721071	46.383796	-0.360979
24907		2.979087	46.225763	0.001220
24908		3.242965	46.071928	0.360206
24909		3.485662	45.923910	0.712235
24910		3.723520	45.795060	1.062215
24911		3.947528	45.677087	1.409525
24912		4.162963	45.558830	1.766039
24913		4.355549	45.437904	2.130675
24914		4.518803	45.305127	2.489714
24915		4.663566	45.143652	2.833557
24916		4.788171	44.954708	3.176700
24917		4.903186	44.777754	3.514971
24918		5.040429	44.613303	3.845725
24919		5.202291	44.450492	4.165733
24920		5.379241	44.289883	4.481470
24921		5.571575	44.112561	4.804397
24922		5.784961	43.922584	5.143429
24923		6.004874	43.713438	5.492434
24924		6.229060	43.505446	5.849275
24925		6.445143	43.317354	6.202133
24926		6.669665	43.154346	6.551970
24927		6.869464	42.997689	6.884988
24928		7.049685	42.841424	7.207526
24929		7.231206	42.691786	7.527351
24930		7.421081	42.547658	7.843336
24931		7.633102	42.410312	8.154151
24932		7.847192	42.277388	8.454476
24933		8.038212	42.152024	8.739813
24934		8.206297	42.048905	9.018475
24935		8.379761	41.945675	9.281646
24936		8.553237	41.827798	9.539032
24937		8.727010	41.700139	9.793635
24938		8.928365	41.579747	10.050858
24939		9.137430	41.462547	10.298547
24940		9.351835	41.342433	10.542416
24941		9.563370	41.232086	10.776925
24942		9.766846	41.135330	11.005715
24943		9.963837	41.023220	11.231197
24944		10.153569	40.897386	11.455044
24945		10.319339	40.768500	11.673459
24946		10.478364	40.638539	11.882978
24947		10.620889	40.504512	12.085054
24948		10.748406	40.378748	12.289723
24949		10.857622	40.255185	12.501204
24950		10.985777	40.113360	12.716961
24951		11.097198	39.952474	12.941092
24952		11.191565	39.787187	13.170576
24953		11.288128	39.624991	13.397814
24954		11.373379	39.461549	13.617866
24955		11.460851	39.308317	13.826749
24956		11.554384	39.162189	14.027996
24957		11.634143	39.020288	14.218803
24958		11.730433	38.881326	14.409374
24959		11.836727	38.742329	14.593779
24960		11.954291	38.612604	14.779585
24961		12.063728	38.489324	14.960493
24962		12.190412	38.367079	15.141816
24963		12.309483	38.256583	15.321429
24964		12.438936	38.157727	15.503510
24965		12.578690	38.050176	15.680137
24966		12.707801	37.947382	15.848480
24967		12.834961	37.844076	16.008719
24968		12.949659	37.741633	16.158941
24969		13.068479	37.639977	16.305729
24970		13.185902	37.550688	16.450570
24971		13.312583	37.460972	16.590587
24972		13.432964	37.372593	16.726988
24973		13.552957	37.280491	16.858302
24974		13.671334	37.191168	16.996242
24975		13.776911	37.104910	17.135075
24976		13.884659	37.004775	17.269992
24977		13.993670	36.899964	17.398358
24978		14.088331	36.804568	17.523321
24979		14.172327	36.709708	17.647598
24980		14.232176	36.614524	17.762753
24981		14.281384	36.526383	17.873220
24982		14.315227	36.436533	17.982055
24983		14.332625	36.345788	18.086846
24984		14.341768	36.251498	18.180887
24985		14.341170	36.155364	18.271264
24986		14.330199	36.061772	18.364789
24987		14.316444	35.963864	18.462310
24988		14.322854	35.866999	18.568552
24989		14.334132	35.776043	18.682988
24990		14.366841	35.687855	18.801549
24991		14.402999	35.593054	18.918350
24992		14.465043	35.500847	19.038561
24993		14.533073	35.420587	19.154320
24994		14.611588	35.345403	19.263576
24995		14.711062	35.270721	19.379512
24996		14.821652	35.203205	19.502821
24997		14.933518	35.132715	19.621481
24998		15.038119	35.063684	19.726799
24999		15.137777	34.999062	19.815701
25000		15.214371	34.937625	19.897253
25001		15.273127	34.888983	19.974840
25002		15.317673	34.852370	20.051642
25003		15.346961	34.807757	20.122420
25004		15.350711	34.763513	20.185484
25005		15.330240	34.721595	20.243184
25006		15.291508	34.677314	20.295913
25007		15.237729	34.644462	20.343391
25008		15.181108	34.623304	20.379736
25009		15.126156	34.600163	20.410045
25010		15.082375	34.563619	20.441925
25011		15.039191	34.532979	20.474985
25012		15.027182	34.504697	20.504365
25013		15.032709	34.484812	20.538319
25014		15.040246	34.473005	20.574878
25015		15.049174	34.456072	20.606152
25016		15.050080	34.438911	20.639238
25017		15.049723	34.432225	20.677118
25018		15.053857	34.421679	20.719254
25019		15.032355	34.398392	20.756939
25020		14.987993	34.374655	20.792276
25021		14.950331	34.349279	20.822680
25022		14.925019	34.326912	20.846048
25023		14.922796	34.311879	20.866282
25024		14.941094	34.315214	20.892485
25025		14.957010	34.313855	20.918415
25026		14.961138	34.317301	20.952845
25027		14.946594	34.316864	20.995195
25028		14.934613	34.305905	21.042883
25029		14.902286	34.281132	21.086938
25030		14.881733	34.241479	21.134260
25031		14.886966	34.195346	21.189126
25032		14.917087	34.161813	21.251788
25033		14.958572	34.122561	21.315995
25034		14.998998	34.081171	21.390501
25035		15.041965	34.037251	21.477987
25036		15.074634	33.994815	21.581841
25037		15.102381	33.942522	21.686701
25038		15.110045	33.876412	21.782702
25039		15.092540	33.814337	21.867548
25040		15.069805	33.752354	21.940093
25041		15.049161	33.705775	22.013954
25042		15.027731	33.663733	22.082809
25043		15.001240	33.620481	22.144240
25044		14.967388	33.583928	22.205016
25045		14.938684	33.557983	22.263082
25046		14.906825	33.534702	22.313417
25047		14.856714	33.514295	22.354928
25048		14.805097	33.489381	22.395339
25049		14.752772	33.474011	22.439653
25050		14.721710	33.460719	22.484290
25051		14.710799	33.452655	22.526829
25052		14.711270	33.443728	22.569257
25053		14.713160	33.436500	22.595737
25054		14.702207	33.434007	22.611073
25055		14.671048	33.435705	22.618735
25056		14.628473	33.434448	22.631300
25057		14.588535	33.423501	22.650775
25058		14.550984	33.411492	22.674376
25059		14.507433	33.403446	22.701202
25060		14.488734	33.401595	22.730254
25061		14.498797	33.406617	22.762532
25062		14.540828	33.421871	22.799677
25063		14.606646	33.444814	22.834226
25064		14.690048	33.466971	22.869289
25065		14.752447	33.490155	22.901296
25066		14.819494	33.495823	22.930141
25067		14.851949	33.490018	22.947207
25068		14.871865	33.482730	22.964573
25069		14.889255	33.476917	22.974658
25070		14.904698	33.475708	22.986939
25071		14.918740	33.476795	22.996496
25072		14.915595	33.477852	23.001199
25073		14.912482	33.484306	23.001696
25074		14.894430	33.497515	22.995910
25075		14.873995	33.512536	22.982882
25076		14.848702	33.534472	22.966592
25077		14.822826	33.559017	22.952006
25078		14.802698	33.565111	22.939743
25079		14.796832	33.560792	22.935198
25080		14.779350	33.564838	22.935477
25081		14.755950	33.560306	22.932644
25082		14.746249	33.548008	22.930315
25083		14.755581	33.538559	22.934162
25084		14.767377	33.535850	22.930697
25085		14.787936	33.555214	22.913395
25086		14.824489	33.574249	22.880246
25087		14.877737	33.609784	22.856005
25088		15.012327	33.648082	22.848057
25089		15.161058	33.650914	22.837104
25090		15.279405	33.641757	22.811505
25091		15.425345	33.644408	22.776048
25092		15.622454	33.666661	22.729994
25093		15.845336	33.701443	22.680832
25094		16.089550	33.744436	22.638003
25095		16.305339	33.777431	22.608962
25096		16.492608	33.797804	22.596719
25097		16.620395	33.798739	22.587129
25098		16.673506	33.799643	22.571490
25099		16.697929	33.807535	22.551978
25100		16.711587	33.838577	22.546611
25101		16.701258	33.889361	22.549902
25102		16.714873	33.930944	22.556958
25103		16.693063	33.957639	22.556746
25104		16.633197	33.973281	22.544642
25105		16.583016	33.982106	22.526501
25106		16.566076	34.007085	22.508712
25107		16.558328	34.042029	22.484191
25108		16.578704	34.085905	22.460959
25109		16.597424	34.142202	22.440135
25110		16.615661	34.204562	22.427176
25111		16.658824	34.249517	22.415351
25112		16.680809	34.290509	22.398991
25113		16.684644	34.331042	22.371069
25114		16.678966	34.369925	22.322132
25115		16.666792	34.411940	22.256680
25116		16.660619	34.445916	22.169831
25117		16.626942	34.479788	22.072322
25118		16.626798	34.520750	21.978738
25119		16.675919	34.569807	21.882638
25120		16.727344	34.645101	21.782879
25121		16.808762	34.745098	21.678411
25122		16.869483	34.852495	21.574910
25123		16.901288	34.921476	21.489249
25124		16.893021	34.958511	21.435283
25125		16.890212	34.968972	21.406913
25126		16.879769	34.959321	21.388793
25127		16.845972	34.941897	21.365025
25128		16.839663	34.935869	21.329653
25129		16.883440	34.948503	21.274496
25130		16.994281	34.987745	21.203492
25131		17.131209	35.058177	21.126732
25132		17.214984	35.152456	21.053238
25133		17.309315	35.237577	20.996904
25134		17.373460	35.306907	20.948876
25135		17.403724	35.366026	20.896651
25136		17.403243	35.410925	20.826618
25137		17.377933	35.458527	20.738469
25138		17.364933	35.522003	20.633979
25139		17.381745	35.602950	20.510814
25140		17.437127	35.701837	20.369265
25141		17.521378	35.814015	20.218900
25142		17.610273	35.938205	20.070640
25143		17.659500	36.072151	19.919555
25144		17.704861	36.211121	19.767718
25145		17.713795	36.345929	19.609251
25146		17.697603	36.479371	19.446056
25147		17.712405	36.631287	19.295356
25148		17.741516	36.804849	19.137643
25149		17.794390	36.987420	18.957982
25150		17.865158	37.177502	18.751975
25151		17.963406	37.378801	18.536325
25152		18.112160	37.578357	18.328221
25153		18.294843	37.772552	18.132253
25154		18.468923	37.959462	17.943862
25155		18.597020	38.138220	17.760191
25156		18.654282	38.306168	17.573175
25157		18.651472	38.463151	17.376260
25158		18.588781	38.612325	17.177036
25159		18.469372	38.755102	16.973579
25160		18.340857	38.905810	16.767401
25161		18.236341	39.066423	16.550240
25162		18.175156	39.232331	16.322729
25163		18.159787	39.400180	16.085273
25164		18.175944	39.562685	15.820822
25165		18.216590	39.738052	15.540328
25166		18.275650	39.921547	15.254868
25167		18.287236	40.114147	14.965227
25168		18.281136	40.306428	14.674510
25169		18.247125	40.487215	14.371378
25170		18.165260	40.659551	14.054402
25171		18.038329	40.827663	13.716777
25172		17.875402	41.004807	13.367057
25173		17.678536	41.195932	12.995418
25174		17.461608	41.386611	12.594823
25175		17.231231	41.554663	12.140921
25176		17.031471	41.685739	11.654076
25177		16.827657	41.801658	11.168132
25178		16.634158	41.916443	10.697767
25179		16.460774	42.038493	10.246735
25180		16.287223	42.178550	9.806722
25181		16.115570	42.339658	9.377764
25182		15.941347	42.498810	8.951360
25183		15.739916	42.653340	8.522489
25184		15.516929	42.797509	8.094395
25185		15.282913	42.933687	7.663492
25186		15.050928	43.080888	7.236449
25187		14.816384	43.243088	6.816567
25188		14.577028	43.406617	6.399976
25189		14.326208	43.578892	5.994622
25190		14.065591	43.757922	5.610753
25191		13.804589	43.939938	5.234948
25192		13.544562	44.127340	4.867573
25193		13.297126	44.309577	4.497273
25194		13.072964	44.497121	4.130068
25195		12.869760	44.697205	3.765464
25196		12.692732	44.902522	3.399032
25197		12.513615	45.100602	3.020376
25198		12.327607	45.299479	2.639682
25199		12.130728	45.494927	2.256724
25200		11.945527	45.680218	1.888564
25201		11.750984	45.856486	1.526233
25202		11.548304	46.035723	1.170340
25203		11.341791	46.221817	0.811772
25204		11.123048	46.420570	0.455284
25205		10.875598	46.622312	0.078492
25206		10.591180	46.816422	-0.332174
25207		10.265197	47.003843	-0.767648
25208		9.945092	47.179039	-1.206813
25209		9.642472	47.357458	-1.637920
25210		9.330538	47.542395	-2.056075
25211		9.002383	47.731382	-2.468369
25212		8.668591	47.927508	-2.880448
25213		8.320127	48.134059	-3.297836
25214		7.956754	48.336745	-3.726590
25215		7.582478	48.528209	-4.174157
25216		7.198657	48.705428	-4.636878
25217		6.809733	48.872160	-5.119223
25218		6.427066	49.049894	-5.612742
25219		6.049685	49.241520	-6.115431
25220		5.666399	49.441302	-6.625350
25221		5.259291	49.650899	-7.142077
25222		4.814911	49.856090	-7.665541
25223		4.338384	50.053118	-8.201214
25224		3.839069	50.248016	-8.745175
25225		3.330303	50.438433	-9.296841
25226		2.816691	50.630889	-9.851913
25227		2.297013	50.824438	-10.411847
25228		1.780593	51.024898	-10.981217
25229		1.278970	51.234901	-11.567152
25230		0.773168	51.461978	-12.180177
25231		0.243733	51.685604	-12.815762
25232		-0.307143	51.890924	-13.467873
25233		-0.876857	52.076663	-14.125830
25234		-1.444661	52.248546	-14.778220
25235		-2.020935	52.425100	-15.429983
25236		-2.596866	52.620369	-16.073156
25237		-3.178313	52.823443	-16.720905
25238		-3.759779	53.028920	-17.378965
25239		-4.352886	53.236120	-18.064586
25240		-4.924573	53.417561	-18.760792
25241		-5.491422	53.585334	-19.472647
25242		-6.080043	53.752917	-20.188196
25243		-6.704904	53.947286	-20.916100
25244		-7.339500	54.155379	-21.626592
25245		-7.951864	54.360042	-22.332583
25246		-8.562354	54.582301	-23.033098
25247		-9.209641	54.830145	-23.743797
25248		-9.878756	55.079124	-24.446636
25249		-10.553526	55.320380	-25.146015
25250		-11.251035	55.551812	-25.844610
25251		-11.957989	55.774937	-26.548968
25252		-12.622895	55.983293	-27.237503
25253		-13.185352	56.175790	-27.903322
25254		-13.696475	56.377266	-28.540437
25255		-14.217987	56.602009	-29.178718
25256		-14.748827	56.835248	-29.814104
25257		-15.255610	57.048992	-30.437600
25258		-15.731245	57.232376	-31.054385
25259		-16.225723	57.404076	-31.679193
25260		-16.739934	57.575238	-32.295326
25261		-17.266674	57.753578	-32.902451
25262		-17.799704	57.945405	-33.496078
25263		-18.343022	58.143739	-34.092609
25264		-18.910762	58.341533	-34.694939
25265		-19.475583	58.527159	-35.295023
25266		-20.035563	58.696598	-35.891053
25267		-20.589731	58.844023	-36.477246
25268		-21.098746	58.978707	-37.051921
25269		-21.563266	59.093423	-37.611657
25270		-21.989556	59.187408	-38.165309
25271		-22.435630	59.285193	-38.741369
25272		-22.926788	59.386424	-39.337332
25273		-23.438580	59.485972	-39.938081
25274		-23.967614	59.576559	-40.528182
25275		-24.505837	59.660861	-41.102806
25276		-25.058903	59.734945	-41.664439
25277		-25.573441	59.795565	-42.186412
25278		-26.028879	59.848606	-42.677589
25279		-26.494182	59.909822	-43.179235
25280		-26.926252	59.975537	-43.668827
25281		-27.325963	60.035490	-44.131701
25282		-27.695749	60.102363	-44.571733
25283		-28.028504	60.173093	-44.984709
25284		-28.340272	60.245237	-45.373830
25285		-28.626571	60.314519	-45.740655
25286		-28.913191	60.384636	-46.075190
25287		-29.169938	60.452381	-46.376651
25288		-29.369943	60.520219	-46.634227
25289		-29.506766	60.597195	-46.851854
25290		-29.623845	60.692256	-47.038168
25291		-29.735824	60.798824	-47.205011
