// General information: 
//  MT Manager version: 2022.2.0 
//  XDA version: 2022.2.0 build 7381 rev 124627 built on 2023-07-19
// Device information: 
//  DeviceId: 00B447FA
//  ProductCode: MTW2-3A7G6
//  Firmware Version: 4.3.5
//  Hardware Version: 2.0.0
// Device settings: 
//  Filter Profile: human(46.1)
//  Option Flags: Orientation Smoother Disabled, Position/Velocity Smoother Disabled, Continuous Zero Rotation Update Disabled, AHS Disabled, ICC Disabled
// Coordinate system: ENU
PacketCounter	SampleTimeFine	Roll	Pitch	Yaw
12625		102.702028	-72.779046	10.743567
12626		102.696738	-72.781101	10.751836
12627		102.693333	-72.786242	10.758993
12628		102.716625	-72.785996	10.744425
12629		102.719217	-72.783428	10.747520
12630		102.706277	-72.779181	10.754172
12631		102.697069	-72.773864	10.751358
12632		102.680943	-72.768106	10.764445
12633		102.702637	-72.763837	10.747076
12634		102.723227	-72.755097	10.734818
12635		102.722530	-72.752642	10.734387
12636		102.724694	-72.750384	10.726999
12637		102.723586	-72.752668	10.721663
12638		102.745291	-72.754041	10.701769
12639		102.757161	-72.757504	10.689753
12640		102.750271	-72.760932	10.686282
12641		102.743862	-72.764152	10.681160
12642		102.738806	-72.768040	10.671989
12643		102.742261	-72.771382	10.657353
12644		102.768605	-72.772066	10.637576
12645		102.800545	-72.772744	10.613373
12646		102.802539	-72.772813	10.607370
12647		102.802651	-72.771510	10.598665
12648		102.807492	-72.771100	10.583411
12649		102.822585	-72.771479	10.562042
12650		102.827119	-72.769329	10.550361
12651		102.845087	-72.765080	10.527783
12652		102.867123	-72.758623	10.498589
12653		102.884421	-72.750833	10.469245
12654		102.885860	-72.741687	10.456149
12655		102.875742	-72.737099	10.456786
12656		102.866301	-72.729700	10.454259
12657		102.841163	-72.725906	10.462450
12658		102.818428	-72.723050	10.474950
12659		102.814918	-72.723046	10.464700
12660		102.832347	-72.720685	10.448328
12661		102.841951	-72.718030	10.441947
12662		102.829503	-72.716681	10.442653
12663		102.799119	-72.717974	10.441167
12664		102.758842	-72.716090	10.444313
12665		102.701259	-72.712146	10.454895
12666		102.633414	-72.707963	10.457915
12667		102.527756	-72.703032	10.464050
12668		102.387173	-72.695118	10.471450
12669		102.196237	-72.688440	10.495128
12670		102.008935	-72.678317	10.500431
12671		101.778721	-72.672352	10.518976
12672		101.488805	-72.663233	10.551976
12673		101.172819	-72.653927	10.593220
12674		100.850295	-72.642545	10.628218
12675		100.494709	-72.632363	10.678959
12676		100.128609	-72.619560	10.741608
12677		99.775633	-72.605510	10.799512
12678		99.426220	-72.588948	10.856253
12679		99.072115	-72.571240	10.919557
12680		98.693812	-72.550442	11.004594
12681		98.308872	-72.529964	11.098908
12682		97.936194	-72.504140	11.185835
12683		97.556753	-72.474800	11.279588
12684		97.165887	-72.443611	11.380492
12685		96.778582	-72.410516	11.471156
12686		96.367375	-72.376507	11.572613
12687		95.940360	-72.340971	11.680036
12688		95.500328	-72.305884	11.794689
12689		95.059001	-72.274020	11.910227
12690		94.602429	-72.238645	12.030960
12691		94.160294	-72.202175	12.140232
12692		93.704455	-72.164855	12.256542
12693		93.243712	-72.127282	12.363320
12694		92.781194	-72.086429	12.464487
12695		92.260079	-72.042644	12.573706
12696		91.668355	-71.991398	12.685191
12697		91.003472	-71.938990	12.805040
12698		90.275522	-71.888430	12.919969
12699		89.482382	-71.837642	13.051651
12700		88.635772	-71.789328	13.192959
12701		87.770772	-71.745214	13.342348
12702		86.925409	-71.708255	13.509790
12703		86.116262	-71.679773	13.675754
12704		85.312014	-71.654124	13.861366
12705		84.573982	-71.630827	14.041145
12706		83.944086	-71.619223	14.189215
12707		83.364175	-71.609100	14.351184
12708		82.793942	-71.598062	14.531928
12709		82.253493	-71.590593	14.699487
12710		81.743265	-71.583091	14.865417
12711		81.271130	-71.579817	15.010646
12712		80.804325	-71.573120	15.160528
12713		80.348258	-71.564911	15.278815
12714		79.851924	-71.554837	15.401144
12715		79.337992	-71.538969	15.503857
12716		78.789320	-71.522441	15.603960
12717		78.221124	-71.504191	15.698156
12718		77.648906	-71.487310	15.795205
12719		77.085003	-71.471102	15.893006
12720		76.540798	-71.450498	15.975175
12721		75.996106	-71.426004	16.041250
12722		75.405681	-71.404348	16.088193
12723		74.738382	-71.373812	16.134659
12724		73.943391	-71.335395	16.198400
12725		73.029180	-71.294717	16.264990
12726		72.052243	-71.249161	16.355116
12727		71.101841	-71.205269	16.460392
12728		70.270850	-71.169661	16.564848
12729		69.631207	-71.141086	16.667373
12730		69.190736	-71.119087	16.766857
12731		68.909908	-71.108639	16.838419
12732		68.635643	-71.101514	16.914998
12733		68.396026	-71.099440	16.947215
12734		68.167510	-71.090752	16.967603
12735		67.862677	-71.072295	16.932700
12736		67.312771	-71.046107	16.910896
12737		66.434600	-70.993254	16.933347
12738		65.323887	-70.928337	17.007552
12739		64.179657	-70.864870	17.108453
12740		63.180765	-70.817612	17.229904
12741		62.628407	-70.796438	17.303843
12742		62.546639	-70.783999	17.333193
12743		62.449201	-70.768848	17.364147
12744		62.018378	-70.747943	17.389759
12745		61.410110	-70.712364	17.358717
12746		60.646143	-70.660008	17.324497
12747		59.685319	-70.591201	17.325747
12748		58.701777	-70.524353	17.373306
12749		57.963095	-70.468914	17.427673
12750		57.680247	-70.437578	17.432922
12751		57.602445	-70.412330	17.432538
12752		57.340992	-70.389825	17.466382
12753		56.987998	-70.364860	17.472113
12754		56.602719	-70.335153	17.429353
12755		56.114985	-70.299273	17.379419
12756		55.515113	-70.264533	17.328718
12757		54.909216	-70.223916	17.286674
12758		54.315252	-70.192026	17.245893
12759		53.781637	-70.164786	17.211607
12760		53.280647	-70.133801	17.182630
12761		52.709336	-70.111755	17.128319
12762		51.962031	-70.071797	17.104350
12763		51.073543	-70.022837	17.103063
12764		50.111190	-69.972935	17.089987
12765		49.150055	-69.928623	17.114142
12766		48.369026	-69.885984	17.173646
12767		47.856595	-69.852444	17.232202
12768		47.457593	-69.828990	17.285394
12769		47.100794	-69.806609	17.337909
12770		46.762470	-69.779408	17.381152
12771		46.450367	-69.759155	17.382671
12772		46.129478	-69.733236	17.364417
12773		45.762879	-69.696045	17.342639
12774		45.345548	-69.661769	17.314124
12775		44.896730	-69.621922	17.293625
12776		44.438311	-69.574763	17.282222
12777		43.992264	-69.529118	17.255936
12778		43.540085	-69.474823	17.234467
12779		43.095013	-69.419343	17.200074
12780		42.640979	-69.360317	17.165345
12781		42.182452	-69.297294	17.134805
12782		41.751156	-69.235000	17.100135
12783		41.368260	-69.169998	17.064470
12784		40.993855	-69.100825	17.026557
12785		40.666039	-69.035669	16.999892
12786		40.410813	-68.968898	16.967403
12787		40.187392	-68.898972	16.927574
12788		39.972204	-68.828498	16.896435
12789		39.781955	-68.751353	16.858826
12790		39.584080	-68.657981	16.814580
12791		39.368996	-68.557874	16.753763
12792		39.193775	-68.463088	16.684236
12793		39.079082	-68.365459	16.609061
12794		38.983138	-68.267614	16.525286
12795		38.895052	-68.175932	16.441731
12796		38.862584	-68.073359	16.351969
12797		38.887267	-67.985548	16.220707
12798		38.894053	-67.907154	16.084130
12799		38.864569	-67.834364	15.959219
12800		38.808180	-67.771337	15.837086
12801		38.791765	-67.723714	15.703801
12802		38.799052	-67.680148	15.581281
12803		38.820972	-67.644962	15.466262
12804		38.858117	-67.611186	15.357106
12805		38.850690	-67.589049	15.236697
12806		38.830450	-67.564989	15.118465
12807		38.827634	-67.534953	14.987723
12808		38.835225	-67.503898	14.854822
12809		38.872096	-67.468848	14.720476
12810		38.894779	-67.432995	14.581410
12811		38.920606	-67.395796	14.437297
12812		38.965725	-67.363038	14.285922
12813		39.022448	-67.333666	14.134849
12814		39.121676	-67.308260	13.978928
12815		39.265436	-67.284585	13.817859
12816		39.386514	-67.249477	13.683373
12817		39.470042	-67.212752	13.547790
12818		39.557027	-67.184169	13.397419
12819		39.657630	-67.163837	13.232403
12820		39.746101	-67.145819	13.071253
12821		39.837462	-67.125205	12.904363
12822		39.904130	-67.101451	12.731555
12823		39.977350	-67.076083	12.557698
12824		40.082573	-67.056180	12.394686
12825		40.181479	-67.040159	12.248914
12826		40.251725	-67.016806	12.125896
12827		40.326991	-66.996231	12.022056
12828		40.429279	-66.982130	11.922786
12829		40.522932	-66.971565	11.838197
12830		40.576598	-66.957240	11.768868
12831		40.579164	-66.937375	11.722869
12832		40.586516	-66.921749	11.697566
12833		40.612075	-66.909630	11.676784
12834		40.640076	-66.897869	11.670922
12835		40.668817	-66.889949	11.669064
12836		40.651607	-66.881125	11.684040
12837		40.627282	-66.876698	11.700901
12838		40.599540	-66.867858	11.727980
12839		40.560607	-66.859348	11.755022
12840		40.502031	-66.843764	11.793115
12841		40.440460	-66.824104	11.835951
12842		40.386252	-66.800823	11.880830
12843		40.346630	-66.775745	11.920419
12844		40.342507	-66.749703	11.951609
12845		40.377932	-66.724617	11.961147
12846		40.390884	-66.694972	11.970363
12847		40.378454	-66.663818	11.970957
12848		40.329411	-66.635970	11.975251
12849		40.288492	-66.607809	11.971367
12850		40.250494	-66.575585	11.969123
12851		40.248943	-66.545726	11.964516
12852		40.292492	-66.526192	11.965621
12853		40.366838	-66.512401	11.954074
12854		40.422706	-66.503529	11.946022
12855		40.463110	-66.497034	11.935287
12856		40.491400	-66.493263	11.921371
12857		40.499696	-66.491997	11.906072
12858		40.505057	-66.490893	11.885537
12859		40.520177	-66.495746	11.867944
12860		40.538004	-66.503809	11.854445
12861		40.554307	-66.508727	11.847821
12862		40.576225	-66.513261	11.838532
12863		40.616193	-66.521094	11.829930
12864		40.653262	-66.529551	11.830273
12865		40.664989	-66.542890	11.831077
12866		40.660143	-66.552473	11.833378
12867		40.639906	-66.564089	11.842306
12868		40.625478	-66.578634	11.851765
12869		40.643165	-66.590357	11.865083
12870		40.713304	-66.600820	11.884069
12871		40.805678	-66.622298	11.887483
12872		40.858806	-66.640890	11.908257
12873		40.874720	-66.660501	11.925592
12874		40.874464	-66.676087	11.936421
12875		40.837635	-66.691288	11.962076
12876		40.833717	-66.701651	11.985774
12877		40.849817	-66.720123	11.999835
12878		40.844001	-66.735226	12.026662
12879		40.849634	-66.743436	12.050906
12880		40.890278	-66.748707	12.067454
12881		40.924076	-66.752537	12.091170
12882		40.990025	-66.758472	12.117750
12883		41.118111	-66.769463	12.114311
12884		41.156492	-66.773496	12.123500
12885		41.139827	-66.775404	12.137129
12886		41.157999	-66.777391	12.130625
12887		41.158650	-66.780854	12.115464
12888		41.138763	-66.781885	12.113157
12889		41.173276	-66.788339	12.105159
12890		41.280370	-66.802398	12.092385
12891		41.429876	-66.815740	12.088055
12892		41.634311	-66.830137	12.077541
12893		41.866039	-66.853888	12.055031
12894		42.082760	-66.875574	12.038554
12895		42.264464	-66.895895	12.013078
12896		42.362772	-66.927776	11.986907
12897		42.407524	-66.959233	11.969170
12898		42.456988	-66.983389	11.962978
12899		42.538367	-67.011392	11.946089
12900		42.656637	-67.043214	11.939968
12901		42.881898	-67.082598	11.926035
12902		43.161963	-67.127388	11.894843
12903		43.433304	-67.175667	11.853101
12904		43.657775	-67.219207	11.820314
12905		43.826354	-67.261998	11.784849
12906		43.971565	-67.296739	11.753711
12907		44.102482	-67.330220	11.744584
12908		44.293223	-67.364946	11.744524
12909		44.544166	-67.400389	11.742378
12910		44.847803	-67.437853	11.739708
12911		45.192898	-67.471123	11.745970
12912		45.594135	-67.499199	11.751038
12913		46.186255	-67.543326	11.772936
12914		47.062832	-67.568344	11.736975
12915		47.856231	-67.614769	11.642201
12916		48.462726	-67.657636	11.534200
12917		48.814415	-67.684463	11.424647
12918		48.909183	-67.697332	11.320317
12919		48.935066	-67.701725	11.228117
12920		48.994541	-67.704909	11.141783
12921		49.076739	-67.695421	11.080940
12922		49.239422	-67.677613	11.052340
12923		49.585657	-67.665047	11.044215
12924		50.203290	-67.670570	11.039735
12925		51.134862	-67.697512	11.028526
12926		52.313042	-67.749439	10.997023
12927		53.642106	-67.820374	10.909589
12928		54.850575	-67.885158	10.775707
12929		55.462388	-67.928461	10.677760
12930		55.556426	-67.954181	10.617025
12931		55.567711	-67.979666	10.550067
12932		55.580223	-67.996179	10.540594
12933		55.654929	-68.008252	10.555066
12934		55.774337	-68.024579	10.618683
12935		56.077706	-68.052182	10.705797
12936		56.669350	-68.093516	10.806521
12937		57.598151	-68.156559	10.849826
12938		58.744842	-68.234527	10.849554
12939		59.924647	-68.310612	10.822161
12940		60.857547	-68.363051	10.805357
12941		61.447559	-68.399349	10.821502
12942		61.989501	-68.433474	10.841112
12943		62.608189	-68.475799	10.867537
12944		63.294493	-68.526258	10.925604
12945		64.141501	-68.586534	11.001121
12946		65.141051	-68.662321	11.054231
12947		66.224818	-68.763158	11.105667
12948		67.463870	-68.865825	11.116853
12949		68.710343	-68.963370	11.100305
12950		69.775724	-69.049036	11.090935
12951		70.605047	-69.132976	11.120806
12952		71.323012	-69.215356	11.185363
12953		72.066449	-69.301584	11.246090
12954		72.947996	-69.398123	11.281594
12955		74.043097	-69.517484	11.285352
12956		75.314205	-69.649990	11.243321
12957		76.594463	-69.784525	11.159596
12958		77.698741	-69.908614	11.079824
12959		78.464474	-70.025838	11.032712
12960		78.920045	-70.131917	11.011668
12961		79.245522	-70.228892	11.014434
12962		79.557813	-70.321551	11.027045
12963		79.926700	-70.417597	11.041870
12964		80.370331	-70.516657	11.061186
12965		80.935104	-70.620163	11.060496
12966		81.611836	-70.717720	11.037082
12967		82.302867	-70.808538	11.004531
12968		82.920071	-70.890531	10.985374
12969		83.463690	-70.973254	10.981221
12970		84.005212	-71.049949	10.976886
12971		84.607695	-71.124430	10.958129
12972		85.291945	-71.200841	10.928803
12973		86.099958	-71.284190	10.880477
12974		87.028165	-71.365655	10.815011
12975		88.031108	-71.446547	10.713925
12976		89.024274	-71.521186	10.621795
12977		89.924460	-71.587865	10.549036
12978		90.643580	-71.657819	10.491107
12979		91.248611	-71.729493	10.465772
12980		91.910143	-71.808789	10.435367
12981		92.714388	-71.901098	10.354058
12982		93.660540	-72.003077	10.222568
12983		94.735298	-72.108170	10.042808
12984		95.834337	-72.207645	9.835220
12985		96.857594	-72.298922	9.598871
12986		97.668850	-72.384541	9.389252
12987		98.271220	-72.460660	9.204142
12988		98.737518	-72.525384	9.045579
12989		99.160082	-72.583447	8.866864
12990		99.531009	-72.635804	8.692582
12991		99.812868	-72.683594	8.542356
12992		100.020735	-72.723318	8.410742
12993		100.147103	-72.757246	8.309402
12994		100.189450	-72.789352	8.277261
12995		100.291817	-72.831122	8.249669
12996		100.548330	-72.881497	8.245298
12997		101.059222	-72.940388	8.233446
12998		101.907451	-73.003893	8.174163
12999		103.117751	-73.063614	8.016691
13000		104.490987	-73.110504	7.821914
13001		105.766298	-73.143583	7.625927
13002		106.654355	-73.167830	7.474359
13003		106.993588	-73.186183	7.426859
13004		107.063130	-73.205330	7.434810
13005		107.213654	-73.226468	7.392541
13006		107.624622	-73.248734	7.276256
13007		108.138536	-73.282177	7.174428
13008		108.580795	-73.327394	7.150095
13009		109.068908	-73.373709	7.112710
13010		109.646355	-73.411372	7.027844
13011		110.219321	-73.441978	6.923542
13012		110.703995	-73.462242	6.827345
13013		111.048919	-73.473631	6.728071
13014		111.210584	-73.478127	6.654544
13015		111.308601	-73.478151	6.570883
13016		111.407858	-73.477825	6.492739
13017		111.533917	-73.481936	6.397242
13018		111.656102	-73.487934	6.327308
13019		111.804511	-73.497995	6.271760
13020		111.989891	-73.504840	6.214994
13021		112.207567	-73.507502	6.151006
13022		112.430335	-73.503595	6.086891
13023		112.611610	-73.491178	6.018845
13024		112.688269	-73.474821	5.968004
13025		112.683398	-73.452186	5.906977
13026		112.625527	-73.423483	5.850227
13027		112.529411	-73.399778	5.797745
13028		112.406286	-73.377335	5.763077
13029		112.290808	-73.363151	5.745059
13030		112.255576	-73.353841	5.730221
13031		112.373243	-73.346789	5.688522
13032		112.580920	-73.338234	5.650272
13033		112.796287	-73.332696	5.624618
13034		113.011851	-73.325432	5.599239
13035		113.232209	-73.314818	5.559444
13036		113.400861	-73.299493	5.526630
13037		113.465110	-73.283549	5.506257
13038		113.405274	-73.267388	5.513719
13039		113.251565	-73.255388	5.539215
13040		113.024287	-73.241506	5.585938
13041		112.796003	-73.232835	5.636206
13042		112.676338	-73.237191	5.690516
13043		112.825951	-73.245669	5.681981
13044		113.196363	-73.257011	5.653129
13045		113.673211	-73.277027	5.611078
13046		114.219605	-73.299518	5.565579
13047		114.854843	-73.321944	5.489507
13048		115.484138	-73.338767	5.402611
13049		115.981792	-73.354248	5.300819
13050		116.253572	-73.364861	5.217580
13051		116.373567	-73.369235	5.136363
13052		116.356347	-73.368766	5.073724
13053		116.133776	-73.366439	5.046817
13054		115.703551	-73.358881	5.059715
13055		115.148602	-73.348059	5.083983
13056		114.485962	-73.335088	5.144280
13057		113.796756	-73.326367	5.237365
13058		113.202984	-73.320821	5.327073
13059		112.813585	-73.322824	5.412773
13060		112.746544	-73.322584	5.466637
13061		112.918598	-73.320973	5.473769
13062		113.111296	-73.317057	5.494888
13063		113.263602	-73.306164	5.516066
13064		113.355230	-73.296315	5.549102
13065		113.386404	-73.284489	5.587268
13066		113.316650	-73.272180	5.639850
13067		113.099249	-73.257064	5.714549
13068		112.752912	-73.242973	5.815647
13069		112.349430	-73.230313	5.895383
13070		111.904376	-73.216925	5.988207
13071		111.503536	-73.207341	6.075236
13072		111.177815	-73.204014	6.170606
13073		110.995745	-73.200728	6.236729
13074		110.906712	-73.201654	6.298624
13075		110.896479	-73.204715	6.358704
13076		110.975270	-73.205210	6.386294
13077		111.078210	-73.207782	6.395028
13078		111.133385	-73.209372	6.419464
13079		111.142258	-73.211859	6.439894
13080		111.077867	-73.210113	6.471955
13081		110.995308	-73.210005	6.487006
13082		110.916617	-73.210463	6.498744
13083		110.852431	-73.210181	6.507287
13084		110.807623	-73.209318	6.514596
13085		110.797372	-73.212250	6.503566
13086		110.820977	-73.213846	6.490699
13087		110.872265	-73.215619	6.467664
13088		110.915078	-73.217811	6.451783
13089		110.952013	-73.221117	6.430482
13090		110.966560	-73.222794	6.418458
13091		110.975469	-73.224848	6.402643
13092		110.984762	-73.227414	6.385530
13093		110.999016	-73.231837	6.355933
13094		111.003847	-73.233404	6.333455
13095		111.019012	-73.236690	6.300995
13096		111.047547	-73.236281	6.265185
13097		111.084144	-73.239749	6.224110
13098		111.114000	-73.236167	6.195242
13099		111.145276	-73.237665	6.160337
13100		111.168919	-73.235657	6.131782
13101		111.199279	-73.236156	6.099865
13102		111.206308	-73.234141	6.088174
13103		111.194993	-73.233469	6.094147
13104		111.189350	-73.233727	6.097457
13105		111.187853	-73.236665	6.094225
13106		111.177386	-73.238634	6.111202
13107		111.185043	-73.241734	6.111736
13108		111.167984	-73.246236	6.123596
13109		111.139331	-73.249363	6.137821
13110		111.123357	-73.252847	6.146088
13111		111.095030	-73.256167	6.150330
13112		111.029725	-73.258113	6.173939
13113		110.970227	-73.261388	6.190187
13114		110.912016	-73.266156	6.205805
13115		110.867830	-73.271472	6.220791
13116		110.873738	-73.275581	6.221484
13117		110.910052	-73.279516	6.211920
13118		110.934611	-73.282205	6.207036
13119		110.962662	-73.284371	6.187577
13120		110.949464	-73.286055	6.188907
13121		110.943814	-73.288065	6.185346
13122		110.952169	-73.288041	6.167143
13123		110.942830	-73.289936	6.153144
13124		110.924472	-73.290694	6.147023
13125		110.914743	-73.293164	6.131442
13126		110.915101	-73.294013	6.112785
13127		110.924723	-73.295964	6.089916
13128		110.928660	-73.298221	6.072783
13129		110.927545	-73.303840	6.060526
13130		110.942243	-73.310342	6.036835
13131		110.960345	-73.314122	6.010010
13132		110.965025	-73.316294	5.994919
13133		110.966776	-73.320354	5.979544
13134		110.966883	-73.321816	5.968367
13135		110.970013	-73.324487	5.962168
13136		110.978412	-73.322643	5.952756
13137		110.995767	-73.321337	5.941343
13138		111.015476	-73.320667	5.930302
13139		111.017707	-73.319602	5.922186
13140		111.019489	-73.316973	5.912307
13141		111.036529	-73.314518	5.898240
13142		111.047471	-73.311492	5.889356
13143		111.056026	-73.310497	5.879284
13144		111.039985	-73.308877	5.889972
13145		111.028443	-73.308576	5.894916
13146		111.010739	-73.305932	5.906654
13147		110.980643	-73.309365	5.917958
13148		110.946945	-73.310251	5.931049
13149		110.921777	-73.312507	5.944446
13150		110.884666	-73.316442	5.968461
13151		110.867642	-73.322731	5.974671
13152		110.861474	-73.329047	5.981438
13153		110.869314	-73.334942	5.983538
13154		110.847431	-73.340531	6.001817
13155		110.827113	-73.347600	6.006628
13156		110.797900	-73.354289	6.013533
13157		110.751191	-73.358874	6.010604
13158		110.656004	-73.362095	6.036351
13159		110.524576	-73.366951	6.066805
13160		110.359403	-73.370970	6.092972
13161		110.169817	-73.373670	6.114709
13162		109.929986	-73.375243	6.146910
13163		109.634910	-73.374033	6.190892
13164		109.273733	-73.372619	6.257995
13165		108.860109	-73.370080	6.342382
13166		108.408103	-73.362666	6.429899
13167		107.903199	-73.352843	6.527684
13168		107.332064	-73.337868	6.644150
13169		106.712053	-73.323326	6.765442
13170		106.067333	-73.313281	6.916485
13171		105.465364	-73.306827	7.077840
13172		104.939603	-73.303664	7.257806
13173		104.551815	-73.303465	7.442228
13174		104.356876	-73.305827	7.602573
13175		104.227051	-73.311875	7.748837
13176		104.065230	-73.313864	7.907216
13177		103.939890	-73.312407	8.030744
13178		103.822286	-73.306105	8.129328
13179		103.626363	-73.299233	8.226927
13180		103.308167	-73.287236	8.336133
13181		102.868816	-73.272250	8.442135
13182		102.271546	-73.251840	8.563816
13183		101.530952	-73.229697	8.694420
13184		100.664679	-73.204774	8.852454
13185		99.737811	-73.179414	9.021740
13186		98.794095	-73.157725	9.204301
13187		97.905688	-73.139677	9.405271
13188		97.166444	-73.124294	9.615048
13189		96.628573	-73.115938	9.798083
13190		96.206825	-73.110053	9.977585
13191		95.841328	-73.106664	10.148026
13192		95.520491	-73.096588	10.299489
13193		95.231875	-73.084134	10.419298
13194		94.910704	-73.069217	10.530690
13195		94.525836	-73.049900	10.634912
13196		94.002930	-73.026665	10.770506
13197		93.362555	-73.002048	10.910971
13198		92.639776	-72.971975	11.065855
13199		91.881759	-72.942075	11.228361
13200		91.126167	-72.909746	11.395737
13201		90.407830	-72.878710	11.551083
13202		89.693577	-72.847379	11.732041
13203		89.013074	-72.819965	11.901265
13204		88.370693	-72.789923	12.062897
13205		87.784436	-72.767798	12.179337
13206		87.196197	-72.740552	12.297524
13207		86.550709	-72.699680	12.421556
13208		85.797864	-72.650252	12.536860
13209		84.905999	-72.586869	12.665922
13210		83.838314	-72.511565	12.828593
13211		82.631492	-72.435487	13.014333
13212		81.374456	-72.359608	13.218796
13213		80.159495	-72.286450	13.424279
13214		79.036094	-72.218934	13.645063
13215		78.079646	-72.159829	13.857388
13216		77.304200	-72.111326	14.057401
13217		76.686581	-72.067326	14.243817
13218		76.160897	-72.025060	14.434968
13219		75.707649	-71.977293	14.607188
13220		75.314297	-71.931014	14.734397
13221		74.980275	-71.882220	14.823765
13222		74.642862	-71.835084	14.872509
13223		74.222578	-71.781825	14.914789
13224		73.649640	-71.720812	14.990037
13225		72.950782	-71.657511	15.069054
13226		72.161526	-71.595932	15.163729
13227		71.359448	-71.537817	15.260283
13228		70.596109	-71.486078	15.350572
13229		69.921026	-71.431647	15.438904
13230		69.301874	-71.379473	15.501484
13231		68.734633	-71.342779	15.504958
13232		68.171314	-71.287111	15.493116
13233		67.495502	-71.219370	15.432309
13234		66.620630	-71.150318	15.363152
13235		65.562377	-71.073128	15.328426
13236		64.397632	-70.986133	15.337631
13237		63.247983	-70.906328	15.396383
13238		62.308689	-70.839377	15.489050
13239		61.845765	-70.794212	15.554380
13240		61.871505	-70.772193	15.569586
13241		62.052543	-70.755319	15.580787
13242		62.146151	-70.744424	15.582816
13243		62.122435	-70.729498	15.563670
13244		62.060894	-70.708605	15.476515
13245		61.910947	-70.681894	15.345087
13246		61.501184	-70.642603	15.249049
13247		60.856051	-70.592603	15.196895
13248		60.111686	-70.540339	15.186693
13249		59.438220	-70.495870	15.184962
13250		58.940716	-70.459675	15.183120
13251		58.583373	-70.426095	15.169123
13252		58.172227	-70.388614	15.159681
13253		57.756606	-70.347035	15.131839
13254		57.365328	-70.301191	15.087979
13255		56.995055	-70.253213	15.020993
13256		56.629503	-70.212784	14.963459
13257		56.301551	-70.172053	14.893924
13258		55.924775	-70.129174	14.826589
13259		55.461318	-70.090912	14.775693
13260		54.900001	-70.041512	14.743705
13261		54.236837	-69.990106	14.720143
13262		53.525417	-69.939882	14.724461
13263		52.873270	-69.887882	14.723827
13264		52.242769	-69.840243	14.736377
13265		51.625017	-69.792132	14.751499
13266		51.027042	-69.742454	14.766726
13267		50.453814	-69.693301	14.779799
13268		49.918912	-69.651159	14.787391
13269		49.434802	-69.615807	14.784860
13270		48.969853	-69.577043	14.780019
13271		48.508760	-69.539945	14.770725
13272		48.057314	-69.496830	14.766768
13273		47.650995	-69.453571	14.760765
13274		47.282433	-69.405195	14.748019
13275		46.910881	-69.364512	14.736224
13276		46.562332	-69.322625	14.720050
13277		46.213591	-69.284056	14.695113
13278		45.815962	-69.246194	14.678369
13279		45.384572	-69.208793	14.668036
13280		44.921095	-69.173643	14.666096
13281		44.475768	-69.138661	14.666712
13282		44.082764	-69.105248	14.674659
13283		43.746398	-69.076323	14.682639
13284		43.461057	-69.052346	14.699075
13285		43.211162	-69.032419	14.707210
13286		42.966698	-69.012169	14.721855
13287		42.753080	-68.991682	14.723535
13288		42.555514	-68.968398	14.713632
13289		42.345440	-68.939839	14.700802
13290		42.110704	-68.897811	14.694357
13291		41.883296	-68.853468	14.670028
13292		41.661924	-68.796755	14.646534
13293		41.498724	-68.731536	14.599834
13294		41.367826	-68.669476	14.550782
13295		41.280615	-68.606399	14.481590
13296		41.201008	-68.538960	14.393254
13297		41.125945	-68.473230	14.291719
13298		41.036938	-68.403208	14.184120
13299		40.972147	-68.330680	14.070281
13300		40.955944	-68.262790	13.954156
13301		40.990467	-68.198445	13.849705
13302		41.072259	-68.133205	13.731991
13303		41.199611	-68.079801	13.602101
13304		41.383955	-68.034691	13.464403
13305		41.543498	-68.003551	13.324078
13306		41.664549	-67.975131	13.169887
13307		41.728476	-67.947197	13.006429
13308		41.734117	-67.917146	12.849814
13309		41.705413	-67.888221	12.695763
13310		41.649356	-67.854516	12.548022
13311		41.561613	-67.815583	12.413343
13312		41.478045	-67.765452	12.289293
13313		41.437691	-67.702837	12.160277
13314		41.463505	-67.625275	12.033421
13315		41.610839	-67.555989	11.890999
13316		41.802307	-67.495080	11.741977
13317		41.937371	-67.431304	11.583469
13318		41.984495	-67.364712	11.434787
13319		42.013326	-67.298322	11.263401
13320		41.980172	-67.229199	11.091019
13321		41.919678	-67.164478	10.920745
13322		41.865728	-67.106505	10.761238
13323		41.839398	-67.058022	10.601515
13324		41.876889	-67.015923	10.444491
13325		41.973512	-66.985539	10.288189
13326		42.080845	-66.961582	10.143310
13327		42.174173	-66.947980	9.987190
13328		42.209322	-66.935404	9.857108
13329		42.260647	-66.921198	9.716328
13330		42.282387	-66.914497	9.586075
13331		42.310820	-66.905254	9.453146
13332		42.317771	-66.895578	9.331744
13333		42.325973	-66.883791	9.218245
13334		42.368870	-66.874558	9.101275
13335		42.427635	-66.859296	8.993598
13336		42.479732	-66.842748	8.907405
13337		42.537011	-66.825618	8.809393
13338		42.573624	-66.808597	8.727089
13339		42.626537	-66.790941	8.628544
13340		42.687012	-66.771862	8.531648
13341		42.757839	-66.757795	8.436063
13342		42.829649	-66.739465	8.347582
13343		42.837365	-66.716586	8.285158
13344		42.763806	-66.683681	8.250807
13345		42.677253	-66.647909	8.215343
13346		42.610917	-66.612369	8.188344
13347		42.618822	-66.582227	8.157370
13348		42.683685	-66.553462	8.130366
13349		42.786973	-66.527767	8.105794
13350		42.866973	-66.501566	8.102603
13351		42.889021	-66.467838	8.105354
13352		42.852238	-66.425388	8.110447
13353		42.799271	-66.372318	8.098277
13354		42.729567	-66.311539	8.094214
13355		42.698370	-66.250538	8.083600
13356		42.704670	-66.194344	8.073882
13357		42.732605	-66.138151	8.056748
13358		42.734632	-66.087160	8.042713
13359		42.734795	-66.033625	8.020839
13360		42.700981	-65.975141	7.991167
13361		42.641620	-65.918578	7.955205
13362		42.583254	-65.864529	7.921987
13363		42.558595	-65.810935	7.875793
13364		42.556639	-65.762060	7.833958
13365		42.603025	-65.721373	7.790896
13366		42.647392	-65.690581	7.754467
13367		42.672730	-65.667190	7.720239
13368		42.684118	-65.646628	7.702337
13369		42.673912	-65.632452	7.680827
13370		42.657658	-65.616669	7.661227
13371		42.661301	-65.609905	7.632712
13372		42.637617	-65.602587	7.615552
13373		42.606541	-65.596317	7.600375
13374		42.596644	-65.584660	7.585978
13375		42.597203	-65.571326	7.573900
13376		42.623786	-65.560209	7.568249
13377		42.690653	-65.553747	7.562048
13378		42.738004	-65.553930	7.547119
13379		42.722066	-65.550339	7.540584
13380		42.657103	-65.540943	7.536499
13381		42.600883	-65.531166	7.530252
13382		42.609986	-65.523736	7.519997
13383		42.701343	-65.516579	7.493703
13384		42.776335	-65.514234	7.482296
13385		42.836616	-65.509701	7.464161
13386		42.844486	-65.504178	7.451552
13387		42.803548	-65.498042	7.453122
13388		42.746066	-65.497925	7.454603
13389		42.646174	-65.497074	7.469694
13390		42.584290	-65.494516	7.492737
13391		42.604403	-65.497629	7.511474
13392		42.696092	-65.497359	7.523855
13393		42.758767	-65.503807	7.527277
13394		42.709503	-65.494958	7.554497
13395		42.654361	-65.491145	7.558929
13396		42.583212	-65.489567	7.578694
13397		42.510201	-65.488602	7.594578
13398		42.463221	-65.485952	7.608015
13399		42.484717	-65.486505	7.612984
13400		42.483789	-65.487802	7.632213
13401		42.479838	-65.483473	7.651857
13402		42.480451	-65.472868	7.670304
13403		42.502382	-65.458865	7.671829
13404		42.533900	-65.440353	7.663700
13405		42.598047	-65.425587	7.628573
13406		42.662269	-65.405410	7.567739
13407		42.689062	-65.382834	7.482465
13408		42.691559	-65.349252	7.391096
13409		42.750902	-65.319402	7.289615
13410		42.862103	-65.290828	7.185137
13411		42.965014	-65.270180	7.093818
13412		43.053168	-65.253980	7.025064
13413		43.175280	-65.245156	6.966934
13414		43.265719	-65.236792	6.922732
13415		43.306272	-65.231334	6.897270
13416		43.365929	-65.228701	6.877689
13417		43.377843	-65.235144	6.859969
13418		43.320265	-65.243949	6.871977
13419		43.285862	-65.257436	6.872763
13420		43.317448	-65.273353	6.889517
13421		43.427286	-65.292463	6.898613
13422		43.553435	-65.313558	6.911940
13423		43.748742	-65.337600	6.913266
13424		44.022105	-65.359987	6.918892
13425		44.379104	-65.387734	6.887149
13426		44.678813	-65.419780	6.857090
13427		44.897632	-65.443897	6.826923
13428		45.076740	-65.468106	6.783580
13429		45.193049	-65.499812	6.741356
13430		45.249008	-65.529194	6.712418
13431		45.317981	-65.562020	6.673337
13432		45.425244	-65.592053	6.641872
13433		45.595577	-65.623422	6.618309
13434		45.896469	-65.672398	6.616420
13435		46.464432	-65.726380	6.575137
13436		47.079817	-65.789268	6.518785
13437		47.711492	-65.858492	6.446634
13438		48.213741	-65.914020	6.331122
13439		48.360351	-65.975205	6.231085
13440		48.303331	-66.025228	6.147796
13441		48.185516	-66.078114	6.082406
13442		48.114938	-66.126424	6.038237
13443		48.108397	-66.170233	6.033428
13444		48.185774	-66.217172	6.067693
13445		48.406468	-66.269268	6.140424
13446		48.918632	-66.328469	6.230720
13447		49.782250	-66.417870	6.302354
13448		50.926792	-66.512444	6.310735
13449		52.045439	-66.615463	6.246853
13450		52.760335	-66.685773	6.208250
13451		53.051300	-66.731177	6.182743
13452		53.242737	-66.774791	6.157778
13453		53.496340	-66.813331	6.133468
13454		53.695846	-66.846000	6.122772
13455		53.798576	-66.880632	6.109373
13456		53.830718	-66.898900	6.109322
13457		53.843425	-66.915875	6.101413
13458		53.877333	-66.912069	6.088193
13459		54.003061	-66.900223	6.101416
13460		54.293102	-66.881540	6.156284
13461		54.807336	-66.873610	6.234156
13462		55.596378	-66.871565	6.319388
13463		56.676799	-66.878110	6.381871
13464		58.011132	-66.894673	6.405598
13465		59.523895	-66.922295	6.397584
13466		61.064303	-66.953433	6.372531
13467		62.502416	-66.979700	6.329413
13468		63.787102	-66.997438	6.273684
13469		64.960510	-67.016385	6.200017
13470		66.039339	-67.046297	6.113265
13471		66.972697	-67.089662	6.017122
13472		67.701757	-67.117866	5.938563
13473		68.283417	-67.142889	5.850009
13474		68.655629	-67.171608	5.778118
13475		68.859216	-67.204863	5.729618
13476		69.009433	-67.242363	5.710341
13477		69.170011	-67.290494	5.707220
13478		69.363405	-67.335094	5.724215
13479		69.655835	-67.393513	5.760043
13480		70.120682	-67.468554	5.816825
13481		70.768986	-67.560419	5.862176
13482		71.592697	-67.668174	5.897484
13483		72.570402	-67.789426	5.924560
13484		73.616370	-67.902424	5.948491
13485		74.684661	-68.019171	5.951535
13486		75.705637	-68.135408	5.934097
13487		76.571688	-68.247182	5.923289
13488		77.264079	-68.352796	5.937621
13489		77.833019	-68.454069	5.974610
13490		78.318694	-68.556939	6.046815
13491		78.775674	-68.670320	6.150393
13492		79.270081	-68.793361	6.278247
13493		79.880648	-68.927420	6.398543
13494		80.630072	-69.064728	6.512007
13495		81.514465	-69.209404	6.603685
13496		82.453908	-69.349159	6.668904
13497		83.387096	-69.487335	6.716099
13498		84.278960	-69.615727	6.726535
13499		85.022719	-69.736849	6.730462
13500		85.588829	-69.842662	6.748823
13501		86.019757	-69.938118	6.791039
13502		86.401720	-70.037095	6.848886
13503		86.858300	-70.159342	6.923091
13504		87.450306	-70.297309	7.031240
13505		88.254141	-70.448632	7.124374
13506		89.368041	-70.604810	7.155439
13507		90.777655	-70.764254	7.113046
13508		92.319604	-70.912732	7.011650
13509		93.763188	-71.035262	6.878294
13510		94.900193	-71.138060	6.729709
13511		95.494704	-71.223632	6.645750
13512		95.736144	-71.300106	6.607330
13513		95.982302	-71.366751	6.525706
13514		96.230679	-71.426148	6.429172
13515		96.340089	-71.486012	6.358237
13516		96.341825	-71.545824	6.345207
13517		96.331178	-71.621085	6.376340
13518		96.375497	-71.701983	6.458514
13519		96.570223	-71.797142	6.549041
13520		97.060760	-71.892785	6.590003
13521		97.879973	-71.986187	6.552078
13522		98.897825	-72.064831	6.460628
13523		99.909387	-72.130966	6.345650
13524		100.718077	-72.180083	6.220505
13525		101.132423	-72.220354	6.152468
13526		101.303202	-72.253095	6.124635
13527		101.472480	-72.281204	6.067229
13528		101.529695	-72.303489	6.044165
13529		101.390880	-72.331052	6.061395
13530		101.146726	-72.362618	6.112181
13531		100.946026	-72.397108	6.147111
13532		100.857568	-72.430885	6.187270
13533		100.872166	-72.469306	6.225985
13534		100.950680	-72.509320	6.264387
13535		101.106714	-72.547412	6.274281
13536		101.308046	-72.579058	6.266792
13537		101.515054	-72.610047	6.247935
13538		101.651342	-72.638241	6.254691
13539		101.749117	-72.671098	6.254130
13540		101.829466	-72.704622	6.265595
13541		101.930354	-72.739725	6.276674
13542		102.034912	-72.774792	6.298451
13543		102.113553	-72.809967	6.329649
13544		102.141782	-72.842543	6.379551
13545		102.161792	-72.870816	6.415486
13546		102.180457	-72.895198	6.450475
13547		102.208577	-72.920438	6.474561
13548		102.288215	-72.946909	6.488530
13549		102.447831	-72.979985	6.493956
13550		102.671719	-73.013672	6.511645
13551		103.002042	-73.053696	6.504813
13552		103.427179	-73.093909	6.494947
13553		103.947082	-73.137541	6.445274
13554		104.478070	-73.179717	6.380960
13555		104.994698	-73.222464	6.290511
13556		105.443124	-73.259188	6.210604
13557		105.844122	-73.291541	6.113780
13558		106.188497	-73.321868	6.020995
13559		106.468918	-73.349894	5.931718
13560		106.725504	-73.380843	5.840168
13561		106.996400	-73.418907	5.759868
13562		107.283045	-73.462388	5.708097
13563		107.666775	-73.513051	5.653568
13564		108.242757	-73.575660	5.560629
13565		109.095698	-73.645880	5.410612
13566		110.245772	-73.721313	5.189059
13567		111.549369	-73.801317	4.934977
13568		112.947942	-73.868406	4.647026
13569		114.352462	-73.928135	4.312857
13570		115.498237	-73.968392	4.012104
13571		116.239395	-74.005611	3.754147
13572		116.655744	-74.035074	3.551439
13573		116.993676	-74.050324	3.307142
13574		117.141991	-74.055360	3.078582
13575		116.976525	-74.059028	2.913427
13576		116.513723	-74.052735	2.810430
13577		115.817908	-74.041085	2.733806
13578		114.951369	-74.023586	2.698826
13579		114.017364	-74.006621	2.705119
13580		113.133858	-73.997475	2.749875
13581		112.425872	-73.997173	2.822028
13582		112.019234	-74.002202	2.909336
13583		112.019971	-74.004193	2.938821
13584		112.235742	-74.004143	2.950076
13585		112.514503	-74.002649	2.958779
13586		112.786299	-73.996193	2.975177
13587		113.023499	-73.991333	3.003675
13588		113.218515	-73.983994	3.037826
13589		113.297637	-73.978211	3.089225
13590		113.212276	-73.973329	3.170464
13591		113.025016	-73.969130	3.258351
13592		112.831275	-73.961436	3.335389
13593		112.621278	-73.960752	3.412961
13594		112.428917	-73.959975	3.492132
13595		112.267319	-73.965817	3.580439
13596		112.135947	-73.973961	3.664678
13597		112.058563	-73.983408	3.723959
13598		112.007552	-73.995863	3.786819
13599		112.024215	-74.012629	3.819723
13600		112.077048	-74.029927	3.846645
13601		112.118036	-74.047275	3.876657
13602		112.140285	-74.059666	3.904449
13603		112.184771	-74.070756	3.894486
13604		112.185374	-74.078336	3.903095
13605		112.161876	-74.082967	3.904616
13606		112.122429	-74.088040	3.907310
13607		112.086706	-74.096842	3.914446
13608		112.103133	-74.107243	3.911861
13609		112.192145	-74.116118	3.882366
13610		112.312309	-74.129777	3.856363
13611		112.461887	-74.145770	3.823708
13612		112.635405	-74.159597	3.785346
13613		112.801139	-74.171535	3.741405
13614		112.904894	-74.180957	3.714667
13615		112.971883	-74.188583	3.687672
13616		112.984598	-74.192765	3.681356
13617		112.937390	-74.195472	3.677040
13618		112.834189	-74.200966	3.695007
13619		112.733513	-74.206651	3.710349
13620		112.643450	-74.209156	3.716854
13621		112.537452	-74.214044	3.741656
13622		112.469307	-74.219483	3.767592
13623		112.489346	-74.226413	3.771056
13624		112.494894	-74.227351	3.806002
13625		112.504754	-74.229743	3.828479
13626		112.509465	-74.226623	3.855298
13627		112.491394	-74.225758	3.885069
13628		112.460559	-74.223384	3.917993
13629		112.456727	-74.219638	3.925231
13630		112.442712	-74.215684	3.950884
13631		112.441932	-74.211795	3.966560
13632		112.443149	-74.203793	3.978962
13633		112.429725	-74.195193	3.999224
13634		112.401700	-74.186228	4.022910
13635		112.369797	-74.175759	4.041760
13636		112.327104	-74.169307	4.073959
13637		112.333359	-74.162405	4.074732
13638		112.368797	-74.158143	4.074663
13639		112.428786	-74.156809	4.066924
13640		112.488352	-74.150746	4.056905
13641		112.581984	-74.146825	4.021998
13642		112.619754	-74.141311	4.025458
13643		112.612570	-74.136270	4.033675
13644		112.580691	-74.133048	4.044876
13645		112.537921	-74.130543	4.061558
13646		112.491378	-74.128078	4.076246
13647		112.439747	-74.126510	4.098158
13648		112.390345	-74.122940	4.131673
13649		112.359101	-74.121499	4.151441
13650		112.332651	-74.117113	4.181432
13651		112.325241	-74.113674	4.211093
13652		112.355301	-74.105687	4.221187
13653		112.360243	-74.097890	4.233680
13654		112.332597	-74.088515	4.261693
13655		112.319441	-74.080870	4.268446
13656		112.283374	-74.070517	4.282200
13657		112.228075	-74.063089	4.308604
13658		112.210886	-74.050020	4.316119
13659		112.203047	-74.040387	4.317332
13660		112.179025	-74.030209	4.326287
13661		112.165985	-74.024837	4.325153
13662		112.164365	-74.018504	4.327061
13663		112.163686	-74.013645	4.329898
13664		112.165798	-74.011735	4.330472
13665		112.171396	-74.007923	4.321324
13666		112.159094	-74.002861	4.319799
13667		112.132285	-73.998169	4.327743
13668		112.096156	-73.992723	4.335547
13669		112.048526	-73.987142	4.332250
13670		111.955797	-73.979690	4.344121
13671		111.812518	-73.975337	4.380215
13672		111.672420	-73.970090	4.404980
13673		111.561411	-73.970392	4.406630
13674		111.472114	-73.970819	4.427503
13675		111.444432	-73.970893	4.433594
13676		111.426651	-73.971205	4.439721
13677		111.400313	-73.973496	4.449809
13678		111.379703	-73.971987	4.458376
13679		111.371741	-73.971423	4.452467
13680		111.340550	-73.971475	4.455573
13681		111.304963	-73.970394	4.452273
13682		111.255655	-73.969462	4.456370
13683		111.181113	-73.968871	4.466944
13684		111.080419	-73.965052	4.489404
13685		110.924055	-73.958665	4.522642
13686		110.652655	-73.944697	4.590500
13687		110.286188	-73.927212	4.672414
13688		109.858109	-73.908460	4.764376
13689		109.425901	-73.896133	4.856829
13690		109.060442	-73.887931	4.943495
13691		108.777545	-73.890929	5.033724
13692		108.582340	-73.894574	5.122847
13693		108.428094	-73.902472	5.204169
13694		108.255903	-73.907700	5.311099
13695		108.113069	-73.907212	5.393943
13696		107.973859	-73.903627	5.469405
13697		107.810871	-73.901544	5.541978
13698		107.569439	-73.896163	5.639318
13699		107.294730	-73.891248	5.733141
13700		106.989764	-73.887200	5.834741
13701		106.672092	-73.883793	5.932643
13702		106.309931	-73.880859	6.051438
13703		105.915244	-73.877071	6.175512
13704		105.493487	-73.869357	6.305363
13705		105.045641	-73.858778	6.433274
13706		104.558735	-73.846330	6.567648
13707		104.048932	-73.830371	6.702465
13708		103.535060	-73.816645	6.838898
13709		103.047669	-73.810672	6.964853
13710		102.587318	-73.803992	7.091508
13711		102.165872	-73.800942	7.211456
13712		101.773095	-73.795953	7.329730
13713		101.420218	-73.791301	7.423379
13714		101.048361	-73.785809	7.529008
13715		100.644696	-73.778459	7.636798
13716		100.199968	-73.770610	7.755566
13717		99.741368	-73.762201	7.867581
13718		99.238814	-73.751951	7.979806
13719		98.690313	-73.741582	8.084676
13720		98.079029	-73.721395	8.199544
13721		97.393291	-73.701338	8.343210
13722		96.686185	-73.685111	8.478536
13723		95.962761	-73.669645	8.629806
13724		95.301860	-73.658048	8.790555
13725		94.772878	-73.651046	8.924557
13726		94.362649	-73.647636	9.034851
13727		93.969145	-73.641890	9.158777
13728		93.570859	-73.626978	9.251744
13729		93.140148	-73.608907	9.327704
13730		92.608173	-73.583122	9.407108
13731		91.941132	-73.552212	9.499962
13732		91.164712	-73.521236	9.630335
13733		90.360283	-73.490779	9.773637
13734		89.586231	-73.466825	9.935873
13735		88.943958	-73.447529	10.091386
13736		88.525271	-73.439092	10.200133
13737		88.221854	-73.426897	10.307614
13738		87.884029	-73.409719	10.416200
13739		87.484863	-73.374100	10.513444
13740		86.982563	-73.320883	10.574874
13741		86.318480	-73.259098	10.626094
13742		85.438712	-73.187116	10.717745
13743		84.398346	-73.111719	10.846762
13744		83.309266	-73.039086	11.006791
13745		82.277890	-72.976092	11.185584
13746		81.436550	-72.921823	11.347960
13747		80.857811	-72.885277	11.473341
13748		80.451553	-72.853113	11.591778
13749		80.065333	-72.815588	11.699058
13750		79.657093	-72.771055	11.763436
13751		79.223522	-72.709655	11.781682
13752		78.729334	-72.637361	11.753550
13753		78.074246	-72.559314	11.725387
13754		77.212620	-72.474119	11.734234
13755		76.212017	-72.391282	11.799374
13756		75.201360	-72.309985	11.897794
13757		74.319116	-72.242972	12.012339
13758		73.761951	-72.191839	12.091082
13759		73.521245	-72.151438	12.140871
13760		73.275685	-72.113040	12.196369
13761		72.917271	-72.064301	12.256270
13762		72.571632	-72.015626	12.246315
13763		72.264696	-71.961781	12.178250
13764		71.845977	-71.891128	12.088939
13765		71.197142	-71.817421	12.002713
13766		70.312243	-71.740272	11.967216
13767		69.273212	-71.659464	11.983421
13768		68.182647	-71.582372	12.057320
13769		67.218875	-71.521738	12.151617
13770		66.559882	-71.476055	12.243691
13771		66.254012	-71.443138	12.296806
13772		66.071689	-71.419211	12.316546
13773		65.795449	-71.383495	12.339059
13774		65.438267	-71.336447	12.287190
13775		65.078761	-71.287006	12.129183
13776		64.566497	-71.217375	11.941603
13777		63.712564	-71.133687	11.826383
13778		62.596579	-71.040716	11.806926
13779		61.441262	-70.940750	11.847991
13780		60.429740	-70.847971	11.930489
13781		59.847407	-70.785773	11.968904
13782		59.722882	-70.735449	11.936371
13783		59.547796	-70.686329	11.886071
13784		59.139276	-70.621016	11.791347
13785		58.680399	-70.541961	11.556830
13786		58.049248	-70.443304	11.260854
13787		57.015998	-70.321901	11.014442
13788		55.637638	-70.185362	10.873166
13789		54.159693	-70.049311	10.838859
13790		52.872472	-69.920949	10.886280
13791		52.130061	-69.820135	10.934025
13792		52.030545	-69.738027	10.892713
13793		52.035762	-69.661060	10.822884
13794		51.694083	-69.572878	10.782263
13795		51.198616	-69.488841	10.668118
13796		50.765706	-69.408501	10.502718
13797		50.247251	-69.326563	10.365015
13798		49.590315	-69.244225	10.301154
13799		48.952934	-69.158073	10.279848
13800		48.375701	-69.076013	10.312721
13801		47.925234	-69.001988	10.347589
13802		47.587245	-68.927366	10.380771
13803		47.261687	-68.853249	10.400954
13804		46.946635	-68.782373	10.400586
13805		46.654362	-68.712565	10.380862
13806		46.342491	-68.645081	10.360310
13807		46.001761	-68.577396	10.359938
13808		45.658219	-68.511997	10.382496
13809		45.320130	-68.447325	10.415207
13810		44.971054	-68.386067	10.457346
13811		44.634713	-68.326373	10.504534
13812		44.282789	-68.267134	10.553887
13813		43.951081	-68.203195	10.582058
13814		43.640839	-68.135981	10.599883
13815		43.374606	-68.071457	10.606457
13816		43.129648	-68.005038	10.614399
13817		42.909095	-67.937261	10.613130
13818		42.712465	-67.869943	10.607873
13819		42.533781	-67.804801	10.601056
13820		42.352454	-67.734308	10.592927
13821		42.199374	-67.662051	10.563789
13822		42.101968	-67.590579	10.524647
13823		42.074934	-67.514385	10.470019
13824		42.157898	-67.435812	10.392441
13825		42.329029	-67.363277	10.282088
13826		42.507070	-67.296731	10.154696
13827		42.637364	-67.238327	10.011187
13828		42.670102	-67.185520	9.873046
13829		42.657454	-67.134155	9.732809
13830		42.629232	-67.081165	9.602681
13831		42.596664	-67.036671	9.462706
13832		42.592226	-66.995773	9.324325
13833		42.654222	-66.961357	9.164835
13834		42.719885	-66.920714	8.997201
13835		42.791411	-66.887601	8.816038
13836		42.877795	-66.857835	8.648601
13837		42.952975	-66.836040	8.485808
13838		42.967814	-66.814471	8.341082
13839		42.959954	-66.790413	8.211025
13840		42.933858	-66.770163	8.103665
13841		42.943931	-66.755025	8.004401
13842		43.019989	-66.736280	7.904602
13843		43.129435	-66.721245	7.801512
13844		43.198165	-66.707471	7.705644
13845		43.218403	-66.694441	7.616053
13846		43.229379	-66.679523	7.534607
13847		43.224789	-66.663082	7.452993
13848		43.190826	-66.643746	7.397730
13849		43.186541	-66.629829	7.336515
13850		43.208109	-66.617111	7.277587
13851		43.211441	-66.607363	7.214583
13852		43.179058	-66.584332	7.161412
13853		43.161365	-66.556124	7.102956
13854		43.208453	-66.527323	7.039591
13855		43.386511	-66.506103	6.942967
13856		43.606825	-66.489213	6.838571
13857		43.808044	-66.461126	6.730003
13858		43.924953	-66.423570	6.622441
13859		43.897123	-66.371250	6.531636
13860		43.785346	-66.300777	6.466310
13861		43.702436	-66.234163	6.392068
13862		43.671870	-66.171405	6.331891
13863		43.675165	-66.112639	6.279646
13864		43.653686	-66.059428	6.235071
13865		43.643041	-66.016696	6.192613
13866		43.664188	-65.980253	6.162564
13867		43.679051	-65.948573	6.140959
13868		43.675576	-65.923567	6.122466
13869		43.669921	-65.906780	6.107601
13870		43.704929	-65.897303	6.100301
13871		43.739922	-65.895415	6.089000
13872		43.756709	-65.893306	6.086866
13873		43.786755	-65.893489	6.075194
13874		43.777129	-65.895163	6.074613
13875		43.748813	-65.893562	6.076878
13876		43.703727	-65.895646	6.084516
13877		43.678895	-65.899567	6.102941
13878		43.718945	-65.902989	6.107251
13879		43.805163	-65.909410	6.100166
13880		43.929356	-65.909881	6.080282
13881		44.009630	-65.912525	6.047940
13882		44.031574	-65.915249	6.030835
13883		44.082477	-65.917454	5.992362
13884		44.073891	-65.921781	5.969289
13885		44.047187	-65.928613	5.947410
13886		44.034955	-65.936221	5.931475
13887		44.070947	-65.947173	5.918608
13888		44.158627	-65.955749	5.897292
13889		44.243530	-65.963608	5.870535
13890		44.340197	-65.974298	5.841631
13891		44.415156	-65.985387	5.815027
13892		44.462630	-65.993770	5.802116
13893		44.527259	-66.002102	5.775511
13894		44.537352	-66.007886	5.760404
13895		44.529640	-66.012567	5.745224
13896		44.543309	-66.016009	5.727141
13897		44.596283	-66.020693	5.703869
13898		44.690602	-66.020670	5.677415
13899		44.773168	-66.022744	5.635496
13900		44.799877	-66.020547	5.607206
13901		44.806410	-66.023723	5.579751
13902		44.820346	-66.023943	5.559736
13903		44.862149	-66.024127	5.545984
13904		44.916910	-66.028554	5.538435
13905		44.982764	-66.039901	5.521176
13906		44.971823	-66.047408	5.523097
13907		44.956449	-66.055899	5.517396
13908		44.935360	-66.065542	5.514655
13909		44.914336	-66.075953	5.521259
13910		44.938450	-66.093688	5.525338
13911		45.001854	-66.115296	5.524304
13912		45.082262	-66.138383	5.540041
13913		45.191469	-66.165992	5.543724
13914		45.247052	-66.191667	5.553404
13915		45.225649	-66.220821	5.576391
13916		45.190689	-66.246458	5.596909
13917		45.144883	-66.273272	5.617705
13918		45.134017	-66.299354	5.642276
13919		45.186098	-66.329137	5.656981
13920		45.269780	-66.358829	5.664295
13921		45.386288	-66.387453	5.674778
13922		45.523597	-66.413400	5.679192
13923		45.673526	-66.444015	5.666892
13924		45.796258	-66.472790	5.664130
13925		45.913112	-66.503064	5.668495
13926		46.061439	-66.535106	5.675989
13927		46.274253	-66.571003	5.679695
13928		46.520888	-66.613541	5.698948
13929		46.860714	-66.662429	5.710458
13930		47.250595	-66.710496	5.707706
13931		47.597138	-66.759755	5.687788
13932		47.907847	-66.805402	5.674916
13933		48.187293	-66.847273	5.650296
13934		48.411809	-66.888704	5.636071
13935		48.653022	-66.939012	5.639899
13936		48.916319	-66.987705	5.639602
13937		49.175409	-67.046634	5.634556
13938		49.362306	-67.094373	5.609511
13939		49.318866	-67.125731	5.582899
13940		49.097048	-67.145918	5.557717
13941		48.853294	-67.158205	5.543588
13942		48.669175	-67.168479	5.543386
13943		48.576673	-67.180905	5.551253
13944		48.561721	-67.189064	5.572319
13945		48.648461	-67.195470	5.589648
13946		48.806390	-67.205664	5.613315
13947		48.990553	-67.207515	5.628997
13948		49.129616	-67.208364	5.643336
13949		49.198488	-67.208462	5.658179
13950		49.222549	-67.201630	5.681342
13951		49.201890	-67.195554	5.697899
13952		49.114962	-67.187484	5.735640
13953		49.034779	-67.179683	5.773799
13954		49.009742	-67.176899	5.813090
13955		49.045845	-67.174991	5.852352
13956		49.136422	-67.169826	5.898062
13957		49.307733	-67.175455	5.947540
13958		49.581862	-67.194455	6.011181
13959		49.989943	-67.218946	6.063604
13960		50.444754	-67.250728	6.104214
13961		50.851301	-67.288196	6.134993
13962		51.152566	-67.317117	6.167583
13963		51.391050	-67.343626	6.187342
13964		51.606411	-67.372752	6.211297
13965		51.832693	-67.396899	6.246104
13966		52.109135	-67.423229	6.290098
13967		52.482972	-67.459692	6.333963
13968		52.959463	-67.504201	6.370162
13969		53.527989	-67.563559	6.383307
13970		54.170087	-67.632614	6.369236
13971		54.792096	-67.694687	6.339815
13972		55.297747	-67.750309	6.303212
13973		55.701380	-67.802623	6.268203
13974		56.071634	-67.848119	6.243158
13975		56.444214	-67.893357	6.229666
13976		56.832290	-67.932842	6.266413
13977		57.332831	-67.980876	6.336779
13978		57.976966	-68.041462	6.407902
13979		58.791808	-68.114562	6.472822
13980		59.831785	-68.202517	6.495557
13981		60.980453	-68.298064	6.475233
13982		62.057409	-68.387731	6.438917
13983		62.969424	-68.467684	6.397635
13984		63.703953	-68.539106	6.367894
13985		64.349540	-68.609273	6.330083
13986		64.963347	-68.686241	6.298061
13987		65.584064	-68.766913	6.285049
13988		66.170372	-68.851725	6.295694
13989		66.650060	-68.924298	6.342393
13990		67.153520	-69.001724	6.410263
13991		67.765652	-69.093416	6.463944
13992		68.389427	-69.187646	6.520080
13993		68.989884	-69.279180	6.554044
13994		69.588879	-69.365100	6.573464
13995		70.175973	-69.447713	6.579471
13996		70.701688	-69.523080	6.580358
13997		71.152936	-69.597346	6.587874
13998		71.552110	-69.664243	6.593557
13999		71.886898	-69.729820	6.600303
14000		72.152818	-69.788139	6.625081
14001		72.344217	-69.841404	6.671933
14002		72.497660	-69.898900	6.747268
14003		72.656748	-69.956084	6.839058
14004		72.852176	-70.016964	6.940252
14005		73.120794	-70.079412	7.040817
14006		73.503698	-70.149028	7.111616
14007		73.958806	-70.220450	7.154155
14008		74.421640	-70.285023	7.182520
14009		74.838320	-70.346657	7.198552
14010		75.160083	-70.395217	7.219552
14011		75.390453	-70.438594	7.250774
14012		75.578384	-70.485532	7.293036
14013		75.776865	-70.538432	7.341596
14014		76.011592	-70.594511	7.403092
14015		76.298365	-70.656422	7.480603
14016		76.683871	-70.720590	7.538754
14017		77.168308	-70.785178	7.578239
14018		77.717220	-70.851085	7.588275
14019		78.245066	-70.915132	7.594406
14020		78.713680	-70.974528	7.593733
14021		79.088514	-71.030412	7.582133
14022		79.373545	-71.082926	7.562429
14023		79.596603	-71.131634	7.540214
14024		79.804732	-71.179705	7.517140
14025		80.013437	-71.227847	7.491773
14026		80.220267	-71.272013	7.476163
14027		80.436466	-71.320098	7.469447
14028		80.687665	-71.365327	7.461541
14029		80.981395	-71.413733	7.448063
14030		81.306420	-71.455366	7.427615
14031		81.641299	-71.498648	7.416570
14032		82.005882	-71.537811	7.400475
14033		82.407454	-71.584364	7.371559
14034		82.861233	-71.628348	7.340310
14035		83.371731	-71.679552	7.297395
14036		83.901488	-71.729979	7.257346
14037		84.433332	-71.783984	7.212183
14038		84.947010	-71.840278	7.156313
14039		85.373266	-71.895791	7.117563
14040		85.730404	-71.951303	7.077252
14041		86.034683	-72.004625	7.043764
14042		86.321595	-72.058720	7.005100
14043		86.627546	-72.118390	6.969901
14044		86.980228	-72.186925	6.948106
14045		87.428561	-72.262077	6.933962
14046		88.032088	-72.343090	6.895040
14047		88.745646	-72.426964	6.843324
14048		89.527019	-72.506510	6.758983
14049		90.268698	-72.586121	6.669890
14050		90.860664	-72.651075	6.594793
14051		91.260875	-72.715759	6.528618
14052		91.545907	-72.771033	6.476079
14053		91.845538	-72.828583	6.405961
14054		92.162602	-72.884061	6.331735
14055		92.462157	-72.945281	6.261577
14056		92.725366	-73.001299	6.215767
14057		92.981730	-73.054776	6.158218
14058		93.186666	-73.101296	6.108371
14059		93.331661	-73.142119	6.072065
14060		93.408572	-73.179087	6.062035
14061		93.476487	-73.214764	6.062058
14062		93.607740	-73.253477	6.062459
14063		93.833422	-73.295947	6.067063
14064		94.192557	-73.345872	6.078312
14065		94.733880	-73.399309	6.049293
14066		95.404362	-73.451312	5.984362
14067		96.086814	-73.502879	5.912763
14068		96.735718	-73.548814	5.823498
14069		97.278399	-73.595182	5.735764
14070		97.669429	-73.634290	5.676019
14071		98.017740	-73.672368	5.604451
14072		98.357780	-73.704930	5.525801
14073		98.631521	-73.738950	5.473038
14074		98.859924	-73.771433	5.430069
14075		99.050711	-73.800742	5.396238
14076		99.185006	-73.834057	5.413694
14077		99.397947	-73.886494	5.420548
14078		99.746428	-73.950057	5.444473
14079		100.317021	-74.029719	5.464527
14080		101.236364	-74.116881	5.428888
14081		102.537002	-74.205284	5.281055
14082		104.008852	-74.278781	5.084732
14083		105.371939	-74.337282	4.878324
14084		106.332559	-74.384249	4.712136
14085		106.690210	-74.425884	4.658811
14086		106.773670	-74.458878	4.620140
14087		106.834076	-74.478499	4.526869
14088		106.753847	-74.491610	4.443138
14089		106.446253	-74.504199	4.405155
14090		105.960151	-74.514326	4.435039
14091		105.394520	-74.525417	4.489213
14092		104.844502	-74.536188	4.574634
14093		104.454844	-74.543305	4.653277
14094		104.183232	-74.549576	4.748161
14095		104.001921	-74.559530	4.849464
14096		104.015973	-74.569871	4.923545
14097		104.328321	-74.580579	4.939147
14098		104.870779	-74.593729	4.914929
14099		105.497956	-74.609349	4.881638
14100		106.071246	-74.619131	4.864785
14101		106.521938	-74.624749	4.836543
14102		106.737614	-74.623940	4.859876
14103		106.797067	-74.619013	4.886996
14104		106.726825	-74.610760	4.929104
14105		106.517577	-74.602794	4.994095
14106		106.215167	-74.596254	5.074881
14107		105.939295	-74.599030	5.156227
14108		105.799014	-74.604642	5.226372
14109		105.817441	-74.612638	5.275825
14110		105.906404	-74.623700	5.333836
14111		106.082364	-74.635383	5.372682
14112		106.351602	-74.643812	5.390703
14113		106.678314	-74.652460	5.391090
14114		106.951526	-74.662033	5.404751
14115		107.145460	-74.669901	5.411014
14116		107.248231	-74.675092	5.417586
14117		107.287134	-74.683041	5.403994
14118		107.245639	-74.685734	5.401722
14119		107.105602	-74.692202	5.430333
14120		106.895234	-74.698854	5.496596
14121		106.738820	-74.709287	5.531524
14122		106.728552	-74.720551	5.536098
14123		106.846868	-74.734965	5.538505
14124		107.064557	-74.750228	5.513332
14125		107.353156	-74.769306	5.480250
14126		107.719678	-74.786432	5.429311
14127		108.079646	-74.803042	5.376024
14128		108.369554	-74.814247	5.330419
14129		108.524938	-74.823441	5.295722
14130		108.550086	-74.830815	5.259801
14131		108.483193	-74.830384	5.232852
14132		108.360203	-74.831321	5.214145
14133		108.183250	-74.833978	5.211892
14134		107.960626	-74.837998	5.244532
14135		107.766762	-74.853876	5.295568
14136		107.846841	-74.874831	5.303715
14137		108.284696	-74.905235	5.257760
14138		108.863396	-74.948673	5.215243
14139		109.546978	-74.996634	5.166807
14140		110.439245	-75.038429	5.052371
14141		111.403323	-75.069244	4.881984
14142		112.134684	-75.087600	4.731414
14143		112.449349	-75.102384	4.645523
14144		112.519987	-75.107893	4.558262
14145		112.498270	-75.103436	4.460492
14146		112.307336	-75.093527	4.384458
14147		111.852205	-75.081361	4.360757
14148		111.191606	-75.065357	4.381218
14149		110.427907	-75.049071	4.410427
14150		109.617304	-75.031314	4.474914
14151		108.867585	-75.021136	4.570327
14152		108.318636	-75.006383	4.665312
14153		108.028664	-74.990078	4.743038
14154		107.890554	-74.976634	4.827461
14155		107.837671	-74.962272	4.911778
14156		107.888664	-74.946417	4.975647
14157		108.009084	-74.931536	5.014866
14158		108.085936	-74.915767	5.069520
14159		108.062351	-74.902992	5.146504
14160		107.943355	-74.886311	5.228378
14161		107.734621	-74.867596	5.316339
14162		107.446706	-74.844674	5.417494
14163		107.130601	-74.819894	5.506327
14164		106.791218	-74.794519	5.602363
14165		106.474256	-74.771485	5.700558
14166		106.218902	-74.754508	5.801310
14167		106.088618	-74.743718	5.875788
14168		106.121533	-74.741378	5.924559
14169		106.268164	-74.742840	5.949913
14170		106.430495	-74.743392	5.963858
14171		106.581262	-74.745854	5.966003
14172		106.722159	-74.748108	5.955901
14173		106.853150	-74.748867	5.921947
14174		106.936489	-74.745481	5.876315
14175		106.930075	-74.743598	5.840299
14176		106.848802	-74.741656	5.822938
14177		106.767167	-74.741125	5.800603
14178		106.698364	-74.740377	5.777862
14179		106.615784	-74.742235	5.765489
14180		106.550273	-74.746367	5.755466
14181		106.551191	-74.750859	5.744460
14182		106.635724	-74.755857	5.723623
14183		106.742939	-74.760996	5.692682
14184		106.817061	-74.761075	5.673482
14185		106.884908	-74.760645	5.643290
14186		106.901576	-74.759251	5.637525
14187		106.864344	-74.758062	5.654828
14188		106.792473	-74.756478	5.680119
14189		106.702417	-74.755887	5.714852
14190		106.629772	-74.753541	5.747513
14191		106.580222	-74.753603	5.771421
14192		106.533553	-74.751214	5.803047
14193		106.482900	-74.752068	5.837953
14194		106.431077	-74.743048	5.871069
14195		106.391944	-74.734250	5.899022
14196		106.365104	-74.724473	5.929555
14197		106.369320	-74.712397	5.949123
14198		106.366708	-74.701387	5.976133
14199		106.353874	-74.692244	5.991491
14200		106.323261	-74.682624	6.010177
14201		106.295245	-74.676120	6.024672
14202		106.269155	-74.664623	6.031192
14203		106.248473	-74.652769	6.026408
14204		106.201337	-74.639216	6.036050
14205		106.141045	-74.628448	6.048303
14206		106.067822	-74.614706	6.055466
14207		106.010791	-74.604304	6.050741
14208		105.996507	-74.602055	6.043878
14209		106.050615	-74.600539	6.030602
14210		106.122606	-74.599425	6.023991
14211		106.184233	-74.597763	6.000546
14212		106.216958	-74.595302	5.976493
14213		106.220513	-74.587887	5.961703
14214		106.156187	-74.578148	5.962581
14215		105.985795	-74.565269	5.985541
14216		105.720794	-74.539421	6.006595
14217		105.309329	-74.507014	6.043223
14218		104.740158	-74.467370	6.095288
14219		104.038476	-74.424255	6.160357
14220		103.257427	-74.378409	6.230734
14221		102.400680	-74.334022	6.319877
14222		101.511449	-74.290115	6.442148
14223		100.676425	-74.250026	6.586459
14224		99.982612	-74.216724	6.747859
14225		99.573041	-74.185668	6.889923
14226		99.463960	-74.150750	6.978796
14227		99.389644	-74.116261	7.073066
14228		99.262181	-74.078338	7.185340
14229		99.214835	-74.038975	7.235195
14230		99.182926	-73.996512	7.266681
14231		99.040247	-73.953471	7.313903
14232		98.713411	-73.912231	7.397120
14233		98.253022	-73.875906	7.495357
14234		97.703214	-73.838151	7.614219
14235		97.118166	-73.804271	7.738993
14236		96.534541	-73.770603	7.878202
14237		95.995918	-73.738787	8.013863
14238		95.503493	-73.708570	8.130689
14239		95.026770	-73.677260	8.236346
14240		94.564903	-73.647802	8.324347
14241		94.091105	-73.615336	8.401425
14242		93.583386	-73.578006	8.483613
14243		93.055084	-73.541366	8.559386
14244		92.504132	-73.499781	8.633828
14245		91.922483	-73.455159	8.712887
14246		91.314358	-73.408307	8.792235
14247		90.682776	-73.358922	8.872448
14248		90.028425	-73.307447	8.969320
14249		89.381999	-73.257489	9.067402
14250		88.772149	-73.212633	9.168385
14251		88.212180	-73.166812	9.262626
14252		87.686172	-73.122037	9.353484
14253		87.198463	-73.075847	9.429410
14254		86.714983	-73.027539	9.508350
14255		86.208266	-72.978486	9.577233
14256		85.632108	-72.928144	9.664729
14257		84.991656	-72.876630	9.762968
14258		84.310344	-72.823612	9.861413
14259		83.597512	-72.775141	9.969665
14260		82.886051	-72.728386	10.080093
14261		82.208937	-72.684218	10.181573
14262		81.540724	-72.638610	10.303445
14263		80.902126	-72.593410	10.420069
14264		80.291865	-72.548684	10.534074
14265		79.709165	-72.503575	10.643915
14266		79.177684	-72.460609	10.737569
14267		78.689496	-72.415519	10.826479
14268		78.226943	-72.371170	10.896555
14269		77.820015	-72.332409	10.925061
14270		77.409498	-72.286533	10.960341
14271		76.958571	-72.232644	10.981013
14272		76.429174	-72.173581	10.995079
14273		75.799302	-72.108021	11.011720
14274		75.057258	-72.034784	11.043972
14275		74.256253	-71.959604	11.076751
14276		73.428961	-71.883439	11.132841
14277		72.660058	-71.813442	11.199520
14278		72.006655	-71.751636	11.267932
14279		71.519670	-71.706486	11.308630
14280		71.198301	-71.674866	11.315117
14281		70.910433	-71.633098	11.315983
14282		70.619069	-71.590541	11.262787
14283		70.338260	-71.531369	11.136816
14284		69.889341	-71.458796	10.980859
14285		69.121625	-71.373636	10.851303
14286		68.062490	-71.271220	10.795434
14287		66.852747	-71.159429	10.805871
14288		65.671379	-71.054687	10.880743
14289		64.830700	-70.969720	10.959734
14290		64.580393	-70.911368	10.983016
14291		64.675119	-70.859079	10.985851
14292		64.784797	-70.807663	11.003013
14293		64.842125	-70.770453	10.977666
14294		64.780103	-70.721951	10.945492
14295		64.642774	-70.676330	10.853196
14296		64.462048	-70.627453	10.706531
14297		64.114281	-70.560605	10.553847
14298		63.457388	-70.484363	10.450149
14299		62.611733	-70.403553	10.392984
14300		61.744604	-70.320358	10.377030
14301		61.072092	-70.244306	10.377553
14302		60.774714	-70.197192	10.352630
14303		60.704930	-70.158365	10.298342
14304		60.522947	-70.112926	10.261456
14305		60.224116	-70.071785	10.199556
14306		59.943861	-70.019185	10.090471
14307		59.611153	-69.958527	9.958642
14308		59.142613	-69.889740	9.848352
14309		58.577995	-69.815565	9.771099
14310		58.016121	-69.738854	9.739719
14311		57.562304	-69.672525	9.729892
14312		57.276403	-69.615282	9.719256
14313		57.072073	-69.575772	9.701578
14314		56.821236	-69.533763	9.691896
14315		56.536528	-69.492960	9.658611
14316		56.192570	-69.439703	9.616550
14317		55.768614	-69.387222	9.565189
14318		55.297033	-69.333021	9.516818
14319		54.808690	-69.280343	9.485395
14320		54.329013	-69.226243	9.475514
14321		53.878550	-69.177827	9.468345
14322		53.429258	-69.128363	9.465752
14323		52.960956	-69.077372	9.474205
14324		52.480730	-69.016511	9.500002
14325		52.031577	-68.956318	9.524092
14326		51.662775	-68.900392	9.551212
14327		51.367574	-68.850159	9.561473
14328		51.071142	-68.803714	9.557813
14329		50.744773	-68.755239	9.555063
14330		50.363779	-68.708259	9.552565
14331		49.939394	-68.660147	9.560636
14332		49.489339	-68.606981	9.580966
14333		49.048998	-68.554627	9.600661
14334		48.656589	-68.501970	9.619059
14335		48.304567	-68.454810	9.635535
14336		47.954823	-68.413305	9.656918
14337		47.598845	-68.370554	9.681573
14338		47.245031	-68.329884	9.710352
14339		46.907099	-68.296412	9.727849
14340		46.577391	-68.263764	9.749389
14341		46.253284	-68.232980	9.767292
14342		45.941882	-68.205368	9.792625
14343		45.658349	-68.175004	9.812629
14344		45.391296	-68.149289	9.837929
14345		45.174324	-68.127411	9.853601
14346		44.993618	-68.104738	9.865153
14347		44.823410	-68.087570	9.855752
14348		44.689822	-68.066984	9.831744
14349		44.587912	-68.042250	9.796081
14350		44.516072	-68.009975	9.748571
14351		44.507568	-67.982387	9.705171
14352		44.508713	-67.956966	9.696385
14353		44.488067	-67.940056	9.716473
14354		44.464707	-67.925756	9.749111
14355		44.464597	-67.914054	9.757292
14356		44.428979	-67.899832	9.765297
14357		44.370741	-67.883477	9.748022
14358		44.246417	-67.863886	9.718933
14359		44.110671	-67.842240	9.677209
14360		43.975982	-67.814865	9.635714
14361		43.830306	-67.787276	9.604105
14362		43.707832	-67.763133	9.581525
14363		43.613652	-67.735362	9.555455
14364		43.522792	-67.702322	9.536797
14365		43.455745	-67.670946	9.505234
14366		43.386553	-67.631149	9.470584
14367		43.321978	-67.596966	9.439766
14368		43.262949	-67.563335	9.411434
14369		43.216306	-67.529217	9.380956
14370		43.186423	-67.485026	9.357155
14371		43.200725	-67.441068	9.319660
14372		43.239106	-67.398341	9.284003
14373		43.334585	-67.354843	9.231955
14374		43.363419	-67.316185	9.179753
14375		43.331207	-67.279370	9.141612
14376		43.298724	-67.246187	9.087786
14377		43.238862	-67.216196	9.036784
14378		43.181090	-67.181792	8.991535
14379		43.176030	-67.147668	8.922018
14380		43.210698	-67.114088	8.850373
14381		43.269771	-67.082424	8.770083
14382		43.333285	-67.056643	8.691936
14383		43.403356	-67.035512	8.609786
14384		43.433807	-67.019096	8.539897
14385		43.446144	-67.006034	8.475818
14386		43.447912	-67.003124	8.412783
14387		43.443302	-66.996421	8.357515
14388		43.486543	-66.998908	8.291283
14389		43.523508	-67.002192	8.239701
14390		43.570978	-67.009488	8.194909
14391		43.600256	-67.024222	8.149619
14392		43.584722	-67.031105	8.116611
14393		43.554736	-67.035445	8.078362
14394		43.517305	-67.033770	8.057980
14395		43.516180	-67.031496	8.042008
14396		43.595725	-67.031303	8.025920
14397		43.709056	-67.038338	7.987864
14398		43.713559	-67.039732	7.962129
14399		43.643720	-67.031738	7.927878
14400		43.566153	-67.017928	7.896711
14401		43.525071	-67.002881	7.854649
14402		43.509344	-66.986225	7.812096
14403		43.541350	-66.975523	7.773922
14404		43.619109	-66.968752	7.741660
14405		43.707924	-66.965187	7.707650
14406		43.763198	-66.963587	7.674447
14407		43.794826	-66.963748	7.648383
14408		43.849797	-66.965197	7.604713
14409		43.888348	-66.973169	7.571017
14410		43.964310	-66.980646	7.533433
14411		44.053143	-66.997773	7.491823
14412		44.090312	-67.011537	7.461789
14413		44.095579	-67.023109	7.427209
14414		44.110557	-67.026500	7.394772
14415		44.157678	-67.027149	7.348776
14416		44.203040	-67.019379	7.301434
14417		44.250774	-67.014291	7.253036
14418		44.310338	-67.010060	7.203738
14419		44.382101	-67.002440	7.150567
14420		44.441284	-66.994403	7.102066
14421		44.469968	-66.984090	7.063265
14422		44.483249	-66.972095	7.033177
14423		44.508492	-66.962167	7.002398
14424		44.511078	-66.950465	6.980968
14425		44.495013	-66.942467	6.968910
14426		44.495352	-66.937736	6.951786
14427		44.512133	-66.928964	6.945139
14428		44.554882	-66.918146	6.924376
14429		44.568937	-66.909628	6.912638
14430		44.584292	-66.897603	6.906573
14431		44.610543	-66.884246	6.896625
14432		44.603995	-66.872189	6.902196
14433		44.629837	-66.858745	6.904297
14434		44.653343	-66.846555	6.905340
14435		44.653650	-66.833675	6.913692
14436		44.680655	-66.822657	6.914513
14437		44.710069	-66.812994	6.919289
14438		44.759678	-66.798384	6.923790
14439		44.825248	-66.790927	6.913780
14440		44.813702	-66.780295	6.920601
14441		44.773128	-66.772848	6.927214
14442		44.725539	-66.763282	6.947003
14443		44.710654	-66.757933	6.961879
14444		44.723640	-66.757879	6.968942
14445		44.717662	-66.756383	6.984783
14446		44.701712	-66.754736	6.995561
14447		44.703963	-66.753231	6.990838
14448		44.713023	-66.753990	6.995158
14449		44.739745	-66.755549	6.992813
14450		44.778364	-66.760822	6.996626
14451		44.869282	-66.760777	6.993757
14452		44.920230	-66.761101	6.991047
14453		44.915727	-66.760014	6.994520
14454		44.879485	-66.757301	6.994909
14455		44.836027	-66.752183	6.997336
14456		44.815624	-66.747261	7.001162
14457		44.838149	-66.748586	6.997831
14458		44.863378	-66.747050	6.997012
14459		44.903528	-66.747179	6.990308
14460		44.958364	-66.747784	6.987123
14461		45.004287	-66.744915	6.987012
14462		45.051597	-66.744397	6.993870
14463		45.162534	-66.744841	6.978980
14464		45.216138	-66.748706	6.959920
14465		45.168438	-66.747787	6.950729
14466		45.078487	-66.746279	6.943000
14467		45.021444	-66.744286	6.940898
14468		45.027584	-66.746402	6.939401
14469		45.072271	-66.750800	6.934685
14470		45.140717	-66.757238	6.935954
14471		45.266478	-66.763746	6.935618
14472		45.406882	-66.774577	6.926555
14473		45.540035	-66.785452	6.908100
14474		45.637220	-66.789338	6.893630
14475		45.750275	-66.799075	6.878786
14476		45.891512	-66.807834	6.864730
14477		46.090163	-66.820597	6.844995
14478		46.332170	-66.833809	6.812403
14479		46.531876	-66.854436	6.772272
14480		46.655340	-66.866349	6.735467
14481		46.754245	-66.872845	6.703851
14482		46.869802	-66.876669	6.680279
14483		47.055700	-66.882557	6.673701
14484		47.373015	-66.893811	6.672996
14485		47.862905	-66.927237	6.686866
14486		48.618737	-66.966891	6.659631
14487		49.453398	-67.014618	6.559182
14488		50.016831	-67.059260	6.455340
14489		50.166750	-67.081523	6.373616
14490		50.133113	-67.095111	6.299180
14491		50.126377	-67.119635	6.229583
14492		50.182417	-67.131600	6.175565
14493		50.168394	-67.146469	6.136604
14494		50.137202	-67.163161	6.119289
14495		50.253480	-67.167575	6.095754
14496		50.404828	-67.180030	6.059726
14497		50.532903	-67.199769	6.030365
14498		50.601477	-67.209918	6.030901
14499		50.670441	-67.222412	6.043638
14500		50.807800	-67.236298	6.061473
14501		50.974320	-67.254056	6.110088
14502		51.181745	-67.273531	6.187793
14503		51.489705	-67.297588	6.289142
14504		51.920697	-67.331499	6.391912
14505		52.447779	-67.378553	6.450047
14506		52.979464	-67.433792	6.480131
14507		53.424032	-67.484168	6.494603
14508		53.637332	-67.521722	6.506276
14509		53.644419	-67.550622	6.529153
14510		53.644323	-67.572374	6.549865
14511		53.688835	-67.591245	6.579605
14512		53.728572	-67.600508	6.665181
14513		53.838219	-67.607544	6.775202
14514		54.107142	-67.620714	6.891621
14515		54.603151	-67.651311	6.999088
14516		55.353037	-67.698352	7.057885
14517		56.231752	-67.756983	7.070836
14518		57.058172	-67.806657	7.058758
14519		57.713841	-67.843431	7.047128
14520		58.234370	-67.873102	7.042100
14521		58.750431	-67.903473	7.029185
14522		59.279168	-67.928318	7.039296
14523		59.855380	-67.967733	7.072195
14524		60.516974	-68.022000	7.103865
14525		61.249923	-68.096175	7.115248
14526		61.980232	-68.172650	7.108545
14527		62.595853	-68.243446	7.118166
14528		63.050390	-68.306554	7.144022
14529		63.372308	-68.366053	7.205636
14530		63.705616	-68.429884	7.293695
14531		64.146844	-68.511216	7.389899
14532		64.746497	-68.610694	7.491115
14533		65.569704	-68.721524	7.576898
14534		66.534908	-68.837126	7.638535
14535		67.452245	-68.955270	7.685919
14536		68.209051	-69.062907	7.759409
14537		68.781769	-69.165423	7.852925
14538		69.211744	-69.258915	7.959725
14539		69.572527	-69.354642	8.072088
14540		69.905743	-69.445127	8.194971
14541		70.238925	-69.539472	8.321298
14542		70.590975	-69.633007	8.423287
14543		70.905447	-69.721124	8.528076
14544		71.120878	-69.800202	8.642029
14545		71.245445	-69.875163	8.771170
14546		71.333745	-69.946768	8.917781
14547		71.455489	-70.017488	9.065470
14548		71.662436	-70.094725	9.219287
14549		72.022985	-70.182616	9.350603
14550		72.526798	-70.271095	9.471735
14551		73.118752	-70.359592	9.570164
14552		73.727914	-70.445928	9.646096
14553		74.266163	-70.524592	9.700076
14554		74.649096	-70.593410	9.768333
14555		74.935896	-70.656004	9.843054
14556		75.210530	-70.714152	9.904686
14557		75.479590	-70.772262	9.959440
14558		75.745171	-70.830392	10.017834
14559		76.042048	-70.890070	10.072742
14560		76.353916	-70.952433	10.137412
14561		76.665228	-71.012897	10.209559
14562		76.988936	-71.077475	10.278275
14563		77.331446	-71.140712	10.338952
14564		77.683674	-71.200377	10.400039
14565		78.065286	-71.262700	10.441604
14566		78.480009	-71.325965	10.469048
14567		78.914478	-71.391437	10.486854
14568		79.352729	-71.458250	10.506500
14569		79.798266	-71.525791	10.514553
14570		80.243425	-71.596119	10.516421
14571		80.672243	-71.670551	10.525036
14572		81.088303	-71.745974	10.545976
14573		81.519145	-71.828694	10.569395
14574		81.971548	-71.915154	10.606995
14575		82.496623	-72.002819	10.643791
14576		83.142686	-72.094553	10.649019
14577		83.836931	-72.186893	10.625933
14578		84.519251	-72.271701	10.576573
14579		85.115525	-72.352690	10.511798
14580		85.536921	-72.427085	10.472372
14581		85.836923	-72.496155	10.454899
14582		86.114478	-72.566981	10.435099
14583		86.398387	-72.641417	10.407601
14584		86.701643	-72.716163	10.372659
14585		87.004503	-72.791747	10.354911
14586		87.319953	-72.866995	10.341372
14587		87.673674	-72.940568	10.325454
14588		88.048252	-73.012490	10.310818
14589		88.436856	-73.087631	10.309365
14590		88.885735	-73.159564	10.292564
14591		89.418737	-73.233896	10.256392
14592		90.031737	-73.308242	10.188000
14593		90.697834	-73.380845	10.095951
14594		91.394835	-73.450966	9.968795
14595		92.027015	-73.517557	9.860770
14596		92.619304	-73.580291	9.749915
14597		93.174878	-73.641202	9.640077
14598		93.693972	-73.699240	9.528494
14599		94.175852	-73.762547	9.425923
14600		94.653694	-73.820651	9.333573
14601		95.142157	-73.887594	9.256979
14602		95.686841	-73.954082	9.173232
14603		96.295465	-74.025552	9.078408
14604		96.943135	-74.090878	8.978484
14605		97.586253	-74.147858	8.865106
14606		98.154870	-74.197790	8.754283
14607		98.573129	-74.241240	8.668404
14608		98.858881	-74.279072	8.580334
14609		99.036488	-74.314994	8.519185
14610		99.224377	-74.348218	8.459365
14611		99.461177	-74.390500	8.401770
14612		99.719172	-74.437648	8.387903
14613		100.013696	-74.496673	8.409823
14614		100.440290	-74.554955	8.416393
14615		101.030766	-74.615178	8.369572
14616		101.708127	-74.664466	8.274999
14617		102.315130	-74.707704	8.188414
14618		102.778702	-74.737553	8.113771
14619		102.991534	-74.758516	8.075167
14620		103.009621	-74.776007	8.060180
14621		102.962869	-74.791165	8.043047
14622		102.847538	-74.801377	8.016869
14623		102.582613	-74.813728	8.045521
14624		102.279818	-74.828705	8.091241
14625		102.042061	-74.843155	8.139900
14626		101.962103	-74.860170	8.177256
14627		102.083529	-74.876329	8.173059
14628		102.310873	-74.884402	8.137099
14629		102.538712	-74.885022	8.096274
14630		102.727659	-74.870806	8.045706
14631		102.759154	-74.850677	8.012780
14632		102.606742	-74.825187	8.006225
14633		102.358968	-74.795842	7.997618
14634		102.014844	-74.769774	8.003901
14635		101.589102	-74.753015	8.048070
14636		101.254020	-74.742182	8.090251
14637		101.187054	-74.744323	8.104485
14638		101.367850	-74.744364	8.092761
14639		101.623564	-74.746340	8.078017
14640		101.900774	-74.745331	8.046010
14641		102.182451	-74.739764	8.004649
14642		102.403365	-74.732731	7.965561
14643		102.497145	-74.728512	7.947205
14644		102.488508	-74.727160	7.948051
14645		102.434459	-74.728944	7.944945
14646		102.329370	-74.736179	7.978557
14647		102.298545	-74.750545	8.010928
14648		102.446073	-74.773011	8.014539
14649		102.714468	-74.807382	8.023935
14650		103.091485	-74.839224	8.007014
14651		103.595671	-74.873822	7.947999
14652		104.167296	-74.904518	7.870840
14653		104.744826	-74.931312	7.767006
14654		105.250062	-74.952475	7.652466
14655		105.609000	-74.972053	7.546616
14656		105.808681	-74.989258	7.468330
14657		105.947647	-75.001146	7.387604
14658		106.028820	-75.012112	7.317004
14659		106.018401	-75.026006	7.271488
14660		105.938097	-75.037497	7.249727
14661		105.837575	-75.048318	7.247038
14662		105.776190	-75.058354	7.248096
14663		105.825790	-75.069325	7.225274
14664		105.922797	-75.079942	7.224785
14665		106.050299	-75.096472	7.226449
14666		106.235394	-75.114409	7.213108
14667		106.479410	-75.129181	7.184616
14668		106.765205	-75.144749	7.153282
14669		107.075632	-75.163387	7.114943
14670		107.390877	-75.178716	7.078375
14671		107.677243	-75.190692	7.041010
14672		107.917931	-75.202134	6.990273
14673		108.050165	-75.207208	6.944202
14674		108.008641	-75.207327	6.942218
14675		107.887677	-75.209799	6.933677
14676		107.724848	-75.208670	6.927201
14677		107.571264	-75.206511	6.905271
14678		107.392898	-75.204905	6.912333
14679		107.209682	-75.208001	6.941233
14680		107.099464	-75.215180	6.978198
14681		107.166393	-75.222598	6.984554
14682		107.318862	-75.227316	6.982254
14683		107.429435	-75.234072	6.987917
14684		107.492742	-75.236376	6.999060
14685		107.532732	-75.242082	7.003277
14686		107.549815	-75.245037	6.999468
14687		107.507488	-75.249158	7.014675
14688		107.425545	-75.253787	7.038286
14689		107.389887	-75.259366	7.031485
14690		107.373971	-75.264870	7.028356
14691		107.338219	-75.271489	7.038074
14692		107.306504	-75.278576	7.045429
14693		107.301906	-75.285979	7.040665
14694		107.343005	-75.291576	7.024408
14695		107.393513	-75.298650	7.002424
14696		107.402337	-75.303091	6.999923
14697		107.427543	-75.312072	6.972557
14698		107.422014	-75.314802	6.965495
14699		107.380308	-75.319326	6.964283
14700		107.300918	-75.322322	6.977655
14701		107.230214	-75.324640	6.979806
14702		107.169528	-75.326978	6.993237
14703		107.135619	-75.328754	6.999705
14704		107.117634	-75.333473	7.005202
14705		107.136038	-75.339911	7.005790
14706		107.182642	-75.343983	7.009165
14707		107.236456	-75.348685	7.011283
14708		107.245761	-75.351547	7.016052
14709		107.243510	-75.352425	7.010056
14710		107.237107	-75.349535	7.010918
14711		107.206708	-75.348420	7.015802
14712		107.143899	-75.349708	7.037064
14713		107.134889	-75.349370	7.032000
14714		107.169368	-75.350038	7.023654
14715		107.210023	-75.351386	7.022943
14716		107.237272	-75.352014	7.019871
14717		107.261129	-75.353929	7.000919
14718		107.273012	-75.353685	6.984018
14719		107.237514	-75.354880	6.991610
14720		107.206843	-75.355190	6.982563
14721		107.169997	-75.358964	6.969915
14722		107.130109	-75.360145	6.964189
14723		107.088474	-75.362958	6.961576
14724		107.048417	-75.366847	6.955243
14725		107.040696	-75.371670	6.937747
14726		107.043391	-75.373586	6.934703
14727		107.052700	-75.376215	6.930197
14728		107.035678	-75.376475	6.939658
14729		106.986877	-75.379750	6.961397
14730		106.928131	-75.380471	6.971540
14731		106.835432	-75.379143	6.986457
14732		106.681668	-75.375290	7.014491
14733		106.475913	-75.366926	7.048250
14734		106.213098	-75.354318	7.091752
14735		105.910177	-75.338340	7.127647
14736		105.581390	-75.314066	7.155195
14737		105.179965	-75.286851	7.208568
14738		104.691601	-75.257134	7.297070
14739		104.159790	-75.227332	7.400757
14740		103.615669	-75.200480	7.519823
14741		103.107880	-75.176329	7.646965
14742		102.686996	-75.155561	7.777321
14743		102.367320	-75.136889	7.894530
14744		102.107420	-75.116149	7.996719
14745		101.879558	-75.091592	8.082164
14746		101.639600	-75.057838	8.164737
14747		101.380782	-75.017055	8.221230
14748		101.035244	-74.965187	8.283314
14749		100.596422	-74.904008	8.328658
14750		100.018706	-74.832629	8.385366
14751		99.288691	-74.756769	8.473370
14752		98.441518	-74.681098	8.595871
14753		97.570662	-74.611161	8.722538
14754		96.701443	-74.546286	8.903729
14755		96.024327	-74.485637	9.083245
14756		95.684345	-74.433211	9.202378
14757		95.469081	-74.384090	9.314297
14758		95.200039	-74.339876	9.447734
14759		95.006052	-74.292996	9.533166
14760		94.889774	-74.249168	9.581195
14761		94.747645	-74.202294	9.617226
14762		94.503013	-74.148363	9.662886
14763		94.137099	-74.097517	9.696728
14764		93.577347	-74.040822	9.749139
14765		92.833699	-73.976627	9.816983
14766		91.915432	-73.910089	9.921113
14767		90.879141	-73.841602	10.052283
14768		89.799896	-73.765278	10.186583
14769		88.704610	-73.689194	10.333019
14770		87.599834	-73.609078	10.509272
14771		86.518765	-73.522688	10.652400
14772		85.391348	-73.427687	10.801626
14773		84.179172	-73.319064	10.960599
14774		82.858194	-73.199780	11.127413
14775		81.470894	-73.075169	11.291474
14776		80.089832	-72.949971	11.447323
14777		78.776107	-72.830625	11.603811
14778		77.580132	-72.721017	11.760735
14779		76.512526	-72.616152	11.928801
14780		75.574491	-72.517376	12.133206
14781		74.828181	-72.426789	12.321144
14782		74.272579	-72.346041	12.469254
14783		73.859596	-72.267559	12.580210
14784		73.501863	-72.190673	12.691564
14785		73.213496	-72.118325	12.758619
14786		72.956773	-72.051481	12.796827
14787		72.696098	-71.988290	12.823923
14788		72.425678	-71.934291	12.833123
14789		72.134489	-71.889012	12.827739
14790		71.798674	-71.847158	12.824312
14791		71.398064	-71.805330	12.811674
14792		70.922316	-71.762188	12.789272
14793		70.383504	-71.717043	12.759741
14794		69.769050	-71.665186	12.744319
14795		69.127354	-71.613768	12.726787
14796		68.513733	-71.563132	12.704117
14797		67.974014	-71.517074	12.681626
14798		67.525833	-71.481537	12.651713
14799		67.165470	-71.448541	12.617470
14800		66.833949	-71.413730	12.573152
14801		66.507049	-71.376103	12.506686
14802		66.130639	-71.331377	12.414423
14803		65.633103	-71.275755	12.306637
14804		64.972183	-71.204062	12.224311
14805		64.185500	-71.121382	12.161312
14806		63.334527	-71.038504	12.123877
14807		62.540382	-70.961645	12.087156
14808		61.860919	-70.886080	12.066988
14809		61.307176	-70.815337	12.021780
14810		60.794595	-70.734914	11.953058
14811		60.208098	-70.632394	11.823849
14812		59.463357	-70.518925	11.624456
14813		58.465454	-70.393052	11.415858
14814		57.190186	-70.250323	11.260205
14815		55.751868	-70.102511	11.194761
14816		54.427681	-69.957957	11.200235
14817		53.524835	-69.830169	11.207447
14818		53.239327	-69.723517	11.149855
14819		53.199203	-69.617285	11.070713
14820		52.986629	-69.509137	11.013742
14821		52.691360	-69.403979	10.892959
14822		52.374552	-69.307908	10.713217
14823		51.914346	-69.207444	10.537028
14824		51.208988	-69.103846	10.448207
14825		50.392221	-68.991927	10.418669
14826		49.560022	-68.886549	10.474699
14827		48.928599	-68.793955	10.557310
14828		48.633828	-68.718229	10.620797
14829		48.493459	-68.649947	10.679142
14830		48.332780	-68.580797	10.724579
14831		48.148314	-68.516870	10.724873
14832		47.980236	-68.452602	10.696427
14833		47.840670	-68.387897	10.650912
14834		47.650706	-68.319727	10.616364
14835		47.411693	-68.249927	10.589213
14836		47.139507	-68.172887	10.577548
14837		46.867937	-68.098193	10.567938
14838		46.618760	-68.021108	10.551375
14839		46.331575	-67.948732	10.527096
14840		46.023159	-67.869597	10.490985
14841		45.722181	-67.793158	10.455106
14842		45.474968	-67.721620	10.418794
14843		45.300995	-67.655840	10.372550
14844		45.171103	-67.595969	10.330096
14845		45.052032	-67.543096	10.293276
14846		44.924667	-67.496970	10.266856
14847		44.800726	-67.450557	10.234733
14848		44.628614	-67.400973	10.207189
14849		44.433232	-67.344938	10.181330
14850		44.243507	-67.286024	10.162940
14851		44.090532	-67.224033	10.147572
14852		43.977629	-67.157468	10.128323
14853		43.855464	-67.091098	10.117124
14854		43.761806	-67.026656	10.097315
14855		43.635831	-66.964221	10.074570
14856		43.484902	-66.892994	10.059751
14857		43.383164	-66.823933	10.048844
14858		43.364433	-66.763745	10.031080
14859		43.387485	-66.702798	10.007886
14860		43.391458	-66.652610	9.984027
14861		43.360944	-66.604284	9.953007
14862		43.266581	-66.560059	9.925973
14863		43.142960	-66.517904	9.892921
14864		43.013520	-66.475634	9.872357
14865		42.930620	-66.439211	9.854495
14866		42.981128	-66.402638	9.822239
14867		43.168356	-66.371528	9.769050
14868		43.334382	-66.342877	9.703094
14869		43.387484	-66.311269	9.638462
14870		43.351854	-66.280594	9.576697
14871		43.290147	-66.243510	9.510617
14872		43.189321	-66.203565	9.455787
14873		43.116966	-66.166857	9.396337
14874		43.091388	-66.132337	9.343016
14875		43.110865	-66.099882	9.281182
14876		43.110894	-66.066600	9.225268
14877		43.079446	-66.034642	9.160391
14878		42.988394	-65.992564	9.105677
14879		42.869104	-65.943247	9.050819
14880		42.756534	-65.893913	8.992073
14881		42.661881	-65.849265	8.936339
14882		42.599465	-65.803856	8.887600
14883		42.556701	-65.765584	8.832848
14884		42.515078	-65.735233	8.777452
14885		42.459272	-65.711313	8.719465
14886		42.394231	-65.693461	8.671347
14887		42.318832	-65.679722	8.619931
14888		42.250444	-65.666762	8.569071
14889		42.225603	-65.661319	8.508019
14890		42.267367	-65.655986	8.453142
14891		42.344594	-65.658038	8.383947
14892		42.391813	-65.663680	8.313990
14893		42.397087	-65.668428	8.250933
14894		42.389958	-65.671580	8.202731
14895		42.380327	-65.672124	8.150401
14896		42.352213	-65.669272	8.110017
14897		42.303987	-65.659199	8.072714
14898		42.282419	-65.639910	8.030981
14899		42.330904	-65.623541	7.976385
14900		42.456740	-65.608351	7.931110
14901		42.579440	-65.604295	7.883970
14902		42.615126	-65.597515	7.860344
14903		42.578990	-65.593915	7.846464
14904		42.491337	-65.582102	7.848388
14905		42.437020	-65.563671	7.848926
14906		42.429532	-65.548201	7.847935
14907		42.465869	-65.543663	7.842273
14908		42.534982	-65.540732	7.838114
14909		42.545950	-65.539384	7.842264
14910		42.516905	-65.533017	7.855515
14911		42.500648	-65.520926	7.871974
14912		42.496215	-65.518229	7.893958
14913		42.530287	-65.520722	7.928349
14914		42.519648	-65.528265	7.969376
14915		42.436081	-65.532959	8.022643
14916		42.383166	-65.534137	8.055412
14917		42.384488	-65.530409	8.068412
14918		42.360582	-65.533265	8.083513
14919		42.331225	-65.535691	8.108333
14920		42.347005	-65.544251	8.133028
14921		42.365839	-65.549622	8.164326
14922		42.371084	-65.558875	8.192119
14923		42.362062	-65.567202	8.224536
14924		42.344695	-65.574588	8.247860
14925		42.289894	-65.580503	8.262628
14926		42.257140	-65.587338	8.271874
14927		42.300161	-65.599894	8.263810
14928		42.378742	-65.605415	8.251477
14929		42.481905	-65.613527	8.224931
14930		42.599658	-65.619630	8.191041
14931		42.732359	-65.629995	8.155658
14932		42.870384	-65.638633	8.109578
14933		42.939044	-65.647096	8.058484
14934		42.908834	-65.654106	8.025401
14935		42.881774	-65.658682	7.990482
14936		42.887197	-65.662060	7.951708
14937		42.912706	-65.668193	7.917931
14938		42.958259	-65.682761	7.890827
14939		43.045929	-65.700124	7.862980
14940		43.152676	-65.719311	7.840614
14941		43.226599	-65.738912	7.821310
14942		43.262516	-65.760662	7.810290
14943		43.238778	-65.783004	7.805390
14944		43.179048	-65.803821	7.816895
14945		43.126514	-65.827694	7.832119
14946		43.133916	-65.847593	7.844595
14947		43.202813	-65.871108	7.858029
14948		43.294277	-65.892344	7.859191
14949		43.359804	-65.904801	7.862244
14950		43.428298	-65.911836	7.849100
14951		43.468731	-65.919206	7.832231
14952		43.455262	-65.921457	7.813476
14953		43.410661	-65.930199	7.805290
14954		43.390363	-65.936786	7.798384
14955		43.379998	-65.948851	7.798236
14956		43.398580	-65.963559	7.792942
14957		43.464269	-65.983006	7.781739
14958		43.570295	-66.006323	7.777780
14959		43.702251	-66.031487	7.766009
14960		43.836981	-66.058785	7.766665
14961		43.999325	-66.092525	7.766759
14962		44.187511	-66.133608	7.778526
14963		44.395955	-66.178372	7.798610
14964		44.638671	-66.227043	7.826723
14965		44.964691	-66.282747	7.861941
14966		45.395665	-66.344537	7.876996
14967		45.888302	-66.422697	7.876373
14968		46.442893	-66.498436	7.853560
14969		46.908545	-66.576237	7.804328
14970		47.233502	-66.652178	7.761430
14971		47.464405	-66.722030	7.716732
14972		47.651977	-66.787010	7.690574
14973		47.852876	-66.851013	7.688612
14974		48.112137	-66.925087	7.711171
14975		48.514814	-67.013311	7.735417
14976		49.074117	-67.107622	7.749567
14977		49.663600	-67.206189	7.750907
14978		50.142959	-67.305405	7.750845
14979		50.468915	-67.390111	7.739612
14980		50.693566	-67.470851	7.723943
14981		50.905466	-67.554671	7.726392
14982		51.118100	-67.641409	7.757929
14983		51.331722	-67.733704	7.824909
14984		51.599241	-67.830503	7.917600
14985		51.953709	-67.945439	8.021077
14986		52.369181	-68.066971	8.127586
14987		52.805630	-68.188161	8.230536
14988		53.236968	-68.300219	8.323593
14989		53.654848	-68.404531	8.399002
14990		54.062091	-68.495074	8.477650
14991		54.507052	-68.578457	8.567044
14992		55.013297	-68.661411	8.669898
14993		55.609772	-68.737912	8.758591
14994		56.360865	-68.834460	8.813290
14995		57.205989	-68.933474	8.813573
14996		57.915924	-69.015380	8.818693
14997		58.371786	-69.069941	8.858708
14998		58.694496	-69.108531	8.959235
14999		59.074751	-69.155189	9.081367
15000		59.521920	-69.194934	9.248165
15001		60.180227	-69.250090	9.412851
15002		61.191337	-69.325600	9.522042
15003		62.543427	-69.422427	9.531453
15004		64.063289	-69.520047	9.427701
15005		65.291372	-69.602166	9.296697
15006		65.810386	-69.658314	9.250137
15007		65.947335	-69.704748	9.239339
15008		66.177130	-69.757001	9.187170
15009		66.509368	-69.813310	9.148535
15010		66.799512	-69.876549	9.166017
15011		67.072699	-69.939481	9.229188
15012		67.446674	-70.005244	9.284009
15013		67.957810	-70.078628	9.303879
15014		68.542987	-70.152814	9.300519
15015		69.082552	-70.221715	9.292033
15016		69.517383	-70.276182	9.287795
15017		69.884318	-70.327617	9.302720
15018		70.243038	-70.380743	9.320820
15019		70.630414	-70.440734	9.348320
15020		71.100950	-70.512362	9.397221
15021		71.704114	-70.596856	9.469387
15022		72.475119	-70.688939	9.533131
15023		73.431136	-70.794952	9.550894
15024		74.497175	-70.901166	9.520909
15025		75.517293	-70.998475	9.468702
15026		76.328001	-71.082066	9.427688
15027		76.848904	-71.155462	9.403781
15028		77.174541	-71.213618	9.397789
15029		77.461177	-71.273677	9.397041
15030		77.773953	-71.344115	9.415592
15031		78.143931	-71.423260	9.452915
15032		78.611581	-71.509584	9.507010
15033		79.225303	-71.606557	9.525476
15034		79.936755	-71.707087	9.516961
15035		80.682899	-71.803170	9.488163
15036		81.387484	-71.891205	9.444680
15037		81.951055	-71.972903	9.411799
15038		82.402658	-72.049890	9.390484
15039		82.828892	-72.124717	9.388220
15040		83.315766	-72.204177	9.385704
15041		83.961055	-72.296345	9.350437
15042		84.786459	-72.393685	9.264427
15043		85.684870	-72.490245	9.136489
15044		86.534450	-72.570815	8.999115
15045		87.154235	-72.639307	8.890440
15046		87.406490	-72.693553	8.850089
15047		87.497704	-72.748005	8.838371
15048		87.686769	-72.810876	8.832345
15049		88.062044	-72.894441	8.810212
15050		88.613377	-72.990303	8.766071
15051		89.374801	-73.093353	8.690663
15052		90.365032	-73.191493	8.557396
15053		91.389345	-73.280902	8.380480
15054		92.223432	-73.350811	8.207907
15055		92.595098	-73.406360	8.117426
15056		92.640472	-73.456980	8.083487
15057		92.732585	-73.509662	8.030003
15058		93.043015	-73.561538	7.923976
15059		93.387938	-73.624922	7.822650
15060		93.655118	-73.692066	7.773965
15061		93.941047	-73.763828	7.744617
15062		94.319559	-73.837040	7.696946
15063		94.763560	-73.907391	7.639595
15064		95.287841	-73.975134	7.563215
15065		95.880430	-74.042247	7.461993
15066		96.464819	-74.099117	7.369536
15067		97.040599	-74.155347	7.267788
15068		97.638726	-74.213177	7.150015
15069		98.250148	-74.269644	7.045474
15070		98.914132	-74.331693	6.934676
15071		99.667393	-74.400444	6.806993
15072		100.504747	-74.470866	6.674907
15073		101.419868	-74.538790	6.512605
15074		102.305684	-74.600373	6.358009
15075		103.075096	-74.654462	6.209963
15076		103.629759	-74.693423	6.073682
15077		103.890192	-74.731197	5.983966
15078		104.030177	-74.760643	5.900932
15079		104.164343	-74.789670	5.812393
15080		104.309558	-74.814431	5.710063
15081		104.361073	-74.838579	5.654911
15082		104.374804	-74.861017	5.607294
15083		104.362149	-74.879510	5.572875
15084		104.357465	-74.892122	5.542221
15085		104.397346	-74.909256	5.514089
15086		104.491959	-74.925024	5.507855
15087		104.708935	-74.949184	5.499096
15088		105.087167	-74.977915	5.485305
15089		105.643130	-75.007641	5.433036
15090		106.309930	-75.033656	5.351737
15091		107.005914	-75.052968	5.240363
15092		107.540798	-75.065505	5.138938
15093		107.752762	-75.073916	5.087508
15094		107.760461	-75.076704	5.061031
15095		107.743857	-75.076839	5.017639
15096		107.695751	-75.079331	4.968286
15097		107.599028	-75.084480	4.937556
15098		107.502111	-75.095915	4.943214
15099		107.485466	-75.109537	4.937662
15100		107.557510	-75.120335	4.917208
15101		107.682508	-75.130432	4.901368
15102		107.857761	-75.139419	4.879120
15103		108.085310	-75.147526	4.826705
15104		108.294757	-75.152038	4.772371
15105		108.439698	-75.152197	4.713874
15106		108.483416	-75.147462	4.676252
15107		108.426951	-75.144867	4.665176
15108		108.315814	-75.140357	4.657377
15109		108.163241	-75.140426	4.669038
15110		108.033500	-75.137735	4.674287
15111		107.963806	-75.132991	4.666964
15112		107.936003	-75.130635	4.671977
15113		107.964939	-75.131271	4.669883
15114		108.062903	-75.128340	4.654448
15115		108.187616	-75.128477	4.630686
15116		108.272933	-75.126802	4.625386
15117		108.342707	-75.123961	4.619285
15118		108.394291	-75.120897	4.610845
15119		108.399588	-75.119708	4.603614
15120		108.362847	-75.110924	4.603691
15121		108.261650	-75.104391	4.630892
15122		108.152049	-75.099445	4.659891
15123		108.057949	-75.092264	4.682584
15124		107.970343	-75.087285	4.705626
15125		107.884343	-75.087823	4.734054
15126		107.806159	-75.087744	4.766533
15127		107.775385	-75.093253	4.785794
15128		107.797775	-75.099971	4.797570
15129		107.851393	-75.106582	4.810187
15130		107.912301	-75.109932	4.819083
15131		107.959850	-75.112231	4.822538
15132		107.988838	-75.109624	4.825085
15133		107.990803	-75.103590	4.836109
15134		107.954369	-75.095536	4.854771
15135		107.912012	-75.090122	4.860382
15136		107.886190	-75.080952	4.864479
15137		107.915231	-75.076823	4.855516
15138		107.973633	-75.070781	4.854986
15139		108.073276	-75.069436	4.844191
15140		108.224453	-75.068253	4.819291
15141		108.405544	-75.071728	4.790715
15142		108.579013	-75.072156	4.765469
15143		108.723446	-75.074893	4.743716
15144		108.842461	-75.078406	4.712340
15145		108.919475	-75.079567	4.675555
15146		108.941898	-75.080742	4.643337
15147		108.929321	-75.087913	4.626250
15148		108.944077	-75.093468	4.597506
15149		108.996431	-75.102292	4.566655
15150		109.042031	-75.114705	4.567798
15151		109.114509	-75.128179	4.565605
15152		109.241599	-75.139332	4.550536
15153		109.420537	-75.145627	4.518174
15154		109.610696	-75.150045	4.489100
15155		109.806064	-75.149220	4.443603
15156		109.945439	-75.146431	4.407798
15157		110.015798	-75.142373	4.365391
15158		110.004314	-75.135084	4.339486
15159		109.947048	-75.130508	4.328100
15160		109.898244	-75.124877	4.320784
15161		109.878575	-75.119882	4.321775
15162		109.879327	-75.115858	4.323991
15163		109.862669	-75.109978	4.340982
15164		109.850637	-75.106311	4.350088
15165		109.816692	-75.102338	4.377353
15166		109.786476	-75.098369	4.401533
15167		109.756791	-75.094880	4.425433
15168		109.718350	-75.091490	4.463835
15169		109.689726	-75.089961	4.496743
15170		109.650442	-75.086473	4.538721
15171		109.609329	-75.084960	4.584600
15172		109.560300	-75.078819	4.631371
15173		109.487333	-75.073510	4.689543
15174		109.393163	-75.066456	4.752296
15175		109.303980	-75.060637	4.796908
15176		109.205217	-75.055032	4.848211
15177		109.129578	-75.052803	4.885632
15178		109.085602	-75.048602	4.905947
15179		109.042309	-75.048182	4.932166
15180		109.008585	-75.047860	4.951393
15181		109.038983	-75.047944	4.937541
15182		109.078147	-75.044519	4.940453
15183		109.117194	-75.041972	4.934175
15184		109.155977	-75.036253	4.913533
15185		109.177143	-75.034021	4.894180
15186		109.199127	-75.029709	4.863979
15187		109.216988	-75.027578	4.829077
15188		109.244233	-75.025576	4.799460
15189		109.282704	-75.026174	4.769383
15190		109.305118	-75.024734	4.751590
15191		109.303981	-75.027714	4.739844
15192		109.311483	-75.027763	4.717916
15193		109.309904	-75.032166	4.706548
15194		109.282673	-75.035090	4.712128
15195		109.253846	-75.039530	4.711940
15196		109.218044	-75.042613	4.717619
15197		109.181511	-75.044910	4.723865
15198		109.146824	-75.046582	4.730689
15199		109.136814	-75.047662	4.728460
15200		109.141112	-75.049688	4.744608
15201		109.174686	-75.051622	4.749737
15202		109.163673	-75.054044	4.771560
15203		109.130472	-75.055984	4.793599
15204		109.098397	-75.057473	4.814326
15205		109.068662	-75.057619	4.822002
15206		109.024594	-75.055120	4.838249
15207		108.966471	-75.053034	4.848800
15208		108.867200	-75.054231	4.883975
15209		108.792822	-75.059043	4.895021
15210		108.784593	-75.060320	4.898076
15211		108.819194	-75.062937	4.904290
15212		108.834649	-75.063097	4.912866
15213		108.830442	-75.064787	4.918583
15214		108.802899	-75.064854	4.938042
15215		108.755003	-75.067723	4.956159
15216		108.675579	-75.064933	4.974076
15217		108.562465	-75.061673	4.994933
15218		108.396663	-75.058171	5.020535
15219		108.186408	-75.051945	5.038327
15220		107.928663	-75.041074	5.064340
15221		107.609906	-75.026602	5.105495
15222		107.233225	-75.010579	5.160142
15223		106.811348	-74.993960	5.227641
15224		106.362555	-74.974541	5.303934
15225		105.896983	-74.955955	5.386835
15226		105.412667	-74.933820	5.480796
15227		104.913365	-74.911089	5.592701
15228		104.429095	-74.886478	5.705160
15229		103.945076	-74.861704	5.820920
15230		103.441421	-74.829622	5.940217
15231		102.888942	-74.790574	6.072556
15232		102.231118	-74.745004	6.221440
15233		101.435032	-74.691942	6.392189
15234		100.495737	-74.629800	6.600971
15235		99.486834	-74.566033	6.824507
15236		98.481732	-74.512166	7.054436
15237		97.526238	-74.467458	7.315396
15238		96.797483	-74.432726	7.595100
15239		96.543551	-74.407678	7.778066
15240		96.549363	-74.384636	7.915926
15241		96.532987	-74.364720	8.059411
15242		96.494267	-74.347000	8.180500
15243		96.524598	-74.326591	8.244653
15244		96.563245	-74.306303	8.283016
15245		96.539869	-74.282837	8.316125
15246		96.419712	-74.257758	8.348440
15247		96.157099	-74.226298	8.380929
15248		95.720097	-74.185170	8.409950
15249		95.082404	-74.136326	8.457406
15250		94.256235	-74.080339	8.536486
15251		93.316147	-74.024417	8.632013
15252		92.342359	-73.969182	8.765690
15253		91.474964	-73.920816	8.920092
15254		90.891176	-73.880473	9.032697
15255		90.568504	-73.844150	9.121481
15256		90.316432	-73.812090	9.215785
15257		90.090339	-73.783213	9.280536
15258		89.854694	-73.739948	9.338998
15259		89.557579	-73.691362	9.347132
15260		89.082424	-73.636406	9.360777
15261		88.357097	-73.573227	9.437841
15262		87.465772	-73.507727	9.549301
15263		86.529655	-73.447228	9.680331
15264		85.621490	-73.386725	9.839446
15265		84.826828	-73.330991	10.001740
15266		84.164267	-73.281102	10.163982
15267		83.603356	-73.240514	10.315662
15268		83.136439	-73.201525	10.445007
15269		82.657788	-73.139988	10.587104
15270		82.164294	-73.070072	10.638142
15271		81.553669	-72.992240	10.664144
15272		80.684615	-72.900870	10.711833
15273		79.547274	-72.806894	10.808186
15274		78.317012	-72.710409	10.938029
15275		77.157615	-72.625789	11.080385
15276		76.172716	-72.553313	11.235921
15277		75.482031	-72.495362	11.361071
15278		75.020371	-72.451291	11.476228
15279		74.677925	-72.418948	11.544181
15280		74.304531	-72.365532	11.627474
15281		73.909892	-72.301105	11.636784
15282		73.465457	-72.230817	11.607478
15283		72.871698	-72.148939	11.582813
15284		72.090553	-72.058650	11.600372
15285		71.241848	-71.968613	11.648093
15286		70.462409	-71.886594	11.708626
15287		69.851945	-71.819430	11.774695
15288		69.469528	-71.772593	11.821115
15289		69.259789	-71.736924	11.848973
15290		69.032928	-71.701133	11.895749
15291		68.783551	-71.669935	11.925134
15292		68.572149	-71.631880	11.910246
15293		68.382281	-71.597677	11.856965
15294		68.117883	-71.554623	11.809938
15295		67.745900	-71.509389	11.758590
15296		67.268350	-71.462988	11.721734
15297		66.727303	-71.422411	11.681665
15298		66.093742	-71.376382	11.665899
15299		65.376135	-71.329933	11.653149
15300		64.593297	-71.282910	11.658165
15301		63.806791	-71.236755	11.671700
15302		63.081891	-71.181185	11.698645
15303		62.413001	-71.131662	11.699389
15304		61.799509	-71.085681	11.678124
15305		61.234734	-71.038603	11.650732
15306		60.668794	-70.985018	11.630470
15307		60.098071	-70.933846	11.602363
15308		59.539176	-70.874088	11.571029
15309		58.996218	-70.812009	11.502936
15310		58.407993	-70.753041	11.429756
15311		57.756448	-70.688723	11.374013
15312		57.022188	-70.617192	11.347476
15313		56.253963	-70.545351	11.336030
15314		55.500601	-70.477124	11.345506
15315		54.828891	-70.417617	11.363607
15316		54.243545	-70.363063	11.395046
15317		53.737776	-70.311557	11.416369
15318		53.258464	-70.261114	11.429424
15319		52.731589	-70.209207	11.417565
15320		52.143182	-70.149328	11.392658
15321		51.494179	-70.084986	11.373724
15322		50.742201	-70.010942	11.366226
15323		49.937420	-69.933494	11.381384
15324		49.202184	-69.854799	11.413380
15325		48.568315	-69.777482	11.450143
15326		48.029248	-69.700971	11.496221
15327		47.599506	-69.631759	11.529020
15328		47.219143	-69.562731	11.557235
15329		46.870031	-69.497465	11.554931
15330		46.544937	-69.433707	11.535309
15331		46.234905	-69.369978	11.501307
15332		45.904691	-69.304496	11.459246
15333		45.553253	-69.236243	11.419618
15334		45.192644	-69.164507	11.392835
15335		44.861128	-69.083831	11.370424
15336		44.560704	-69.001062	11.339977
15337		44.281818	-68.921203	11.313303
15338		44.053552	-68.841329	11.275757
15339		43.886258	-68.754152	11.225272
15340		43.752025	-68.664524	11.166895
15341		43.672683	-68.577847	11.087867
15342		43.622422	-68.498736	10.994314
15343		43.569019	-68.424663	10.886608
15344		43.481376	-68.351040	10.779354
15345		43.391699	-68.283315	10.672678
15346		43.302201	-68.217938	10.550800
15347		43.191525	-68.156633	10.434567
15348		43.089546	-68.094065	10.311923
15349		43.013715	-68.035223	10.175446
15350		42.950711	-67.975614	10.032536
15351		42.889017	-67.920968	9.893526
15352		42.849099	-67.867502	9.743337
15353		42.785794	-67.822240	9.613059
15354		42.723786	-67.781177	9.497304
15355		42.674237	-67.743017	9.379695
15356		42.635559	-67.703343	9.268209
15357		42.607469	-67.663475	9.150985
15358		42.583048	-67.621337	9.027844
15359		42.555090	-67.574423	8.885582
15360		42.516825	-67.523343	8.745632
15361		42.489781	-67.479666	8.602843
15362		42.422976	-67.430651	8.486640
15363		42.405450	-67.384131	8.386770
15364		42.495931	-67.342178	8.280711
15365		42.699113	-67.304553	8.175381
15366		42.889841	-67.273184	8.062479
15367		42.979042	-67.239560	7.959999
15368		43.005737	-67.205909	7.867919
15369		43.006300	-67.168309	7.782443
15370		42.963458	-67.124943	7.714787
15371		42.907638	-67.081881	7.655985
15372		42.881599	-67.043124	7.617948
15373		42.899365	-67.011129	7.595776
15374		42.959181	-66.980404	7.573247
15375		42.975526	-66.950663	7.541476
15376		42.965521	-66.917529	7.501057
15377		42.971172	-66.887704	7.452905
15378		42.976076	-66.858090	7.411286
15379		42.992433	-66.827498	7.368921
15380		43.005075	-66.799469	7.336703
15381		43.012317	-66.770939	7.304743
15382		42.982396	-66.735276	7.272793
15383		42.921323	-66.696554	7.231309
15384		42.873055	-66.653374	7.183253
15385		42.848965	-66.610415	7.133294
15386		42.854760	-66.555038	7.082493
15387		42.899838	-66.506611	7.020573
15388		42.990145	-66.453026	6.945411
15389		43.066858	-66.400332	6.866301
15390		43.094933	-66.339861	6.785997
15391		43.107217	-66.276687	6.704888
15392		43.149676	-66.212485	6.626532
15393		43.208617	-66.151452	6.550983
15394		43.256940	-66.093231	6.468036
15395		43.281885	-66.040944	6.392727
15396		43.296863	-65.992860	6.318801
15397		43.319482	-65.947241	6.251902
15398		43.363859	-65.910081	6.187236
15399		43.415643	-65.884889	6.133047
15400		43.465616	-65.864271	6.081734
15401		43.514255	-65.850614	6.035539
15402		43.549253	-65.843544	6.001489
15403		43.607795	-65.841520	5.968185
15404		43.630177	-65.846854	5.947354
15405		43.621079	-65.856298	5.937002
15406		43.577070	-65.867551	5.935008
15407		43.540267	-65.880010	5.935573
15408		43.532600	-65.893941	5.942544
15409		43.508118	-65.905066	5.951195
15410		43.460520	-65.915690	5.966779
15411		43.420040	-65.922497	5.973131
15412		43.371387	-65.925283	5.983029
15413		43.365291	-65.924119	5.982937
15414		43.376794	-65.918849	5.978631
15415		43.404818	-65.910508	5.970550
15416		43.421929	-65.896899	5.952690
15417		43.434525	-65.884465	5.930188
15418		43.453310	-65.870565	5.908823
15419		43.484989	-65.860622	5.881369
15420		43.511331	-65.851928	5.861204
15421		43.511373	-65.842235	5.834970
15422		43.499267	-65.837713	5.805076
15423		43.523531	-65.834930	5.771045
15424		43.580670	-65.831722	5.730639
15425		43.615293	-65.830882	5.689717
15426		43.651774	-65.831838	5.650681
15427		43.699565	-65.837244	5.619393
15428		43.766062	-65.842823	5.587569
15429		43.835019	-65.851357	5.550180
15430		43.868848	-65.861220	5.511755
15431		43.897758	-65.873908	5.470817
15432		43.935112	-65.881150	5.446953
15433		43.961337	-65.896784	5.424661
15434		43.947435	-65.909084	5.412540
15435		43.930743	-65.923027	5.401349
15436		43.918770	-65.936265	5.393629
15437		43.899950	-65.942333	5.391235
15438		43.907761	-65.949839	5.385074
15439		43.949499	-65.957760	5.381246
15440		43.990184	-65.965084	5.374991
15441		43.993501	-65.965788	5.371205
15442		43.979000	-65.958613	5.364164
15443		43.946037	-65.947325	5.364299
15444		43.927464	-65.936517	5.364183
15445		43.939251	-65.924031	5.357108
15446		43.974339	-65.909683	5.351245
15447		44.018351	-65.897491	5.335914
15448		44.042752	-65.883577	5.325008
15449		44.070579	-65.871174	5.312646
15450		44.087135	-65.860726	5.292953
15451		44.050844	-65.851175	5.281405
15452		44.005024	-65.843013	5.275183
15453		44.000755	-65.841004	5.273626
15454		44.061585	-65.838006	5.258715
15455		44.124299	-65.843930	5.251957
15456		44.186481	-65.849956	5.250562
15457		44.243329	-65.858078	5.244845
15458		44.239451	-65.866074	5.249923
15459		44.184345	-65.868965	5.261260
15460		44.110964	-65.878596	5.272800
15461		44.040280	-65.889595	5.293468
15462		44.026455	-65.901391	5.304959
15463		44.096232	-65.919587	5.313348
15464		44.217823	-65.934341	5.307366
15465		44.284444	-65.946897	5.302522
15466		44.318085	-65.956746	5.293996
15467		44.381800	-65.971939	5.281899
15468		44.448038	-65.986285	5.273093
15469		44.509783	-66.003786	5.251535
15470		44.551440	-66.019945	5.233378
15471		44.619309	-66.033980	5.209953
15472		44.714169	-66.049052	5.189152
15473		44.881871	-66.064132	5.166181
15474		45.139675	-66.080179	5.156382
15475		45.486386	-66.095323	5.174730
15476		45.950597	-66.130162	5.223401
15477		46.692624	-66.193679	5.266216
15478		47.746073	-66.268695	5.257789
15479		48.807767	-66.335960	5.139532
15480		49.281074	-66.397565	5.025406
15481		49.185665	-66.423081	4.952217
15482		48.937282	-66.437474	4.906016
15483		48.853186	-66.455949	4.875031
15484		48.983291	-66.469335	4.880450
15485		49.220310	-66.479020	4.945272
15486		49.654152	-66.509813	5.036121
15487		50.466421	-66.576691	5.114509
15488		51.631471	-66.656375	5.134446
15489		52.887611	-66.743412	5.132839
15490		53.977543	-66.814950	5.099419
15491		54.662043	-66.859450	5.084169
15492		55.108930	-66.891703	5.067060
15493		55.554703	-66.927698	5.046959
15494		55.920805	-66.968388	5.067008
15495		56.203992	-67.022113	5.107856
15496		56.428343	-67.074900	5.174920
15497		56.592538	-67.127057	5.254317
15498		56.677655	-67.167210	5.354374
15499		56.752126	-67.205052	5.496260
15500		56.910223	-67.243455	5.673036
15501		57.170693	-67.274601	5.877787
15502		57.694602	-67.326491	6.088095
15503		58.594668	-67.405948	6.280977
15504		59.749831	-67.492308	6.465309
15505		61.034415	-67.587769	6.607279
15506		62.342119	-67.677103	6.691620
15507		63.480709	-67.761156	6.766082
15508		64.240924	-67.836858	6.867660
15509		64.714718	-67.899139	6.976702
15510		65.120816	-67.958936	7.080940
15511		65.501374	-68.030551	7.203611
15512		65.856946	-68.091883	7.345952
15513		66.167356	-68.159227	7.533425
15514		66.601737	-68.250587	7.723572
15515		67.227709	-68.352408	7.873191
15516		67.934132	-68.462179	7.978497
15517		68.633202	-68.573732	8.041450
15518		69.242925	-68.679472	8.081606
15519		69.708858	-68.783372	8.116791
15520		70.095000	-68.883966	8.163019
15521		70.470358	-68.984439	8.213160
15522		70.885224	-69.087372	8.273839
15523		71.418988	-69.203868	8.338458
15524		72.092000	-69.322718	8.399211
15525		72.906434	-69.448567	8.439991
15526		73.850003	-69.583146	8.454213
15527		74.861988	-69.721299	8.452537
15528		75.861354	-69.849144	8.445845
15529		76.809717	-69.968646	8.436511
15530		77.702493	-70.084629	8.409811
15531		78.509851	-70.198753	8.369945
15532		79.237268	-70.306027	8.325259
15533		79.892921	-70.415435	8.284969
15534		80.498448	-70.520347	8.242237
15535		81.092214	-70.632710	8.201990
15536		81.663817	-70.746484	8.179503
15537		82.249495	-70.865499	8.172542
15538		82.877176	-70.981615	8.158997
15539		83.518545	-71.104184	8.129536
15540		84.137172	-71.218637	8.099611
15541		84.712808	-71.326114	8.075119
15542		85.224351	-71.421405	8.056563
15543		85.648094	-71.514055	8.048749
15544		86.028570	-71.604454	8.052767
15545		86.393595	-71.699429	8.076953
15546		86.772097	-71.793293	8.117551
15547		87.205615	-71.891102	8.145821
15548		87.702235	-71.993039	8.172459
15549		88.253840	-72.096586	8.207674
15550		88.853688	-72.199926	8.237006
15551		89.467625	-72.304704	8.271409
15552		90.104775	-72.405566	8.306960
15553		90.767739	-72.502193	8.328695
15554		91.427695	-72.596176	8.325208
15555		92.026395	-72.682248	8.319272
15556		92.531584	-72.759832	8.316827
15557		92.939438	-72.831160	8.327220
15558		93.309924	-72.900734	8.330180
15559		93.641092	-72.972126	8.347404
15560		93.974980	-73.044791	8.377405
15561		94.366656	-73.117686	8.403695
15562		94.827272	-73.197560	8.413420
15563		95.372666	-73.275824	8.387716
15564		95.988247	-73.349855	8.325015
15565		96.612254	-73.417653	8.236823
15566		97.183879	-73.477852	8.137760
15567		97.653881	-73.534513	8.047856
15568		98.024409	-73.584627	7.978251
15569		98.348036	-73.635866	7.923075
15570		98.681553	-73.691402	7.890601
15571		99.122349	-73.761665	7.843190
15572		99.713128	-73.843517	7.800648
15573		100.544154	-73.932750	7.712492
15574		101.561017	-74.021135	7.582302
15575		102.649161	-74.103571	7.425285
15576		103.686342	-74.165868	7.253513
15577		104.456857	-74.217280	7.098890
15578		104.788771	-74.260102	7.024416
15579		104.972283	-74.295366	6.944345
15580		105.267089	-74.321936	6.818126
15581		105.618403	-74.349983	6.675531
15582		105.825268	-74.381299	6.594137
15583		105.914777	-74.414610	6.548301
15584		105.955711	-74.440899	6.523265
15585		105.988875	-74.465365	6.494683
15586		106.007597	-74.487997	6.493831
15587		106.079359	-74.510515	6.490200
15588		106.218329	-74.526942	6.486303
15589		106.420205	-74.541108	6.469958
15590		106.643945	-74.552893	6.471221
15591		106.923941	-74.567067	6.459407
15592		107.277604	-74.585156	6.448343
15593		107.715194	-74.609624	6.426401
15594		108.180166	-74.629748	6.397490
15595		108.661225	-74.648047	6.349087
15596		109.061777	-74.661242	6.318583
15597		109.301402	-74.673000	6.308013
15598		109.411732	-74.683254	6.321385
15599		109.504631	-74.695541	6.319126
15600		109.607483	-74.705400	6.291564
15601		109.649081	-74.718480	6.278842
15602		109.627373	-74.732876	6.281727
15603		109.562173	-74.745642	6.289905
15604		109.456771	-74.758851	6.316470
15605		109.375433	-74.772436	6.342339
15606		109.320634	-74.785094	6.373088
15607		109.293594	-74.803814	6.418408
15608		109.374192	-74.822174	6.442618
15609		109.603984	-74.846983	6.434756
15610		109.955215	-74.878074	6.413729
15611		110.394224	-74.909490	6.387643
15612		110.932516	-74.935688	6.326841
15613		111.507324	-74.954716	6.235169
15614		111.995066	-74.963689	6.137857
15615		112.344086	-74.959702	6.030185
15616		112.535096	-74.945149	5.934547
15617		112.585585	-74.921090	5.836484
15618		112.508257	-74.891427	5.745492
15619		112.345773	-74.860002	5.654480
15620		112.152100	-74.824487	5.567257
15621		111.952765	-74.788099	5.477280
15622		111.744646	-74.748407	5.397046
15623		111.535279	-74.714662	5.349257
15624		111.396132	-74.683142	5.309415
15625		111.386571	-74.661292	5.274232
15626		111.507026	-74.641869	5.240055
15627		111.708711	-74.637794	5.208922
15628		112.006406	-74.642129	5.170760
15629		112.440942	-74.653923	5.115953
15630		112.934596	-74.669136	5.062223
15631		113.369694	-74.690115	5.015385
15632		113.687732	-74.705468	4.978811
15633		113.903436	-74.717999	4.932827
15634		114.006857	-74.725238	4.897008
15635		113.992411	-74.734776	4.873793
15636		113.862060	-74.746117	4.867303
15637		113.646059	-74.757228	4.887633
15638		113.419784	-74.770531	4.913966
15639		113.229155	-74.784745	4.931507
15640		113.139408	-74.799907	4.929415
15641		113.154406	-74.818847	4.916986
15642		113.207429	-74.837937	4.909011
15643		113.291108	-74.853764	4.876511
15644		113.386976	-74.865993	4.823676
15645		113.469265	-74.878449	4.770800
15646		113.527116	-74.886170	4.717711
15647		113.541271	-74.892653	4.677658
15648		113.542847	-74.897586	4.638733
15649		113.540763	-74.903840	4.598909
15650		113.535240	-74.908743	4.557725
15651		113.541785	-74.912547	4.521193
15652		113.551693	-74.916134	4.492887
15653		113.555866	-74.917903	4.468425
15654		113.555322	-74.920041	4.452497
15655		113.574327	-74.921146	4.433958
15656		113.602937	-74.925639	4.423829
15657		113.639433	-74.931602	4.411997
15658		113.657586	-74.935889	4.418443
15659		113.647175	-74.941392	4.435495
15660		113.638727	-74.945522	4.452191
15661		113.633043	-74.951022	4.466440
15662		113.603155	-74.954869	4.492998
15663		113.570462	-74.960801	4.513550
15664		113.540552	-74.963150	4.535101
15665		113.508855	-74.966691	4.557705
15666		113.458824	-74.969071	4.585915
15667		113.388298	-74.969675	4.625671
15668		113.329135	-74.968178	4.653833
15669		113.278287	-74.970847	4.679620
15670		113.230735	-74.971423	4.710540
15671		113.225791	-74.970953	4.737459
15672		113.259121	-74.968074	4.754259
15673		113.279772	-74.963599	4.767187
15674		113.266556	-74.962228	4.789248
15675		113.242015	-74.960663	4.815074
15676		113.225073	-74.957004	4.824981
15677		113.206198	-74.954127	4.834600
15678		113.182194	-74.950674	4.843047
15679		113.169615	-74.947883	4.838125
15680		113.162483	-74.942941	4.837110
15681		113.166911	-74.939543	4.824542
15682		113.165706	-74.934510	4.812343
15683		113.140128	-74.931064	4.817115
15684		113.111738	-74.928231	4.816820
15685		113.086095	-74.925297	4.810903
15686		113.036979	-74.925128	4.819780
15687		112.972857	-74.926284	4.829077
15688		112.908270	-74.925427	4.835752
15689		112.856506	-74.924687	4.837629
15690		112.800871	-74.923519	4.847624
15691		112.770538	-74.924783	4.840266
15692		112.733479	-74.926021	4.856252
15693		112.698992	-74.926508	4.862586
15694		112.656240	-74.923350	4.874438
15695		112.601315	-74.919507	4.893598
15696		112.519898	-74.911446	4.915043
15697		112.389481	-74.904747	4.956335
15698		112.201979	-74.896939	5.006149
15699		111.948297	-74.885930	5.073032
15700		111.657898	-74.872647	5.147979
15701		111.349595	-74.860897	5.226107
15702		111.058898	-74.846933	5.300546
15703		110.769653	-74.838504	5.388959
15704		110.484277	-74.827571	5.481906
15705		110.204641	-74.816560	5.575862
15706		109.902933	-74.804368	5.677519
15707		109.544895	-74.792836	5.795354
15708		109.140278	-74.775924	5.918040
15709		108.662651	-74.759671	6.061904
15710		108.149252	-74.741145	6.209295
15711		107.608747	-74.722942	6.371976
15712		107.050994	-74.701792	6.551479
15713		106.475180	-74.681267	6.753344
15714		105.944039	-74.667409	6.954831
15715		105.507950	-74.661029	7.142059
15716		105.182288	-74.656724	7.323543
15717		104.974836	-74.657441	7.482840
15718		104.807958	-74.659331	7.633014
15719		104.648826	-74.661242	7.769037
15720		104.489018	-74.662257	7.890815
15721		104.285735	-74.671456	8.018041
15722		104.029306	-74.677019	8.154657
15723		103.746867	-74.686561	8.280803
15724		103.435832	-74.692744	8.418538
15725		103.082849	-74.698232	8.554574
15726		102.678655	-74.697100	8.689761
15727		102.190733	-74.694696	8.846893
15728		101.622611	-74.689551	9.018831
15729		101.023471	-74.680914	9.180050
15730		100.395232	-74.672736	9.330840
15731		99.737237	-74.661379	9.492555
15732		99.092409	-74.647917	9.650094
15733		98.454302	-74.634110	9.801648
15734		97.807099	-74.616679	9.955580
15735		97.132137	-74.600757	10.116703
15736		96.404929	-74.578213	10.291174
15737		95.671223	-74.554357	10.450141
15738		94.921329	-74.524076	10.610090
15739		94.127345	-74.489819	10.782585
15740		93.283641	-74.452517	10.949679
15741		92.353219	-74.410191	11.131987
15742		91.338977	-74.363711	11.331578
15743		90.244967	-74.314453	11.536135
15744		89.064182	-74.261011	11.759005
15745		87.872065	-74.210607	11.976941
15746		86.704371	-74.158121	12.212948
15747		85.618781	-74.105489	12.438829
15748		84.654584	-74.055489	12.647576
15749		83.799278	-74.004851	12.834170
15750		82.983267	-73.952680	13.010003
15751		82.171184	-73.893252	13.171722
15752		81.331010	-73.828084	13.331826
15753		80.458392	-73.764237	13.476238
15754		79.528016	-73.694586	13.634509
15755		78.586534	-73.620899	13.779505
15756		77.646973	-73.551992	13.933933
15757		76.767578	-73.487625	14.080813
15758		75.999561	-73.428439	14.212794
15759		75.362008	-73.375627	14.325127
15760		74.844673	-73.323073	14.405207
15761		74.370931	-73.261629	14.484171
15762		73.910958	-73.201958	14.519400
15763		73.439797	-73.136932	14.501152
15764		72.873968	-73.056679	14.457760
15765		72.121008	-72.967582	14.394475
15766		71.136303	-72.869683	14.361428
15767		69.971405	-72.762317	14.373575
15768		68.739421	-72.661883	14.433044
15769		67.592887	-72.567629	14.517905
15770		66.684843	-72.488931	14.610693
15771		66.184473	-72.426043	14.655876
15772		65.901871	-72.366996	14.699562
15773		65.603728	-72.314955	14.740806
15774		65.318860	-72.257058	14.747841
15775		65.112837	-72.195130	14.666141
15776		64.889113	-72.135150	14.537972
15777		64.520724	-72.065287	14.432885
15778		63.990459	-71.991788	14.374923
15779		63.358703	-71.916361	14.375883
15780		62.752394	-71.848841	14.397136
15781		62.257185	-71.792326	14.428031
15782		61.953434	-71.748029	14.448266
15783		61.789877	-71.710755	14.441243
15784		61.583991	-71.669977	14.421535
15785		61.348086	-71.635064	14.344234
15786		61.115458	-71.581825	14.215569
15787		60.783664	-71.522470	14.038259
15788		60.248332	-71.448353	13.866511
15789		59.498030	-71.368800	13.729902
15790		58.611832	-71.275619	13.659992
15791		57.696918	-71.185129	13.639239
15792		56.929784	-71.102334	13.646325
15793		56.452608	-71.021475	13.631860
15794		56.115320	-70.950937	13.596589
15795		55.755162	-70.869501	13.515661
15796		55.330978	-70.778977	13.373528
15797		54.767944	-70.688438	13.180169
15798		53.966765	-70.587186	13.014945
15799		52.955369	-70.475258	12.927905
