// General information: 
//  MT Manager version: 2022.2.0 
//  XDA version: 2022.2.0 build 7381 rev 124627 built on 2023-07-19
// Device information: 
//  DeviceId: 00B447FD
//  ProductCode: MTW2-3A7G6
//  Firmware Version: 4.3.5
//  Hardware Version: 2.0.0
// Device settings: 
//  Filter Profile: human(46.1)
//  Option Flags: Orientation Smoother Disabled, Position/Velocity Smoother Disabled, Continuous Zero Rotation Update Disabled, AHS Disabled, ICC Disabled
// Coordinate system: ENU
PacketCounter	SampleTimeFine	Roll	Pitch	Yaw
12625		128.862539	-72.940815	-23.485205
12626		128.879694	-72.941815	-23.494688
12627		128.897423	-72.944352	-23.506762
12628		128.873337	-72.947757	-23.473907
12629		128.843419	-72.953704	-23.443800
12630		128.816933	-72.955793	-23.421212
12631		128.810196	-72.950900	-23.418657
12632		128.795605	-72.942891	-23.405099
12633		128.792220	-72.935196	-23.400872
12634		128.779793	-72.928416	-23.389961
12635		128.798136	-72.918934	-23.412528
12636		128.836607	-72.911251	-23.456599
12637		128.871454	-72.907379	-23.493045
12638		128.883190	-72.910090	-23.501568
12639		128.890969	-72.916145	-23.510718
12640		128.910059	-72.924697	-23.538940
12641		128.934108	-72.928068	-23.573564
12642		128.950077	-72.930725	-23.598758
12643		128.951018	-72.930891	-23.601389
12644		128.926360	-72.931937	-23.574822
12645		128.909970	-72.929290	-23.560874
12646		128.920424	-72.923684	-23.577019
12647		128.970512	-72.915472	-23.633505
12648		129.025670	-72.903935	-23.698461
12649		129.069359	-72.888550	-23.752293
12650		129.108445	-72.876549	-23.804714
12651		129.116537	-72.870287	-23.826833
12652		129.075571	-72.866858	-23.799154
12653		129.005679	-72.862270	-23.744012
12654		128.918161	-72.856163	-23.673304
12655		128.850353	-72.853883	-23.624065
12656		128.793679	-72.850709	-23.590700
12657		128.780450	-72.848281	-23.601260
12658		128.781683	-72.847809	-23.622802
12659		128.794149	-72.847469	-23.640482
12660		128.794891	-72.848888	-23.638960
12661		128.799379	-72.851906	-23.644743
12662		128.810478	-72.856156	-23.674147
12663		128.816196	-72.858458	-23.713133
12664		128.809476	-72.866430	-23.755394
12665		128.779381	-72.878041	-23.797087
12666		128.721037	-72.896453	-23.843025
12667		128.616897	-72.915474	-23.884727
12668		128.482860	-72.943546	-23.931826
12669		128.301397	-72.984976	-23.967759
12670		128.072848	-73.037458	-23.999793
12671		127.788601	-73.096531	-24.027313
12672		127.455107	-73.165194	-24.045858
12673		127.082184	-73.246920	-24.051200
12674		126.681633	-73.332412	-24.046395
12675		126.260592	-73.419219	-24.034642
12676		125.819660	-73.508019	-24.007566
12677		125.370282	-73.601227	-23.973547
12678		124.908174	-73.695223	-23.925754
12679		124.443440	-73.785972	-23.873808
12680		123.975078	-73.874387	-23.814087
12681		123.525228	-73.961796	-23.775654
12682		123.031185	-74.049570	-23.694852
12683		122.531471	-74.138878	-23.615376
12684		122.017799	-74.232364	-23.537500
12685		121.480706	-74.326135	-23.444549
12686		120.921684	-74.420898	-23.336828
12687		120.336366	-74.516919	-23.213844
12688		119.715155	-74.619071	-23.060279
12689		119.066162	-74.722146	-22.884945
12690		118.402501	-74.830232	-22.697260
12691		117.748508	-74.936010	-22.525646
12692		117.085836	-75.041869	-22.349435
12693		116.423320	-75.156744	-22.204415
12694		115.698647	-75.283549	-22.074703
12695		114.877090	-75.426455	-21.938413
12696		113.943934	-75.588774	-21.778141
12697		112.897261	-75.770969	-21.580890
12698		111.768724	-75.968226	-21.354217
12699		110.635494	-76.175915	-21.152227
12700		109.512165	-76.394862	-20.966574
12701		108.435113	-76.631703	-20.818731
12702		107.341930	-76.865148	-20.619341
12703		106.219989	-77.076122	-20.333203
12704		105.068396	-77.273035	-19.949103
12705		103.907962	-77.455189	-19.488221
12706		102.745909	-77.623526	-18.963340
12707		101.612837	-77.790226	-18.437687
12708		100.536843	-77.952351	-17.944460
12709		99.562759	-78.117444	-17.537135
12710		98.668972	-78.283440	-17.191626
12711		97.849137	-78.456109	-16.921063
12712		97.008903	-78.631055	-16.660840
12713		96.105188	-78.790673	-16.366708
12714		95.088425	-78.945508	-15.984194
12715		93.988142	-79.095527	-15.547619
12716		92.835621	-79.242005	-15.057689
12717		91.655199	-79.389269	-14.535593
12718		90.477014	-79.534760	-14.014140
12719		89.318851	-79.686195	-13.530776
12720		88.145835	-79.855624	-13.088578
12721		86.958098	-80.055243	-12.748323
12722		85.661222	-80.284249	-12.403850
12723		84.200659	-80.539456	-12.024112
12724		82.464384	-80.793355	-11.459113
12725		80.506313	-81.037995	-10.661885
12726		78.426237	-81.247250	-9.640510
12727		76.435717	-81.413537	-8.553794
12728		74.680724	-81.533471	-7.524330
12729		73.241749	-81.629425	-6.642511
12730		72.043861	-81.707441	-5.861174
12731		71.048426	-81.797408	-5.232303
12732		70.038441	-81.898163	-4.631390
12733		68.804618	-82.046364	-3.941577
12734		67.030424	-82.247310	-3.008190
12735		64.549283	-82.476322	-1.690834
12736		61.389870	-82.695349	0.119054
12737		57.892191	-82.880837	2.284612
12738		54.593386	-83.003345	4.443349
12739		51.833588	-83.083593	6.331800
12740		49.798070	-83.123825	7.777661
12741		48.266579	-83.160169	8.905450
12742		46.707659	-83.222898	10.061546
12743		44.437369	-83.334290	11.638892
12744		41.161061	-83.455472	13.848317
12745		37.119052	-83.552360	16.594580
12746		32.979126	-83.581143	19.466089
12747		29.434995	-83.561959	21.968280
12748		26.912949	-83.511859	23.766430
12749		25.173321	-83.487284	25.012916
12750		23.757005	-83.480424	26.028775
12751		22.219826	-83.495778	27.125621
12752		20.288627	-83.503969	28.517199
12753		17.770867	-83.511029	30.301351
12754		14.857131	-83.494134	32.331260
12755		11.830075	-83.452744	34.419203
12756		8.990305	-83.387217	36.391579
12757		6.313477	-83.323310	38.252597
12758		3.853658	-83.240660	39.932333
12759		1.413603	-83.145185	41.589049
12760		-1.406722	-83.027312	43.503006
12761		-4.672966	-82.888097	45.687144
12762		-7.928114	-82.698534	47.780811
12763		-10.930172	-82.484505	49.660722
12764		-13.440898	-82.264037	51.180610
12765		-15.508887	-82.076525	52.448248
12766		-17.105144	-81.913169	53.403119
12767		-18.490908	-81.795020	54.265463
12768		-19.673971	-81.676197	55.004965
12769		-20.875962	-81.561920	55.761843
12770		-22.127008	-81.445229	56.522287
12771		-23.561795	-81.336693	57.410594
12772		-24.988437	-81.219459	58.248606
12773		-26.501428	-81.108691	59.146515
12774		-27.938207	-80.998960	59.972609
12775		-29.171018	-80.873518	60.617820
12776		-30.118592	-80.732870	61.016465
12777		-30.898037	-80.574017	61.265387
12778		-31.737610	-80.406672	61.555121
12779		-32.701071	-80.242265	61.936568
12780		-33.826963	-80.085407	62.456824
12781		-35.044794	-79.949722	63.073297
12782		-36.317620	-79.833999	63.781262
12783		-37.664941	-79.747458	64.592293
12784		-38.974186	-79.686033	65.409301
12785		-40.167089	-79.634295	66.179180
12786		-41.241339	-79.591868	66.876234
12787		-42.288449	-79.550975	67.572978
12788		-43.254660	-79.503568	68.200651
12789		-44.119986	-79.451924	68.740671
12790		-44.937953	-79.397153	69.231843
12791		-45.730246	-79.347938	69.709616
12792		-46.385475	-79.290581	70.081536
12793		-46.767928	-79.230812	70.230875
12794		-47.084693	-79.162514	70.336731
12795		-47.304230	-79.103280	70.373224
12796		-47.359247	-79.048527	70.260526
12797		-47.425314	-79.000041	70.127407
12798		-47.510164	-78.958117	69.967446
12799		-47.577540	-78.929565	69.776276
12800		-47.631375	-78.917113	69.603151
12801		-47.701047	-78.925127	69.486156
12802		-47.882067	-78.956176	69.486157
12803		-48.128728	-79.012262	69.540572
12804		-48.525370	-79.098418	69.700940
12805		-49.106125	-79.212975	70.002705
12806		-49.824517	-79.342020	70.435998
12807		-50.635769	-79.466426	70.977184
12808		-51.460880	-79.591605	71.579182
12809		-52.209891	-79.697053	72.136254
12810		-52.883971	-79.778102	72.613655
12811		-53.436864	-79.842391	72.969326
12812		-53.746034	-79.886146	73.109318
12813		-53.798398	-79.926904	73.047357
12814		-53.676510	-79.961176	72.854996
12815		-53.453957	-79.986176	72.569759
12816		-53.183039	-80.007736	72.230942
12817		-52.876440	-80.019205	71.855124
12818		-52.593473	-80.020002	71.507160
12819		-52.494905	-80.020249	71.307876
12820		-52.588716	-80.043519	71.254866
12821		-52.761663	-80.085787	71.252972
12822		-52.876137	-80.138807	71.216325
12823		-52.973159	-80.200623	71.183056
12824		-53.048208	-80.261167	71.120033
12825		-53.102538	-80.337902	71.016326
12826		-53.101592	-80.413387	70.857399
12827		-53.013877	-80.484596	70.666564
12828		-52.951731	-80.537071	70.531423
12829		-52.929269	-80.575199	70.453484
12830		-52.989335	-80.601433	70.456265
12831		-53.042782	-80.628543	70.470048
12832		-53.050386	-80.648405	70.462125
12833		-52.973083	-80.661992	70.387783
12834		-52.871879	-80.673289	70.294935
12835		-52.802137	-80.678281	70.210481
12836		-52.783292	-80.676025	70.169569
12837		-52.795743	-80.674533	70.157114
12838		-52.898171	-80.673031	70.225997
12839		-53.069980	-80.676901	70.354831
12840		-53.426447	-80.687465	70.651759
12841		-53.958008	-80.719275	71.113968
12842		-54.444995	-80.766714	71.548296
12843		-54.777706	-80.820240	71.863587
12844		-54.948637	-80.863358	72.052103
12845		-54.967787	-80.887080	72.071047
12846		-54.875543	-80.895275	71.948464
12847		-54.699164	-80.883569	71.709719
12848		-54.471853	-80.868545	71.412846
12849		-54.317684	-80.845558	71.183503
12850		-54.287619	-80.828495	71.109102
12851		-54.277215	-80.828048	71.096775
12852		-54.099008	-80.833474	70.958635
12853		-53.809940	-80.832319	70.709664
12854		-53.500816	-80.825494	70.432702
12855		-53.204341	-80.819911	70.155380
12856		-53.006548	-80.812103	69.948773
12857		-52.824688	-80.814552	69.748993
12858		-52.790744	-80.827536	69.695679
12859		-52.866298	-80.854863	69.751588
12860		-52.972591	-80.885640	69.841766
12861		-53.105104	-80.920427	69.963652
12862		-53.190232	-80.950782	70.059209
12863		-53.145257	-80.976196	70.032381
12864		-53.016507	-80.986822	69.908392
12865		-52.858214	-80.993558	69.741792
12866		-52.786018	-80.996424	69.641322
12867		-52.835725	-81.008685	69.674843
12868		-52.952466	-81.028815	69.810813
12869		-53.097046	-81.072006	70.017861
12870		-53.206898	-81.123849	70.211249
12871		-53.257440	-81.172119	70.340480
12872		-53.288462	-81.200130	70.422348
12873		-53.291131	-81.217607	70.457471
12874		-53.337496	-81.224623	70.511131
12875		-53.385296	-81.240495	70.570920
12876		-53.493248	-81.259939	70.700185
12877		-53.711232	-81.283926	70.920699
12878		-53.916811	-81.310758	71.142600
12879		-54.052982	-81.337317	71.321985
12880		-54.165655	-81.371783	71.484672
12881		-54.208944	-81.418354	71.606628
12882		-54.068490	-81.452557	71.572252
12883		-53.921876	-81.475305	71.493813
12884		-53.819666	-81.480803	71.422958
12885		-53.711376	-81.479962	71.337674
12886		-53.652320	-81.473480	71.279426
12887		-53.644021	-81.481879	71.263065
12888		-53.649010	-81.503649	71.283553
12889		-53.563111	-81.539790	71.262389
12890		-53.334876	-81.588583	71.160403
12891		-52.956307	-81.659392	70.958359
12892		-52.496912	-81.734640	70.707524
12893		-52.017984	-81.807458	70.433106
12894		-51.579424	-81.873928	70.186356
12895		-51.356166	-81.939428	70.091589
12896		-51.321038	-81.993012	70.145300
12897		-51.328760	-82.048758	70.238010
12898		-51.298488	-82.110814	70.324589
12899		-51.246902	-82.195876	70.427101
12900		-51.032834	-82.303971	70.432074
12901		-50.708090	-82.421287	70.370125
12902		-50.448288	-82.540877	70.346660
12903		-50.197569	-82.652890	70.299614
12904		-49.967737	-82.753400	70.253319
12905		-49.726225	-82.846262	70.179166
12906		-49.459226	-82.947519	70.108142
12907		-48.990491	-83.064937	69.915726
12908		-48.433787	-83.209691	69.712572
12909		-47.772939	-83.375631	69.456658
12910		-46.801000	-83.557388	68.982088
12911		-45.412319	-83.762244	68.194226
12912		-43.578780	-83.989296	67.089677
12913		-41.374807	-84.241446	65.744071
12914		-39.308513	-84.489677	64.433201
12915		-37.548462	-84.706763	63.217174
12916		-36.358130	-84.860475	62.354416
12917		-35.505126	-84.955584	61.671515
12918		-35.000569	-85.021079	61.217885
12919		-34.435183	-85.079296	60.675356
12920		-33.598994	-85.144643	59.945078
12921		-31.996599	-85.253717	58.616429
12922		-29.297539	-85.423547	56.439383
12923		-25.090112	-85.653639	53.043173
12924		-19.300367	-85.911172	48.329477
12925		-12.473052	-86.166870	42.684875
12926		-5.506225	-86.383065	36.839691
12927		0.705842	-86.532205	31.533496
12928		5.757058	-86.612327	27.110784
12929		9.410583	-86.638710	23.818964
12930		11.681420	-86.616706	21.734622
12931		13.602102	-86.578097	19.922578
12932		16.136396	-86.526061	17.618481
12933		19.914834	-86.466428	14.316780
12934		25.143733	-86.402055	9.873543
12935		31.920859	-86.311810	4.150954
12936		39.258723	-86.197583	-1.998779
12937		46.170030	-86.060743	-7.763429
12938		51.993147	-85.910418	-12.580690
12939		56.702638	-85.746786	-16.445669
12940		60.591775	-85.569592	-19.574412
12941		64.169513	-85.363733	-22.390694
12942		67.756731	-85.100983	-25.110182
12943		71.549447	-84.764292	-27.853040
12944		75.541364	-84.345800	-30.559738
12945		79.531937	-83.857235	-33.067502
12946		83.267551	-83.320981	-35.229090
12947		86.588484	-82.779136	-36.987254
12948		89.386988	-82.284166	-38.316286
12949		91.766624	-81.833970	-39.374119
12950		93.894519	-81.397163	-40.277463
12951		95.820365	-80.920293	-40.861416
12952		97.696465	-80.391043	-41.221692
12953		99.627607	-79.832263	-41.514112
12954		101.557799	-79.288733	-41.784948
12955		103.473941	-78.797419	-42.137008
12956		105.223668	-78.384943	-42.521280
12957		106.842823	-78.052004	-42.995676
12958		108.375014	-77.798085	-43.570384
12959		109.762784	-77.567327	-44.141620
12960		111.022045	-77.343718	-44.587210
12961		112.147264	-77.112855	-44.857520
12962		113.183313	-76.875669	-45.000160
12963		114.153002	-76.628892	-45.026199
12964		115.051814	-76.396550	-44.953996
12965		115.865444	-76.172227	-44.817232
12966		116.630840	-75.973876	-44.706448
12967		117.346794	-75.779692	-44.612762
12968		118.049110	-75.580974	-44.522626
12969		118.703628	-75.354824	-44.296696
12970		119.338889	-75.118365	-43.948476
12971		119.928297	-74.853361	-43.482958
12972		120.506240	-74.574786	-42.934732
12973		121.113747	-74.280063	-42.333203
12974		121.733859	-73.998250	-41.740894
12975		122.431826	-73.749132	-41.292639
12976		123.172970	-73.533838	-41.034947
12977		123.960860	-73.308942	-40.987560
12978		124.825719	-73.060053	-40.939447
12979		125.801588	-72.768759	-40.838298
12980		126.858216	-72.451736	-40.673274
12981		127.939983	-72.119048	-40.473964
12982		128.996292	-71.801295	-40.277432
12983		129.983928	-71.512810	-40.119337
12984		130.871666	-71.271713	-40.002595
12985		131.681912	-71.065966	-39.936907
12986		132.387094	-70.890590	-39.889424
12987		133.017162	-70.735945	-39.878241
12988		133.578164	-70.614310	-39.903785
12989		134.073626	-70.521226	-39.982293
12990		134.470266	-70.452533	-40.079957
12991		134.770563	-70.402449	-40.150560
12992		135.024768	-70.372587	-40.226538
12993		135.227552	-70.343582	-40.308175
12994		135.394089	-70.283059	-40.271554
12995		135.677517	-70.185727	-39.986440
12996		136.088676	-70.032117	-39.430921
12997		136.634733	-69.831126	-38.709414
12998		137.273253	-69.615457	-37.952451
12999		137.965953	-69.409638	-37.291634
13000		138.612955	-69.237402	-36.771982
13001		139.160880	-69.091827	-36.418988
13002		139.566555	-68.981976	-36.190885
13003		139.827086	-68.887617	-36.069332
13004		139.974979	-68.802060	-35.962661
13005		140.178698	-68.732085	-35.809344
13006		140.446215	-68.651990	-35.553769
13007		140.820297	-68.549685	-35.248173
13008		141.242937	-68.430165	-34.902134
13009		141.693378	-68.301737	-34.577525
13010		142.122302	-68.184717	-34.308808
13011		142.535640	-68.087859	-34.167184
13012		142.853235	-68.011823	-34.089088
13013		143.068451	-67.949509	-34.075359
13014		143.201073	-67.900172	-34.100013
13015		143.315524	-67.860392	-34.142833
13016		143.413583	-67.824719	-34.187640
13017		143.514709	-67.786137	-34.194318
13018		143.649795	-67.743634	-34.148972
13019		143.813693	-67.700327	-34.070408
13020		143.986681	-67.651465	-33.983537
13021		144.158801	-67.596682	-33.917796
13022		144.305960	-67.545142	-33.886800
13023		144.385711	-67.503671	-33.891828
13024		144.398023	-67.480590	-33.924249
13025		144.355569	-67.467839	-33.976398
13026		144.262132	-67.466431	-34.032533
13027		144.141874	-67.469178	-34.088514
13028		144.028935	-67.477437	-34.137042
13029		143.939304	-67.477846	-34.152846
13030		143.929578	-67.470336	-34.117162
13031		144.018562	-67.444445	-34.064954
13032		144.153389	-67.401600	-33.990232
13033		144.320397	-67.346390	-33.926305
13034		144.469927	-67.287544	-33.852835
13035		144.578949	-67.236805	-33.781913
13036		144.624198	-67.205298	-33.717407
13037		144.609401	-67.189096	-33.690509
13038		144.530199	-67.198714	-33.694943
13039		144.392630	-67.223325	-33.720948
13040		144.232727	-67.259355	-33.746455
13041		144.103894	-67.287792	-33.733346
13042		144.084577	-67.291579	-33.644162
13043		144.217675	-67.258751	-33.461668
13044		144.494848	-67.188058	-33.202035
13045		144.896528	-67.078238	-32.930070
13046		145.357167	-66.951840	-32.682040
13047		145.833506	-66.822950	-32.512163
13048		146.257521	-66.709336	-32.417215
13049		146.591760	-66.624027	-32.384908
13050		146.796343	-66.575554	-32.382415
13051		146.897409	-66.565770	-32.454585
13052		146.854729	-66.593884	-32.578301
13053		146.696438	-66.653757	-32.782436
13054		146.431292	-66.745808	-33.044287
13055		146.090831	-66.857688	-33.353824
13056		145.707620	-66.980721	-33.667275
13057		145.338402	-67.097752	-33.937557
13058		145.046258	-67.198293	-34.082150
13059		144.865548	-67.268764	-34.118243
13060		144.798491	-67.302589	-34.066424
13061		144.828854	-67.300641	-33.976958
13062		144.895456	-67.279063	-33.874507
13063		144.967669	-67.247435	-33.800088
13064		145.014311	-67.225186	-33.764642
13065		145.001032	-67.214027	-33.767099
13066		144.933584	-67.228579	-33.814313
13067		144.793205	-67.269617	-33.922339
13068		144.572562	-67.336963	-34.037924
13069		144.308707	-67.421212	-34.152555
13070		144.045246	-67.511889	-34.255490
13071		143.824325	-67.596873	-34.350994
13072		143.667664	-67.665689	-34.427535
13073		143.604227	-67.703012	-34.490746
13074		143.620294	-67.716827	-34.531593
13075		143.673058	-67.713508	-34.538563
13076		143.750894	-67.704471	-34.532688
13077		143.817175	-67.695481	-34.527027
13078		143.857104	-67.690721	-34.528592
13079		143.860506	-67.688922	-34.534964
13080		143.827169	-67.700265	-34.541337
13081		143.786097	-67.724415	-34.550636
13082		143.738289	-67.750915	-34.562790
13083		143.687257	-67.771752	-34.571049
13084		143.666614	-67.783308	-34.587247
13085		143.675512	-67.782698	-34.610519
13086		143.711108	-67.775091	-34.640108
13087		143.761331	-67.763003	-34.671970
13088		143.798696	-67.753698	-34.687148
13089		143.838894	-67.747893	-34.708771
13090		143.855220	-67.746833	-34.716176
13091		143.881965	-67.750650	-34.737688
13092		143.901645	-67.755937	-34.754251
13093		143.919004	-67.758803	-34.777084
13094		143.925072	-67.761022	-34.800202
13095		143.944418	-67.764381	-34.836370
13096		143.967333	-67.761053	-34.870704
13097		144.002613	-67.749188	-34.910906
13098		144.046918	-67.736692	-34.958669
13099		144.091300	-67.725484	-35.005202
13100		144.103480	-67.723191	-35.017806
13101		144.106147	-67.723318	-35.021133
13102		144.102883	-67.728333	-35.017842
13103		144.098190	-67.729999	-35.018950
13104		144.078800	-67.727214	-35.006530
13105		144.073123	-67.727208	-35.001632
13106		144.065880	-67.734269	-34.992923
13107		144.053935	-67.742647	-34.987612
13108		144.038255	-67.753286	-34.979403
13109		144.025025	-67.763637	-34.979310
13110		144.006377	-67.777455	-34.979615
13111		143.985383	-67.791298	-34.989509
13112		143.961367	-67.808628	-35.013576
13113		143.940899	-67.821878	-35.046520
13114		143.902734	-67.837505	-35.051020
13115		143.887542	-67.846200	-35.054785
13116		143.897491	-67.851792	-35.057209
13117		143.913650	-67.852785	-35.055943
13118		143.922522	-67.855274	-35.045221
13119		143.922114	-67.853352	-35.045332
13120		143.918979	-67.855365	-35.047051
13121		143.911251	-67.866450	-35.057217
13122		143.898007	-67.874077	-35.060855
13123		143.896170	-67.879446	-35.087033
13124		143.886583	-67.882554	-35.108445
13125		143.873378	-67.888028	-35.126520
13126		143.866806	-67.896754	-35.139206
13127		143.879208	-67.899796	-35.170291
13128		143.904000	-67.897058	-35.211654
13129		143.950552	-67.891914	-35.270615
13130		143.969832	-67.891531	-35.303062
13131		143.987490	-67.895588	-35.333438
13132		143.993105	-67.901419	-35.351844
13133		143.990029	-67.905398	-35.363192
13134		143.977792	-67.908735	-35.363040
13135		143.982315	-67.910003	-35.372231
13136		143.988713	-67.909923	-35.374369
13137		143.988592	-67.902239	-35.367932
13138		143.999083	-67.897103	-35.380485
13139		144.009143	-67.890115	-35.396725
13140		144.008023	-67.887353	-35.396340
13141		144.003349	-67.884643	-35.393799
13142		143.991855	-67.884712	-35.385562
13143		143.987560	-67.882316	-35.386870
13144		143.971492	-67.884028	-35.377247
13145		143.962808	-67.882184	-35.380536
13146		143.935650	-67.891960	-35.370318
13147		143.925280	-67.906338	-35.379252
13148		143.901181	-67.921369	-35.373458
13149		143.888372	-67.931324	-35.377799
13150		143.882549	-67.938493	-35.387472
13151		143.880665	-67.945699	-35.392362
13152		143.877149	-67.956468	-35.384972
13153		143.880459	-67.966394	-35.391288
13154		143.888294	-67.976247	-35.407549
13155		143.905501	-67.978353	-35.441113
13156		143.909587	-67.990212	-35.487494
13157		143.897260	-68.009443	-35.548092
13158		143.856697	-68.037889	-35.618315
13159		143.804835	-68.069493	-35.719205
13160		143.700591	-68.119877	-35.819678
13161		143.548343	-68.188501	-35.921687
13162		143.349520	-68.277416	-36.028473
13163		143.128974	-68.374387	-36.163103
13164		142.887822	-68.483344	-36.322540
13165		142.629880	-68.603321	-36.524076
13166		142.327805	-68.736651	-36.748934
13167		141.997453	-68.887901	-37.028700
13168		141.632901	-69.050145	-37.321281
13169		141.281469	-69.230645	-37.605695
13170		140.930951	-69.406551	-37.825763
13171		140.590695	-69.557263	-37.953158
13172		140.290207	-69.683090	-37.968749
13173		140.081096	-69.784349	-37.940494
13174		139.925712	-69.863219	-37.878707
13175		139.827736	-69.924992	-37.832146
13176		139.744364	-69.982798	-37.812867
13177		139.655687	-70.047044	-37.850320
13178		139.509345	-70.132962	-37.914500
13179		139.313105	-70.243181	-38.029288
13180		139.051289	-70.382843	-38.195698
13181		138.738602	-70.548312	-38.454136
13182		138.349888	-70.750663	-38.793860
13183		137.868860	-70.983535	-39.181913
13184		137.306918	-71.239806	-39.559289
13185		136.754245	-71.502968	-39.919730
13186		136.204464	-71.755669	-40.181320
13187		135.720873	-71.979575	-40.372544
13188		135.271948	-72.174320	-40.468907
13189		134.871361	-72.341523	-40.510509
13190		134.512831	-72.495358	-40.517343
13191		134.216580	-72.643464	-40.553600
13192		133.971675	-72.797193	-40.669124
13193		133.742686	-72.964410	-40.865397
13194		133.500313	-73.153164	-41.132054
13195		133.208909	-73.358766	-41.452236
13196		132.815366	-73.575386	-41.737054
13197		132.350112	-73.796707	-41.977097
13198		131.832331	-74.025921	-42.172730
13199		131.304532	-74.260179	-42.359905
13200		130.758728	-74.497249	-42.529568
13201		130.208018	-74.734433	-42.687276
13202		129.655129	-74.978358	-42.821691
13203		129.121709	-75.218835	-42.957969
13204		128.607185	-75.459177	-43.104986
13205		128.140576	-75.704764	-43.314442
13206		127.614818	-75.975969	-43.595001
13207		126.946419	-76.290427	-43.930531
13208		126.097158	-76.652176	-44.259422
13209		125.101821	-77.049853	-44.552722
13210		123.957318	-77.469098	-44.740530
13211		122.738352	-77.886620	-44.835892
13212		121.453080	-78.290305	-44.794529
13213		120.203653	-78.664611	-44.684790
13214		118.998906	-79.005135	-44.476151
13215		117.883286	-79.302334	-44.200127
13216		116.843339	-79.561310	-43.848783
13217		115.911894	-79.778665	-43.477252
13218		115.077564	-79.973644	-43.151722
13219		114.303640	-80.157819	-42.897734
13220		113.479480	-80.353307	-42.659370
13221		112.549466	-80.565313	-42.410416
13222		111.432788	-80.810362	-42.068275
13223		110.222288	-81.087090	-41.727886
13224		108.880478	-81.372376	-41.310288
13225		107.513004	-81.655016	-40.857646
13226		106.128327	-81.923292	-40.336993
13227		104.815148	-82.169290	-39.827868
13228		103.535468	-82.406619	-39.292343
13229		102.359101	-82.652587	-38.895464
13230		101.107220	-82.905568	-38.485624
13231		99.777849	-83.202613	-38.079149
13232		98.165440	-83.565863	-37.651490
13233		96.009528	-83.981917	-36.959475
13234		93.068318	-84.412363	-35.582254
13235		89.479353	-84.805320	-33.453525
13236		85.730481	-85.117715	-30.908810
13237		82.319819	-85.334098	-28.373099
13238		79.701464	-85.458175	-26.306119
13239		78.135027	-85.525805	-25.017954
13240		77.323859	-85.560048	-24.286710
13241		76.938226	-85.591845	-23.940492
13242		76.281504	-85.653738	-23.433109
13243		74.936089	-85.776430	-22.522068
13244		72.393154	-85.947552	-20.721290
13245		68.726847	-86.137543	-17.990864
13246		64.275923	-86.296729	-14.473040
13247		59.844217	-86.415638	-10.858005
13248		55.841263	-86.501488	-7.531678
13249		52.440738	-86.574412	-4.719747
13250		49.074708	-86.640982	-1.895606
13251		45.474083	-86.706724	1.118378
13252		41.325790	-86.752831	4.647591
13253		36.966732	-86.765158	8.367844
13254		32.536478	-86.755502	12.162716
13255		28.147853	-86.734487	15.915298
13256		23.643257	-86.701668	19.768981
13257		18.768438	-86.675049	23.904083
13258		13.399459	-86.618115	28.441015
13259		7.837350	-86.532327	33.138755
13260		2.402918	-86.421408	37.693723
13261		-2.425666	-86.293199	41.670028
13262		-6.599927	-86.138179	45.066641
13263		-10.304598	-85.962749	48.009614
13264		-13.594872	-85.774483	50.544004
13265		-16.486944	-85.574200	52.723601
13266		-19.178733	-85.372617	54.736524
13267		-21.806109	-85.183403	56.699834
13268		-24.295582	-84.994077	58.516381
13269		-26.672061	-84.808647	60.229063
13270		-28.711719	-84.611266	61.609927
13271		-30.419456	-84.414170	62.694846
13272		-31.721026	-84.223990	63.438108
13273		-32.800670	-84.048156	64.016161
13274		-33.788886	-83.876261	64.527825
13275		-34.815615	-83.703564	65.073140
13276		-35.958297	-83.532299	65.708799
13277		-37.235324	-83.367796	66.444489
13278		-38.541592	-83.192820	67.180539
13279		-39.792343	-83.016885	67.856534
13280		-40.827319	-82.837363	68.356771
13281		-41.677283	-82.679823	68.735991
13282		-42.493807	-82.541938	69.145807
13283		-43.364836	-82.428709	69.655572
13284		-44.232797	-82.333510	70.192182
13285		-45.174752	-82.258212	70.821030
13286		-46.091564	-82.192941	71.433442
13287		-47.027292	-82.135057	72.066224
13288		-47.965559	-82.071335	72.691217
13289		-48.976893	-82.010360	73.364464
13290		-49.987296	-81.940076	74.028895
13291		-50.798370	-81.870132	74.520189
13292		-51.376977	-81.798599	74.843446
13293		-51.856592	-81.736610	75.104040
13294		-52.152691	-81.669171	75.193920
13295		-52.301742	-81.601644	75.125013
13296		-52.392928	-81.532836	74.975558
13297		-52.515661	-81.462379	74.827622
13298		-52.687364	-81.410520	74.739110
13299		-52.962746	-81.389456	74.769345
13300		-53.267124	-81.414980	74.871225
13301		-53.456108	-81.495420	74.925342
13302		-53.588541	-81.616723	74.960998
13303		-53.665444	-81.763087	74.961692
13304		-53.708051	-81.910762	74.914690
13305		-53.715637	-82.039318	74.803780
13306		-53.788713	-82.140027	74.715909
13307		-54.022874	-82.212991	74.744623
13308		-54.482866	-82.261885	74.973093
13309		-55.084745	-82.298536	75.328790
13310		-55.878618	-82.333197	75.853092
13311		-56.737455	-82.385689	76.446672
13312		-57.576600	-82.459245	77.048656
13313		-58.356464	-82.562346	77.655991
13314		-59.006065	-82.668974	78.231074
13315		-59.387340	-82.759177	78.585726
13316		-59.538530	-82.802967	78.679924
13317		-59.504255	-82.804168	78.524853
13318		-59.226949	-82.766963	78.079427
13319		-58.851517	-82.713869	77.495387
13320		-58.623777	-82.664749	77.027214
13321		-58.596751	-82.624727	76.742906
13322		-58.638654	-82.611272	76.571127
13323		-58.784715	-82.623777	76.550387
13324		-59.007104	-82.651426	76.650007
13325		-59.201433	-82.694994	76.746607
13326		-59.324230	-82.724489	76.774596
13327		-59.405981	-82.744059	76.744150
13328		-59.476499	-82.764399	76.705588
13329		-59.658679	-82.781285	76.770864
13330		-60.061022	-82.798382	77.053010
13331		-60.723594	-82.824152	77.571118
13332		-61.533924	-82.865088	78.241509
13333		-62.312206	-82.913623	78.901428
13334		-63.014147	-82.963992	79.505528
13335		-63.500611	-83.022466	79.909934
13336		-63.857174	-83.080729	80.187652
13337		-63.998843	-83.123254	80.242086
13338		-63.873945	-83.141475	80.039431
13339		-63.567551	-83.152000	79.676722
13340		-63.242013	-83.167169	79.299326
13341		-62.941581	-83.192480	78.938573
13342		-62.896617	-83.225689	78.770109
13343		-63.101899	-83.297166	78.769901
13344		-63.515293	-83.407999	78.944342
13345		-64.082740	-83.539363	79.274292
13346		-64.824089	-83.668933	79.836122
13347		-65.661682	-83.792746	80.571583
13348		-66.532614	-83.902057	81.417110
13349		-67.312309	-84.006696	82.211158
13350		-68.086317	-84.093356	82.971288
13351		-68.752472	-84.158986	83.586210
13352		-69.347633	-84.187628	84.104300
13353		-69.826443	-84.198516	84.518929
13354		-70.211688	-84.190949	84.868916
13355		-70.468902	-84.171527	85.106980
13356		-70.516625	-84.149778	85.154694
13357		-70.302729	-84.127742	84.934150
13358		-69.819357	-84.096266	84.437978
13359		-69.286888	-84.062700	83.854002
13360		-68.975882	-84.028026	83.453259
13361		-68.911580	-84.004613	83.258174
13362		-69.061512	-83.988741	83.282352
13363		-69.330747	-83.992614	83.458191
13364		-69.651284	-84.007678	83.725538
13365		-69.843314	-84.026831	83.887569
13366		-69.913778	-84.035876	83.927432
13367		-69.797785	-84.041839	83.777552
13368		-69.562244	-84.031699	83.512738
13369		-69.339361	-84.021996	83.264357
13370		-69.326307	-84.013916	83.223368
13371		-69.555786	-84.007587	83.407125
13372		-69.996763	-84.003978	83.801536
13373		-70.547795	-84.009293	84.319411
13374		-71.348274	-84.022644	85.107945
13375		-72.242565	-84.052496	86.023437
13376		-72.854206	-84.080412	86.683738
13377		-73.146551	-84.101527	87.017661
13378		-73.157799	-84.100626	87.034334
13379		-73.148938	-84.081447	86.979334
13380		-73.077793	-84.058129	86.858967
13381		-72.902935	-84.048035	86.670785
13382		-72.693782	-84.056472	86.499771
13383		-72.594250	-84.079403	86.445049
13384		-72.575889	-84.097728	86.462259
13385		-72.524904	-84.100534	86.419621
13386		-72.555188	-84.091461	86.434459
13387		-72.654376	-84.077412	86.491032
13388		-72.797290	-84.053883	86.569489
13389		-72.960366	-84.032802	86.682003
13390		-73.073550	-84.026508	86.791782
13391		-73.037077	-84.046370	86.806547
13392		-73.006097	-84.061659	86.822001
13393		-73.069140	-84.068543	86.887259
13394		-73.172203	-84.053835	86.963901
13395		-73.312652	-84.031832	87.060056
13396		-73.452997	-84.008341	87.155932
13397		-73.653119	-84.001870	87.321459
13398		-73.905448	-84.004248	87.562818
13399		-74.268929	-84.013366	87.906297
13400		-74.786525	-84.024024	88.402977
13401		-75.326183	-84.029302	88.926017
13402		-75.795903	-84.030724	89.421885
13403		-76.145454	-84.037759	89.825275
13404		-76.231923	-84.045626	89.969282
13405		-75.950006	-84.053870	89.724102
13406		-75.432847	-84.058584	89.195124
13407		-74.774728	-84.070069	88.492222
13408		-74.130757	-84.073282	87.811338
13409		-73.660433	-84.092310	87.320110
13410		-73.560703	-84.120714	87.196185
13411		-73.577518	-84.165218	87.206670
13412		-73.536540	-84.215138	87.196010
13413		-73.437437	-84.255643	87.138186
13414		-73.383012	-84.285864	87.106540
13415		-73.265141	-84.310059	87.013413
13416		-73.221521	-84.322768	86.969326
13417		-73.369763	-84.333714	87.085061
13418		-73.664183	-84.340850	87.352896
13419		-74.096692	-84.360027	87.808855
13420		-74.588654	-84.398499	88.386549
13421		-75.114836	-84.468847	89.047979
13422		-75.589987	-84.565336	89.712748
13423		-75.818689	-84.695470	90.204846
13424		-75.831276	-84.840157	90.533419
13425		-75.792965	-84.980036	90.765125
13426		-75.663296	-85.102784	90.866060
13427		-75.531899	-85.211202	90.928173
13428		-75.725543	-85.294233	91.260833
13429		-76.263191	-85.364407	91.893281
13430		-76.821064	-85.435336	92.550542
13431		-77.231377	-85.536105	93.106616
13432		-77.491955	-85.675221	93.591251
13433		-77.425805	-85.886353	93.893225
13434		-77.197402	-86.151680	94.192641
13435		-77.187456	-86.439160	94.738399
13436		-77.370613	-86.712619	95.428962
13437		-77.805590	-86.924137	96.248824
13438		-78.707290	-87.059905	97.320839
13439		-79.552150	-87.131984	98.171945
13440		-80.338440	-87.157418	98.890266
13441		-81.069442	-87.180112	99.563443
13442		-82.116215	-87.234464	100.624532
13443		-83.194526	-87.364679	101.896895
13444		-83.832103	-87.602674	102.992284
13445		-84.119791	-87.959389	104.051099
13446		-85.263287	-88.402599	106.203151
13447		-88.960654	-88.853790	110.975787
13448		-98.408897	-89.241490	121.361870
13449		-118.448769	-89.515870	142.104141
13450		-150.787113	-89.648989	174.944045
13451		175.223092	-89.649064	-150.683972
13452		149.003516	-89.574437	-124.109960
13453		132.590842	-89.453805	-107.353385
13454		124.523372	-89.326973	-98.983397
13455		119.711321	-89.215346	-93.922109
13456		116.605057	-89.124116	-90.595942
13457		114.936173	-89.024364	-88.722609
13458		114.262209	-88.914040	-87.830041
13459		113.929521	-88.726204	-87.190867
13460		112.440019	-88.428565	-85.090230
13461		110.797845	-87.994914	-82.478770
13462		110.206272	-87.445387	-80.664496
13463		110.418925	-86.815178	-79.512841
13464		110.803426	-86.161489	-78.477432
13465		111.200654	-85.495834	-77.465052
13466		111.364068	-84.833836	-76.218192
13467		111.415043	-84.172237	-74.885851
13468		111.647469	-83.537539	-73.815987
13469		112.051635	-82.940806	-73.042695
13470		112.464150	-82.402048	-72.399614
13471		112.731283	-81.929651	-71.783119
13472		112.902799	-81.532749	-71.231691
13473		112.996910	-81.193854	-70.735215
13474		113.111290	-80.899871	-70.335558
13475		113.255965	-80.632378	-69.975885
13476		113.467385	-80.379215	-69.645891
13477		113.707908	-80.117840	-69.302776
13478		114.053681	-79.826042	-68.975670
13479		114.469152	-79.477851	-68.523590
13480		114.978409	-79.080591	-67.973477
13481		115.555424	-78.620875	-67.336017
13482		116.181906	-78.137891	-66.640608
13483		116.828252	-77.653463	-65.953428
13484		117.416812	-77.197108	-65.256471
13485		117.905615	-76.777287	-64.555613
13486		118.335863	-76.410369	-63.908975
13487		118.720165	-76.086326	-63.295608
13488		119.098420	-75.800454	-62.746608
13489		119.502184	-75.516798	-62.259245
13490		119.959605	-75.215557	-61.745599
13491		120.490098	-74.869631	-61.143271
13492		121.083510	-74.501594	-60.427404
13493		121.709629	-74.110905	-59.631564
13494		122.350650	-73.729099	-58.800493
13495		122.950010	-73.377279	-57.988785
13496		123.475595	-73.070378	-57.214537
13497		123.877791	-72.816639	-56.463963
13498		124.220588	-72.618528	-55.812443
13499		124.487443	-72.449645	-55.215331
13500		124.781939	-72.314971	-54.742625
13501		125.127567	-72.160995	-54.387459
13502		125.576576	-71.948325	-53.955741
13503		126.173922	-71.645570	-53.298287
13504		126.948785	-71.262397	-52.471626
13505		127.879749	-70.822814	-51.599063
13506		128.907850	-70.386503	-50.795879
13507		129.938849	-69.980661	-50.132965
13508		130.857339	-69.642136	-49.600035
13509		131.643405	-69.364339	-49.231159
13510		132.315812	-69.146681	-49.036920
13511		132.867790	-68.966671	-48.984413
13512		133.326472	-68.839907	-49.042105
13513		133.702235	-68.749995	-49.173792
13514		134.048525	-68.697324	-49.374011
13515		134.337943	-68.655535	-49.570781
13516		134.622855	-68.579255	-49.675581
13517		134.974731	-68.457425	-49.531318
13518		135.447958	-68.281846	-49.173034
13519		136.042893	-68.060547	-48.699984
13520		136.693824	-67.818816	-48.185946
13521		137.330945	-67.589004	-47.715595
13522		137.861254	-67.396774	-47.289598
13523		138.288727	-67.243343	-46.946790
13524		138.614936	-67.136074	-46.682219
13525		138.860838	-67.060336	-46.503703
13526		139.054730	-67.024418	-46.429919
13527		139.215798	-67.015102	-46.468894
13528		139.352321	-67.028432	-46.625684
13529		139.472360	-67.050242	-46.833823
13530		139.603057	-67.089490	-47.039052
13531		139.784108	-67.133738	-47.208761
13532		140.039822	-67.179231	-47.352122
13533		140.344885	-67.213809	-47.461437
13534		140.679325	-67.235308	-47.545158
13535		141.003309	-67.241366	-47.600009
13536		141.300069	-67.240728	-47.634855
13537		141.541082	-67.230631	-47.657080
13538		141.737126	-67.213059	-47.677357
13539		141.882703	-67.187125	-47.672120
13540		142.016989	-67.164809	-47.636754
13541		142.162510	-67.145120	-47.590843
13542		142.340581	-67.130747	-47.575074
13543		142.538218	-67.115224	-47.601419
13544		142.737313	-67.107573	-47.661762
13545		142.963223	-67.103218	-47.769624
13546		143.179289	-67.107748	-47.873324
13547		143.373171	-67.099191	-47.932579
13548		143.567064	-67.071003	-47.903745
13549		143.762781	-67.007972	-47.782702
13550		143.967374	-66.919714	-47.554354
13551		144.210941	-66.816418	-47.261833
13552		144.480980	-66.712164	-46.939310
13553		144.755479	-66.612218	-46.623031
13554		145.004750	-66.517860	-46.308914
13555		145.243746	-66.428408	-46.027219
13556		145.461960	-66.345945	-45.782136
13557		145.683634	-66.258480	-45.611141
13558		145.890769	-66.182576	-45.511382
13559		146.071162	-66.097386	-45.454955
13560		146.292584	-66.013817	-45.374418
13561		146.584765	-65.913761	-45.266897
13562		146.907675	-65.784765	-45.082872
13563		147.305305	-65.607216	-44.771768
13564		147.852797	-65.401766	-44.285973
13565		148.532752	-65.151735	-43.661290
13566		149.306906	-64.857771	-42.977960
13567		150.138102	-64.543387	-42.362038
13568		150.928020	-64.241264	-41.867649
13569		151.637780	-63.957190	-41.537337
13570		152.230922	-63.715466	-41.357981
13571		152.692258	-63.512275	-41.308285
13572		153.036202	-63.369728	-41.371274
13573		153.256407	-63.280923	-41.535007
13574		153.331306	-63.253089	-41.808854
13575		153.271469	-63.286077	-42.243249
13576		153.056071	-63.370007	-42.801254
13577		152.718578	-63.510725	-43.419086
13578		152.325572	-63.683043	-44.055431
13579		151.890473	-63.864878	-44.622730
13580		151.521324	-64.035523	-45.070821
13581		151.287686	-64.169889	-45.361006
13582		151.156111	-64.257805	-45.465225
13583		151.121389	-64.293879	-45.428692
13584		151.137516	-64.296366	-45.282364
13585		151.194165	-64.270905	-45.087385
13586		151.263511	-64.231412	-44.890859
13587		151.333524	-64.182084	-44.731386
13588		151.405709	-64.137954	-44.650647
13589		151.440220	-64.098228	-44.629422
13590		151.419264	-64.088709	-44.644553
13591		151.350392	-64.120407	-44.669424
13592		151.229349	-64.180842	-44.673177
13593		151.087895	-64.252484	-44.652966
13594		150.958109	-64.330402	-44.631324
13595		150.860702	-64.394315	-44.622314
13596		150.808066	-64.442264	-44.625465
13597		150.790945	-64.468838	-44.636540
13598		150.814988	-64.479672	-44.648824
13599		150.878959	-64.480118	-44.661827
13600		150.953599	-64.475263	-44.662305
13601		151.035097	-64.462686	-44.663017
13602		151.077484	-64.469003	-44.638173
13603		151.082125	-64.491993	-44.605133
13604		151.045939	-64.518051	-44.563010
13605		150.992304	-64.543529	-44.531894
13606		150.939252	-64.568472	-44.515661
13607		150.920869	-64.582094	-44.515164
13608		150.957227	-64.583046	-44.510726
13609		151.034083	-64.561617	-44.498634
13610		151.140697	-64.526802	-44.479809
13611		151.255011	-64.481777	-44.441801
13612		151.365372	-64.449451	-44.399411
13613		151.462392	-64.422353	-44.366497
13614		151.517591	-64.403250	-44.328336
13615		151.554291	-64.398185	-44.318511
13616		151.552178	-64.403206	-44.331517
13617		151.540037	-64.416151	-44.379357
13618		151.526775	-64.437722	-44.445224
13619		151.503939	-64.460035	-44.524784
13620		151.476189	-64.483145	-44.598142
13621		151.466908	-64.505814	-44.651834
13622		151.457046	-64.526757	-44.664366
13623		151.449946	-64.540402	-44.649599
13624		151.459371	-64.544510	-44.625145
13625		151.446384	-64.549230	-44.575991
13626		151.428804	-64.552143	-44.536445
13627		151.401740	-64.558244	-44.501746
13628		151.384214	-64.566711	-44.470977
13629		151.376573	-64.577570	-44.444658
13630		151.350420	-64.581138	-44.399304
13631		151.347859	-64.581226	-44.370784
13632		151.324366	-64.587243	-44.335067
13633		151.279868	-64.591896	-44.290496
13634		151.238001	-64.597925	-44.261204
13635		151.192238	-64.603061	-44.237369
13636		151.160164	-64.603878	-44.213529
13637		151.159635	-64.599111	-44.187085
13638		151.178296	-64.583792	-44.156347
13639		151.193879	-64.560460	-44.111892
13640		151.207853	-64.546543	-44.056653
13641		151.224363	-64.540002	-44.015150
13642		151.214844	-64.535348	-43.974981
13643		151.208951	-64.529567	-43.970973
13644		151.195959	-64.529948	-43.979042
13645		151.173807	-64.530627	-43.990534
13646		151.149076	-64.537646	-43.999030
13647		151.124344	-64.543174	-44.003022
13648		151.097279	-64.558107	-43.999927
13649		151.079934	-64.564562	-43.994021
13650		151.062653	-64.571518	-43.959680
13651		151.050192	-64.570001	-43.919197
13652		151.030229	-64.565182	-43.872106
13653		150.997280	-64.562501	-43.828433
13654		150.971138	-64.562366	-43.807844
13655		150.940338	-64.565074	-43.799595
13656		150.906919	-64.566342	-43.790222
13657		150.866091	-64.570071	-43.772867
13658		150.827376	-64.573760	-43.749506
13659		150.773402	-64.579313	-43.715168
13660		150.731279	-64.584823	-43.692923
13661		150.709637	-64.586889	-43.683558
13662		150.702967	-64.581170	-43.679262
13663		150.708757	-64.571038	-43.687697
13664		150.715608	-64.560649	-43.696418
13665		150.708559	-64.554758	-43.699183
13666		150.693857	-64.555434	-43.700947
13667		150.669944	-64.560556	-43.707773
13668		150.637689	-64.573314	-43.722250
13669		150.586131	-64.585903	-43.745876
13670		150.524487	-64.610414	-43.795205
13671		150.461260	-64.636473	-43.871270
13672		150.393546	-64.665148	-43.934153
13673		150.354980	-64.691535	-43.997250
13674		150.315114	-64.712903	-44.024021
13675		150.292551	-64.731352	-44.042202
13676		150.276621	-64.741356	-44.049855
13677		150.265955	-64.748000	-44.062587
13678		150.256807	-64.755492	-44.080430
13679		150.258636	-64.759220	-44.115079
13680		150.246384	-64.765665	-44.143217
13681		150.232776	-64.769314	-44.187821
13682		150.209361	-64.777703	-44.229334
13683		150.191448	-64.794362	-44.274519
13684		150.150684	-64.823649	-44.353358
13685		150.049264	-64.871327	-44.484042
13686		149.869202	-64.946887	-44.652774
13687		149.633729	-65.052397	-44.835004
13688		149.366375	-65.176305	-44.985893
13689		149.123517	-65.302463	-45.106482
13690		148.936223	-65.413128	-45.204011
13691		148.809857	-65.493548	-45.285719
13692		148.734437	-65.555198	-45.356733
13693		148.692504	-65.602354	-45.423824
13694		148.650305	-65.647610	-45.484429
13695		148.592146	-65.697900	-45.557731
13696		148.523706	-65.755326	-45.664850
13697		148.439426	-65.813586	-45.801244
13698		148.321626	-65.881847	-45.934543
13699		148.203076	-65.958519	-46.078107
13700		148.065371	-66.051383	-46.218539
13701		147.913551	-66.156833	-46.370252
13702		147.740820	-66.271204	-46.526183
13703		147.555637	-66.395861	-46.707182
13704		147.366822	-66.531826	-46.929686
13705		147.176440	-66.677755	-47.196031
13706		146.979933	-66.833586	-47.506241
13707		146.841925	-66.992221	-47.888229
13708		146.738204	-67.153214	-48.279638
13709		146.653634	-67.304185	-48.656552
13710		146.575787	-67.444135	-49.007123
13711		146.505404	-67.577984	-49.345972
13712		146.407341	-67.711254	-49.656744
13713		146.286491	-67.851101	-49.945395
13714		146.162854	-67.994614	-50.242626
13715		146.071172	-68.145629	-50.604071
13716		145.996802	-68.303903	-51.014956
13717		145.917870	-68.475819	-51.467096
13718		145.796122	-68.663341	-51.939831
13719		145.642185	-68.871179	-52.450641
13720		145.456904	-69.095773	-53.009309
13721		145.281916	-69.321323	-53.597271
13722		145.110399	-69.543758	-54.132916
13723		144.987307	-69.753313	-54.626166
13724		144.884320	-69.941154	-55.043436
13725		144.813874	-70.108328	-55.414318
13726		144.769508	-70.269956	-55.789173
13727		144.734451	-70.443002	-56.245481
13728		144.672352	-70.636803	-56.777936
13729		144.541372	-70.857846	-57.361203
13730		144.326235	-71.104593	-57.951991
13731		144.073206	-71.361320	-58.567735
13732		143.823010	-71.617915	-59.146032
13733		143.601613	-71.857192	-59.653059
13734		143.446325	-72.066525	-60.080659
13735		143.359290	-72.244324	-60.445170
13736		143.306930	-72.404355	-60.762910
13737		143.233859	-72.556931	-61.091292
13738		143.122293	-72.735638	-61.498188
13739		142.934275	-72.957480	-62.063584
13740		142.674576	-73.237091	-62.794439
13741		142.354151	-73.563415	-63.612966
13742		142.008120	-73.915078	-64.428705
13743		141.676610	-74.258299	-65.198770
13744		141.390955	-74.574061	-65.873951
13745		141.196075	-74.849016	-66.474170
13746		141.067855	-75.086248	-66.980585
13747		141.022554	-75.296792	-67.446624
13748		140.979620	-75.501746	-67.905969
13749		140.913429	-75.710121	-68.437452
13750		140.807978	-75.943504	-69.048935
13751		140.740307	-76.202587	-69.885749
13752		140.708613	-76.499527	-70.972443
13753		140.670957	-76.814767	-72.189150
13754		140.625644	-77.135116	-73.366491
13755		140.548400	-77.439550	-74.353740
13756		140.425240	-77.707146	-75.069129
13757		140.279120	-77.936183	-75.538944
13758		140.130583	-78.128038	-75.838985
13759		140.031260	-78.293519	-76.136135
13760		139.973571	-78.468686	-76.508873
13761		139.958880	-78.659049	-77.067422
13762		140.015466	-78.891179	-77.814343
13763		140.251513	-79.180183	-78.971106
13764		140.575225	-79.524781	-80.497357
13765		140.954438	-79.909829	-82.226786
13766		141.315737	-80.314218	-83.900912
13767		141.626716	-80.697962	-85.354342
13768		141.802640	-81.041787	-86.435813
13769		141.896086	-81.326188	-87.199161
13770		141.869943	-81.550620	-87.647543
13771		141.885216	-81.736152	-88.015142
13772		142.082268	-81.926393	-88.590231
13773		142.532985	-82.172639	-89.673269
13774		143.226684	-82.498502	-91.342561
13775		144.345317	-82.913820	-93.747874
13776		145.747246	-83.381677	-96.646090
13777		147.248650	-83.855752	-99.620517
13778		148.524485	-84.302416	-102.137945
13779		149.583173	-84.685796	-104.123502
13780		150.255393	-84.984835	-105.433193
13781		150.838727	-85.215232	-106.459278
13782		151.858779	-85.421613	-107.948907
13783		153.807361	-85.673253	-110.591749
13784		157.276722	-86.008717	-115.169741
13785		163.118498	-86.416033	-122.576211
13786		171.733393	-86.838208	-133.050909
13787		-177.143168	-87.199456	-146.044094
13788		-165.015455	-87.452942	-159.773247
13789		-153.919824	-87.606739	-172.038359
13790		-145.242796	-87.701758	178.537835
13791		-138.846471	-87.754863	171.702873
13792		-133.607584	-87.762796	166.111015
13793		-128.055327	-87.706485	160.094517
13794		-121.669310	-87.578602	153.016788
13795		-114.863431	-87.363210	145.306729
13796		-108.622122	-87.082106	138.042406
13797		-103.697669	-86.780859	132.120318
13798		-99.854357	-86.507156	127.438087
13799		-97.065047	-86.287225	124.028653
13800		-95.088547	-86.117262	121.610585
13801		-93.784548	-85.955003	119.955724
13802		-92.803473	-85.797876	118.638469
13803		-92.051878	-85.615644	117.502036
13804		-91.198091	-85.423704	116.210269
13805		-90.116321	-85.222859	114.651992
13806		-89.049193	-85.018766	113.102720
13807		-88.090595	-84.829702	111.697081
13808		-87.168030	-84.656900	110.395132
13809		-86.468870	-84.487583	109.350027
13810		-86.051501	-84.310761	108.602536
13811		-85.906089	-84.126019	108.125084
13812		-85.904131	-83.941548	107.804613
13813		-86.182709	-83.753691	107.768209
13814		-86.589608	-83.573820	107.864156
13815		-87.004415	-83.404335	107.980074
13816		-87.309288	-83.253942	108.012727
13817		-87.591135	-83.113824	108.030332
13818		-87.748588	-82.986808	107.942292
13819		-87.719368	-82.874365	107.675665
13820		-87.542858	-82.778270	107.292854
13821		-87.337940	-82.700202	106.916929
13822		-87.190827	-82.654003	106.658156
13823		-87.224492	-82.643946	106.650628
13824		-87.595864	-82.660518	107.021373
13825		-88.139553	-82.688464	107.558523
13826		-88.702755	-82.705574	108.073199
13827		-89.292441	-82.696239	108.535013
13828		-89.796904	-82.658663	108.862276
13829		-90.190675	-82.619627	109.080566
13830		-90.495946	-82.595685	109.239215
13831		-90.755611	-82.587150	109.372261
13832		-90.975041	-82.586016	109.476669
13833		-91.287213	-82.592136	109.661614
13834		-91.800731	-82.588307	110.025639
13835		-92.530472	-82.579646	110.589762
13836		-93.266107	-82.569074	111.160935
13837		-93.958876	-82.552671	111.670772
13838		-94.566364	-82.536497	112.089802
13839		-95.027005	-82.522579	112.386547
13840		-95.233499	-82.522723	112.478692
13841		-95.224124	-82.548207	112.412261
13842		-95.085636	-82.585189	112.267808
13843		-95.126189	-82.609660	112.267877
13844		-95.334324	-82.609785	112.400145
13845		-95.581827	-82.591665	112.554744
13846		-95.815033	-82.565046	112.698169
13847		-96.101981	-82.541721	112.904853
13848		-96.393201	-82.525799	113.136639
13849		-96.529995	-82.521663	113.230795
13850		-96.499378	-82.517714	113.142932
13851		-96.303679	-82.511536	112.871604
13852		-96.053193	-82.516839	112.557450
13853		-95.738590	-82.544478	112.245470
13854		-95.302096	-82.595521	111.918829
13855		-94.655050	-82.640901	111.465542
13856		-93.779167	-82.654598	110.794636
13857		-92.677460	-82.633149	109.825814
13858		-91.440392	-82.592829	108.603204
13859		-90.208797	-82.545485	107.300475
13860		-89.112425	-82.500595	106.118814
13861		-88.256471	-82.460094	105.182390
13862		-87.763218	-82.426169	104.600002
13863		-87.548515	-82.412629	104.292648
13864		-87.467275	-82.409678	104.121299
13865		-87.370099	-82.410704	103.955434
13866		-87.168100	-82.414397	103.699913
13867		-86.920618	-82.422979	103.419000
13868		-86.761608	-82.428224	103.240046
13869		-86.739031	-82.435368	103.227366
13870		-86.827451	-82.441693	103.348854
13871		-86.984098	-82.447350	103.541187
13872		-87.141362	-82.451739	103.727569
13873		-87.225368	-82.449277	103.810782
13874		-87.255723	-82.444856	103.825905
13875		-87.158948	-82.438451	103.702756
13876		-87.011261	-82.433966	103.544803
13877		-86.824463	-82.443748	103.388464
13878		-86.634886	-82.461952	103.268036
13879		-86.479714	-82.496116	103.199170
13880		-86.494854	-82.525615	103.271070
13881		-86.678447	-82.547776	103.479203
13882		-86.846287	-82.567684	103.657559
13883		-86.952758	-82.577209	103.755550
13884		-87.069503	-82.578480	103.851813
13885		-87.204738	-82.580418	103.963422
13886		-87.316491	-82.586637	104.079100
13887		-87.399909	-82.604911	104.189421
13888		-87.468846	-82.628855	104.292965
13889		-87.589385	-82.659721	104.456606
13890		-87.746264	-82.697746	104.650632
13891		-87.867317	-82.734540	104.799335
13892		-87.954896	-82.770298	104.923820
13893		-88.035139	-82.793353	105.015619
13894		-88.179272	-82.799484	105.155417
13895		-88.332138	-82.800098	105.303579
13896		-88.436594	-82.810222	105.420337
13897		-88.496925	-82.837923	105.513483
13898		-88.516947	-82.868999	105.554820
13899		-88.517789	-82.894991	105.553638
13900		-88.542646	-82.911141	105.551579
13901		-88.564616	-82.922939	105.550991
13902		-88.620807	-82.935871	105.612388
13903		-88.809439	-82.955090	105.819005
13904		-89.079734	-82.972165	106.117545
13905		-89.353601	-82.978852	106.385816
13906		-89.549253	-82.978214	106.562590
13907		-89.586469	-82.973686	106.577022
13908		-89.649303	-82.970568	106.626791
13909		-89.720179	-82.973256	106.705835
13910		-89.842101	-82.988961	106.872230
13911		-90.105066	-83.019382	107.203091
13912		-90.419953	-83.052372	107.607925
13913		-90.811529	-83.077573	108.068476
13914		-91.173519	-83.085288	108.465241
13915		-91.420498	-83.081122	108.719833
13916		-91.588839	-83.072441	108.889346
13917		-91.783834	-83.070320	109.097083
13918		-92.039935	-83.076940	109.395295
13919		-92.320521	-83.097397	109.740821
13920		-92.581803	-83.138052	110.101864
13921		-92.845423	-83.192706	110.492036
13922		-93.200201	-83.248198	110.975806
13923		-93.612431	-83.307279	111.516050
13924		-94.045754	-83.372927	112.087279
13925		-94.512857	-83.458469	112.730018
13926		-94.962648	-83.571231	113.421490
13927		-95.487980	-83.711173	114.242684
13928		-96.110592	-83.876886	115.223983
13929		-96.886231	-84.052127	116.391202
13930		-97.834676	-84.218267	117.697079
13931		-98.830503	-84.375214	119.015031
13932		-99.746193	-84.514007	120.222251
13933		-100.682431	-84.640588	121.422316
13934		-101.718482	-84.766211	122.739470
13935		-102.874987	-84.895599	124.205797
13936		-104.199522	-85.009782	125.817914
13937		-105.429317	-85.085484	127.239289
13938		-106.331365	-85.115128	128.174413
13939		-106.808697	-85.094282	128.537566
13940		-106.776443	-85.039455	128.333225
13941		-106.576505	-84.973055	127.967125
13942		-106.505330	-84.911248	127.775076
13943		-106.557832	-84.880694	127.782600
13944		-106.835371	-84.883321	128.112866
13945		-107.111067	-84.913311	128.502344
13946		-107.337620	-84.967827	128.889210
13947		-107.531475	-85.027313	129.241338
13948		-107.644024	-85.076422	129.479103
13949		-107.628781	-85.108600	129.539638
13950		-107.465035	-85.128722	129.419553
13951		-107.253896	-85.134575	129.214760
13952		-107.041426	-85.136688	129.003625
13953		-106.910574	-85.143659	128.903114
13954		-106.886548	-85.175186	128.968962
13955		-107.069527	-85.242205	129.315730
13956		-107.518517	-85.346629	130.039650
13957		-108.302006	-85.502688	131.226392
13958		-109.489715	-85.690161	132.913712
13959		-111.045376	-85.880908	134.989857
13960		-112.748326	-86.057028	137.177274
13961		-114.490718	-86.221113	139.357195
13962		-116.035284	-86.360716	141.295324
13963		-117.689094	-86.490235	143.318075
13964		-119.634092	-86.614384	145.644245
13965		-122.162407	-86.749565	148.607394
13966		-125.665762	-86.892608	152.630004
13967		-130.435469	-87.041375	158.016992
13968		-136.274790	-87.179683	164.548734
13969		-142.652456	-87.271210	171.597296
13970		-148.775263	-87.316306	178.326664
13971		-154.418643	-87.324096	-175.517209
13972		-159.159742	-87.300607	-170.340262
13973		-163.459471	-87.255540	-165.652972
13974		-167.820928	-87.197420	-160.877199
13975		-172.748372	-87.108494	-155.450041
13976		-178.645300	-86.963070	-148.877133
13977		174.683343	-86.757265	-141.284714
13978		168.078080	-86.464811	-133.582344
13979		162.501397	-86.095454	-126.883149
13980		158.186259	-85.705079	-121.475963
13981		154.789372	-85.330627	-117.079334
13982		151.986134	-84.985613	-113.395448
13983		149.607229	-84.667306	-110.240932
13984		147.512492	-84.367699	-107.428671
13985		145.644300	-84.066730	-104.861774
13986		144.024989	-83.744779	-102.507727
13987		142.696837	-83.398240	-100.385375
13988		141.626021	-83.027451	-98.496557
13989		140.943250	-82.644180	-96.933915
13990		140.585963	-82.258992	-95.642188
13991		140.389893	-81.864197	-94.477414
13992		140.266835	-81.471360	-93.411502
13993		140.149873	-81.098494	-92.414552
13994		140.041651	-80.767141	-91.501092
13995		139.936439	-80.473102	-90.673132
13996		139.832795	-80.214315	-89.922956
13997		139.711425	-79.989441	-89.227945
13998		139.608517	-79.797659	-88.634010
13999		139.519618	-79.629200	-88.122654
14000		139.487713	-79.481017	-87.696499
14001		139.456929	-79.322261	-87.268137
14002		139.453830	-79.148560	-86.776963
14003		139.451729	-78.959207	-86.200523
14004		139.503535	-78.744476	-85.619607
14005		139.612221	-78.516913	-85.068021
14006		139.745781	-78.290861	-84.549421
14007		139.872790	-78.074969	-84.080096
14008		139.966114	-77.888518	-83.648943
14009		140.032095	-77.733364	-83.264440
14010		140.123987	-77.599823	-82.975526
14011		140.158706	-77.469397	-82.665793
14012		140.132435	-77.330447	-82.227945
14013		140.050542	-77.173070	-81.617224
14014		139.926443	-76.992446	-80.850998
14015		139.741540	-76.796436	-79.934851
14016		139.557551	-76.610950	-78.966976
14017		139.379647	-76.435170	-78.034049
14018		139.255692	-76.291392	-77.220350
14019		139.198949	-76.166292	-76.559020
14020		139.187998	-76.061484	-76.037156
14021		139.185610	-75.967828	-75.606604
14022		139.160339	-75.891390	-75.206210
14023		139.091170	-75.825350	-74.787338
14024		138.989018	-75.771837	-74.338316
14025		138.874501	-75.719311	-73.848018
14026		138.750750	-75.666018	-73.287945
14027		138.639654	-75.598665	-72.702544
14028		138.525157	-75.523148	-72.074466
14029		138.394551	-75.444892	-71.410601
14030		138.305401	-75.368412	-70.797141
14031		138.243249	-75.281742	-70.212567
14032		138.232274	-75.195394	-69.638004
14033		138.248523	-75.095841	-69.044680
14034		138.306661	-74.982722	-68.457944
14035		138.382773	-74.846107	-67.867938
14036		138.533770	-74.693836	-67.380545
14037		138.726318	-74.531376	-66.996857
14038		138.984107	-74.368536	-66.746932
14039		139.260312	-74.209513	-66.582783
14040		139.530554	-74.064099	-66.436325
14041		139.774922	-73.912187	-66.264515
14042		139.975468	-73.763549	-65.980077
14043		140.170092	-73.598080	-65.550762
14044		140.344182	-73.416817	-64.948808
14045		140.524820	-73.220029	-64.246194
14046		140.724790	-73.021474	-63.529007
14047		140.952844	-72.833854	-62.888079
14048		141.206586	-72.664691	-62.371194
14049		141.459643	-72.516537	-61.990187
14050		141.720809	-72.393505	-61.747635
14051		141.967830	-72.281742	-61.569769
14052		142.211610	-72.180320	-61.422096
14053		142.431308	-72.080119	-61.259153
14054		142.652962	-71.982813	-61.097965
14055		142.867418	-71.889055	-60.938111
14056		143.060435	-71.810146	-60.785045
14057		143.225557	-71.743187	-60.663303
14058		143.342461	-71.697242	-60.556066
14059		143.436532	-71.667819	-60.488718
14060		143.509695	-71.635934	-60.402800
14061		143.580038	-71.590097	-60.195067
14062		143.656187	-71.520749	-59.820886
14063		143.764686	-71.424136	-59.324756
14064		143.898460	-71.303173	-58.746785
14065		144.038560	-71.171915	-58.133671
14066		144.185931	-71.043265	-57.549733
14067		144.334760	-70.926750	-57.034708
14068		144.473999	-70.828371	-56.577101
14069		144.581012	-70.743323	-56.165708
14070		144.655894	-70.670587	-55.788594
14071		144.730691	-70.610567	-55.451339
14072		144.798706	-70.558628	-55.152935
14073		144.869693	-70.504519	-54.899868
14074		144.945415	-70.461544	-54.683694
14075		145.018885	-70.411463	-54.505294
14076		145.085766	-70.324000	-54.232353
14077		145.234001	-70.205683	-53.683054
14078		145.498843	-70.031645	-52.858842
14079		145.882747	-69.814296	-51.850319
14080		146.346933	-69.580538	-50.806771
14081		146.854257	-69.354601	-49.871358
14082		147.355501	-69.148510	-49.140954
14083		147.852652	-68.965586	-48.694062
14084		148.297161	-68.811397	-48.498675
14085		148.635285	-68.694487	-48.480581
14086		148.853063	-68.632055	-48.584893
14087		148.924283	-68.626538	-48.764100
14088		148.887341	-68.687129	-49.003401
14089		148.734656	-68.785745	-49.277806
14090		148.522321	-68.908193	-49.536106
14091		148.307676	-69.038747	-49.767862
14092		148.108196	-69.165657	-49.954585
14093		147.941620	-69.272551	-50.108560
14094		147.825282	-69.344574	-50.188182
14095		147.778643	-69.370011	-50.137199
14096		147.816677	-69.351489	-49.932455
14097		147.939737	-69.279360	-49.605074
14098		148.131802	-69.175855	-49.221612
14099		148.378346	-69.049157	-48.868353
14100		148.603929	-68.922544	-48.572802
14101		148.785095	-68.811559	-48.361163
14102		148.898408	-68.736846	-48.230367
14103		148.911714	-68.704503	-48.162707
14104		148.846565	-68.712204	-48.159446
14105		148.712245	-68.756443	-48.186708
14106		148.552958	-68.824951	-48.204705
14107		148.409537	-68.897557	-48.175562
14108		148.314928	-68.946118	-48.057577
14109		148.297676	-68.956526	-47.884221
14110		148.333894	-68.935348	-47.658596
14111		148.421228	-68.882478	-47.421517
14112		148.576915	-68.818699	-47.227683
14113		148.746742	-68.744289	-47.061140
14114		148.898695	-68.679555	-46.930437
14115		149.021953	-68.634213	-46.852721
14116		149.085028	-68.614363	-46.802098
14117		149.074661	-68.618669	-46.763708
14118		149.028450	-68.650561	-46.766245
14119		148.959986	-68.697224	-46.805375
14120		148.877926	-68.739933	-46.857208
14121		148.839824	-68.784453	-46.855550
14122		148.845230	-68.800880	-46.764000
14123		148.917806	-68.786466	-46.607085
14124		149.042565	-68.740204	-46.409417
14125		149.220849	-68.669141	-46.206688
14126		149.418252	-68.586212	-46.030079
14127		149.618780	-68.498822	-45.909347
14128		149.793238	-68.433652	-45.865368
14129		149.908713	-68.395133	-45.878869
14130		149.938213	-68.384705	-45.927717
14131		149.913240	-68.403969	-46.007814
14132		149.857310	-68.446466	-46.107370
14133		149.781792	-68.493706	-46.223909
14134		149.683283	-68.522876	-46.312602
14135		149.692643	-68.532459	-46.287913
14136		149.817286	-68.490462	-46.049545
14137		150.106107	-68.386994	-45.649931
14138		150.505900	-68.234563	-45.145803
14139		150.981392	-68.057966	-44.654354
14140		151.462814	-67.881611	-44.257393
14141		151.873288	-67.721820	-43.985196
14142		152.188517	-67.596410	-43.841788
14143		152.404964	-67.509880	-43.822743
14144		152.495795	-67.472913	-43.902600
14145		152.468296	-67.487768	-44.089205
14146		152.348887	-67.548516	-44.406369
14147		152.118917	-67.647395	-44.821808
14148		151.809656	-67.781553	-45.309799
14149		151.459241	-67.935455	-45.784775
14150		151.118265	-68.089932	-46.206833
14151		150.801348	-68.232935	-46.516749
14152		150.547541	-68.347431	-46.705435
14153		150.346003	-68.423929	-46.775291
14154		150.197596	-68.474334	-46.752149
14155		150.098980	-68.507661	-46.667072
14156		150.030840	-68.524081	-46.555360
14157		149.994450	-68.532786	-46.458644
14158		149.952173	-68.538318	-46.387837
14159		149.894783	-68.545889	-46.353643
14160		149.812540	-68.567281	-46.369218
14161		149.685349	-68.604502	-46.420081
14162		149.516012	-68.662080	-46.494283
14163		149.291102	-68.733554	-46.544854
14164		149.076121	-68.807762	-46.599825
14165		148.881047	-68.872559	-46.628731
14166		148.744781	-68.916709	-46.632392
14167		148.685841	-68.939751	-46.581332
14168		148.696532	-68.936431	-46.490536
14169		148.777022	-68.902171	-46.410481
14170		148.859365	-68.857825	-46.314130
14171		148.962105	-68.809673	-46.248733
14172		149.050116	-68.765923	-46.198685
14173		149.081847	-68.742110	-46.149976
14174		149.091692	-68.729505	-46.142458
14175		149.064193	-68.728063	-46.169238
14176		149.025237	-68.736915	-46.224555
14177		149.020466	-68.751471	-46.325631
14178		148.995813	-68.772663	-46.413486
14179		148.974542	-68.779942	-46.493264
14180		148.987610	-68.785045	-46.554892
14181		149.036376	-68.774641	-46.592019
14182		149.103303	-68.755703	-46.608522
14183		149.167145	-68.734549	-46.614248
14184		149.214548	-68.711540	-46.605173
14185		149.250525	-68.693379	-46.606024
14186		149.269341	-68.689449	-46.622663
14187		149.262070	-68.693753	-46.641880
14188		149.242982	-68.704237	-46.667413
14189		149.228682	-68.718423	-46.701634
14190		149.205675	-68.735038	-46.721523
14191		149.181079	-68.748985	-46.727941
14192		149.163168	-68.761745	-46.735814
14193		149.128603	-68.773816	-46.733714
14194		149.080653	-68.785240	-46.716768
14195		149.035494	-68.802113	-46.684705
14196		148.994991	-68.809953	-46.632021
14197		148.977386	-68.809483	-46.588848
14198		148.953778	-68.801068	-46.552034
14199		148.941613	-68.790753	-46.544062
14200		148.916824	-68.782188	-46.534771
14201		148.890383	-68.783679	-46.538006
14202		148.839796	-68.783342	-46.522025
14203		148.774532	-68.790931	-46.502904
14204		148.699435	-68.807420	-46.488199
14205		148.627480	-68.823948	-46.496547
14206		148.540482	-68.838920	-46.500961
14207		148.495303	-68.848910	-46.499960
14208		148.511697	-68.847821	-46.502660
14209		148.540931	-68.830592	-46.484191
14210		148.605446	-68.801905	-46.499684
14211		148.655103	-68.774263	-46.515247
14212		148.687470	-68.757511	-46.532203
14213		148.699043	-68.751383	-46.577798
14214		148.699038	-68.770824	-46.710334
14215		148.617044	-68.815084	-46.922732
14216		148.436374	-68.892246	-47.210856
14217		148.163742	-69.014912	-47.572106
14218		147.839214	-69.175878	-48.024579
14219		147.461652	-69.369130	-48.550854
14220		147.042685	-69.578728	-49.119295
14221		146.611479	-69.785340	-49.681085
14222		146.219375	-69.975135	-50.153875
14223		145.886599	-70.133802	-50.482124
14224		145.618471	-70.253543	-50.657130
14225		145.393632	-70.342832	-50.709296
14226		145.219882	-70.398208	-50.692686
14227		145.065404	-70.434471	-50.648540
14228		144.896634	-70.464900	-50.627413
14229		144.723374	-70.509907	-50.678976
14230		144.519575	-70.573876	-50.788169
14231		144.304142	-70.662106	-50.962625
14232		144.068703	-70.767156	-51.183917
14233		143.846415	-70.890354	-51.449986
14234		143.592279	-71.022185	-51.694318
14235		143.349677	-71.161760	-51.954722
14236		143.126364	-71.309560	-52.242471
14237		142.923554	-71.464469	-52.568439
14238		142.737391	-71.620976	-52.927637
14239		142.550437	-71.782194	-53.305777
14240		142.344294	-71.949575	-53.686708
14241		142.132287	-72.120849	-54.085615
14242		141.902988	-72.295106	-54.496044
14243		141.663271	-72.475579	-54.928474
14244		141.425958	-72.663321	-55.404317
14245		141.180935	-72.862258	-55.909249
14246		140.924272	-73.064349	-56.415818
14247		140.675832	-73.268464	-56.905548
14248		140.441498	-73.469231	-57.379321
14249		140.196192	-73.668563	-57.810882
14250		139.928040	-73.864895	-58.190623
14251		139.628879	-74.063638	-58.515298
14252		139.310020	-74.262868	-58.810250
14253		139.001573	-74.468954	-59.134119
14254		138.681496	-74.684948	-59.505807
14255		138.353653	-74.914906	-59.928852
14256		138.004504	-75.160141	-60.375748
14257		137.660348	-75.420388	-60.844719
14258		137.318915	-75.683554	-61.314534
14259		136.974566	-75.950585	-61.769046
14260		136.645170	-76.219240	-62.219600
14261		136.302303	-76.486577	-62.638815
14262		135.944772	-76.749937	-63.017744
14263		135.582030	-77.006768	-63.362110
14264		135.165914	-77.259174	-63.611158
14265		134.752148	-77.506243	-63.813459
14266		134.335330	-77.740594	-63.983356
14267		133.972879	-77.965370	-64.204404
14268		133.629458	-78.183771	-64.445956
14269		133.362805	-78.412794	-64.803622
14270		133.049840	-78.660972	-65.224975
14271		132.684374	-78.936739	-65.703392
14272		132.246954	-79.242924	-66.193487
14273		131.721986	-79.577638	-66.653650
14274		131.067649	-79.927151	-66.997013
14275		130.366452	-80.270914	-67.239702
14276		129.696519	-80.590559	-67.425871
14277		129.112334	-80.869962	-67.576561
14278		128.561349	-81.098291	-67.625905
14279		128.111172	-81.290372	-67.651128
14280		127.710809	-81.477509	-67.701645
14281		127.316998	-81.697694	-67.899743
14282		126.909532	-81.987760	-68.315272
14283		126.410952	-82.372797	-68.967498
14284		125.605615	-82.838617	-69.579281
14285		124.453054	-83.345394	-69.906166
14286		122.940077	-83.834612	-69.731180
14287		121.191955	-84.250615	-69.052447
14288		119.428418	-84.556207	-68.052949
14289		117.884912	-84.757822	-66.983381
14290		116.560746	-84.868397	-65.896531
14291		115.716912	-84.930977	-65.125827
14292		115.042601	-84.974520	-64.512417
14293		114.475637	-85.048536	-64.120817
14294		113.726741	-85.192105	-63.813529
14295		112.677640	-85.431267	-63.494082
14296		111.080624	-85.746168	-62.856097
14297		108.869247	-86.113242	-61.737196
14298		105.935755	-86.460273	-59.856756
14299		102.501177	-86.744219	-57.301409
14300		99.236308	-86.961104	-54.682276
14301		96.790248	-87.117288	-52.718236
14302		94.745911	-87.229398	-51.038710
14303		93.007511	-87.348588	-49.641951
14304		90.711218	-87.492987	-47.811762
14305		87.294652	-87.685606	-45.023330
14306		82.317831	-87.906814	-40.837921
14307		74.897039	-88.127941	-34.299287
14308		65.232045	-88.298359	-25.503115
14309		54.871921	-88.389406	-15.883198
14310		45.669904	-88.403133	-7.249222
14311		38.506638	-88.393384	-0.514526
14312		32.733413	-88.374974	4.886288
14313		26.603428	-88.352896	10.622687
14314		19.837505	-88.308911	16.917050
14315		12.267431	-88.236035	23.930942
14316		4.505296	-88.116884	31.051603
14317		-2.688267	-87.968457	37.565628
14318		-8.562984	-87.801105	42.786805
14319		-13.262560	-87.620489	46.887147
14320		-17.177373	-87.440403	50.231977
14321		-20.781842	-87.264429	53.276483
14322		-24.061531	-87.068283	55.996292
14323		-26.935769	-86.873869	58.334087
14324		-29.141346	-86.687934	60.057073
14325		-30.823693	-86.515585	61.332561
14326		-32.067466	-86.341178	62.201481
14327		-33.421019	-86.167157	63.162396
14328		-34.839225	-85.976618	64.131769
14329		-36.469734	-85.776863	65.251465
14330		-38.078256	-85.565098	66.321479
14331		-39.528602	-85.344051	67.250347
14332		-40.764510	-85.141093	68.015863
14333		-42.050965	-84.970880	68.868643
14334		-43.296406	-84.819370	69.704799
14335		-44.609025	-84.679387	70.611064
14336		-45.735001	-84.538028	71.332092
14337		-46.688367	-84.386865	71.886242
14338		-47.322317	-84.223357	72.129754
14339		-47.851324	-84.048223	72.271752
14340		-48.327238	-83.871806	72.364789
14341		-48.818246	-83.707896	72.485470
14342		-49.279409	-83.563337	72.602094
14343		-49.695835	-83.447845	72.701087
14344		-49.964987	-83.358417	72.671796
14345		-49.994179	-83.302541	72.402700
14346		-49.714997	-83.282687	71.793990
14347		-49.019785	-83.267201	70.738557
14348		-47.836581	-83.247624	69.203837
14349		-46.533573	-83.199602	67.582997
14350		-45.632446	-83.131934	66.440313
14351		-45.362217	-83.054550	66.004754
14352		-45.488253	-83.017496	66.044953
14353		-45.708733	-83.020333	66.252549
14354		-45.894704	-83.031339	66.443775
14355		-46.097513	-83.030942	66.621279
14356		-46.258555	-83.012851	66.709949
14357		-46.476192	-82.986497	66.779223
14358		-46.731963	-82.937292	66.836378
14359		-46.973599	-82.882814	66.856553
14360		-47.263416	-82.835778	66.927025
14361		-47.608862	-82.805448	67.070620
14362		-47.949965	-82.775948	67.234138
14363		-48.337333	-82.752032	67.468328
14364		-48.629173	-82.724451	67.625659
14365		-48.865567	-82.693502	67.734170
14366		-49.015591	-82.655460	67.754980
14367		-49.140859	-82.615566	67.748490
14368		-49.127065	-82.578460	67.619251
14369		-49.025958	-82.548889	67.436875
14370		-48.923884	-82.533457	67.295833
14371		-48.860038	-82.536770	67.233882
14372		-48.850114	-82.549682	67.247058
14373		-49.023456	-82.562563	67.407730
14374		-49.366929	-82.577151	67.687021
14375		-49.752772	-82.582642	67.976719
14376		-50.051862	-82.571418	68.164234
14377		-50.229697	-82.557817	68.232339
14378		-50.345328	-82.549861	68.262679
14379		-50.492313	-82.559547	68.352113
14380		-50.831374	-82.591736	68.637047
14381		-51.408160	-82.653576	69.152224
14382		-52.070850	-82.718556	69.752825
14383		-52.794562	-82.779926	70.393904
14384		-53.391925	-82.823512	70.892471
14385		-53.713159	-82.852477	71.129701
14386		-53.742437	-82.869973	71.093749
14387		-53.622120	-82.879767	70.931241
14388		-53.583636	-82.891114	70.852629
14389		-53.686221	-82.912562	70.928206
14390		-53.980515	-82.939752	71.186106
14391		-54.502051	-82.970497	71.653934
14392		-55.194920	-82.997712	72.275800
14393		-55.935747	-83.034263	72.952218
14394		-56.631182	-83.079380	73.620665
14395		-57.025345	-83.136245	74.055638
14396		-57.293159	-83.183229	74.381134
14397		-57.554919	-83.212777	74.629781
14398		-57.828116	-83.213082	74.819350
14399		-58.136677	-83.199380	75.014909
14400		-58.537615	-83.194869	75.306435
14401		-59.024164	-83.199534	75.702089
14402		-59.616848	-83.237315	76.254265
14403		-60.219198	-83.289959	76.856936
14404		-60.621587	-83.344110	77.283043
14405		-60.772638	-83.385035	77.454845
14406		-60.725948	-83.406626	77.416094
14407		-60.460337	-83.414589	77.165060
14408		-60.173618	-83.423712	76.897495
14409		-60.035976	-83.444018	76.787485
14410		-60.003394	-83.476186	76.789983
14411		-60.202941	-83.510793	76.996547
14412		-60.507241	-83.538950	77.291143
14413		-60.865380	-83.563654	77.637838
14414		-61.262119	-83.594307	78.035224
14415		-61.663919	-83.630316	78.432430
14416		-62.001073	-83.670034	78.767686
14417		-62.229632	-83.701156	78.990362
14418		-62.181180	-83.733983	78.945186
14419		-61.930565	-83.750431	78.699389
14420		-61.609099	-83.761683	78.376334
14421		-61.382186	-83.767757	78.135631
14422		-61.289848	-83.769205	78.032321
14423		-61.445917	-83.778741	78.162597
14424		-61.711355	-83.791527	78.395371
14425		-62.026889	-83.811719	78.687906
14426		-62.237425	-83.826030	78.894268
14427		-62.310890	-83.839696	78.977932
14428		-62.352146	-83.857391	79.020090
14429		-62.314829	-83.873537	78.981835
14430		-62.145934	-83.880871	78.819447
14431		-61.941351	-83.882149	78.623773
14432		-61.775894	-83.883530	78.479971
14433		-61.638381	-83.882483	78.367746
14434		-61.572335	-83.885251	78.321196
14435		-61.477395	-83.893812	78.255933
14436		-61.319090	-83.896617	78.135244
14437		-61.085886	-83.904151	77.945426
14438		-60.792910	-83.914959	77.704909
14439		-60.669675	-83.923926	77.594577
14440		-60.600000	-83.917555	77.506163
14441		-60.565804	-83.907587	77.453747
14442		-60.567345	-83.896452	77.448180
14443		-60.596287	-83.897166	77.486135
14444		-60.715920	-83.897605	77.607004
14445		-60.776120	-83.902820	77.665075
14446		-60.787993	-83.906650	77.681135
14447		-60.761352	-83.911276	77.666800
14448		-60.704093	-83.924700	77.635437
14449		-60.655414	-83.943635	77.628151
14450		-60.575720	-83.967895	77.614068
14451		-60.576782	-83.991146	77.671023
14452		-60.675337	-84.004209	77.791140
14453		-60.753405	-84.004092	77.858725
14454		-60.846366	-83.996456	77.926475
14455		-60.846289	-83.987592	77.909258
14456		-60.796713	-83.984075	77.863141
14457		-60.703592	-83.986866	77.779651
14458		-60.618724	-83.995333	77.719965
14459		-60.522418	-84.015763	77.667329
14460		-60.391418	-84.034525	77.590869
14461		-60.262450	-84.065895	77.533679
14462		-60.063683	-84.089759	77.426439
14463		-59.885219	-84.105720	77.302979
14464		-59.917870	-84.103982	77.319569
14465		-59.983537	-84.090336	77.323415
14466		-60.015865	-84.071047	77.304023
14467		-60.005765	-84.065412	77.273620
14468		-60.011463	-84.076213	77.298192
14469		-60.041494	-84.097625	77.377798
14470		-60.037219	-84.138806	77.466482
14471		-59.852522	-84.188291	77.409420
14472		-59.578760	-84.239801	77.258412
14473		-59.344216	-84.291637	77.131300
14474		-59.122167	-84.344462	77.025829
14475		-58.857724	-84.417608	76.921194
14476		-58.494101	-84.511816	76.762963
14477		-58.213752	-84.618954	76.701378
14478		-58.064172	-84.722560	76.727481
14479		-57.886210	-84.808029	76.679628
14480		-57.543306	-84.877286	76.457807
14481		-57.016035	-84.953048	76.083476
14482		-56.284184	-85.061512	75.595175
14483		-55.245311	-85.237433	74.954604
14484		-53.713491	-85.486260	74.010932
14485		-51.908956	-85.791078	72.936656
14486		-50.539973	-86.094376	72.228569
14487		-49.662449	-86.346496	71.811001
14488		-49.030209	-86.515202	71.437979
14489		-48.480058	-86.608591	71.009162
14490		-47.750290	-86.669914	70.359712
14491		-46.922163	-86.726590	69.615850
14492		-46.307221	-86.795766	69.093433
14493		-45.629863	-86.872759	68.534768
14494		-44.769276	-86.951331	67.846386
14495		-44.161584	-87.022936	67.406350
14496		-43.915417	-87.085005	67.258062
14497		-43.488880	-87.134106	66.902855
14498		-42.946879	-87.174918	66.455087
14499		-42.000531	-87.229606	65.673683
14500		-40.424631	-87.315197	64.368189
14501		-38.024950	-87.446385	62.369289
14502		-34.544963	-87.609763	59.440473
14503		-29.660088	-87.802110	55.250980
14504		-24.037508	-88.010959	50.358406
14505		-18.426955	-88.205227	45.398162
14506		-13.570166	-88.364656	41.039674
14507		-9.919982	-88.472135	37.725643
14508		-7.792160	-88.542635	35.795722
14509		-6.569917	-88.592549	34.690697
14510		-5.389856	-88.635470	33.628350
14511		-2.855395	-88.684417	31.297357
14512		2.670766	-88.741950	26.137593
14513		12.478062	-88.797772	16.913058
14514		26.404384	-88.819681	3.753315
14515		42.260535	-88.777793	-11.252631
14516		56.009491	-88.659485	-24.163853
14517		66.414023	-88.492005	-33.806437
14518		73.728084	-88.299430	-40.449307
14519		79.216248	-88.093070	-45.349090
14520		83.869897	-87.865899	-49.418822
14521		87.926348	-87.605628	-52.818257
14522		91.956714	-87.296361	-56.086750
14523		95.586299	-86.941601	-58.841055
14524		98.956419	-86.577013	-61.297492
14525		101.972168	-86.243771	-63.502371
14526		104.519563	-85.968222	-65.397349
14527		106.594180	-85.720272	-66.914593
14528		108.289944	-85.477418	-68.024047
14529		109.743145	-85.198352	-68.790735
14530		111.144426	-84.861583	-69.345230
14531		112.523462	-84.467783	-69.712712
14532		113.888516	-84.050686	-69.984010
14533		115.152908	-83.638916	-70.162247
14534		116.251107	-83.257036	-70.250440
14535		117.208261	-82.916608	-70.299575
14536		118.075021	-82.620771	-70.346052
14537		118.829649	-82.350086	-70.309543
14538		119.553288	-82.081932	-70.253669
14539		120.237608	-81.803981	-70.155750
14540		120.979276	-81.537851	-70.136538
14541		121.674599	-81.297615	-70.141591
14542		122.327394	-81.099456	-70.197123
14543		122.906185	-80.936414	-70.289487
14544		123.392347	-80.791325	-70.332040
14545		123.810441	-80.641006	-70.226166
14546		124.227821	-80.464764	-70.028072
14547		124.694706	-80.246450	-69.795403
14548		125.197088	-80.000665	-69.521021
14549		125.705084	-79.734622	-69.197622
14550		126.246461	-79.474104	-68.921363
14551		126.755761	-79.227353	-68.666470
14552		127.185321	-79.014794	-68.435204
14553		127.474226	-78.828698	-68.150306
14554		127.679742	-78.671154	-67.801800
14555		127.768104	-78.517913	-67.340679
14556		127.817118	-78.363429	-66.829477
14557		127.829355	-78.207382	-66.279545
14558		127.882999	-78.057714	-65.771709
14559		127.997784	-77.901247	-65.321468
14560		128.205894	-77.749326	-64.957645
14561		128.489407	-77.585121	-64.655390
14562		128.820021	-77.414108	-64.362144
14563		129.159680	-77.230473	-64.054373
14564		129.526313	-77.038097	-63.786666
14565		129.902957	-76.836674	-63.535277
14566		130.276522	-76.636152	-63.281428
14567		130.645195	-76.434836	-63.020622
14568		131.007337	-76.242407	-62.774175
14569		131.331356	-76.061100	-62.515466
14570		131.670466	-75.885639	-62.278282
14571		132.008761	-75.702358	-62.000080
14572		132.354875	-75.504201	-61.667431
14573		132.722370	-75.287017	-61.243510
14574		133.088403	-75.054987	-60.718259
14575		133.475549	-74.805859	-60.171967
14576		133.890001	-74.562873	-59.696107
14577		134.320072	-74.341746	-59.349317
14578		134.715179	-74.150779	-59.114927
14579		135.102046	-73.982165	-58.957639
14580		135.483630	-73.834066	-58.841940
14581		135.839405	-73.694255	-58.731079
14582		136.191787	-73.563514	-58.621654
14583		136.539285	-73.434911	-58.507217
14584		136.895247	-73.306858	-58.388559
14585		137.266385	-73.174234	-58.276038
14586		137.641123	-73.041457	-58.139752
14587		138.024335	-72.886860	-57.988968
14588		138.444408	-72.707546	-57.799776
14589		138.899465	-72.502321	-57.581069
14590		139.385140	-72.278837	-57.324375
14591		139.880503	-72.045196	-57.058211
14592		140.364715	-71.818179	-56.799104
14593		140.825378	-71.597163	-56.553336
14594		141.253857	-71.384022	-56.286470
14595		141.663542	-71.174890	-56.019186
14596		142.032342	-70.983722	-55.746853
14597		142.349331	-70.800584	-55.462567
14598		142.650041	-70.636616	-55.195524
14599		142.907729	-70.474443	-54.854366
14600		143.196805	-70.319651	-54.455531
14601		143.491030	-70.155429	-53.992145
14602		143.813293	-69.983291	-53.510620
14603		144.166902	-69.809387	-53.054614
14604		144.528251	-69.644380	-52.678447
14605		144.857816	-69.487374	-52.403046
14606		145.187159	-69.351874	-52.265923
14607		145.472046	-69.229189	-52.201868
14608		145.734907	-69.129298	-52.187227
14609		145.963367	-69.041145	-52.196321
14610		146.148385	-68.957696	-52.115825
14611		146.384383	-68.859502	-51.921051
14612		146.677453	-68.732561	-51.617594
14613		147.019763	-68.575647	-51.243825
14614		147.387472	-68.411153	-50.841971
14615		147.755517	-68.250348	-50.449627
14616		148.095046	-68.118265	-50.131984
14617		148.344545	-68.013184	-49.893535
14618		148.548231	-67.940516	-49.780351
14619		148.693884	-67.900480	-49.766539
14620		148.782155	-67.889105	-49.844007
14621		148.832671	-67.900518	-50.006092
14622		148.841829	-67.942318	-50.209610
14623		148.822585	-67.990042	-50.426687
14624		148.801620	-68.041340	-50.586554
14625		148.787113	-68.082349	-50.651078
14626		148.808317	-68.105032	-50.604391
14627		148.848205	-68.101999	-50.460666
14628		148.887071	-68.079609	-50.278232
14629		148.894603	-68.048190	-50.115083
14630		148.866087	-68.037889	-50.042909
14631		148.785475	-68.048967	-50.068091
14632		148.640481	-68.094568	-50.166951
14633		148.453820	-68.156108	-50.340886
14634		148.257089	-68.237073	-50.542163
14635		148.096769	-68.310045	-50.691679
14636		147.993588	-68.360171	-50.733098
14637		147.971768	-68.367161	-50.673544
14638		148.008616	-68.341009	-50.544348
14639		148.064335	-68.300405	-50.368569
14640		148.129829	-68.244727	-50.181719
14641		148.201643	-68.190804	-50.043869
14642		148.272873	-68.140519	-49.979899
14643		148.322776	-68.102085	-49.978537
14644		148.344416	-68.089277	-50.006740
14645		148.322312	-68.097532	-50.030017
14646		148.302940	-68.110958	-50.000321
14647		148.362266	-68.108937	-49.903508
14648		148.460236	-68.071426	-49.682953
14649		148.630402	-67.991199	-49.375769
14650		148.869719	-67.890768	-49.029129
14651		149.138772	-67.768728	-48.669027
14652		149.411949	-67.645675	-48.341927
14653		149.663645	-67.525147	-48.093626
14654		149.898286	-67.418479	-47.949685
14655		150.085154	-67.332841	-47.878061
14656		150.237938	-67.270030	-47.862585
14657		150.328003	-67.238947	-47.878511
14658		150.403400	-67.228221	-47.940624
14659		150.444749	-67.234349	-48.015511
14660		150.452739	-67.250729	-48.092391
14661		150.436226	-67.263570	-48.149274
14662		150.462280	-67.272831	-48.170802
14663		150.529655	-67.263099	-48.148041
14664		150.628202	-67.230246	-48.090561
14665		150.750514	-67.175759	-48.023674
14666		150.883255	-67.116742	-47.904845
14667		151.015929	-67.060240	-47.721311
14668		151.166548	-66.989708	-47.486488
14669		151.347643	-66.908140	-47.257730
14670		151.508509	-66.831232	-47.050824
14671		151.638560	-66.765204	-46.892221
14672		151.734448	-66.722893	-46.807056
14673		151.804775	-66.703299	-46.822151
14674		151.824978	-66.700048	-46.917166
14675		151.816558	-66.715007	-47.058015
14676		151.770831	-66.746299	-47.198341
14677		151.702864	-66.797165	-47.335450
14678		151.610732	-66.849336	-47.441559
14679		151.548949	-66.895919	-47.498764
14680		151.544608	-66.924525	-47.497790
14681		151.569265	-66.925240	-47.433603
14682		151.615914	-66.911817	-47.358377
14683		151.669563	-66.893186	-47.305794
14684		151.724594	-66.878006	-47.278938
14685		151.763611	-66.865318	-47.276116
14686		151.777100	-66.866124	-47.289833
14687		151.787967	-66.872820	-47.329850
14688		151.779294	-66.891146	-47.361213
14689		151.760189	-66.915237	-47.382095
14690		151.752668	-66.939353	-47.406911
14691		151.777170	-66.953393	-47.461582
14692		151.789127	-66.959330	-47.489444
14693		151.831052	-66.965819	-47.528942
14694		151.882952	-66.964328	-47.562687
14695		151.958438	-66.955220	-47.616320
14696		152.002231	-66.946866	-47.653160
14697		152.032767	-66.951781	-47.693004
14698		152.052348	-66.955649	-47.743155
14699		152.084555	-66.970138	-47.836238
14700		152.075441	-66.989814	-47.899076
14701		152.071711	-67.010984	-47.953188
14702		152.059897	-67.032272	-47.985974
14703		152.019840	-67.048051	-47.984396
14704		152.020209	-67.061508	-47.987719
14705		152.036502	-67.064036	-47.965199
14706		152.071680	-67.059378	-47.948687
14707		152.111732	-67.040569	-47.948836
14708		152.140275	-67.027365	-47.960296
14709		152.130055	-67.021053	-47.954168
14710		152.104464	-67.031185	-47.952759
14711		152.053059	-67.045388	-47.947761
14712		152.023242	-67.061048	-47.943841
14713		152.004844	-67.071081	-47.915877
14714		152.001995	-67.073279	-47.882766
14715		152.036889	-67.074210	-47.882629
14716		152.054771	-67.069318	-47.875067
14717		152.075850	-67.066721	-47.889547
14718		152.094729	-67.065302	-47.924709
14719		152.117118	-67.060213	-47.981307
14720		152.134466	-67.063319	-48.044657
14721		152.138648	-67.076737	-48.101277
14722		152.136170	-67.090882	-48.150400
14723		152.123946	-67.106950	-48.199707
14724		152.115183	-67.120686	-48.233343
14725		152.128342	-67.127794	-48.264778
14726		152.121367	-67.135083	-48.267255
14727		152.122529	-67.143404	-48.280601
14728		152.134356	-67.149888	-48.315668
14729		152.140616	-67.163971	-48.372324
14730		152.129665	-67.184107	-48.442102
14731		152.101162	-67.215185	-48.540945
14732		152.048703	-67.258309	-48.674521
14733		151.970689	-67.308421	-48.844940
14734		151.856428	-67.373395	-49.038745
14735		151.692072	-67.455999	-49.241840
14736		151.502031	-67.557349	-49.475055
14737		151.272232	-67.681966	-49.753453
14738		151.014062	-67.812373	-50.061829
14739		150.773271	-67.947918	-50.364361
14740		150.563973	-68.074130	-50.643418
14741		150.395205	-68.183445	-50.897243
14742		150.257963	-68.272855	-51.104406
14743		150.151951	-68.353005	-51.284594
14744		150.027440	-68.425099	-51.420784
14745		149.883073	-68.501296	-51.552649
14746		149.697720	-68.590043	-51.702068
14747		149.441829	-68.701949	-51.875232
14748		149.091976	-68.846022	-52.082576
14749		148.662352	-69.028173	-52.352278
14750		148.172400	-69.246330	-52.696202
14751		147.660478	-69.482956	-53.117161
14752		147.152929	-69.720723	-53.508627
14753		146.727224	-69.927902	-53.843974
14754		146.340005	-70.103665	-54.048725
14755		145.996870	-70.241338	-54.151503
14756		145.703982	-70.348290	-54.185564
14757		145.437113	-70.433550	-54.168400
14758		145.198557	-70.513971	-54.151538
14759		144.952971	-70.597514	-54.156529
14760		144.711962	-70.693508	-54.234834
14761		144.482702	-70.811860	-54.431432
14762		144.242688	-70.956509	-54.753794
14763		143.990679	-71.132898	-55.203259
14764		143.708710	-71.345456	-55.775178
14765		143.385934	-71.595320	-56.434109
14766		143.016929	-71.879803	-57.135424
14767		142.615402	-72.193774	-57.849363
14768		142.165312	-72.537477	-58.534225
14769		141.734307	-72.908750	-59.262579
14770		141.338106	-73.309364	-60.134872
14771		140.899754	-73.751445	-61.103953
14772		140.425992	-74.229333	-62.166847
14773		139.907933	-74.741585	-63.276329
14774		139.323715	-75.285122	-64.353291
14775		138.717175	-75.846099	-65.368240
14776		138.079547	-76.404592	-66.252207
14777		137.427465	-76.935405	-66.990389
14778		136.732139	-77.415435	-67.519181
14779		136.070125	-77.846249	-67.895507
14780		135.404687	-78.222879	-68.096660
14781		134.809441	-78.551536	-68.216131
14782		134.235455	-78.845535	-68.242404
14783		133.779297	-79.102202	-68.326149
14784		133.394642	-79.331900	-68.461422
14785		133.042532	-79.542682	-68.630448
14786		132.737108	-79.740905	-68.846458
14787		132.518810	-79.937408	-69.158826
14788		132.291704	-80.130164	-69.461299
14789		132.146952	-80.325802	-69.852647
14790		131.983239	-80.539862	-70.292797
14791		131.837263	-80.787019	-70.834718
14792		131.639119	-81.057172	-71.385835
14793		131.434286	-81.345245	-71.973098
14794		131.136467	-81.640955	-72.480020
14795		130.880789	-81.920826	-72.988457
14796		130.634464	-82.170824	-73.435802
14797		130.425004	-82.388561	-73.850258
14798		130.285061	-82.593001	-74.277992
14799		130.256946	-82.797826	-74.836056
14800		130.202406	-83.030319	-75.456922
14801		130.166055	-83.313446	-76.237899
14802		130.002394	-83.662223	-77.044395
14803		129.735091	-84.057986	-77.868273
14804		129.291659	-84.480458	-78.552956
14805		128.759367	-84.901053	-79.115858
14806		128.023167	-85.288339	-79.372335
14807		127.344080	-85.649009	-79.562183
14808		126.692779	-86.000008	-79.742414
14809		126.447111	-86.380999	-80.417844
14810		126.958957	-86.821839	-82.094980
14811		129.178222	-87.330728	-85.788769
14812		133.974376	-87.859327	-92.289890
14813		142.887370	-88.373749	-102.957714
14814		157.119421	-88.796843	-118.836006
14815		177.436798	-89.085135	-140.504957
14816		-158.983815	-89.256248	-165.059671
14817		-135.459631	-89.326112	170.765239
14818		-114.506246	-89.332215	149.336764
14819		-96.213314	-89.248642	130.584590
14820		-82.937795	-89.048633	116.685861
14821		-75.220550	-88.738490	108.091579
14822		-70.774035	-88.323400	102.572895
14823		-68.443035	-87.856006	99.097830
14824		-66.859606	-87.409564	96.471563
14825		-65.676323	-87.039222	94.461928
14826		-64.549077	-86.767294	92.789505
14827		-63.699399	-86.577905	91.618903
14828		-63.183558	-86.440484	90.904029
14829		-62.982502	-86.322145	90.541499
14830		-62.831597	-86.200059	90.205160
14831		-63.111249	-86.068421	90.219132
14832		-63.347676	-85.924518	90.132814
14833		-63.588765	-85.778104	90.030577
14834		-63.700731	-85.634857	89.804645
14835		-63.741162	-85.496645	89.531639
14836		-63.655797	-85.366141	89.159840
14837		-63.634466	-85.237912	88.856783
14838		-63.418137	-85.103270	88.333626
14839		-63.190132	-84.945658	87.762308
14840		-62.870172	-84.776422	87.080759
14841		-62.483798	-84.609577	86.350954
14842		-62.116331	-84.468805	85.695889
14843		-61.903625	-84.350909	85.234202
14844		-61.842331	-84.250134	84.944360
14845		-61.947309	-84.157359	84.827993
14846		-62.108407	-84.066882	84.779937
14847		-62.406750	-83.972367	84.856375
14848		-62.784140	-83.875069	84.993431
14849		-63.307599	-83.789954	85.275786
14850		-63.717952	-83.713570	85.486747
14851		-63.965685	-83.642996	85.572313
14852		-64.199401	-83.578792	85.659681
14853		-64.337235	-83.515088	85.649580
14854		-64.308602	-83.441055	85.458398
14855		-64.183044	-83.363120	85.158551
14856		-63.940054	-83.290719	84.782668
14857		-63.647952	-83.235286	84.415459
14858		-63.450211	-83.199155	84.177237
14859		-63.427479	-83.178234	84.119671
14860		-63.536150	-83.149360	84.154146
14861		-63.876191	-83.110740	84.359226
14862		-64.353384	-83.058783	84.646852
14863		-64.794627	-83.013313	84.906913
14864		-64.989237	-82.990572	84.989476
14865		-64.995692	-83.000397	84.984834
14866		-64.883276	-83.043672	84.940209
14867		-64.754352	-83.088101	84.872839
14868		-64.731512	-83.120762	84.847397
14869		-64.757940	-83.121349	84.792957
14870		-64.710167	-83.101626	84.620414
14871		-64.695963	-83.071551	84.458906
14872		-64.714661	-83.042560	84.347909
14873		-64.833562	-83.028451	84.363427
14874		-65.025366	-83.028169	84.480647
14875		-65.366871	-83.031458	84.738617
14876		-65.760187	-83.022190	85.010772
14877		-66.195559	-82.991655	85.272246
14878		-66.654153	-82.939881	85.530659
14879		-67.224084	-82.876742	85.902974
14880		-67.908387	-82.823893	86.428760
14881		-68.845632	-82.786775	87.248888
14882		-70.150346	-82.766314	88.458907
14883		-71.792387	-82.743203	90.014407
14884		-73.545183	-82.707729	91.690039
14885		-75.295455	-82.654466	93.362243
14886		-76.809488	-82.585437	94.796999
14887		-78.033300	-82.512178	95.946441
14888		-79.028480	-82.449661	96.891948
14889		-79.825908	-82.410968	97.689286
14890		-80.632727	-82.391002	98.515879
14891		-81.781563	-82.371570	99.621409
14892		-83.296550	-82.341147	101.037293
14893		-84.963229	-82.309104	102.587124
14894		-86.520174	-82.279924	104.041265
14895		-87.993072	-82.251631	105.401884
14896		-89.307519	-82.218110	106.592610
14897		-90.463518	-82.197713	107.648217
14898		-91.382512	-82.191878	108.535014
14899		-92.093391	-82.197141	109.283882
14900		-92.712716	-82.199822	109.955196
14901		-93.362281	-82.184638	110.602305
14902		-93.912273	-82.152184	111.088993
14903		-94.268151	-82.107722	111.364088
14904		-94.478821	-82.076697	111.525437
14905		-94.742997	-82.069816	111.779738
14906		-95.027431	-82.077695	112.076799
14907		-95.255791	-82.095021	112.315245
14908		-95.293445	-82.111144	112.334394
14909		-95.160157	-82.128880	112.158086
14910		-94.844806	-82.158112	111.820185
14911		-94.530235	-82.180320	111.520002
14912		-94.398274	-82.179133	111.429054
14913		-94.456537	-82.158184	111.511508
14914		-94.582464	-82.134040	111.644308
14915		-94.688097	-82.112201	111.751501
14916		-94.796615	-82.092910	111.869012
14917		-95.041391	-82.073346	112.098824
14918		-95.296496	-82.062454	112.341481
14919		-95.404052	-82.060832	112.464974
14920		-95.442041	-82.066273	112.538472
14921		-95.518797	-82.071647	112.657600
14922		-95.556006	-82.070847	112.728210
14923		-95.590078	-82.064179	112.784493
14924		-95.628970	-82.048059	112.816460
14925		-95.696172	-82.030616	112.871904
14926		-95.788271	-82.028487	112.979365
14927		-95.909546	-82.043314	113.141998
14928		-95.960832	-82.082886	113.267901
14929		-96.001308	-82.131065	113.388516
14930		-95.986320	-82.187622	113.454568
14931		-95.869640	-82.250251	113.424662
14932		-95.729198	-82.296705	113.331215
14933		-95.631434	-82.315175	113.217059
14934		-95.550692	-82.317296	113.092678
14935		-95.557297	-82.322653	113.058300
14936		-95.722049	-82.326594	113.187763
14937		-95.994148	-82.340330	113.452724
14938		-96.250615	-82.362532	113.730295
14939		-96.476876	-82.397002	114.010655
14940		-96.704385	-82.428143	114.284366
14941		-96.926158	-82.447889	114.538171
14942		-97.123022	-82.449626	114.728215
14943		-97.299116	-82.441860	114.878239
14944		-97.421838	-82.429037	114.980822
14945		-97.541017	-82.425856	115.113155
14946		-97.709810	-82.435414	115.327998
14947		-97.902247	-82.453205	115.594980
14948		-98.029388	-82.478148	115.791960
14949		-98.035745	-82.507706	115.856415
14950		-97.980693	-82.536137	115.833689
14951		-97.961889	-82.555568	115.811043
14952		-97.967403	-82.556678	115.788153
14953		-98.026031	-82.546093	115.809838
14954		-98.154226	-82.535071	115.917193
14955		-98.341518	-82.535431	116.101251
14956		-98.519538	-82.548422	116.308710
14957		-98.625116	-82.588104	116.481375
14958		-98.685253	-82.645941	116.645789
14959		-98.752993	-82.714739	116.843820
14960		-98.898461	-82.795136	117.148253
14961		-99.113603	-82.888850	117.561997
14962		-99.365342	-83.007548	118.073208
14963		-99.698118	-83.154172	118.724390
14964		-100.120532	-83.341835	119.554881
14965		-100.743408	-83.570542	120.678304
14966		-101.653100	-83.811881	122.115671
14967		-102.754809	-84.041726	123.742608
14968		-103.981268	-84.246820	125.422421
14969		-105.150957	-84.413668	126.940120
14970		-106.220530	-84.555564	128.284667
14971		-107.238879	-84.702343	129.578189
14972		-108.234818	-84.876171	130.920878
14973		-109.489340	-85.102333	132.667818
14974		-111.247366	-85.378171	135.076866
14975		-113.560210	-85.646913	138.085150
14976		-116.125077	-85.877031	141.281536
14977		-118.471101	-86.078061	144.150543
14978		-120.306952	-86.261367	146.424139
14979		-121.739071	-86.421382	148.224970
14980		-122.985161	-86.542069	149.775881
14981		-124.445099	-86.636587	151.506138
14982		-126.408929	-86.705107	153.772045
14983		-129.170228	-86.759678	156.926428
14984		-132.904526	-86.793750	161.155582
14985		-137.203462	-86.803894	166.000801
14986		-141.746209	-86.786891	171.112922
14987		-146.163273	-86.747366	176.086887
14988		-150.452284	-86.692996	-179.066620
14989		-154.810535	-86.625396	-174.126706
14990		-159.489832	-86.546836	-168.814092
14991		-164.725195	-86.450463	-162.823942
14992		-170.353098	-86.333092	-156.323839
14993		-175.697294	-86.178675	-150.076774
14994		179.897724	-86.001619	-144.866252
14995		176.511001	-85.835976	-140.819919
14996		173.766344	-85.700574	-137.543090
14997		170.979947	-85.585140	-134.255417
14998		167.540854	-85.448851	-130.149073
14999		163.188638	-85.264370	-124.827071
15000		158.300094	-84.978252	-118.648627
15001		153.762309	-84.583327	-112.647489
15002		150.247480	-84.125004	-107.698455
15003		147.832892	-83.673656	-104.083408
15004		146.216335	-83.286494	-101.552215
15005		145.131391	-82.981558	-99.802996
15006		144.491959	-82.752395	-98.665417
15007		144.105773	-82.564130	-97.863804
15008		143.694182	-82.381080	-97.037493
15009		143.160013	-82.164625	-95.986642
15010		142.494110	-81.916014	-94.621260
15011		141.838109	-81.632828	-93.139402
15012		141.341228	-81.351255	-91.788527
15013		141.013570	-81.082423	-90.681305
15014		140.786961	-80.834738	-89.772683
15015		140.573555	-80.614044	-88.962626
15016		140.374736	-80.397760	-88.199910
15017		140.109362	-80.187272	-87.336025
15018		139.692661	-79.959266	-86.253648
15019		139.114692	-79.704761	-84.850052
15020		138.409276	-79.412981	-83.084120
15021		137.704219	-79.085795	-81.120011
15022		137.063694	-78.748295	-79.132168
15023		136.524447	-78.439872	-77.284748
15024		136.095853	-78.191351	-75.721409
15025		135.735307	-77.988220	-74.440066
15026		135.433436	-77.837112	-73.391237
15027		135.160669	-77.712104	-72.522192
15028		134.916522	-77.579142	-71.744478
15029		134.718706	-77.421084	-70.923092
15030		134.608139	-77.230699	-70.049160
15031		134.590272	-76.989752	-69.120992
15032		134.656229	-76.730896	-68.163704
15033		134.759627	-76.475074	-67.228922
15034		134.809267	-76.261248	-66.316348
15035		134.823450	-76.094364	-65.473282
15036		134.804792	-75.969637	-64.712636
15037		134.760308	-75.836716	-63.987274
15038		134.728730	-75.685933	-63.187027
15039		134.728391	-75.499777	-62.285288
15040		134.820360	-75.290227	-61.359899
15041		134.974740	-75.061790	-60.448673
15042		135.177908	-74.852561	-59.661607
15043		135.399446	-74.682174	-59.065071
15044		135.610299	-74.556975	-58.663630
15045		135.807104	-74.468055	-58.434361
15046		136.011897	-74.375146	-58.302519
15047		136.257361	-74.261334	-58.077563
15048		136.588424	-74.106807	-57.697645
15049		136.947850	-73.905438	-57.111012
15050		137.318487	-73.678985	-56.358487
15051		137.740695	-73.459925	-55.634373
15052		138.131934	-73.279722	-55.053166
15053		138.464127	-73.150366	-54.656149
15054		138.724834	-73.069650	-54.426588
15055		138.892308	-73.017252	-54.280775
15056		139.030228	-72.983948	-54.175958
15057		139.156163	-72.952789	-54.047657
15058		139.332320	-72.903578	-53.917285
15059		139.523482	-72.834432	-53.728461
15060		139.748092	-72.753151	-53.485459
15061		139.989668	-72.655742	-53.168302
15062		140.237428	-72.553529	-52.772015
15063		140.526071	-72.445533	-52.389121
15064		140.846593	-72.320222	-52.041018
15065		141.217731	-72.180154	-51.759427
15066		141.612911	-72.016463	-51.509933
15067		142.033550	-71.842298	-51.271163
15068		142.467902	-71.669007	-50.999596
15069		142.887112	-71.475072	-50.653322
15070		143.329113	-71.278195	-50.184645
15071		143.813803	-71.067498	-49.628094
15072		144.336026	-70.858950	-49.082746
15073		144.855381	-70.654009	-48.618621
15074		145.332763	-70.481088	-48.297723
15075		145.715028	-70.337148	-48.101531
15076		146.031636	-70.234657	-48.024802
15077		146.264783	-70.161965	-48.016402
15078		146.447406	-70.113818	-48.061778
15079		146.590846	-70.081845	-48.105483
15080		146.738603	-70.057550	-48.161934
15081		146.877371	-70.037942	-48.228366
15082		146.975628	-70.026290	-48.295511
15083		147.050719	-70.024827	-48.373272
15084		147.099690	-70.024663	-48.410748
15085		147.146545	-69.998637	-48.354956
15086		147.265960	-69.943897	-48.170791
15087		147.479494	-69.850338	-47.848514
15088		147.764266	-69.717493	-47.441216
15089		148.109640	-69.558427	-47.040294
15090		148.462169	-69.413725	-46.720196
15091		148.761329	-69.284207	-46.508491
15092		149.002006	-69.180761	-46.416161
15093		149.164006	-69.115212	-46.400686
15094		149.223168	-69.088908	-46.438924
15095		149.212386	-69.089575	-46.503818
15096		149.181075	-69.108590	-46.565421
15097		149.168144	-69.127771	-46.623190
15098		149.151229	-69.138112	-46.642643
15099		149.181660	-69.137428	-46.631007
15100		149.262784	-69.122803	-46.596764
15101		149.380292	-69.090438	-46.540734
15102		149.503572	-69.047175	-46.464817
15103		149.609940	-68.998983	-46.386268
15104		149.684811	-68.960871	-46.323185
15105		149.731115	-68.942544	-46.304982
15106		149.732608	-68.934870	-46.331393
15107		149.707503	-68.937897	-46.397428
15108		149.665776	-68.949806	-46.484984
15109		149.616995	-68.966942	-46.570624
15110		149.572423	-68.985706	-46.641110
15111		149.547149	-69.000056	-46.688937
15112		149.528878	-69.000707	-46.692130
15113		149.553191	-68.988122	-46.672431
15114		149.602490	-68.965652	-46.634606
15115		149.685307	-68.926858	-46.613948
15116		149.764790	-68.893523	-46.597158
15117		149.831970	-68.860011	-46.592084
15118		149.859167	-68.839288	-46.579796
15119		149.846552	-68.836510	-46.573437
15120		149.803331	-68.847071	-46.583517
15121		149.747315	-68.869507	-46.608851
15122		149.681797	-68.892055	-46.630402
15123		149.643701	-68.913984	-46.680344
15124		149.609497	-68.932778	-46.727039
15125		149.589060	-68.942843	-46.778322
15126		149.583397	-68.953238	-46.825581
15127		149.613821	-68.955526	-46.850208
15128		149.657848	-68.952543	-46.842936
15129		149.724611	-68.943456	-46.826511
15130		149.775944	-68.930086	-46.799591
15131		149.807837	-68.919527	-46.764964
15132		149.821605	-68.912048	-46.738744
15133		149.814584	-68.904721	-46.727373
15134		149.801167	-68.898638	-46.739013
15135		149.782217	-68.891844	-46.749736
15136		149.758899	-68.887070	-46.733501
15137		149.750746	-68.884742	-46.684754
15138		149.771322	-68.869417	-46.614220
15139		149.828730	-68.845875	-46.524670
15140		149.912860	-68.807803	-46.426000
15141		150.025261	-68.766534	-46.342927
15142		150.134149	-68.718522	-46.269366
15143		150.244846	-68.674591	-46.235698
15144		150.324492	-68.634234	-46.222923
15145		150.361653	-68.608244	-46.225058
15146		150.380358	-68.600407	-46.241791
15147		150.362824	-68.605037	-46.227849
15148		150.376708	-68.609089	-46.202634
15149		150.420711	-68.601812	-46.171647
15150		150.485472	-68.582922	-46.126570
15151		150.578255	-68.554138	-46.069463
15152		150.698307	-68.511316	-45.991758
15153		150.836316	-68.458052	-45.918069
15154		150.968657	-68.401271	-45.854006
15155		151.078617	-68.346292	-45.813435
15156		151.156542	-68.300672	-45.802104
15157		151.188766	-68.275434	-45.821604
15158		151.162385	-68.265957	-45.848291
15159		151.117169	-68.272448	-45.861571
15160		151.080697	-68.278353	-45.857015
15161		151.060983	-68.283016	-45.846281
15162		151.051595	-68.279783	-45.841678
15163		151.049278	-68.274248	-45.853242
15164		151.047155	-68.270195	-45.863824
15165		151.041546	-68.268432	-45.866948
15166		151.021454	-68.275398	-45.857278
15167		150.996231	-68.287259	-45.833786
15168		150.966215	-68.299997	-45.795449
15169		150.921345	-68.311574	-45.744657
15170		150.878920	-68.330539	-45.694439
15171		150.844154	-68.350849	-45.662229
15172		150.794444	-68.369321	-45.626089
15173		150.752456	-68.387619	-45.615909
15174		150.711883	-68.400915	-45.622911
15175		150.679067	-68.417845	-45.646554
15176		150.636422	-68.436129	-45.657937
15177		150.589286	-68.454668	-45.654949
15178		150.546587	-68.474865	-45.646931
15179		150.509257	-68.489141	-45.638029
15180		150.501053	-68.496219	-45.622168
15181		150.516707	-68.496960	-45.603218
15182		150.530650	-68.487546	-45.576775
15183		150.547064	-68.472639	-45.564470
15184		150.569183	-68.455439	-45.571051
15185		150.586573	-68.440826	-45.596665
15186		150.580312	-68.426245	-45.607641
15187		150.578207	-68.419825	-45.615692
15188		150.584346	-68.414392	-45.619231
15189		150.592641	-68.406138	-45.623239
15190		150.595556	-68.399853	-45.629611
15191		150.597441	-68.396071	-45.644734
15192		150.610989	-68.397540	-45.673885
15193		150.625021	-68.400005	-45.710671
15194		150.633017	-68.399180	-45.747073
15195		150.644791	-68.399655	-45.798505
15196		150.638341	-68.408129	-45.830847
15197		150.614916	-68.422180	-45.847759
15198		150.591588	-68.437244	-45.845836
15199		150.591783	-68.447978	-45.834883
15200		150.591187	-68.453642	-45.809977
15201		150.590259	-68.454557	-45.785271
15202		150.605606	-68.451646	-45.794468
15203		150.614999	-68.454151	-45.812572
15204		150.599925	-68.460780	-45.819193
15205		150.582189	-68.476302	-45.829350
15206		150.561189	-68.493426	-45.855574
15207		150.523478	-68.508647	-45.897506
15208		150.486289	-68.522144	-45.930534
15209		150.474650	-68.534116	-45.950100
15210		150.462172	-68.547328	-45.933715
15211		150.463659	-68.550736	-45.919152
15212		150.473920	-68.548135	-45.911998
15213		150.481288	-68.543215	-45.919858
15214		150.485684	-68.544698	-45.948638
15215		150.477553	-68.555693	-45.994052
15216		150.447482	-68.576036	-46.057793
15217		150.412391	-68.605015	-46.166939
15218		150.327578	-68.645410	-46.289637
15219		150.225060	-68.702305	-46.453453
15220		150.081698	-68.772701	-46.636605
15221		149.927939	-68.853035	-46.866749
15222		149.747656	-68.944496	-47.112730
15223		149.557512	-69.045461	-47.391288
15224		149.362667	-69.147803	-47.701940
15225		149.169937	-69.249724	-48.027158
15226		148.965785	-69.355693	-48.344099
15227		148.761529	-69.462117	-48.659917
15228		148.538195	-69.577582	-48.958392
15229		148.291825	-69.702405	-49.246781
15230		148.050482	-69.842415	-49.604528
15231		147.763704	-70.000299	-50.054205
15232		147.394960	-70.184060	-50.566408
15233		146.960329	-70.407005	-51.125434
15234		146.447945	-70.650470	-51.692360
15235		145.914587	-70.898411	-52.161084
15236		145.391665	-71.122689	-52.441545
15237		144.943295	-71.311097	-52.550964
15238		144.577576	-71.458920	-52.497099
15239		144.307013	-71.557028	-52.347699
15240		144.086982	-71.620511	-52.126364
15241		143.917840	-71.655845	-51.900555
15242		143.779835	-71.676155	-51.709365
15243		143.679453	-71.691996	-51.602053
15244		143.592854	-71.710021	-51.587515
15245		143.511382	-71.743854	-51.701473
15246		143.396505	-71.804619	-51.938976
15247		143.210346	-71.910181	-52.299737
15248		142.924322	-72.074528	-52.758889
15249		142.558728	-72.285847	-53.308248
15250		142.118504	-72.518955	-53.861942
15251		141.660856	-72.761130	-54.336334
15252		141.241332	-72.986441	-54.708840
15253		140.896899	-73.174161	-54.991024
15254		140.612561	-73.320183	-55.184019
15255		140.410850	-73.435210	-55.354690
15256		140.245343	-73.528362	-55.511918
15257		140.158150	-73.636392	-55.812914
15258		140.026628	-73.772901	-56.318290
15259		139.808534	-73.956394	-56.975062
15260		139.491040	-74.186142	-57.650604
15261		139.110722	-74.448420	-58.270481
15262		138.672685	-74.722184	-58.762230
15263		138.203477	-74.994670	-59.134450
15264		137.733656	-75.255431	-59.414696
15265		137.289731	-75.499235	-59.645098
15266		136.866600	-75.720561	-59.815088
15267		136.497829	-75.922157	-59.918617
15268		136.216803	-76.150640	-60.148884
15269		135.894099	-76.416469	-60.656435
15270		135.517441	-76.748271	-61.419887
15271		135.055804	-77.129335	-62.298769
15272		134.507731	-77.534259	-63.131618
15273		133.952162	-77.938918	-63.874230
15274		133.381626	-78.318510	-64.437326
15275		132.844375	-78.660068	-64.840796
15276		132.315306	-78.953919	-65.072689
15277		131.817982	-79.211628	-65.188292
15278		131.329677	-79.435599	-65.192232
15279		130.923651	-79.674422	-65.266648
15280		130.476609	-79.948117	-65.506709
15281		129.909572	-80.281058	-65.859196
15282		129.178723	-80.656173	-66.197037
15283		128.332745	-81.048150	-66.436945
15284		127.424303	-81.418962	-66.529047
15285		126.566867	-81.746346	-66.526066
15286		125.737918	-82.015265	-66.383068
15287		125.014071	-82.226378	-66.178598
15288		124.405120	-82.389826	-65.943777
15289		123.904069	-82.527476	-65.751054
15290		123.422583	-82.660079	-65.580901
15291		122.946601	-82.815795	-65.491354
15292		122.287023	-82.999924	-65.324525
15293		121.615975	-83.220673	-65.248657
15294		120.933907	-83.475089	-65.270240
15295		120.276335	-83.759379	-65.385782
15296		119.559312	-84.057825	-65.487370
15297		118.906713	-84.390242	-65.708013
15298		118.073535	-84.743553	-65.834917
15299		117.034329	-85.108243	-65.780590
15300		115.714358	-85.464402	-65.381738
15301		114.472493	-85.806478	-64.952363
15302		113.482832	-86.141756	-64.792983
15303		112.554402	-86.482355	-64.742245
15304		111.564348	-86.830407	-64.640595
15305		110.555016	-87.186251	-64.499797
15306		109.033060	-87.525345	-63.842659
15307		106.721653	-87.874766	-62.392978
15308		103.433189	-88.221730	-60.024893
15309		98.471550	-88.576784	-56.076120
15310		89.257456	-88.929150	-47.896956
15311		71.257230	-89.241962	-30.927776
15312		38.364748	-89.394872	0.968080
15313		3.988343	-89.310482	34.415976
15314		-16.255223	-89.077945	53.821727
15315		-27.092120	-88.810007	63.906545
15316		-33.443042	-88.533596	69.575267
15317		-38.542217	-88.255029	73.990578
15318		-42.521783	-87.951456	77.211899
15319		-46.194970	-87.611741	80.039175
15320		-49.130812	-87.247029	82.065018
15321		-51.847027	-86.874972	83.840798
15322		-53.751855	-86.512656	84.834396
15323		-55.215904	-86.183873	85.492383
15324		-56.011854	-85.886313	85.603394
15325		-56.520830	-85.626255	85.520060
15326		-56.639230	-85.383474	85.125682
15327		-56.839759	-85.152962	84.854871
15328		-57.047603	-84.927247	84.592862
15329		-57.588109	-84.710748	84.638514
15330		-58.116198	-84.500146	84.650029
15331		-58.878859	-84.294844	84.880984
15332		-59.567627	-84.097636	85.041178
15333		-60.219822	-83.913810	85.202763
15334		-60.745597	-83.743731	85.290490
15335		-61.215292	-83.579286	85.362316
15336		-61.663328	-83.441723	85.442021
15337		-61.953400	-83.308244	85.387730
15338		-61.788097	-83.189887	84.936523
15339		-61.469243	-83.078377	84.389703
15340		-61.081205	-82.978933	83.803893
15341		-61.021314	-82.888410	83.521580
15342		-61.165631	-82.812328	83.422442
15343		-61.655764	-82.742609	83.656254
15344		-62.252139	-82.685093	83.998552
15345		-62.973713	-82.641031	84.467745
15346		-63.702086	-82.608330	84.941226
15347		-64.430941	-82.581437	85.426863
15348		-65.021728	-82.551832	85.800421
15349		-65.588663	-82.524259	86.146346
15350		-66.149176	-82.487230	86.464999
15351		-66.776563	-82.448872	86.821847
15352		-67.362734	-82.408507	87.132369
15353		-67.914945	-82.380911	87.425760
15354		-68.410351	-82.357761	87.689031
15355		-68.960452	-82.343115	88.027967
15356		-69.608958	-82.325185	88.471325
15357		-70.486748	-82.308113	89.132185
15358		-71.593278	-82.290683	90.006470
15359		-73.069730	-82.276598	91.207465
15360		-74.683556	-82.267903	92.523342
15361		-76.223506	-82.270460	93.760534
15362		-77.366148	-82.294321	94.676478
15363		-78.044259	-82.349061	95.256890
15364		-78.387060	-82.427019	95.607838
15365		-78.551095	-82.499762	95.796651
15366		-78.822938	-82.553840	96.034027
15367		-79.202435	-82.577037	96.319456
15368		-79.705540	-82.575189	96.709837
15369		-80.331841	-82.557998	97.208544
15370		-81.101305	-82.538808	97.856935
15371		-81.907968	-82.530523	98.564480
15372		-82.540968	-82.542650	99.150242
15373		-82.890041	-82.567395	99.479728
15374		-83.024103	-82.593648	99.574375
15375		-83.096535	-82.602967	99.576420
15376		-83.232633	-82.597123	99.626085
15377		-83.437774	-82.592596	99.760721
15378		-83.857799	-82.603436	100.126009
15379		-84.585683	-82.611016	100.803112
15380		-85.543228	-82.617265	101.692764
15381		-86.700357	-82.622559	102.743443
15382		-87.927257	-82.612549	103.833071
15383		-89.049624	-82.592291	104.815502
15384		-89.977439	-82.565776	105.622097
15385		-90.603908	-82.549108	106.166202
15386		-90.924113	-82.551119	106.455604
15387		-91.058964	-82.577230	106.589420
15388		-90.912359	-82.610734	106.418894
15389		-90.582496	-82.637058	106.048722
15390		-90.255362	-82.649786	105.657429
15391		-89.966430	-82.652189	105.313740
15392		-89.693820	-82.663191	105.016659
15393		-89.600544	-82.683880	104.900666
15394		-89.615120	-82.696338	104.863347
15395		-89.654836	-82.702978	104.825456
15396		-89.529735	-82.714305	104.636487
15397		-89.305446	-82.733626	104.375852
15398		-89.017205	-82.758307	104.072271
15399		-88.776828	-82.786490	103.825669
15400		-88.572527	-82.813920	103.617499
15401		-88.423233	-82.840681	103.466844
15402		-88.441685	-82.861111	103.496553
15403		-88.659841	-82.866141	103.711945
15404		-89.048298	-82.871092	104.081810
15405		-89.466971	-82.864178	104.458825
15406		-90.029193	-82.844337	104.981947
15407		-90.666274	-82.827328	105.590541
15408		-91.372002	-82.800241	106.266394
15409		-92.188594	-82.776776	107.034370
15410		-93.104943	-82.745885	107.886873
15411		-94.034463	-82.711265	108.751011
15412		-94.841517	-82.690858	109.526182
15413		-95.554670	-82.677419	110.236018
15414		-96.119598	-82.683054	110.810310
15415		-96.557848	-82.699734	111.251714
15416		-96.730758	-82.716862	111.428078
15417		-96.744928	-82.727708	111.451120
15418		-96.601005	-82.724816	111.330855
15419		-96.482244	-82.713113	111.242244
15420		-96.422872	-82.695461	111.202773
15421		-96.532672	-82.673896	111.312437
15422		-96.756611	-82.649641	111.548122
15423		-97.068022	-82.636525	111.886998
15424		-97.564434	-82.620786	112.402291
15425		-98.207618	-82.596951	113.058413
15426		-98.775880	-82.589547	113.651749
15427		-99.183886	-82.595765	114.098933
15428		-99.419586	-82.619105	114.366195
15429		-99.610021	-82.644000	114.552609
15430		-99.642740	-82.670106	114.574806
15431		-99.686957	-82.690315	114.605978
15432		-99.788397	-82.703902	114.694568
15433		-100.066292	-82.703189	114.941211
15434		-100.437489	-82.693793	115.270742
15435		-100.810980	-82.676622	115.608913
15436		-101.193850	-82.665992	115.969285
15437		-101.525267	-82.662198	116.289853
15438		-101.757498	-82.660906	116.542410
15439		-101.825972	-82.667397	116.632110
15440		-101.744141	-82.680883	116.558273
15441		-101.535330	-82.691867	116.345390
15442		-101.308888	-82.694690	116.098940
15443		-101.121484	-82.693441	115.896096
15444		-101.059322	-82.692376	115.835537
15445		-101.143409	-82.698176	115.935072
15446		-101.243959	-82.709578	116.056319
15447		-101.348987	-82.721090	116.176332
15448		-101.311614	-82.734178	116.149625
15449		-101.174187	-82.747374	116.010432
15450		-100.984308	-82.753594	115.782745
15451		-100.797295	-82.759209	115.553926
15452		-100.601031	-82.768595	115.341150
15453		-100.530088	-82.786435	115.288802
15454		-100.623548	-82.805172	115.422922
15455		-100.803297	-82.823838	115.643566
15456		-100.977526	-82.837036	115.855525
15457		-101.068843	-82.845477	115.964859
15458		-101.065217	-82.842960	115.940802
15459		-101.077920	-82.828734	115.913541
15460		-101.129875	-82.809232	115.918715
15461		-101.230705	-82.802637	116.007400
15462		-101.376412	-82.812185	116.196986
15463		-101.627396	-82.832488	116.530143
15464		-101.988399	-82.852824	116.961612
15465		-102.386406	-82.869029	117.410780
15466		-102.686318	-82.892925	117.772459
15467		-102.854700	-82.927372	118.003263
15468		-102.955609	-82.964085	118.164410
15469		-103.034937	-82.999201	118.289076
15470		-103.109186	-83.039795	118.412036
15471		-103.205472	-83.098187	118.587116
15472		-103.356707	-83.182464	118.883154
15473		-103.660795	-83.304494	119.422932
15474		-104.224045	-83.494192	120.383815
15475		-105.164324	-83.784524	121.956760
15476		-106.613299	-84.168560	124.284966
15477		-108.852837	-84.537925	127.473076
15478		-111.375623	-84.814876	130.788192
15479		-113.608838	-84.986472	133.464384
15480		-114.879013	-85.069681	134.877285
15481		-115.185292	-85.101681	135.151113
15482		-115.259864	-85.135239	135.212576
15483		-115.752366	-85.221925	135.832696
15484		-117.129550	-85.394976	137.615533
15485		-119.913044	-85.676756	141.172684
15486		-124.525883	-86.027541	146.865735
15487		-131.116413	-86.335131	154.630592
15488		-138.536099	-86.547426	163.180383
15489		-145.857562	-86.661984	171.470849
15490		-152.190293	-86.708483	178.601513
15491		-157.427915	-86.708610	-175.517317
15492		-162.032394	-86.668627	-170.366903
15493		-166.634468	-86.596300	-165.229400
15494		-170.784969	-86.494901	-160.550413
15495		-174.172610	-86.371015	-156.685611
15496		-176.858939	-86.242422	-153.566208
15497		-178.933394	-86.117912	-151.093151
15498		179.176128	-86.001331	-148.801147
15499		176.906147	-85.865598	-146.029396
15500		173.913791	-85.697466	-142.320198
15501		170.275453	-85.476100	-137.708796
15502		166.251843	-85.200673	-132.456810
15503		162.077749	-84.851387	-126.896803
15504		158.305496	-84.451309	-121.709174
15505		155.378137	-84.041230	-117.461549
15506		153.387674	-83.643055	-114.323622
15507		152.080544	-83.283416	-112.059515
15508		151.126208	-82.968747	-110.291893
15509		150.297839	-82.676912	-108.739071
15510		149.430816	-82.386516	-107.130694
15511		148.451142	-82.081159	-105.305258
15512		147.458137	-81.742440	-103.344049
15513		146.550547	-81.360741	-101.380436
15514		145.832308	-80.984617	-99.557753
15515		145.276003	-80.641763	-97.942864
15516		144.839343	-80.353760	-96.549221
15517		144.463547	-80.130250	-95.314551
15518		144.154493	-79.967487	-94.210617
15519		143.840726	-79.841932	-93.106738
15520		143.491558	-79.725927	-91.930294
15521		143.029636	-79.589654	-90.573445
15522		142.445549	-79.414918	-88.981503
15523		141.785956	-79.198141	-87.163531
15524		141.119625	-78.942179	-85.227168
15525		140.505774	-78.640672	-83.285618
15526		140.011107	-78.315771	-81.416503
15527		139.621395	-77.981114	-79.664074
15528		139.372196	-77.643815	-78.122401
15529		139.298771	-77.312344	-76.855372
15530		139.340658	-77.000855	-75.806550
15531		139.468662	-76.697425	-74.945996
15532		139.650610	-76.414777	-74.209153
15533		139.843688	-76.146120	-73.540785
15534		140.067007	-75.881431	-72.909813
15535		140.283022	-75.623985	-72.235605
15536		140.516839	-75.372657	-71.531037
15537		140.749055	-75.128655	-70.801311
15538		140.977555	-74.897527	-70.079489
15539		141.157772	-74.690307	-69.336873
15540		141.347089	-74.518192	-68.665416
15541		141.535628	-74.373319	-68.091807
15542		141.722811	-74.246608	-67.615029
15543		141.926224	-74.125593	-67.167252
15544		142.134073	-74.020707	-66.696704
15545		142.333849	-73.907820	-66.191748
15546		142.513807	-73.784368	-65.645226
15547		142.707729	-73.648569	-65.050263
15548		142.919908	-73.507374	-64.412787
15549		143.122380	-73.342373	-63.730115
15550		143.321984	-73.171724	-62.985221
15551		143.536320	-72.995041	-62.220319
15552		143.726036	-72.838792	-61.440701
15553		143.907804	-72.690874	-60.700786
15554		144.041376	-72.576158	-60.004398
15555		144.124257	-72.489624	-59.363470
15556		144.197525	-72.429241	-58.814208
15557		144.284807	-72.364968	-58.325615
15558		144.422183	-72.304251	-57.867547
15559		144.627008	-72.218732	-57.433642
15560		144.907378	-72.109256	-57.020092
15561		145.236748	-71.962047	-56.583961
15562		145.595274	-71.799126	-56.144174
15563		145.951252	-71.632831	-55.707579
15564		146.296798	-71.476228	-55.305242
15565		146.600479	-71.333575	-54.961012
15566		146.878386	-71.209774	-54.697300
15567		147.118266	-71.097490	-54.465060
15568		147.366402	-71.001366	-54.287726
15569		147.587957	-70.883122	-54.078114
15570		147.836501	-70.746158	-53.718574
15571		148.137551	-70.570682	-53.133923
15572		148.531437	-70.363755	-52.408154
15573		149.004438	-70.118786	-51.634750
15574		149.575119	-69.878799	-51.003227
15575		150.133889	-69.648779	-50.559573
15576		150.619537	-69.443986	-50.292098
15577		150.990292	-69.271028	-50.137730
15578		151.268954	-69.152394	-50.053299
15579		151.496468	-69.067694	-49.989554
15580		151.669285	-69.015737	-49.906127
15581		151.829175	-68.974876	-49.830521
15582		151.946985	-68.946543	-49.751917
15583		152.028515	-68.923602	-49.689233
15584		152.071118	-68.918052	-49.624139
15585		152.116637	-68.907256	-49.534037
15586		152.175818	-68.903207	-49.414998
15587		152.261646	-68.871753	-49.279209
15588		152.322096	-68.837593	-49.112486
15589		152.406167	-68.799538	-48.941772
15590		152.484009	-68.737794	-48.712656
15591		152.590365	-68.655886	-48.383424
15592		152.758426	-68.562804	-47.993971
15593		152.945867	-68.458115	-47.561831
15594		153.151989	-68.357637	-47.175499
15595		153.329401	-68.264874	-46.852324
15596		153.457590	-68.197260	-46.609359
15597		153.554630	-68.138687	-46.442452
15598		153.617280	-68.115658	-46.313777
15599		153.665447	-68.109065	-46.227175
15600		153.703974	-68.108063	-46.171316
15601		153.727570	-68.120494	-46.139834
15602		153.698327	-68.154503	-46.114427
15603		153.644904	-68.191238	-46.114398
15604		153.609141	-68.233656	-46.133199
15605		153.589810	-68.268728	-46.147995
15606		153.586214	-68.288605	-46.160278
15607		153.621606	-68.281308	-46.116062
15608		153.743009	-68.252813	-45.981820
15609		153.939574	-68.199680	-45.732200
15610		154.169477	-68.115062	-45.379757
15611		154.429365	-68.016355	-44.996250
15612		154.689306	-67.920244	-44.643301
15613		154.912888	-67.818705	-44.342183
15614		155.093652	-67.743069	-44.124177
15615		155.213368	-67.670042	-43.983462
15616		155.254087	-67.639517	-43.947081
15617		155.178941	-67.617732	-43.973879
15618		155.076703	-67.615404	-44.084298
15619		154.936562	-67.620018	-44.220094
15620		154.764119	-67.647901	-44.374766
15621		154.538612	-67.685386	-44.499867
15622		154.313802	-67.735035	-44.612548
15623		154.109921	-67.776700	-44.676267
15624		153.968649	-67.797790	-44.687181
15625		153.916450	-67.790848	-44.666479
15626		153.927061	-67.752932	-44.590353
15627		154.016116	-67.683137	-44.455960
15628		154.199882	-67.595785	-44.259924
