// General information: 
//  MT Manager version: 2022.2.0 
//  XDA version: 2022.2.0 build 7381 rev 124627 built on 2023-07-19
// Device information: 
//  DeviceId: 00B447F1
//  ProductCode: MTW2-3A7G6
//  Firmware Version: 4.3.5
//  Hardware Version: 2.0.0
// Device settings: 
//  Filter Profile: human(46.1)
//  Option Flags: Orientation Smoother Disabled, Position/Velocity Smoother Disabled, Continuous Zero Rotation Update Disabled, AHS Disabled, ICC Disabled
// Coordinate system: ENU
PacketCounter	SampleTimeFine	Roll	Pitch	Yaw
12625		42.999164	43.074888	5.776221
12626		42.996279	43.077970	5.775873
12627		42.997975	43.077301	5.775602
12628		42.997214	43.075924	5.776080
12629		42.992565	43.075003	5.775703
12630		42.988592	43.072196	5.775153
12631		42.985474	43.069794	5.773343
12632		42.987084	43.066562	5.773141
12633		42.994545	43.059822	5.772281
12634		43.000132	43.054111	5.768104
12635		43.006278	43.051176	5.767704
12636		43.006629	43.051822	5.768106
12637		43.005992	43.054786	5.770267
12638		43.000189	43.059687	5.774418
12639		42.992331	43.067377	5.778036
12640		42.986470	43.068999	5.779782
12641		42.983136	43.071597	5.782709
12642		42.975057	43.072903	5.778825
12643		42.978507	43.069603	5.779195
12644		42.988953	43.065290	5.775441
12645		43.002684	43.059702	5.771847
12646		43.013457	43.057789	5.767555
12647		43.020621	43.058497	5.762143
12648		43.026265	43.059875	5.760424
12649		43.029054	43.056552	5.757617
12650		43.027783	43.058537	5.759314
12651		43.023790	43.063039	5.762471
12652		43.017090	43.067671	5.767329
12653		43.012369	43.071500	5.770919
12654		43.009890	43.072860	5.770733
12655		43.008227	43.069880	5.764648
12656		43.011408	43.063324	5.759694
12657		43.008651	43.061073	5.752739
12658		43.004649	43.061870	5.748702
12659		43.006200	43.061451	5.749198
12660		43.009590	43.065428	5.753119
12661		43.013915	43.069870	5.756051
12662		43.019933	43.069727	5.755976
12663		43.018635	43.070743	5.751557
12664		43.015197	43.067215	5.749248
12665		43.012734	43.068311	5.747566
12666		43.010674	43.067965	5.747557
12667		43.010254	43.065929	5.744981
12668		43.014702	43.065339	5.742760
12669		43.026178	43.065953	5.741401
12670		43.038149	43.065006	5.740287
12671		43.048531	43.062875	5.741099
12672		43.056669	43.062155	5.740006
12673		43.057489	43.064537	5.737893
12674		43.058264	43.066618	5.740945
12675		43.057699	43.066757	5.742539
12676		43.055598	43.069218	5.743330
12677		43.055690	43.072852	5.745056
12678		43.052160	43.079192	5.745437
12679		43.047874	43.087665	5.747084
12680		43.039728	43.096520	5.748236
12681		43.035956	43.105264	5.753825
12682		43.031096	43.111814	5.755622
12683		43.022430	43.116257	5.759866
12684		43.015603	43.118191	5.764966
12685		43.009201	43.118353	5.770388
12686		43.006520	43.118334	5.777308
12687		43.009024	43.113964	5.782489
12688		43.010000	43.112783	5.782314
12689		43.011479	43.106319	5.786057
12690		43.009311	43.099889	5.789212
12691		43.006263	43.093119	5.793278
12692		43.001366	43.088246	5.800424
12693		42.995985	43.085104	5.806921
12694		42.991267	43.085441	5.813665
12695		42.991876	43.085869	5.822376
12696		42.994499	43.084108	5.827591
12697		42.994294	43.079002	5.823681
12698		42.998557	43.075175	5.825092
12699		43.000983	43.071702	5.827431
12700		43.001073	43.068502	5.834988
12701		43.002041	43.064053	5.848041
12702		43.002282	43.058395	5.865336
12703		42.993976	43.051008	5.880007
12704		42.978629	43.046203	5.892107
12705		42.956316	43.038276	5.900216
12706		42.928713	43.034990	5.908568
12707		42.898981	43.036401	5.913027
12708		42.872167	43.044378	5.922392
12709		42.847558	43.054321	5.930617
12710		42.825397	43.062092	5.937179
12711		42.806765	43.068287	5.943847
12712		42.788506	43.067725	5.951484
12713		42.776077	43.067470	5.965123
12714		42.763926	43.066751	5.977103
12715		42.750401	43.065302	5.986470
12716		42.736610	43.065130	5.993194
12717		42.723962	43.067579	5.998313
12718		42.713948	43.068796	6.000441
12719		42.708511	43.070011	6.001065
12720		42.711631	43.067191	6.002879
12721		42.710852	43.063081	6.002055
12722		42.715476	43.052847	6.005691
12723		42.713168	43.046733	6.009344
12724		42.707789	43.033466	6.011109
12725		42.701976	43.021818	6.012770
12726		42.698042	43.012657	6.014742
12727		42.698216	43.009982	6.018958
12728		42.700519	43.008716	6.025525
12729		42.701507	43.013120	6.035900
12730		42.698950	43.016876	6.048029
12731		42.685139	43.017476	6.052488
12732		42.662767	43.015468	6.056559
12733		42.634748	43.011615	6.061885
12734		42.605989	43.007380	6.069101
12735		42.585993	43.003975	6.075743
12736		42.577896	42.998951	6.089020
12737		42.579101	42.996802	6.101119
12738		42.585676	42.995556	6.111228
12739		42.594021	42.996917	6.122787
12740		42.599301	42.999355	6.133702
12741		42.599136	43.003818	6.146815
12742		42.592989	43.004705	6.157749
12743		42.574470	43.006470	6.170320
12744		42.546612	43.005241	6.184103
12745		42.516638	42.992784	6.192474
12746		42.487358	42.978464	6.200771
12747		42.458575	42.969748	6.213220
12748		42.435885	42.970733	6.233086
12749		42.412249	42.979773	6.256424
12750		42.384434	42.991500	6.275663
12751		42.357741	43.001210	6.288611
12752		42.338187	43.005332	6.293796
12753		42.321408	43.000268	6.290383
12754		42.312212	42.994478	6.287439
12755		42.312764	42.986904	6.296039
12756		42.314021	42.980691	6.315240
12757		42.312434	42.977143	6.345192
12758		42.304753	42.979554	6.382908
12759		42.289092	42.981377	6.417281
12760		42.270416	42.983235	6.445619
12761		42.249227	42.984198	6.472453
12762		42.222860	42.984838	6.496343
12763		42.196992	42.979984	6.514088
12764		42.168489	42.977338	6.532181
12765		42.129297	42.978514	6.553917
12766		42.080793	42.982508	6.580366
12767		42.029039	42.992263	6.609052
12768		41.970879	43.002581	6.634723
12769		41.907088	43.017689	6.654017
12770		41.841852	43.032314	6.671782
12771		41.779074	43.045642	6.685690
12772		41.719612	43.064706	6.702023
12773		41.664433	43.084593	6.719837
12774		41.615832	43.103617	6.739948
12775		41.571444	43.119951	6.764210
12776		41.532679	43.128709	6.785392
12777		41.496155	43.128394	6.803763
12778		41.463103	43.125583	6.816437
12779		41.438316	43.118164	6.832520
12780		41.415475	43.116881	6.845842
12781		41.402715	43.112659	6.858717
12782		41.395235	43.106682	6.870269
12783		41.389786	43.102975	6.881265
12784		41.383577	43.098599	6.892512
12785		41.371213	43.103734	6.907331
12786		41.353224	43.108531	6.925335
12787		41.328434	43.120045	6.942899
12788		41.298339	43.130771	6.962193
12789		41.265979	43.142223	6.983173
12790		41.231116	43.155462	7.003972
12791		41.196079	43.169974	7.022633
12792		41.179198	43.174796	7.037232
12793		41.164343	43.162575	7.040504
12794		41.156014	43.137666	7.038073
12795		41.166985	43.108732	7.040618
12796		41.174672	43.083897	7.043626
12797		41.175827	43.064541	7.048662
12798		41.181932	43.037044	7.047051
12799		41.181715	43.003803	7.034715
12800		41.183850	42.978910	7.028090
12801		41.185096	42.964403	7.022790
12802		41.179508	42.964078	7.022175
12803		41.168452	42.971191	7.023387
12804		41.157883	42.977505	7.022953
12805		41.146434	42.984130	7.019451
12806		41.133137	42.993053	7.019892
12807		41.124291	43.005997	7.026542
12808		41.125658	43.018730	7.032712
12809		41.132965	43.017709	7.033030
12810		41.147310	43.002498	7.029955
12811		41.161279	42.974540	7.013070
12812		41.168270	42.942380	6.986452
12813		41.173413	42.920416	6.963328
12814		41.188122	42.913189	6.955233
12815		41.213164	42.913197	6.958534
12816		41.244012	42.905050	6.957123
12817		41.270039	42.878676	6.943458
12818		41.285489	42.842659	6.917181
12819		41.281552	42.818282	6.892147
12820		41.269655	42.814897	6.882004
12821		41.259299	42.826212	6.879691
12822		41.255154	42.840623	6.878125
12823		41.258316	42.844819	6.873928
12824		41.269923	42.836144	6.865183
12825		41.284500	42.815664	6.855928
12826		41.304791	42.794666	6.846299
12827		41.324793	42.777556	6.835242
12828		41.344179	42.766193	6.831255
12829		41.364647	42.763237	6.835102
12830		41.382219	42.765139	6.845858
12831		41.399514	42.765325	6.853316
12832		41.410587	42.756689	6.850202
12833		41.414816	42.740172	6.839204
12834		41.414267	42.727411	6.828871
12835		41.402747	42.724197	6.821946
12836		41.384646	42.730819	6.824540
12837		41.363895	42.745759	6.833976
12838		41.343250	42.761446	6.848195
12839		41.324031	42.767927	6.862365
12840		41.306989	42.768911	6.870124
12841		41.292162	42.767477	6.874033
12842		41.282745	42.766008	6.878992
12843		41.264290	42.766248	6.875583
12844		41.247864	42.767931	6.873917
12845		41.233836	42.769751	6.877149
12846		41.220846	42.770575	6.879530
12847		41.213174	42.768004	6.878929
12848		41.210454	42.761374	6.879476
12849		41.210882	42.759094	6.879380
12850		41.215467	42.755267	6.882659
12851		41.217047	42.747547	6.879529
12852		41.217976	42.737114	6.872117
12853		41.212169	42.724090	6.857909
12854		41.204503	42.712996	6.846414
12855		41.194446	42.705733	6.838321
12856		41.188537	42.704921	6.833211
12857		41.184472	42.711168	6.830677
12858		41.182752	42.715464	6.827838
12859		41.182880	42.722563	6.826476
12860		41.183562	42.730450	6.823545
12861		41.184920	42.736584	6.822293
12862		41.185564	42.740098	6.818317
12863		41.184317	42.739208	6.810568
12864		41.184081	42.737699	6.805252
12865		41.186027	42.732067	6.800364
12866		41.182375	42.732214	6.795125
12867		41.180698	42.732052	6.789670
12868		41.180991	42.733219	6.785963
12869		41.183365	42.736055	6.785821
12870		41.183932	42.736718	6.780530
12871		41.184062	42.734617	6.772128
12872		41.181498	42.723875	6.763219
12873		41.175484	42.721199	6.753980
12874		41.173877	42.720957	6.746997
12875		41.169805	42.725298	6.741081
12876		41.167153	42.732817	6.737837
12877		41.165752	42.741364	6.737885
12878		41.163272	42.753073	6.734689
12879		41.162882	42.763716	6.736136
12880		41.159293	42.776460	6.735548
12881		41.161300	42.780698	6.734084
12882		41.156689	42.774302	6.724915
12883		41.150236	42.772354	6.717962
12884		41.145144	42.770575	6.717327
12885		41.136672	42.770134	6.717694
12886		41.129205	42.772078	6.720985
12887		41.126516	42.775517	6.724248
12888		41.124302	42.784006	6.720419
12889		41.129062	42.785829	6.717652
12890		41.136534	42.787188	6.708339
12891		41.147157	42.786270	6.701201
12892		41.157853	42.785264	6.694793
12893		41.171742	42.782184	6.690284
12894		41.179877	42.779654	6.686012
12895		41.182117	42.775436	6.682976
12896		41.183909	42.778339	6.679983
12897		41.186571	42.780684	6.678314
12898		41.189997	42.786389	6.675648
12899		41.196858	42.787685	6.671786
12900		41.202925	42.782579	6.657919
12901		41.206686	42.774689	6.640264
12902		41.207168	42.768286	6.623968
12903		41.205704	42.768543	6.614135
12904		41.202429	42.775262	6.610016
12905		41.206083	42.785096	6.610028
12906		41.210590	42.792693	6.607482
12907		41.223114	42.788909	6.600258
12908		41.235595	42.778505	6.585072
12909		41.248729	42.764539	6.567768
12910		41.258627	42.754267	6.550177
12911		41.266747	42.748875	6.536318
12912		41.273039	42.746387	6.522887
12913		41.276225	42.744850	6.508579
12914		41.280167	42.741443	6.494662
12915		41.286997	42.734435	6.480934
12916		41.293856	42.720581	6.464706
12917		41.304505	42.702460	6.450516
12918		41.315627	42.684926	6.441586
12919		41.324727	42.672072	6.435542
12920		41.333266	42.665496	6.431221
12921		41.340108	42.656900	6.423948
12922		41.341121	42.646863	6.404701
12923		41.351431	42.635186	6.379665
12924		41.362887	42.618688	6.347343
12925		41.377588	42.602203	6.322448
12926		41.388811	42.584358	6.303721
12927		41.393941	42.566559	6.289024
12928		41.394503	42.543575	6.276885
12929		41.398654	42.523663	6.260804
12930		41.416186	42.509814	6.255927
12931		41.432276	42.505253	6.253147
12932		41.452617	42.507898	6.258636
12933		41.470310	42.520754	6.264086
12934		41.481251	42.535020	6.260428
12935		41.495248	42.543009	6.243074
12936		41.510480	42.540017	6.214071
12937		41.529213	42.528972	6.185204
12938		41.541215	42.514018	6.164039
12939		41.545774	42.500667	6.149308
12940		41.547126	42.489483	6.141052
12941		41.549028	42.486650	6.136698
12942		41.556806	42.492668	6.133024
12943		41.568314	42.503943	6.131443
12944		41.580986	42.523556	6.128274
12945		41.603895	42.547873	6.123720
12946		41.623368	42.573609	6.111119
12947		41.637567	42.595699	6.099559
12948		41.640558	42.611209	6.082776
12949		41.628914	42.616747	6.064020
12950		41.612331	42.617034	6.045863
12951		41.599430	42.612083	6.030027
12952		41.597822	42.605844	6.012836
12953		41.607002	42.597986	5.997286
12954		41.629744	42.598452	5.983055
12955		41.666579	42.597201	5.971717
12956		41.707263	42.600360	5.963292
12957		41.743534	42.604576	5.958126
12958		41.762799	42.609320	5.945195
12959		41.773730	42.612197	5.930645
12960		41.777545	42.617594	5.912962
12961		41.779951	42.623530	5.899936
12962		41.787143	42.635840	5.893615
12963		41.799516	42.649428	5.894231
12964		41.820234	42.659805	5.897439
12965		41.842693	42.665382	5.898209
12966		41.859110	42.664808	5.896706
12967		41.870023	42.659177	5.894739
12968		41.875389	42.652317	5.888253
12969		41.878226	42.649006	5.885523
12970		41.880417	42.642927	5.878373
12971		41.888275	42.641781	5.872790
12972		41.903727	42.641919	5.871172
12973		41.928522	42.645789	5.872932
12974		41.956163	42.649294	5.876991
12975		41.979360	42.652050	5.880398
12976		41.993736	42.649696	5.880316
12977		42.003288	42.643352	5.875626
12978		42.014025	42.644209	5.870142
12979		42.028176	42.641792	5.871084
12980		42.044929	42.644514	5.875408
12981		42.058873	42.649658	5.880781
12982		42.074630	42.654914	5.888565
12983		42.086100	42.661998	5.893722
12984		42.091324	42.669610	5.894759
12985		42.095987	42.676134	5.895901
12986		42.097303	42.683188	5.892080
12987		42.109803	42.684031	5.888775
12988		42.130294	42.681089	5.883360
12989		42.159925	42.674855	5.879849
12990		42.198433	42.669018	5.880358
12991		42.243358	42.664065	5.886077
12992		42.290172	42.657327	5.888736
12993		42.334797	42.652837	5.895971
12994		42.375471	42.648230	5.905905
12995		42.407253	42.639949	5.916728
12996		42.431276	42.635487	5.926564
12997		42.451339	42.629656	5.935756
12998		42.460576	42.626611	5.940194
12999		42.464631	42.625251	5.947113
13000		42.464292	42.621920	5.950940
13001		42.458177	42.616162	5.954490
13002		42.453995	42.610432	5.959018
13003		42.447327	42.607226	5.959202
13004		42.443402	42.606427	5.962195
13005		42.441624	42.608546	5.969883
13006		42.444821	42.615841	5.983724
13007		42.454982	42.626135	6.001967
13008		42.471779	42.634412	6.014938
13009		42.494142	42.639560	6.029152
13010		42.513982	42.638201	6.031083
13011		42.530155	42.634514	6.034513
13012		42.540919	42.632786	6.038498
13013		42.551894	42.632596	6.045853
13014		42.561104	42.634562	6.056193
13015		42.568853	42.637565	6.067149
13016		42.574658	42.639961	6.081198
13017		42.581071	42.643279	6.095637
13018		42.591217	42.647444	6.108898
13019		42.601394	42.649390	6.117245
13020		42.617098	42.648355	6.126426
13021		42.633598	42.645159	6.134532
13022		42.654428	42.638108	6.140000
13023		42.674711	42.627238	6.144473
13024		42.693849	42.619796	6.146769
13025		42.710165	42.608527	6.145687
13026		42.727202	42.605393	6.147479
13027		42.744688	42.603263	6.150796
13028		42.759594	42.605017	6.156753
13029		42.767827	42.612644	6.165787
13030		42.768029	42.622862	6.173781
13031		42.764950	42.635068	6.179479
13032		42.763745	42.638335	6.186748
13033		42.762012	42.636621	6.187676
13034		42.759701	42.635975	6.191711
13035		42.762144	42.631581	6.196862
13036		42.766095	42.628582	6.201317
13037		42.771200	42.625460	6.202890
13038		42.777951	42.625238	6.204511
13039		42.786138	42.626466	6.206986
13040		42.794664	42.628350	6.213870
13041		42.804068	42.630505	6.219831
13042		42.811130	42.628111	6.227038
13043		42.811315	42.622608	6.230652
13044		42.807405	42.616231	6.231742
13045		42.804556	42.609860	6.231437
13046		42.795076	42.606612	6.233499
13047		42.782893	42.607429	6.239116
13048		42.767178	42.611044	6.243553
13049		42.752567	42.619206	6.249332
13050		42.739672	42.627334	6.254947
13051		42.732459	42.634007	6.255499
13052		42.733131	42.636874	6.255696
13053		42.742494	42.639940	6.258840
13054		42.758283	42.642481	6.264852
13055		42.772969	42.643702	6.266684
13056		42.787731	42.639545	6.268937
13057		42.801681	42.640090	6.271198
13058		42.812414	42.638510	6.276847
13059		42.813466	42.641636	6.280207
13060		42.812927	42.645323	6.287295
13061		42.805665	42.648517	6.290866
13062		42.800050	42.645712	6.288859
13063		42.791284	42.646566	6.287082
13064		42.785661	42.642797	6.287746
13065		42.779645	42.643104	6.288033
13066		42.778174	42.640107	6.289533
13067		42.771120	42.640235	6.291774
13068		42.761459	42.645160	6.293869
13069		42.747999	42.654158	6.294108
13070		42.738550	42.662441	6.292134
13071		42.730710	42.669101	6.289531
13072		42.730102	42.673976	6.286416
13073		42.730746	42.672123	6.281910
13074		42.736522	42.669954	6.281944
13075		42.737947	42.667863	6.279829
13076		42.732579	42.667112	6.275240
13077		42.725438	42.669058	6.271839
13078		42.714612	42.675902	6.271673
13079		42.706017	42.683793	6.272878
13080		42.698987	42.690259	6.272839
13081		42.695320	42.694234	6.274457
13082		42.691455	42.693974	6.273985
13083		42.689277	42.697387	6.271361
13084		42.688935	42.693584	6.265425
13085		42.688842	42.691059	6.261350
13086		42.690435	42.688510	6.256943
13087		42.690629	42.687398	6.254726
13088		42.693398	42.686885	6.252837
13089		42.695218	42.686869	6.249000
13090		42.697912	42.689204	6.247433
13091		42.699431	42.689681	6.245121
13092		42.700793	42.691410	6.240857
13093		42.705171	42.692005	6.237030
13094		42.708679	42.692258	6.234414
13095		42.712513	42.691026	6.233073
13096		42.711306	42.692125	6.228778
13097		42.714000	42.694438	6.227133
13098		42.720512	42.696717	6.227390
13099		42.727040	42.697754	6.228680
13100		42.730517	42.698117	6.227979
13101		42.734595	42.699204	6.225677
13102		42.737159	42.701663	6.222945
13103		42.745316	42.703794	6.222618
13104		42.751798	42.704092	6.219449
13105		42.754264	42.702177	6.215383
13106		42.757948	42.701217	6.214898
13107		42.757610	42.696372	6.211782
13108		42.752926	42.693878	6.209283
13109		42.745535	42.693502	6.206836
13110		42.736180	42.696319	6.205656
13111		42.732122	42.702606	6.203156
13112		42.730577	42.708890	6.204682
13113		42.728754	42.724475	6.204643
13114		42.731693	42.736599	6.207648
13115		42.731198	42.753768	6.207516
13116		42.729745	42.765172	6.208047
13117		42.724393	42.775243	6.205999
13118		42.722928	42.781236	6.206401
13119		42.723859	42.780794	6.203757
13120		42.726729	42.780279	6.202507
13121		42.731061	42.777397	6.201705
13122		42.734498	42.777912	6.200344
13123		42.741104	42.774227	6.197696
13124		42.747172	42.772356	6.196358
13125		42.755243	42.771917	6.196239
13126		42.761806	42.771032	6.194438
13127		42.766985	42.769478	6.189626
13128		42.773498	42.768021	6.191553
13129		42.779008	42.766972	6.191421
13130		42.785014	42.770637	6.189365
13131		42.793073	42.772101	6.192632
13132		42.799851	42.779988	6.195592
13133		42.807157	42.788969	6.200222
13134		42.815056	42.796109	6.204319
13135		42.819966	42.802328	6.204790
13136		42.823441	42.799042	6.205528
13137		42.821959	42.797744	6.202105
13138		42.822026	42.791032	6.204674
13139		42.814075	42.788838	6.204696
13140		42.808663	42.786602	6.208995
13141		42.806760	42.787042	6.214064
13142		42.810108	42.788873	6.219673
13143		42.817979	42.791487	6.220888
13144		42.826553	42.789553	6.221090
13145		42.836933	42.789301	6.225335
13146		42.840680	42.789184	6.222868
13147		42.844548	42.788942	6.227738
13148		42.846847	42.792988	6.234874
13149		42.847166	42.795435	6.238666
13150		42.845924	42.794901	6.241234
13151		42.843690	42.794838	6.241623
13152		42.843450	42.792576	6.238508
13153		42.843451	42.792617	6.234233
13154		42.846626	42.793609	6.234674
13155		42.851936	42.795612	6.235876
13156		42.854077	42.794282	6.233125
13157		42.854130	42.791513	6.228282
13158		42.852838	42.787148	6.223650
13159		42.852341	42.782555	6.221289
13160		42.851411	42.783062	6.215614
13161		42.851346	42.787818	6.215293
13162		42.849917	42.791633	6.210747
13163		42.847739	42.795041	6.208122
13164		42.844969	42.800611	6.205543
13165		42.844819	42.800898	6.202031
13166		42.846231	42.798755	6.200132
13167		42.848739	42.795931	6.198888
13168		42.857215	42.793909	6.198671
13169		42.864854	42.792298	6.197462
13170		42.877912	42.795333	6.201464
13171		42.886169	42.795632	6.206795
13172		42.886075	42.799534	6.208855
13173		42.878452	42.804129	6.211105
13174		42.867185	42.808983	6.212300
13175		42.856267	42.810399	6.211569
13176		42.838584	42.809220	6.210953
13177		42.816814	42.807292	6.209813
13178		42.792015	42.809293	6.209146
13179		42.768798	42.813293	6.212613
13180		42.749387	42.817858	6.213781
13181		42.737087	42.820486	6.213704
13182		42.734412	42.821794	6.209963
13183		42.740777	42.822072	6.205833
13184		42.755147	42.820336	6.203515
13185		42.774982	42.815478	6.201698
13186		42.789228	42.810002	6.200267
13187		42.799377	42.805531	6.202095
13188		42.802111	42.805966	6.206119
13189		42.796161	42.810739	6.209569
13190		42.787238	42.821299	6.215046
13191		42.768110	42.832615	6.218042
13192		42.744565	42.844448	6.217572
13193		42.717364	42.854334	6.213002
13194		42.687252	42.856943	6.205941
13195		42.662820	42.858093	6.202515
13196		42.644024	42.857702	6.200569
13197		42.634373	42.859117	6.206144
13198		42.631641	42.859144	6.212943
13199		42.637094	42.856532	6.219231
13200		42.647160	42.855954	6.218601
13201		42.661375	42.845265	6.218686
13202		42.669996	42.836606	6.211664
13203		42.673318	42.829744	6.206059
13204		42.672969	42.824683	6.201275
13205		42.667486	42.820529	6.201509
13206		42.656938	42.817229	6.205312
13207		42.641814	42.812551	6.212014
13208		42.622361	42.809690	6.216042
13209		42.607709	42.802364	6.217083
13210		42.600047	42.796442	6.218351
13211		42.598405	42.797290	6.219076
13212		42.609754	42.795567	6.228253
13213		42.620519	42.793021	6.236626
13214		42.629697	42.785734	6.248535
13215		42.630929	42.777039	6.262250
13216		42.622815	42.772863	6.274291
13217		42.605708	42.770384	6.284698
13218		42.585276	42.772267	6.297285
13219		42.561858	42.774908	6.307914
13220		42.536693	42.777545	6.318922
13221		42.513241	42.781083	6.326733
13222		42.491397	42.780637	6.334488
13223		42.469539	42.779891	6.340328
13224		42.450297	42.775990	6.348465
13225		42.436582	42.770059	6.354538
13226		42.427675	42.765927	6.362044
13227		42.425097	42.756592	6.369456
13228		42.426377	42.751550	6.379734
13229		42.428755	42.745585	6.391313
13230		42.430799	42.741104	6.401642
13231		42.432544	42.735129	6.410065
13232		42.432233	42.724129	6.418279
13233		42.430924	42.719186	6.426150
13234		42.433442	42.706864	6.439166
13235		42.437874	42.696867	6.452676
13236		42.439709	42.688790	6.465397
13237		42.436025	42.682073	6.475309
13238		42.429205	42.676224	6.482304
13239		42.418040	42.672794	6.491775
13240		42.404512	42.669224	6.496489
13241		42.385137	42.674692	6.503487
13242		42.363373	42.677461	6.506397
13243		42.348399	42.673400	6.509557
13244		42.337783	42.667078	6.512359
13245		42.329100	42.659792	6.518677
13246		42.324470	42.655480	6.530409
13247		42.318567	42.654919	6.542526
13248		42.314332	42.659949	6.556044
13249		42.308380	42.662194	6.568720
13250		42.297462	42.663744	6.576159
13251		42.285128	42.666644	6.585886
13252		42.275584	42.667111	6.594711
13253		42.268332	42.663971	6.600732
13254		42.263430	42.652930	6.601706
13255		42.255216	42.643006	6.602371
13256		42.247956	42.630762	6.610220
13257		42.234001	42.624369	6.620662
13258		42.212927	42.622401	6.631437
13259		42.186281	42.617374	6.645005
13260		42.153038	42.615061	6.659783
13261		42.120889	42.614888	6.675972
13262		42.091899	42.613524	6.691602
13263		42.064284	42.613653	6.707484
13264		42.039734	42.611820	6.726801
13265		42.011727	42.618039	6.745313
13266		41.979221	42.623047	6.758141
13267		41.950510	42.624791	6.770341
13268		41.925953	42.624800	6.784261
13269		41.904906	42.622107	6.798971
13270		41.886077	42.621152	6.818230
13271		41.870315	42.622313	6.841765
13272		41.847765	42.630489	6.864219
13273		41.827688	42.638325	6.891024
13274		41.800733	42.652060	6.910571
13275		41.778343	42.665016	6.924340
13276		41.759974	42.670965	6.930077
13277		41.742070	42.673214	6.933074
13278		41.726071	42.676982	6.939163
13279		41.708892	42.677383	6.950966
13280		41.686667	42.680972	6.965836
13281		41.656683	42.682922	6.981527
13282		41.625737	42.687299	6.998710
13283		41.593413	42.691846	7.010594
13284		41.564492	42.697582	7.023279
13285		41.535859	42.703617	7.029625
13286		41.510070	42.710078	7.036204
13287		41.483502	42.716490	7.038635
13288		41.459027	42.724219	7.043515
13289		41.432408	42.735306	7.049854
13290		41.408884	42.746179	7.063568
13291		41.388404	42.756188	7.077213
13292		41.371147	42.764054	7.093415
13293		41.360833	42.774977	7.113513
13294		41.358430	42.780138	7.128466
13295		41.352767	42.773595	7.129767
13296		41.352765	42.759993	7.124985
13297		41.358529	42.743084	7.118823
13298		41.358153	42.728141	7.111485
13299		41.355190	42.720107	7.108663
13300		41.348451	42.716918	7.108239
13301		41.339894	42.719314	7.109087
13302		41.330461	42.721939	7.107186
13303		41.325879	42.719076	7.103483
13304		41.329245	42.716713	7.101017
13305		41.335453	42.709130	7.096806
13306		41.341176	42.707684	7.094697
13307		41.338453	42.710142	7.091751
13308		41.338621	42.716431	7.092403
13309		41.335206	42.725458	7.093577
13310		41.331032	42.733830	7.095155
13311		41.326538	42.743580	7.095454
13312		41.330225	42.749328	7.102199
13313		41.332501	42.762415	7.107085
13314		41.353751	42.771404	7.122281
13315		41.389195	42.760034	7.123829
13316		41.413354	42.731109	7.110512
13317		41.443104	42.691796	7.093112
13318		41.468835	42.649580	7.072984
13319		41.479288	42.618929	7.054763
13320		41.481888	42.604896	7.042134
13321		41.486865	42.600153	7.041168
13322		41.486047	42.600815	7.044255
13323		41.483845	42.604479	7.051420
13324		41.481899	42.603347	7.054020
13325		41.483434	42.599419	7.057610
13326		41.486122	42.593355	7.055606
13327		41.491894	42.584599	7.050297
13328		41.498036	42.576087	7.039700
13329		41.508964	42.572075	7.031356
13330		41.520425	42.571766	7.024101
13331		41.529449	42.571528	7.013037
13332		41.539279	42.570915	7.002699
13333		41.554425	42.567720	6.995558
13334		41.568317	42.562074	6.991519
13335		41.579860	42.553644	6.992189
13336		41.592171	42.545445	6.998851
13337		41.600914	42.534061	7.000489
13338		41.602729	42.516903	6.997107
13339		41.602963	42.499425	6.993193
13340		41.598671	42.485021	6.986431
13341		41.587711	42.475540	6.976109
13342		41.575283	42.470286	6.968695
13343		41.561374	42.466272	6.960979
13344		41.554303	42.461808	6.960471
13345		41.549732	42.452654	6.959278
13346		41.545864	42.446297	6.962846
13347		41.543195	42.436217	6.973913
13348		41.534356	42.429339	6.980209
13349		41.520662	42.425124	6.980748
13350		41.505109	42.421946	6.977899
13351		41.483859	42.417437	6.972041
13352		41.464761	42.417431	6.964069
13353		41.448440	42.407153	6.955300
13354		41.437142	42.392039	6.950562
13355		41.427336	42.374588	6.946484
13356		41.418989	42.354738	6.943290
13357		41.411433	42.338397	6.940736
13358		41.398832	42.324529	6.936900
13359		41.382519	42.316124	6.931521
13360		41.366520	42.318809	6.922742
13361		41.354127	42.323395	6.917860
13362		41.339969	42.332326	6.913756
13363		41.331565	42.334493	6.913863
13364		41.324826	42.334366	6.915974
13365		41.321515	42.324229	6.914933
13366		41.312411	42.306790	6.905567
13367		41.301965	42.291155	6.892755
13368		41.291581	42.278221	6.881681
13369		41.284743	42.277039	6.877039
13370		41.279119	42.277664	6.873626
13371		41.278491	42.281491	6.872959
13372		41.277527	42.283657	6.868451
13373		41.274390	42.284955	6.864441
13374		41.267947	42.287821	6.861577
13375		41.264844	42.288199	6.860388
13376		41.259871	42.285073	6.853161
13377		41.252486	42.281072	6.844852
13378		41.244578	42.278134	6.840073
13379		41.239463	42.274336	6.836095
13380		41.235099	42.278436	6.835832
13381		41.231042	42.281188	6.836364
13382		41.224802	42.280659	6.830594
13383		41.219500	42.278020	6.824552
13384		41.217247	42.271533	6.818377
13385		41.220435	42.266834	6.816995
13386		41.216048	42.262943	6.814925
13387		41.216236	42.258336	6.815820
13388		41.212823	42.256448	6.815145
13389		41.204692	42.259039	6.810917
13390		41.193734	42.264107	6.807544
13391		41.179922	42.271775	6.806644
13392		41.165414	42.278763	6.806581
13393		41.153052	42.282406	6.804513
13394		41.143492	42.282819	6.803870
13395		41.144757	42.277491	6.805641
13396		41.147320	42.273549	6.805494
13397		41.146178	42.273637	6.803981
13398		41.143239	42.279164	6.802392
13399		41.140846	42.287493	6.804395
13400		41.137771	42.298873	6.805705
13401		41.137068	42.305505	6.805553
13402		41.137852	42.312624	6.807316
13403		41.140408	42.314217	6.800267
13404		41.147814	42.313933	6.787822
13405		41.158938	42.308704	6.772587
13406		41.172556	42.304560	6.760785
13407		41.188115	42.303468	6.751910
13408		41.205803	42.310896	6.740878
13409		41.227929	42.317806	6.731411
13410		41.259025	42.324551	6.723595
13411		41.294786	42.327783	6.709291
13412		41.336047	42.324433	6.697311
13413		41.377640	42.318896	6.690966
13414		41.411077	42.312114	6.686864
13415		41.435715	42.304465	6.682683
13416		41.446382	42.297380	6.677199
13417		41.448892	42.295482	6.673200
13418		41.446994	42.296250	6.670852
13419		41.438510	42.300255	6.665307
13420		41.428429	42.309304	6.657218
13421		41.421468	42.318141	6.647752
13422		41.418350	42.326632	6.639009
13423		41.415361	42.339349	6.632012
13424		41.413381	42.348861	6.626142
13425		41.408679	42.357898	6.620999
13426		41.404963	42.363661	6.617023
13427		41.402449	42.369352	6.610274
13428		41.402156	42.371392	6.600671
13429		41.405576	42.374315	6.589614
13430		41.414214	42.375797	6.578301
13431		41.431888	42.376029	6.571720
13432		41.452488	42.374642	6.560321
13433		41.478087	42.377181	6.549416
13434		41.508307	42.376490	6.540296
13435		41.535037	42.382756	6.533387
13436		41.563004	42.388088	6.526679
13437		41.588737	42.392256	6.518379
13438		41.612718	42.399166	6.509057
13439		41.636541	42.408079	6.504208
13440		41.661070	42.419702	6.502100
13441		41.687588	42.437242	6.506341
13442		41.702122	42.458367	6.506199
13443		41.711373	42.477732	6.502062
13444		41.713638	42.493139	6.487071
13445		41.712661	42.501667	6.464081
13446		41.719364	42.507645	6.447576
13447		41.725830	42.515803	6.434577
13448		41.735501	42.528157	6.430515
13449		41.745466	42.542813	6.425640
13450		41.763444	42.549976	6.420635
13451		41.786026	42.555355	6.412599
13452		41.808266	42.554342	6.403707
13453		41.828798	42.551177	6.398711
13454		41.844034	42.552674	6.396236
13455		41.856485	42.559105	6.394112
13456		41.870801	42.562392	6.390250
13457		41.889243	42.564132	6.380478
13458		41.911832	42.565832	6.365001
13459		41.943143	42.560592	6.351084
13460		41.977531	42.554552	6.337426
13461		42.011560	42.550660	6.328937
13462		42.038677	42.549204	6.325518
13463		42.057896	42.551676	6.324309
13464		42.071090	42.558795	6.321735
13465		42.080484	42.559872	6.312571
13466		42.087235	42.558736	6.301051
13467		42.090714	42.559718	6.286659
13468		42.092105	42.560972	6.272062
13469		42.095019	42.567395	6.263838
13470		42.097577	42.573580	6.259157
13471		42.102208	42.578384	6.257761
13472		42.107284	42.581658	6.256480
13473		42.117907	42.582753	6.253605
13474		42.137071	42.581932	6.245975
13475		42.166205	42.574619	6.233363
13476		42.208138	42.569468	6.223546
13477		42.249904	42.567348	6.215136
13478		42.292127	42.568963	6.207222
13479		42.332949	42.569197	6.200550
13480		42.365697	42.569929	6.189609
13481		42.390960	42.567631	6.180771
13482		42.407383	42.563439	6.173086
13483		42.411691	42.562365	6.166703
13484		42.405645	42.563749	6.163821
13485		42.392873	42.567095	6.165986
13486		42.372393	42.568616	6.168146
13487		42.344990	42.567966	6.163599
13488		42.318363	42.569000	6.156017
13489		42.302108	42.564843	6.143863
13490		42.300679	42.560912	6.130082
13491		42.313716	42.562749	6.119011
13492		42.337803	42.564375	6.111183
13493		42.366437	42.567818	6.105096
13494		42.399726	42.575008	6.102855
13495		42.430272	42.581936	6.103183
13496		42.453302	42.593608	6.101364
13497		42.471354	42.603353	6.106595
13498		42.479034	42.613579	6.102632
13499		42.476831	42.618769	6.094386
13500		42.466732	42.621595	6.079878
13501		42.454605	42.621955	6.066664
13502		42.446521	42.624423	6.052220
13503		42.445729	42.627487	6.046137
13504		42.445680	42.629416	6.045122
13505		42.446834	42.634180	6.051065
13506		42.446443	42.643383	6.059107
13507		42.447322	42.653997	6.066909
13508		42.451609	42.662957	6.072011
13509		42.452700	42.670418	6.069529
13510		42.456375	42.677557	6.060832
13511		42.458358	42.685333	6.048190
13512		42.463764	42.689914	6.040012
13513		42.476098	42.697417	6.035904
13514		42.489888	42.701329	6.032048
13515		42.509420	42.707036	6.036120
13516		42.530380	42.710374	6.040787
13517		42.544265	42.710250	6.046731
13518		42.552273	42.707326	6.044294
13519		42.555521	42.698814	6.036139
13520		42.556471	42.689987	6.021458
13521		42.560371	42.679584	6.013086
13522		42.561551	42.670837	6.008904
13523		42.558661	42.665397	6.005791
13524		42.550570	42.661425	6.001156
13525		42.538651	42.658844	5.995595
13526		42.523958	42.660676	5.985728
13527		42.518003	42.663423	5.976783
13528		42.517055	42.665078	5.967226
13529		42.526746	42.668517	5.966107
13530		42.537573	42.673118	5.967481
13531		42.544010	42.672483	5.966208
13532		42.547140	42.671657	5.962299
13533		42.542325	42.670875	5.953674
13534		42.536109	42.667880	5.949278
13535		42.528061	42.662126	5.943307
13536		42.519424	42.656725	5.942747
13537		42.519979	42.647061	5.947116
13538		42.521460	42.635229	5.949017
13539		42.520694	42.630240	5.951011
13540		42.521460	42.626726	5.952099
13541		42.517393	42.626719	5.952027
13542		42.510165	42.628183	5.952145
13543		42.498481	42.628912	5.951790
13544		42.492066	42.633643	5.950959
13545		42.489017	42.635711	5.952309
13546		42.490657	42.635659	5.952334
13547		42.492161	42.638025	5.953403
13548		42.495655	42.637399	5.953007
13549		42.500486	42.633776	5.949980
13550		42.503044	42.629194	5.945048
13551		42.501320	42.626478	5.939802
13552		42.500329	42.622006	5.934611
13553		42.498226	42.622588	5.931426
13554		42.496497	42.622813	5.926852
13555		42.498045	42.623274	5.924565
13556		42.499128	42.621888	5.923202
13557		42.500442	42.619146	5.924684
13558		42.501358	42.617254	5.928769
13559		42.498451	42.612822	5.931827
13560		42.498446	42.608275	5.931796
13561		42.496362	42.607960	5.931418
13562		42.500869	42.603430	5.936778
13563		42.503086	42.601105	5.937081
13564		42.512054	42.596922	5.941399
13565		42.521966	42.590159	5.944241
13566		42.531356	42.582596	5.946997
13567		42.536634	42.579235	5.947862
13568		42.539787	42.575706	5.952329
13569		42.539211	42.575826	5.953910
13570		42.541151	42.573183	5.958630
13571		42.542508	42.568535	5.956754
13572		42.549820	42.560433	5.954944
13573		42.564645	42.551560	5.952630
13574		42.589668	42.546263	5.955981
13575		42.623698	42.548002	5.966621
13576		42.662394	42.554467	5.987620
13577		42.695427	42.560469	6.003360
13578		42.726563	42.566676	6.017870
13579		42.752630	42.564261	6.029398
13580		42.771834	42.558014	6.040085
13581		42.785988	42.550204	6.049729
13582		42.798035	42.542120	6.063392
13583		42.809418	42.534953	6.079918
13584		42.816345	42.527625	6.097274
13585		42.826631	42.513923	6.109195
13586		42.833473	42.499995	6.117795
13587		42.838335	42.482780	6.130601
13588		42.837327	42.469011	6.144288
13589		42.832768	42.458976	6.162896
13590		42.828701	42.453616	6.188752
13591		42.818290	42.455323	6.217989
13592		42.805975	42.464697	6.242084
13593		42.792163	42.473366	6.255501
13594		42.785051	42.480038	6.263628
13595		42.777304	42.482073	6.266028
13596		42.773366	42.483788	6.268597
13597		42.772809	42.482093	6.275773
13598		42.772743	42.477971	6.286123
13599		42.774301	42.475798	6.301190
13600		42.777631	42.473676	6.316230
13601		42.781289	42.472835	6.333593
13602		42.784451	42.470410	6.344156
13603		42.789892	42.463152	6.355427
13604		42.795253	42.454355	6.364238
13605		42.798935	42.444282	6.365537
13606		42.801615	42.435151	6.366022
13607		42.806324	42.427146	6.368750
13608		42.811310	42.424244	6.371655
13609		42.819539	42.423601	6.379771
13610		42.823570	42.420356	6.383297
13611		42.828469	42.419357	6.389008
13612		42.829152	42.417813	6.393179
13613		42.829337	42.417686	6.397136
13614		42.828703	42.417950	6.398056
13615		42.827700	42.416000	6.401337
13616		42.823536	42.414363	6.398958
13617		42.821458	42.414056	6.398581
13618		42.819579	42.408355	6.397435
13619		42.818137	42.406157	6.396828
13620		42.816290	42.400026	6.394585
13621		42.817106	42.398916	6.395517
13622		42.818480	42.401593	6.397367
13623		42.821350	42.405530	6.398368
13624		42.824688	42.408781	6.397104
13625		42.829813	42.414714	6.396851
13626		42.831366	42.415277	6.394419
13627		42.833602	42.421103	6.395652
13628		42.833697	42.424615	6.397475
13629		42.828648	42.429806	6.399720
13630		42.824247	42.436069	6.402397
13631		42.818479	42.439610	6.398901
13632		42.814216	42.438949	6.392860
13633		42.813077	42.438987	6.382355
13634		42.821037	42.444321	6.375786
13635		42.833374	42.446436	6.371351
13636		42.847515	42.451330	6.368155
13637		42.858583	42.457223	6.364183
13638		42.861925	42.465188	6.357952
13639		42.861421	42.472476	6.354324
13640		42.856432	42.485893	6.348339
13641		42.855211	42.490622	6.341763
13642		42.858017	42.493868	6.337827
13643		42.858300	42.499925	6.330416
13644		42.858910	42.507456	6.325191
13645		42.855348	42.515788	6.321003
13646		42.851471	42.527607	6.318842
13647		42.848624	42.538494	6.317599
13648		42.846972	42.551307	6.316978
13649		42.845985	42.560230	6.312818
13650		42.844847	42.565045	6.306792
13651		42.845089	42.572988	6.302742
13652		42.849973	42.578157	6.296484
13653		42.856242	42.580464	6.287583
13654		42.862862	42.583987	6.279193
13655		42.863453	42.589543	6.270264
13656		42.861190	42.599526	6.265655
13657		42.863215	42.610194	6.262622
13658		42.869791	42.622189	6.265583
13659		42.874953	42.637155	6.263498
13660		42.878852	42.648421	6.256779
13661		42.880150	42.657432	6.248001
13662		42.878893	42.667629	6.240912
13663		42.875424	42.679399	6.233723
13664		42.872546	42.691312	6.229375
13665		42.870275	42.703993	6.225663
13666		42.868283	42.715387	6.222802
13667		42.870661	42.722755	6.217688
13668		42.873550	42.731018	6.212557
13669		42.877476	42.736914	6.206043
13670		42.883737	42.741105	6.200879
13671		42.888143	42.745360	6.194896
13672		42.890191	42.748625	6.186660
13673		42.893884	42.749423	6.180523
13674		42.889245	42.752915	6.173975
13675		42.890596	42.757313	6.170221
13676		42.891725	42.764672	6.168056
13677		42.893873	42.776964	6.167635
13678		42.898152	42.791196	6.165402
13679		42.898291	42.805602	6.159682
13680		42.900898	42.818036	6.154432
13681		42.904115	42.830492	6.152085
13682		42.906962	42.843549	6.150718
13683		42.908205	42.855417	6.151473
13684		42.906462	42.859981	6.149838
13685		42.899336	42.859142	6.145795
13686		42.892757	42.854840	6.139188
13687		42.889749	42.844003	6.126674
13688		42.897235	42.833414	6.110099
13689		42.911274	42.836577	6.104139
13690		42.928641	42.844925	6.104669
13691		42.944547	42.856237	6.109095
13692		42.955588	42.865698	6.110011
13693		42.961176	42.872748	6.110891
13694		42.956484	42.874615	6.108960
13695		42.946424	42.875571	6.109749
13696		42.929079	42.878768	6.112573
13697		42.911225	42.890754	6.118115
13698		42.893750	42.902287	6.122711
13699		42.880150	42.915934	6.126709
13700		42.869803	42.925603	6.129719
13701		42.857659	42.933343	6.129135
13702		42.849992	42.936061	6.127869
13703		42.847583	42.936243	6.128985
13704		42.841457	42.934571	6.125813
13705		42.839999	42.932378	6.125191
13706		42.842596	42.929625	6.124524
13707		42.853523	42.926701	6.123228
13708		42.870617	42.924653	6.123848
13709		42.890809	42.925816	6.128039
13710		42.906444	42.929467	6.133779
13711		42.919275	42.932791	6.139499
13712		42.920164	42.936189	6.143470
13713		42.920489	42.937707	6.150050
13714		42.912510	42.938369	6.148757
13715		42.901524	42.939805	6.147907
13716		42.889359	42.937565	6.143078
13717		42.881470	42.936065	6.139437
13718		42.880378	42.935125	6.139328
13719		42.879647	42.935484	6.141661
13720		42.883604	42.934995	6.145527
13721		42.891007	42.932950	6.148725
13722		42.899019	42.929996	6.148813
13723		42.909555	42.922226	6.148648
13724		42.915548	42.916895	6.147703
13725		42.920708	42.910976	6.148766
13726		42.918495	42.905243	6.148192
13727		42.910462	42.903091	6.148110
13728		42.899237	42.899496	6.147655
13729		42.889879	42.893886	6.144274
13730		42.881473	42.886695	6.136976
13731		42.880680	42.880731	6.132759
13732		42.883686	42.876279	6.132313
13733		42.888053	42.872489	6.134359
13734		42.888515	42.871086	6.139128
13735		42.882420	42.872398	6.145491
13736		42.870818	42.873018	6.153389
13737		42.858008	42.873712	6.163854
13738		42.841665	42.876418	6.168922
13739		42.827992	42.873814	6.171021
13740		42.818409	42.870414	6.171431
13741		42.813677	42.862288	6.167244
13742		42.819094	42.848815	6.162764
13743		42.825277	42.835842	6.158160
13744		42.834353	42.820257	6.160495
13745		42.836346	42.811038	6.166770
13746		42.836781	42.805379	6.177627
13747		42.829996	42.800534	6.192236
13748		42.815160	42.800707	6.205475
13749		42.796387	42.802336	6.216838
13750		42.772823	42.800389	6.223696
13751		42.746035	42.797842	6.226909
13752		42.716198	42.794527	6.226021
13753		42.693111	42.789944	6.226794
13754		42.679183	42.785010	6.230114
13755		42.674341	42.784433	6.239401
13756		42.673852	42.782462	6.245494
13757		42.680831	42.776563	6.255988
13758		42.689819	42.767518	6.265851
13759		42.696990	42.758580	6.275021
13760		42.700942	42.745716	6.284476
13761		42.695932	42.735365	6.290215
13762		42.688234	42.721937	6.296226
13763		42.670011	42.709014	6.294313
13764		42.652195	42.696221	6.296519
13765		42.636702	42.683723	6.302861
13766		42.625713	42.668802	6.307578
13767		42.619993	42.655890	6.310385
13768		42.612965	42.649747	6.316509
13769		42.612178	42.642049	6.326870
13770		42.605780	42.641146	6.333837
13771		42.598633	42.641361	6.344936
13772		42.584589	42.644530	6.357330
13773		42.564021	42.646184	6.368268
13774		42.539136	42.644244	6.376862
13775		42.510116	42.631521	6.380463
13776		42.486384	42.614495	6.383272
13777		42.465618	42.598296	6.398728
13778		42.444791	42.588584	6.412909
13779		42.427279	42.579226	6.429110
13780		42.412240	42.572643	6.440838
13781		42.400030	42.566955	6.447964
13782		42.393937	42.562076	6.457079
13783		42.390658	42.558196	6.470580
13784		42.384827	42.554588	6.488519
13785		42.374630	42.543140	6.512133
13786		42.360549	42.526880	6.534995
13787		42.346666	42.507409	6.556790
13788		42.338095	42.487039	6.574429
13789		42.333159	42.469298	6.593638
13790		42.326774	42.453927	6.612383
13791		42.320482	42.436421	6.626081
13792		42.303139	42.421541	6.632213
13793		42.284534	42.406541	6.641069
13794		42.260113	42.394124	6.644148
13795		42.234236	42.380278	6.648432
13796		42.213645	42.367424	6.661385
13797		42.198101	42.358661	6.683475
13798		42.179876	42.356857	6.709999
13799		42.154330	42.358911	6.732498
13800		42.120606	42.362518	6.749259
13801		42.078146	42.364143	6.758464
13802		42.028634	42.366475	6.760921
13803		41.988165	42.367765	6.769825
13804		41.961097	42.364955	6.778148
13805		41.939624	42.353477	6.786315
13806		41.918296	42.339011	6.792789
13807		41.896241	42.326611	6.800637
13808		41.870815	42.323056	6.812693
13809		41.845629	42.326383	6.828114
13810		41.825768	42.334163	6.848761
13811		41.805685	42.340582	6.867575
13812		41.789897	42.345820	6.884936
13813		41.770489	42.349383	6.897391
13814		41.748142	42.353017	6.913064
13815		41.721154	42.358199	6.922443
13816		41.693893	42.361116	6.932788
13817		41.662175	42.359898	6.936727
13818		41.643515	42.356108	6.947769
13819		41.627760	42.350427	6.954100
13820		41.618663	42.342066	6.959970
13821		41.612699	42.330466	6.961632
13822		41.601644	42.321274	6.961979
13823		41.591406	42.313498	6.957363
13824		41.580103	42.306545	6.951849
13825		41.576183	42.293636	6.938122
13826		41.576695	42.273301	6.924300
13827		41.579870	42.252259	6.912246
13828		41.589453	42.231408	6.907969
13829		41.590098	42.216061	6.902365
13830		41.586075	42.206074	6.897830
13831		41.580979	42.200442	6.890471
13832		41.570892	42.197132	6.880221
13833		41.565956	42.192173	6.869312
13834		41.565609	42.185630	6.855135
13835		41.574425	42.173235	6.841736
13836		41.590146	42.159124	6.828215
13837		41.607235	42.147661	6.820784
13838		41.624036	42.141131	6.818021
13839		41.634629	42.137798	6.812054
13840		41.641614	42.136238	6.807346
13841		41.641709	42.138108	6.797549
13842		41.642953	42.140867	6.791335
13843		41.641393	42.141634	6.783141
13844		41.639019	42.139233	6.775943
13845		41.636016	42.134941	6.770863
13846		41.632642	42.130175	6.770069
13847		41.624893	42.126778	6.772168
13848		41.619582	42.120520	6.777436
13849		41.611888	42.115236	6.776203
13850		41.603518	42.107294	6.770152
13851		41.590447	42.101201	6.761471
13852		41.583434	42.097565	6.756594
13853		41.583527	42.096689	6.755191
13854		41.592546	42.092303	6.751472
13855		41.606935	42.081370	6.741989
13856		41.624548	42.066470	6.731528
13857		41.643738	42.049090	6.722719
13858		41.657503	42.030123	6.718335
13859		41.664804	42.017330	6.711926
13860		41.671308	42.002189	6.704016
13861		41.673722	41.986026	6.693504
13862		41.674529	41.970490	6.686835
13863		41.677293	41.955545	6.686314
13864		41.678424	41.941133	6.689731
13865		41.674986	41.932021	6.694761
13866		41.664521	41.927271	6.700878
13867		41.644773	41.924998	6.708411
13868		41.617597	41.928947	6.716441
13869		41.590713	41.937614	6.722858
13870		41.566200	41.946229	6.723303
13871		41.550310	41.951695	6.722895
13872		41.546607	41.958609	6.724771
13873		41.555428	41.957950	6.727060
13874		41.566669	41.955562	6.729066
13875		41.580489	41.952664	6.734388
13876		41.590502	41.950137	6.739616
13877		41.597188	41.950015	6.742968
13878		41.599543	41.953162	6.744160
13879		41.605542	41.958644	6.745462
13880		41.610328	41.963224	6.743184
13881		41.615743	41.967789	6.744164
13882		41.618548	41.969986	6.743394
13883		41.621094	41.967170	6.742221
13884		41.619127	41.966939	6.742366
13885		41.617835	41.967279	6.741601
13886		41.618061	41.972827	6.738100
13887		41.627439	41.978622	6.732871
13888		41.642153	41.981516	6.727458
13889		41.669003	41.988636	6.726833
13890		41.697428	41.992582	6.721028
13891		41.725567	41.995916	6.719991
13892		41.746599	42.001148	6.720209
13893		41.755927	42.008819	6.718323
13894		41.759246	42.015009	6.717545
13895		41.755194	42.019608	6.712466
13896		41.754359	42.024804	6.711360
13897		41.755836	42.029960	6.712972
13898		41.759386	42.033647	6.716214
13899		41.762089	42.037831	6.717942
13900		41.765764	42.042478	6.719081
13901		41.773490	42.046245	6.718263
13902		41.786068	42.049961	6.715535
13903		41.804581	42.052647	6.711996
13904		41.826031	42.057125	6.709380
13905		41.847812	42.063887	6.705982
13906		41.867451	42.070333	6.706566
13907		41.879768	42.077930	6.711381
13908		41.885869	42.083845	6.716414
13909		41.884417	42.091671	6.720061
13910		41.879697	42.099198	6.721630
13911		41.872973	42.107871	6.720405
13912		41.868106	42.113630	6.719410
13913		41.863527	42.122668	6.714332
13914		41.860679	42.130846	6.711913
13915		41.862278	42.138549	6.713326
13916		41.864841	42.144040	6.712891
13917		41.871613	42.149252	6.716598
13918		41.877642	42.154741	6.718085
13919		41.881115	42.160498	6.716610
13920		41.881198	42.164327	6.710379
13921		41.884839	42.170752	6.705361
13922		41.886402	42.183419	6.703552
13923		41.891492	42.193065	6.701027
13924		41.895788	42.205827	6.696697
13925		41.902388	42.217720	6.690539
13926		41.905969	42.228916	6.680116
13927		41.907598	42.240255	6.670363
13928		41.905476	42.252030	6.660853
13929		41.906035	42.264094	6.650229
13930		41.908427	42.275106	6.643442
13931		41.917315	42.284380	6.641067
13932		41.929661	42.293697	6.640656
13933		41.944648	42.300904	6.639418
13934		41.958836	42.306746	6.633787
13935		41.973287	42.311154	6.628884
13936		41.987254	42.318090	6.620839
13937		41.999908	42.329782	6.619170
13938		42.012543	42.346388	6.621550
13939		42.023860	42.356496	6.619977
13940		42.036307	42.367641	6.621422
13941		42.053084	42.375741	6.626796
13942		42.071049	42.379941	6.629166
13943		42.086136	42.379723	6.632446
13944		42.099182	42.379886	6.635613
13945		42.108383	42.380518	6.630867
13946		42.111819	42.382793	6.623655
13947		42.116937	42.381488	6.619713
13948		42.122413	42.382431	6.622740
13949		42.128654	42.382098	6.631187
13950		42.131469	42.380497	6.639558
13951		42.129514	42.380901	6.644576
13952		42.122249	42.381473	6.647081
13953		42.111632	42.385164	6.645342
13954		42.100951	42.390707	6.637600
13955		42.091685	42.396880	6.632983
13956		42.090053	42.399816	6.629999
13957		42.090459	42.399364	6.624285
13958		42.096567	42.397761	6.622271
13959		42.105124	42.398455	6.623331
13960		42.112691	42.400662	6.619261
13961		42.121575	42.401778	6.616025
13962		42.127740	42.407219	6.608845
13963		42.138461	42.410088	6.600478
13964		42.148585	42.414922	6.592623
13965		42.160056	42.417545	6.586633
13966		42.170331	42.420992	6.578863
13967		42.180890	42.423190	6.574044
13968		42.186838	42.426870	6.561263
13969		42.193678	42.424765	6.552394
13970		42.198948	42.426090	6.548463
13971		42.199354	42.425636	6.542747
13972		42.198818	42.423216	6.536205
13973		42.199280	42.421786	6.524355
13974		42.207457	42.416637	6.510848
13975		42.222018	42.410017	6.495608
13976		42.239027	42.405307	6.478342
13977		42.264225	42.399688	6.464537
13978		42.288686	42.395851	6.450736
13979		42.309935	42.397157	6.444013
13980		42.327840	42.401182	6.444706
13981		42.336684	42.404166	6.444819
13982		42.334775	42.407498	6.441421
13983		42.326817	42.408033	6.433018
13984		42.318130	42.407021	6.418628
13985		42.313094	42.409473	6.403181
13986		42.317186	42.411829	6.389674
13987		42.326749	42.413757	6.377861
13988		42.345269	42.417510	6.372988
13989		42.363142	42.419427	6.369997
13990		42.377200	42.417343	6.364256
13991		42.389134	42.410175	6.357905
13992		42.391943	42.405994	6.348167
13993		42.393629	42.401770	6.342015
13994		42.393472	42.402418	6.339810
13995		42.394529	42.406397	6.340361
13996		42.394660	42.413764	6.340001
13997		42.397036	42.423007	6.338238
13998		42.399502	42.434854	6.336173
13999		42.406881	42.445534	6.335244
14000		42.409067	42.447908	6.330460
14001		42.410351	42.450655	6.324129
14002		42.412585	42.451017	6.316293
14003		42.422873	42.449986	6.315229
14004		42.432356	42.452797	6.316966
14005		42.444051	42.456864	6.321759
14006		42.457348	42.459476	6.325712
14007		42.471671	42.461346	6.329995
14008		42.479157	42.461840	6.330612
14009		42.480491	42.456302	6.331534
14010		42.475170	42.451634	6.328369
14011		42.465448	42.445759	6.321175
14012		42.457337	42.443001	6.315500
14013		42.456666	42.442368	6.311699
14014		42.460844	42.443522	6.309509
14015		42.468003	42.450008	6.306194
14016		42.481694	42.454747	6.307889
14017		42.493514	42.461351	6.312492
14018		42.500429	42.467294	6.312128
14019		42.503845	42.467679	6.310329
14020		42.504677	42.461438	6.304187
14021		42.505049	42.452856	6.297551
14022		42.509730	42.442315	6.291838
14023		42.515801	42.436814	6.291755
14024		42.522847	42.433393	6.292910
14025		42.531094	42.434553	6.295485
14026		42.537906	42.437085	6.291085
14027		42.550310	42.438273	6.289535
14028		42.566561	42.437372	6.284384
14029		42.583909	42.435558	6.280523
14030		42.601269	42.430136	6.278820
14031		42.617762	42.421421	6.277788
14032		42.632969	42.416097	6.281463
14033		42.645912	42.409159	6.282106
14034		42.656882	42.402241	6.281614
14035		42.667131	42.393067	6.279617
14036		42.670276	42.387484	6.271306
14037		42.672887	42.383674	6.263982
14038		42.674171	42.379964	6.258942
14039		42.679456	42.377485	6.257036
14040		42.685156	42.378739	6.255160
14041		42.693401	42.379890	6.257730
14042		42.703484	42.380378	6.263185
14043		42.716519	42.385086	6.270690
14044		42.728669	42.390615	6.276049
14045		42.739938	42.393503	6.279758
14046		42.746652	42.397204	6.280740
14047		42.750668	42.398489	6.279280
14048		42.749540	42.399562	6.275133
14049		42.752419	42.397149	6.269648
14050		42.752306	42.394103	6.260046
14051		42.758716	42.389002	6.255663
14052		42.766979	42.382961	6.252417
14053		42.781113	42.377821	6.253730
14054		42.794820	42.375849	6.254653
14055		42.813401	42.378441	6.260188
14056		42.829127	42.382489	6.265781
14057		42.843117	42.388498	6.269355
14058		42.856947	42.389711	6.273456
14059		42.862381	42.390672	6.268582
14060		42.868416	42.387502	6.263822
14061		42.879349	42.384551	6.262532
14062		42.889570	42.382668	6.263849
14063		42.898267	42.381264	6.269728
14064		42.906722	42.383929	6.273551
14065		42.911532	42.388494	6.280404
14066		42.913814	42.390054	6.277773
14067		42.914623	42.388942	6.278703
14068		42.911759	42.385495	6.277205
14069		42.905614	42.381401	6.274236
14070		42.902025	42.377130	6.271271
14071		42.902128	42.373473	6.269264
14072		42.905521	42.370330	6.269164
14073		42.908919	42.369804	6.270141
14074		42.919912	42.368523	6.271315
14075		42.931869	42.371313	6.269248
14076		42.944558	42.374711	6.266970
14077		42.953130	42.379044	6.265836
14078		42.958541	42.386428	6.264411
14079		42.959373	42.399915	6.264661
14080		42.956603	42.410042	6.266228
14081		42.947067	42.421191	6.266278
14082		42.934673	42.428391	6.268494
14083		42.913199	42.428666	6.265423
14084		42.891893	42.425285	6.256048
14085		42.878647	42.419357	6.247144
14086		42.870186	42.413528	6.237491
14087		42.875977	42.406617	6.235543
14088		42.889389	42.410881	6.241866
14089		42.906284	42.421482	6.256070
14090		42.925870	42.434335	6.272970
14091		42.940460	42.440326	6.279690
14092		42.951235	42.441400	6.276956
14093		42.958397	42.440641	6.269951
14094		42.963397	42.437671	6.263402
14095		42.965654	42.433451	6.260347
14096		42.962332	42.427624	6.261536
14097		42.955009	42.424352	6.266592
14098		42.946523	42.424298	6.275035
14099		42.936957	42.426261	6.285053
14100		42.925398	42.428810	6.294837
14101		42.913904	42.425516	6.304008
14102		42.903992	42.420825	6.312051
14103		42.900774	42.414857	6.321330
14104		42.896837	42.411015	6.322518
14105		42.894945	42.413086	6.330093
14106		42.889908	42.420926	6.331257
14107		42.887627	42.423654	6.332183
14108		42.882525	42.427083	6.330233
14109		42.876453	42.427418	6.330422
14110		42.872332	42.424979	6.331165
14111		42.870253	42.420986	6.332979
14112		42.874813	42.417868	6.339162
14113		42.884587	42.412034	6.348124
14114		42.896679	42.405274	6.353239
14115		42.908601	42.402562	6.358947
14116		42.914382	42.399338	6.362358
14117		42.913333	42.401088	6.363401
14118		42.909560	42.406992	6.368041
14119		42.903541	42.414538	6.371970
14120		42.895896	42.421938	6.375184
14121		42.888264	42.427431	6.374553
14122		42.880071	42.429371	6.372993
14123		42.878666	42.425303	6.369022
14124		42.884547	42.418261	6.365855
14125		42.893112	42.408905	6.362632
14126		42.900679	42.399227	6.360085
14127		42.905695	42.391658	6.358538
14128		42.911200	42.387830	6.357481
14129		42.912529	42.383197	6.355587
14130		42.915253	42.385337	6.354126
14131		42.920018	42.386370	6.355042
14132		42.923502	42.390374	6.359156
14133		42.929878	42.393457	6.364629
14134		42.930298	42.393876	6.363473
14135		42.926818	42.394797	6.363713
14136		42.921024	42.391030	6.364298
14137		42.914490	42.383915	6.356878
14138		42.912578	42.380090	6.349826
14139		42.913307	42.374554	6.347589
14140		42.912748	42.373870	6.352332
14141		42.910907	42.374056	6.356556
14142		42.906739	42.374315	6.358075
14143		42.900423	42.374164	6.353645
14144		42.898233	42.372988	6.345729
14145		42.897702	42.374906	6.341742
14146		42.903776	42.383184	6.343696
14147		42.917655	42.395715	6.354562
14148		42.934248	42.401515	6.360867
14149		42.950895	42.405287	6.363958
14150		42.967115	42.410964	6.366315
14151		42.979069	42.416524	6.364848
14152		42.995713	42.418732	6.366135
14153		43.011578	42.424621	6.370214
14154		43.026310	42.423246	6.372564
14155		43.033701	42.422068	6.372964
14156		43.037398	42.417425	6.374528
14157		43.034350	42.415808	6.378058
14158		43.027635	42.416269	6.384522
14159		43.017815	42.417745	6.389907
14160		43.003347	42.421952	6.395510
14161		42.983726	42.428478	6.399397
14162		42.960711	42.440319	6.401905
14163		42.941721	42.452330	6.401155
14164		42.928110	42.466143	6.397279
14165		42.924494	42.479271	6.388880
14166		42.931887	42.490150	6.379693
14167		42.941003	42.498322	6.371356
14168		42.946177	42.503309	6.364212
14169		42.950462	42.512440	6.362986
14170		42.953728	42.517405	6.364906
14171		42.953510	42.527006	6.369288
14172		42.955618	42.532126	6.374349
14173		42.958700	42.535765	6.374638
14174		42.965625	42.536369	6.374331
14175		42.971820	42.537075	6.371851
14176		42.973046	42.542808	6.365212
14177		42.976203	42.545471	6.359374
14178		42.980612	42.549949	6.354812
14179		42.987598	42.552213	6.349151
14180		42.997864	42.554777	6.345873
14181		43.012601	42.556973	6.345945
14182		43.024128	42.558942	6.344575
14183		43.034899	42.562681	6.342447
14184		43.045680	42.566589	6.340210
14185		43.053064	42.571872	6.339004
14186		43.053002	42.577496	6.335368
14187		43.052838	42.585212	6.336406
14188		43.048801	42.593379	6.337069
14189		43.046499	42.598881	6.338568
14190		43.044614	42.603602	6.337667
14191		43.043706	42.607881	6.338532
14192		43.035414	42.612513	6.337395
14193		43.027212	42.615224	6.333042
14194		43.017281	42.621362	6.332527
14195		43.010380	42.630285	6.332044
14196		43.004844	42.638084	6.330728
14197		43.003634	42.643751	6.330317
14198		43.005966	42.647768	6.328005
14199		43.011841	42.648957	6.327037
14200		43.020168	42.652461	6.326689
14201		43.023235	42.658871	6.327561
14202		43.025480	42.666550	6.329510
14203		43.025275	42.676135	6.333903
14204		43.022783	42.682818	6.333212
14205		43.024966	42.686937	6.331887
14206		43.026539	42.686657	6.325054
14207		43.031296	42.685969	6.314482
14208		43.039347	42.687718	6.309225
14209		43.044991	42.689317	6.300854
14210		43.052732	42.693223	6.301525
14211		43.052030	42.695376	6.298283
14212		43.049712	42.701935	6.299199
14213		43.044665	42.707997	6.298601
14214		43.036267	42.708560	6.295936
14215		43.025327	42.705382	6.291099
14216		43.019983	42.700218	6.274697
14217		43.024020	42.688826	6.251295
14218		43.045962	42.679483	6.231174
14219		43.078360	42.680313	6.219310
14220		43.116976	42.689729	6.218153
14221		43.156183	42.703781	6.224253
14222		43.187425	42.715591	6.233770
14223		43.206377	42.725027	6.242472
14224		43.216096	42.728579	6.249838
14225		43.212391	42.731627	6.254162
14226		43.199104	42.735683	6.257073
14227		43.191176	42.733339	6.256167
14228		43.185952	42.724313	6.250669
14229		43.183788	42.714055	6.245908
14230		43.176113	42.706853	6.240661
14231		43.164916	42.711363	6.241079
14232		43.150348	42.721133	6.247688
14233		43.138210	42.736167	6.259730
14234		43.127244	42.753980	6.269182
14235		43.125747	42.765511	6.279595
14236		43.126614	42.773320	6.285755
14237		43.129688	42.776045	6.288839
14238		43.135044	42.774921	6.287426
14239		43.140364	42.773327	6.282763
14240		43.142878	42.767685	6.281144
14241		43.136170	42.770808	6.278740
14242		43.127629	42.778742	6.280315
14243		43.118234	42.788712	6.282355
14244		43.110637	42.801459	6.285275
14245		43.109980	42.812660	6.289153
14246		43.111655	42.819216	6.291565
14247		43.115357	42.820063	6.294423
14248		43.114784	42.816558	6.298427
14249		43.113884	42.810709	6.303108
14250		43.110773	42.806309	6.305829
14251		43.105139	42.798578	6.308111
14252		43.097665	42.791086	6.309736
14253		43.093264	42.782377	6.312142
14254		43.090916	42.773419	6.314682
14255		43.090519	42.764062	6.316530
14256		43.088530	42.753804	6.320506
14257		43.083746	42.739301	6.317878
14258		43.077987	42.727149	6.317119
14259		43.070039	42.723899	6.318993
14260		43.063470	42.723034	6.325535
14261		43.054812	42.725408	6.334348
14262		43.045442	42.731759	6.345991
14263		43.030297	42.735829	6.357899
14264		43.014438	42.741760	6.369572
14265		42.999339	42.743951	6.378125
14266		42.986208	42.740603	6.386717
14267		42.971026	42.735614	6.391515
14268		42.959302	42.727047	6.400048
14269		42.945048	42.718790	6.405898
14270		42.931485	42.708487	6.410055
14271		42.919553	42.695742	6.416329
14272		42.907984	42.681723	6.414444
14273		42.903478	42.671370	6.414272
14274		42.909707	42.662065	6.415720
14275		42.918335	42.652555	6.420681
14276		42.931098	42.645718	6.429646
14277		42.942399	42.640285	6.440621
14278		42.951377	42.635644	6.453777
14279		42.957880	42.629290	6.468490
14280		42.953741	42.627257	6.482118
14281		42.940495	42.622906	6.492776
14282		42.924168	42.616996	6.501788
14283		42.905302	42.611245	6.508444
14284		42.888717	42.599981	6.509016
14285		42.877617	42.583229	6.510971
14286		42.870728	42.566434	6.509443
14287		42.870532	42.551265	6.509407
14288		42.874787	42.542853	6.516482
14289		42.884761	42.539356	6.533442
14290		42.897907	42.537493	6.553067
14291		42.908439	42.536758	6.573723
14292		42.909810	42.534582	6.588516
14293		42.901050	42.528846	6.596361
14294		42.882572	42.518298	6.599523
14295		42.861264	42.508031	6.607581
14296		42.832470	42.503008	6.619046
14297		42.803540	42.498892	6.636051
14298		42.775024	42.495200	6.649385
14299		42.747029	42.489802	6.653752
14300		42.728085	42.483375	6.654906
14301		42.718798	42.478537	6.656878
14302		42.724927	42.470814	6.659438
14303		42.741322	42.463035	6.664563
14304		42.760250	42.448582	6.673829
14305		42.765687	42.437383	6.686504
14306		42.753719	42.421918	6.701632
14307		42.726261	42.411909	6.714109
14308		42.696365	42.403830	6.726694
14309		42.673478	42.399628	6.740100
14310		42.653899	42.399476	6.753524
14311		42.639351	42.402561	6.771369
14312		42.624882	42.409405	6.787469
14313		42.607070	42.407506	6.798974
14314		42.588354	42.396912	6.809793
14315		42.559833	42.378546	6.814356
14316		42.519626	42.359968	6.817036
14317		42.477488	42.348864	6.823287
14318		42.443442	42.346489	6.833248
14319		42.424606	42.350654	6.853181
14320		42.413028	42.363758	6.873854
14321		42.407517	42.382192	6.900199
14322		42.394498	42.398543	6.916988
14323		42.373032	42.408769	6.927083
14324		42.346172	42.419117	6.934242
14325		42.321705	42.422048	6.942052
14326		42.299767	42.415900	6.947700
14327		42.272955	42.404108	6.951885
14328		42.243871	42.389226	6.958459
14329		42.210594	42.378161	6.968556
14330		42.175521	42.372647	6.980104
14331		42.146901	42.371801	6.994255
14332		42.122963	42.374063	7.009648
14333		42.103635	42.379085	7.023701
14334		42.087268	42.384257	7.036714
14335		42.073035	42.389750	7.045503
14336		42.055044	42.388276	7.049453
14337		42.039535	42.388477	7.051632
14338		42.023752	42.379056	7.049862
14339		42.003474	42.370167	7.045989
14340		41.979684	42.361202	7.040344
14341		41.954727	42.350393	7.034135
14342		41.927294	42.343533	7.030914
14343		41.902785	42.341983	7.035616
14344		41.880129	42.340986	7.046095
14345		41.857815	42.341452	7.058464
14346		41.835153	42.342498	7.072024
14347		41.808601	42.345873	7.080910
14348		41.780073	42.349681	7.089946
14349		41.748057	42.353238	7.097453
14350		41.710971	42.353816	7.101819
14351		41.675573	42.353520	7.100994
14352		41.646704	42.349536	7.092106
14353		41.629868	42.347374	7.080119
14354		41.627335	42.346136	7.070778
14355		41.632000	42.349251	7.066898
14356		41.641495	42.350532	7.069070
14357		41.649389	42.354033	7.076509
14358		41.654332	42.356642	7.087888
14359		41.651913	42.358648	7.092357
14360		41.645623	42.356675	7.093806
14361		41.634783	42.356177	7.089647
14362		41.623632	42.356255	7.087025
14363		41.611594	42.353945	7.082196
14364		41.601348	42.353582	7.081096
14365		41.594434	42.350647	7.081930
14366		41.590607	42.346639	7.081420
14367		41.587528	42.340563	7.081882
14368		41.588552	42.331962	7.086555
14369		41.581339	42.330420	7.086104
14370		41.577977	42.332931	7.088810
14371		41.572908	42.334539	7.085082
14372		41.573240	42.331706	7.079593
14373		41.571099	42.321622	7.066873
14374		41.573993	42.306554	7.056792
14375		41.575511	42.288960	7.049476
14376		41.569651	42.276323	7.044158
14377		41.569760	42.268062	7.047243
14378		41.569171	42.266272	7.054820
14379		41.564816	42.266718	7.056249
14380		41.559046	42.267456	7.051535
14381		41.556510	42.266179	7.041952
14382		41.562876	42.263155	7.033653
14383		41.572928	42.261683	7.028027
14384		41.584953	42.261870	7.025717
14385		41.591858	42.252418	7.021410
14386		41.592390	42.244525	7.021108
14387		41.590210	42.241652	7.020955
14388		41.582746	42.241331	7.017673
14389		41.581922	42.243721	7.015200
14390		41.587926	42.247583	7.014063
14391		41.598821	42.247485	7.013383
14392		41.610586	42.248184	7.012972
14393		41.624094	42.245909	7.011794
14394		41.632134	42.243762	7.009564
14395		41.636206	42.245971	7.005352
14396		41.640751	42.245615	6.995177
14397		41.648524	42.245832	6.988557
14398		41.656017	42.250905	6.986618
14399		41.665985	42.263113	6.991857
14400		41.674095	42.278487	6.996525
14401		41.678712	42.287153	6.993740
14402		41.683985	42.294887	6.988109
14403		41.692171	42.293668	6.973889
14404		41.699671	42.288077	6.953320
14405		41.717440	42.284902	6.941940
14406		41.734922	42.282267	6.932411
14407		41.751113	42.279625	6.925183
14408		41.760886	42.282093	6.917304
14409		41.763795	42.287085	6.907411
14410		41.765184	42.290866	6.898329
14411		41.765313	42.298275	6.889680
14412		41.771615	42.305311	6.884617
14413		41.780942	42.313111	6.883632
14414		41.786955	42.322452	6.884172
14415		41.792636	42.330379	6.882268
14416		41.800989	42.335242	6.883425
14417		41.808474	42.336835	6.875531
14418		41.821043	42.339651	6.867212
14419		41.839397	42.345493	6.865968
14420		41.859519	42.351608	6.866661
14421		41.882593	42.356582	6.867222
14422		41.903500	42.359376	6.868056
14423		41.917772	42.360509	6.867041
14424		41.925871	42.364535	6.869072
14425		41.930462	42.364903	6.873544
14426		41.928027	42.366127	6.871123
14427		41.924142	42.365866	6.870287
14428		41.918125	42.369965	6.868262
14429		41.910130	42.375153	6.863735
14430		41.903803	42.380681	6.860231
14431		41.901529	42.386142	6.861707
14432		41.901457	42.387118	6.863030
14433		41.904253	42.388462	6.864261
14434		41.912420	42.391663	6.859668
14435		41.923948	42.396123	6.857127
14436		41.934109	42.397254	6.850844
14437		41.942173	42.398830	6.846076
14438		41.944731	42.399520	6.840826
14439		41.941151	42.405235	6.836814
14440		41.938108	42.411004	6.835714
14441		41.929968	42.413657	6.831377
14442		41.923174	42.421488	6.832201
14443		41.915878	42.425517	6.832815
14444		41.907871	42.429846	6.831278
14445		41.903823	42.433506	6.828956
14446		41.898621	42.439761	6.829027
14447		41.891302	42.450241	6.827958
14448		41.885427	42.458534	6.827389
14449		41.880640	42.462439	6.822693
14450		41.877174	42.463553	6.815166
14451		41.875933	42.465700	6.808819
14452		41.877488	42.467091	6.803260
14453		41.882359	42.467169	6.798103
14454		41.889365	42.465759	6.795042
14455		41.896390	42.461609	6.791086
14456		41.898651	42.457406	6.788226
14457		41.896071	42.455217	6.781401
14458		41.893295	42.457794	6.777446
14459		41.886430	42.457606	6.769899
14460		41.878213	42.458567	6.761001
14461		41.872520	42.459276	6.756910
14462		41.866975	42.459744	6.752148
14463		41.859946	42.459795	6.745349
14464		41.853412	42.456340	6.735802
14465		41.851435	42.451372	6.731551
14466		41.851481	42.450606	6.729689
14467		41.852833	42.445989	6.727867
14468		41.848845	42.443990	6.722370
14469		41.844440	42.441861	6.715083
14470		41.836669	42.440424	6.701895
14471		41.829597	42.436976	6.689194
14472		41.817276	42.435140	6.676806
14473		41.806794	42.428621	6.670023
14474		41.796281	42.423171	6.659748
14475		41.786430	42.418456	6.650525
14476		41.772475	42.419282	6.637653
14477		41.754643	42.423137	6.625076
14478		41.738039	42.431647	6.614231
14479		41.723723	42.436511	6.600546
14480		41.712859	42.436938	6.583598
14481		41.709180	42.435632	6.567770
14482		41.708442	42.432099	6.551509
14483		41.710621	42.427344	6.535053
14484		41.713653	42.425765	6.517949
14485		41.715924	42.426310	6.501823
14486		41.712993	42.425537	6.485992
14487		41.704209	42.421146	6.466742
14488		41.695769	42.408808	6.450894
14489		41.693101	42.397784	6.437877
14490		41.695339	42.383827	6.422333
14491		41.704390	42.369580	6.405821
14492		41.720918	42.361873	6.384518
14493		41.770625	42.350573	6.346600
14494		41.872967	42.338675	6.301480
14495		42.019222	42.334779	6.269555
14496		42.192511	42.337412	6.266505
14497		42.360873	42.349795	6.286740
14498		42.497504	42.365258	6.319066
14499		42.599739	42.378104	6.354026
14500		42.659189	42.386958	6.380935
14501		42.684731	42.390639	6.396057
14502		42.685145	42.389063	6.391336
14503		42.666204	42.383822	6.373615
14504		42.629839	42.380680	6.346813
14505		42.583742	42.382503	6.318942
14506		42.533839	42.389140	6.293795
14507		42.490917	42.391336	6.277213
14508		42.457625	42.392743	6.269979
14509		42.441265	42.389585	6.271907
14510		42.440561	42.384382	6.280848
14511		42.447253	42.379627	6.289268
14512		42.456390	42.373031	6.297783
14513		42.456243	42.367995	6.293973
14514		42.452694	42.363532	6.284334
14515		42.442043	42.354686	6.269582
14516		42.428020	42.349098	6.257799
14517		42.409597	42.342003	6.248768
14518		42.385661	42.335795	6.240915
14519		42.360873	42.332902	6.234769
14520		42.337765	42.326692	6.231945
14521		42.317969	42.324312	6.229442
14522		42.304299	42.320798	6.225158
14523		42.300335	42.316142	6.221176
14524		42.304817	42.311310	6.215078
14525		42.315239	42.304702	6.213000
14526		42.323813	42.298247	6.210376
14527		42.329215	42.293891	6.205211
14528		42.328794	42.288237	6.196829
14529		42.332070	42.285335	6.189919
14530		42.335813	42.285303	6.186365
14531		42.345185	42.286607	6.187082
14532		42.354578	42.289910	6.191797
14533		42.360298	42.294870	6.197473
14534		42.357941	42.299567	6.201691
14535		42.344625	42.301802	6.202559
14536		42.329729	42.304965	6.199442
14537		42.310062	42.305270	6.188631
14538		42.290336	42.305622	6.177512
14539		42.276461	42.307995	6.167158
14540		42.275296	42.309134	6.162201
14541		42.280629	42.313846	6.164022
14542		42.289226	42.320853	6.171852
14543		42.298826	42.326171	6.183061
14544		42.304425	42.330298	6.190985
14545		42.308653	42.331168	6.196929
14546		42.307215	42.333683	6.201236
14547		42.304160	42.335730	6.202539
14548		42.303008	42.338918	6.201171
14549		42.300502	42.341125	6.197470
14550		42.299668	42.343759	6.194615
14551		42.301043	42.346321	6.196448
14552		42.308745	42.345690	6.202184
14553		42.314318	42.337266	6.206614
14554		42.319351	42.325326	6.210164
14555		42.317078	42.314403	6.209064
14556		42.315318	42.310070	6.209201
14557		42.311967	42.313501	6.209226
14558		42.311684	42.322809	6.210079
14559		42.317889	42.333476	6.211854
14560		42.326503	42.345387	6.205748
14561		42.337639	42.352320	6.199932
14562		42.351210	42.356517	6.197185
14563		42.360798	42.354798	6.196621
14564		42.363149	42.351385	6.199158
14565		42.359837	42.351887	6.206743
14566		42.355132	42.352266	6.212583
14567		42.355224	42.351235	6.219277
14568		42.354922	42.353920	6.219219
14569		42.357476	42.351103	6.218060
14570		42.363533	42.348342	6.216339
14571		42.371832	42.343187	6.212522
14572		42.382564	42.337612	6.209545
14573		42.391802	42.332867	6.204577
14574		42.401752	42.333406	6.203803
14575		42.412346	42.340170	6.202998
14576		42.428447	42.347499	6.208782
14577		42.437858	42.355971	6.213196
14578		42.443590	42.364784	6.216328
14579		42.441889	42.364878	6.211670
14580		42.441117	42.361974	6.199981
14581		42.444767	42.355811	6.191030
14582		42.450358	42.354118	6.185959
14583		42.462597	42.353713	6.190805
14584		42.471530	42.355049	6.197033
14585		42.478453	42.358128	6.205621
14586		42.485491	42.362422	6.211378
14587		42.492031	42.365249	6.216115
14588		42.500357	42.366653	6.218599
14589		42.511012	42.364194	6.218911
14590		42.523743	42.362523	6.216081
14591		42.537050	42.361538	6.213694
14592		42.548688	42.361279	6.214901
14593		42.557834	42.364683	6.219708
14594		42.564718	42.368696	6.224970
14595		42.567227	42.374928	6.230818
14596		42.568018	42.379507	6.233055
14597		42.569476	42.380188	6.231572
14598		42.573832	42.381186	6.227987
14599		42.582072	42.381563	6.225280
14600		42.594197	42.381655	6.223111
14601		42.613925	42.383617	6.221553
14602		42.632782	42.383568	6.217318
14603		42.650679	42.385601	6.215291
14604		42.668960	42.385221	6.216287
14605		42.680392	42.383402	6.216198
14606		42.688416	42.377995	6.217310
14607		42.695941	42.372170	6.213883
14608		42.704289	42.366043	6.211324
14609		42.713649	42.360139	6.208366
14610		42.724335	42.358637	6.213537
14611		42.728418	42.363401	6.218028
14612		42.731420	42.370719	6.223093
14613		42.733305	42.378820	6.229168
14614		42.731258	42.385863	6.232202
14615		42.728488	42.392973	6.233137
14616		42.725206	42.391425	6.235195
14617		42.718866	42.387607	6.232936
14618		42.715470	42.380547	6.233633
14619		42.711866	42.376325	6.225359
14620		42.710599	42.372922	6.217386
14621		42.717444	42.374511	6.215300
14622		42.727899	42.382370	6.220078
14623		42.737971	42.395211	6.230785
14624		42.748973	42.405994	6.241584
14625		42.753211	42.413279	6.245901
14626		42.754852	42.417654	6.251240
14627		42.754134	42.412465	6.252410
14628		42.755471	42.398692	6.251584
14629		42.757191	42.381611	6.248734
14630		42.761690	42.362277	6.244233
14631		42.769533	42.346016	6.235040
14632		42.783639	42.335013	6.231135
14633		42.801256	42.331968	6.229475
14634		42.816887	42.339316	6.232282
14635		42.834548	42.349715	6.240808
14636		42.847584	42.358786	6.250609
14637		42.851737	42.361505	6.259882
14638		42.847800	42.362284	6.263500
14639		42.846376	42.354569	6.261734
14640		42.844799	42.346478	6.255758
14641		42.844343	42.336400	6.252282
14642		42.843381	42.332509	6.250283
14643		42.846816	42.329198	6.250719
14644		42.851735	42.329203	6.253675
14645		42.855071	42.330537	6.258004
14646		42.854648	42.335001	6.261155
14647		42.851866	42.344886	6.262667
14648		42.846992	42.350684	6.261475
14649		42.839513	42.358852	6.252504
14650		42.835223	42.367516	6.244727
14651		42.830561	42.376743	6.240422
14652		42.827473	42.388138	6.240440
14653		42.828074	42.399243	6.241623
14654		42.828310	42.405503	6.242352
14655		42.827893	42.411800	6.241531
14656		42.835053	42.414836	6.241647
14657		42.840710	42.421055	6.237251
14658		42.854492	42.428446	6.239342
14659		42.871141	42.430520	6.239985
14660		42.887527	42.434045	6.239615
14661		42.901978	42.433182	6.235366
14662		42.913891	42.431981	6.231229
14663		42.925220	42.431278	6.229139
14664		42.933184	42.431995	6.226187
14665		42.940615	42.430801	6.226652
14666		42.944559	42.432998	6.231643
14667		42.945118	42.434001	6.236647
14668		42.948411	42.440220	6.244776
14669		42.953826	42.448385	6.252570
14670		42.960257	42.456700	6.257948
14671		42.970271	42.461607	6.259639
14672		42.977539	42.465431	6.257657
14673		42.988989	42.463581	6.257585
14674		43.001305	42.465032	6.256384
14675		43.012161	42.468550	6.262454
14676		43.018771	42.475886	6.269895
14677		43.026830	42.481843	6.277208
14678		43.031725	42.486113	6.282721
14679		43.036164	42.493131	6.286326
14680		43.036477	42.499322	6.287679
14681		43.044767	42.505927	6.291495
14682		43.053709	42.505279	6.293847
14683		43.066972	42.496910	6.295862
14684		43.082604	42.490200	6.303062
14685		43.099294	42.486536	6.310682
14686		43.115256	42.484874	6.317638
14687		43.131577	42.489988	6.328485
14688		43.141925	42.497995	6.334104
14689		43.148105	42.506060	6.336189
14690		43.151640	42.511981	6.336347
14691		43.157484	42.520531	6.339927
14692		43.163776	42.524812	6.343257
14693		43.170812	42.525956	6.348559
14694		43.175916	42.526333	6.356027
14695		43.176314	42.527570	6.361781
14696		43.177452	42.528781	6.369714
14697		43.183261	42.530901	6.374893
14698		43.189106	42.535036	6.373655
14699		43.201170	42.536821	6.374528
14700		43.215363	42.537261	6.377162
14701		43.229269	42.538957	6.378515
14702		43.244154	42.539848	6.380604
14703		43.251695	42.543018	6.384256
14704		43.258738	42.543364	6.392780
14705		43.259916	42.548011	6.398729
14706		43.261662	42.550904	6.404042
14707		43.271330	42.549835	6.408851
14708		43.281036	42.548748	6.414311
14709		43.291595	42.547182	6.420736
14710		43.302896	42.546401	6.426369
14711		43.309495	42.546396	6.430575
14712		43.313141	42.546340	6.436504
14713		43.311313	42.550189	6.438513
14714		43.310891	42.554685	6.441302
14715		43.314143	42.551608	6.442470
14716		43.321899	42.550613	6.446581
14717		43.331676	42.548393	6.453396
14718		43.339643	42.548936	6.458349
14719		43.343172	42.547234	6.461364
14720		43.346600	42.549343	6.463575
14721		43.350021	42.548784	6.464584
14722		43.356873	42.549423	6.465863
14723		43.362306	42.551293	6.467195
14724		43.367468	42.553960	6.469990
14725		43.373626	42.558339	6.474277
14726		43.384714	42.558883	6.479276
14727		43.395500	42.555200	6.481610
14728		43.400582	42.547904	6.480485
14729		43.403659	42.542304	6.481803
14730		43.402730	42.543912	6.481642
14731		43.403188	42.543279	6.484053
14732		43.400401	42.546864	6.487036
14733		43.395673	42.548779	6.487109
14734		43.394158	42.549407	6.487060
14735		43.391777	42.550503	6.485372
14736		43.391480	42.559375	6.483756
14737		43.394977	42.570760	6.484381
14738		43.401828	42.583481	6.484200
14739		43.408734	42.593307	6.483938
14740		43.412359	42.601711	6.483150
14741		43.413613	42.607246	6.486360
14742		43.409789	42.613338	6.492664
14743		43.404448	42.619697	6.501666
14744		43.395200	42.622822	6.510273
14745		43.380367	42.631016	6.515608
14746		43.361286	42.635934	6.519237
14747		43.342982	42.639443	6.518919
14748		43.329316	42.637779	6.517256
14749		43.322344	42.634027	6.511800
14750		43.324453	42.628338	6.505901
14751		43.335749	42.623932	6.506011
14752		43.346335	42.621751	6.507619
14753		43.361658	42.622013	6.516486
14754		43.375379	42.625740	6.530079
14755		43.387933	42.636530	6.550083
14756		43.396955	42.644319	6.565758
14757		43.395472	42.647487	6.574387
14758		43.382103	42.647254	6.574582
14759		43.361824	42.643726	6.569991
14760		43.335798	42.637406	6.558655
14761		43.312061	42.634522	6.557712
14762		43.288219	42.630886	6.558976
14763		43.262091	42.630665	6.563142
14764		43.242475	42.633727	6.570345
14765		43.233061	42.637261	6.573931
14766		43.233088	42.638304	6.576020
14767		43.239590	42.639434	6.578236
14768		43.242464	42.637991	6.579692
14769		43.249172	42.631316	6.584741
14770		43.243903	42.621169	6.591129
14771		43.230091	42.606347	6.600716
14772		43.208036	42.590761	6.605490
14773		43.187871	42.572265	6.599993
14774		43.179695	42.558562	6.592282
14775		43.187410	42.553196	6.593439
14776		43.204699	42.548330	6.605948
14777		43.219486	42.546373	6.624554
14778		43.224992	42.548670	6.647727
14779		43.218672	42.545941	6.672297
14780		43.199097	42.542596	6.690838
14781		43.167339	42.537861	6.706612
14782		43.132804	42.531374	6.721164
14783		43.095824	42.525694	6.728672
14784		43.064620	42.518635	6.730551
14785		43.040869	42.509280	6.731244
14786		43.015408	42.501822	6.726241
14787		42.989007	42.499464	6.723265
14788		42.963948	42.498476	6.728176
14789		42.942565	42.501899	6.738146
14790		42.922021	42.504964	6.749220
14791		42.906774	42.509014	6.760981
14792		42.893985	42.507524	6.765468
14793		42.890996	42.499437	6.761691
14794		42.893318	42.494356	6.752352
14795		42.902769	42.490257	6.743886
14796		42.916120	42.487996	6.743245
14797		42.926394	42.485059	6.747833
14798		42.930898	42.483340	6.756289
14799		42.921046	42.480001	6.765726
14800		42.902359	42.471843	6.775457
14801		42.879744	42.462430	6.782399
14802		42.852830	42.450460	6.784346
14803		42.830228	42.443797	6.791880
14804		42.814111	42.440119	6.800562
14805		42.802767	42.436371	6.808041
14806		42.793955	42.433139	6.815343
14807		42.785891	42.428794	6.828024
14808		42.773953	42.423193	6.836180
14809		42.761368	42.409170	6.849322
14810		42.737498	42.396321	6.861346
14811		42.705784	42.382471	6.870138
14812		42.672754	42.366983	6.877258
14813		42.644285	42.351817	6.885927
14814		42.618416	42.341620	6.896990
14815		42.597450	42.339479	6.917796
14816		42.572667	42.344000	6.944740
14817		42.540539	42.356175	6.974423
14818		42.498874	42.369222	7.003048
14819		42.450766	42.373090	7.024509
14820		42.403159	42.369729	7.035792
14821		42.360580	42.354414	7.038490
14822		42.333782	42.332193	7.045401
14823		42.318880	42.307150	7.052777
14824		42.311473	42.290423	7.068594
14825		42.307926	42.284246	7.094737
14826		42.298483	42.284382	7.121584
14827		42.286787	42.293512	7.152414
14828		42.266515	42.302355	7.179355
14829		42.242029	42.312238	7.198787
14830		42.215883	42.320246	7.213087
14831		42.190633	42.329677	7.224813
14832		42.163257	42.337808	7.234304
14833		42.141895	42.344767	7.251005
14834		42.115305	42.357188	7.265028
14835		42.089970	42.373042	7.283975
14836		42.064040	42.391731	7.300087
14837		42.040934	42.407931	7.315252
14838		42.034875	42.412323	7.326007
14839		42.030810	42.401053	7.331737
14840		42.026392	42.381043	7.330616
14841		42.020310	42.359272	7.326247
14842		42.009818	42.340977	7.320993
14843		41.995667	42.335405	7.318533
14844		41.980554	42.334825	7.318741
14845		41.963144	42.340655	7.321449
14846		41.942753	42.349327	7.328233
14847		41.920081	42.358588	7.334682
14848		41.895803	42.368494	7.345155
14849		41.864873	42.380378	7.351412
14850		41.841634	42.385918	7.357658
14851		41.819016	42.390555	7.360210
14852		41.802337	42.394170	7.362086
14853		41.796293	42.394461	7.362250
14854		41.792414	42.385513	7.355842
14855		41.788084	42.375849	7.352221
14856		41.784475	42.366815	7.348140
14857		41.779373	42.359250	7.345483
14858		41.771406	42.354003	7.343827
14859		41.761148	42.351698	7.339379
14860		41.746466	42.351710	7.335107
14861		41.729779	42.351956	7.330945
14862		41.708554	42.356434	7.332288
14863		41.688491	42.363481	7.338235
14864		41.666752	42.373193	7.343486
14865		41.639027	42.383970	7.341466
14866		41.612041	42.392786	7.340720
14867		41.580802	42.403672	7.328881
14868		41.563326	42.409883	7.315314
14869		41.563310	42.407618	7.303234
14870		41.571368	42.397367	7.291241
14871		41.587914	42.381379	7.286017
14872		41.601256	42.372217	7.282402
14873		41.608465	42.367844	7.277756
14874		41.609654	42.368766	7.276255
14875		41.605210	42.371278	7.272849
14876		41.604069	42.372614	7.269992
14877		41.602235	42.372957	7.266105
14878		41.602409	42.371041	7.266310
14879		41.601420	42.367221	7.266260
14880		41.598739	42.360572	7.264166
14881		41.586160	42.356489	7.252824
14882		41.576789	42.351760	7.246580
14883		41.566266	42.348063	7.240313
14884		41.553729	42.346285	7.236126
14885		41.541436	42.343352	7.234728
14886		41.530544	42.336286	7.232865
14887		41.516161	42.329287	7.228622
14888		41.508267	42.325856	7.231157
14889		41.502612	42.326569	7.227070
14890		41.498780	42.332665	7.225080
14891		41.491009	42.335045	7.211131
14892		41.489253	42.333832	7.196005
14893		41.490649	42.330352	7.183331
14894		41.493964	42.326464	7.177880
14895		41.495393	42.328991	7.179742
14896		41.494557	42.331450	7.187120
14897		41.494829	42.332881	7.193642
14898		41.494270	42.333907	7.192191
14899		41.496296	42.325805	7.178766
14900		41.502414	42.311667	7.156700
14901		41.510763	42.293185	7.134013
14902		41.517617	42.277689	7.115297
14903		41.516350	42.266269	7.107009
14904		41.508007	42.269922	7.107879
14905		41.495052	42.276920	7.116428
14906		41.476875	42.283571	7.121898
14907		41.462950	42.286680	7.125716
14908		41.456473	42.284748	7.126011
14909		41.454722	42.280266	7.126378
14910		41.449996	42.273533	7.120889
14911		41.440803	42.264242	7.110926
14912		41.430951	42.256318	7.098183
14913		41.417208	42.250404	7.086206
14914		41.410053	42.249897	7.083220
14915		41.407279	42.258796	7.087439
14916		41.407277	42.267465	7.097703
14917		41.404453	42.275453	7.104692
14918		41.392381	42.280413	7.102821
14919		41.378698	42.281629	7.094484
14920		41.364583	42.277860	7.088237
14921		41.354991	42.280077	7.081925
14922		41.350242	42.277634	7.078890
14923		41.346002	42.274373	7.073662
14924		41.341444	42.270838	7.073093
14925		41.335954	42.271097	7.076368
14926		41.327758	42.274837	7.078135
14927		41.325655	42.282778	7.079378
14928		41.328780	42.285557	7.082830
14929		41.331946	42.292835	7.080902
14930		41.337610	42.293729	7.074945
14931		41.344629	42.288894	7.065737
14932		41.357254	42.278428	7.057531
14933		41.376320	42.269713	7.051501
14934		41.401098	42.262105	7.048809
14935		41.425124	42.256660	7.046958
14936		41.444411	42.256437	7.045825
14937		41.459297	42.251319	7.041610
14938		41.472528	42.247257	7.035098
14939		41.484550	42.240168	7.028990
14940		41.494477	42.236413	7.025284
14941		41.502396	42.237308	7.024103
14942		41.502821	42.242021	7.025373
14943		41.498930	42.250741	7.031480
14944		41.486872	42.259125	7.035556
14945		41.470972	42.266212	7.037405
14946		41.456581	42.274874	7.037752
14947		41.444730	42.282253	7.036294
14948		41.441578	42.285646	7.034998
14949		41.445521	42.284394	7.033819
14950		41.457003	42.279608	7.031785
14951		41.474424	42.276932	7.030953
14952		41.491443	42.271909	7.028195
14953		41.507487	42.267672	7.027426
14954		41.520520	42.261795	7.025716
14955		41.528725	42.261303	7.025820
14956		41.536571	42.261024	7.025486
14957		41.543551	42.261496	7.025456
14958		41.547813	42.261858	7.026129
14959		41.552907	42.261490	7.028390
14960		41.560033	42.263722	7.031136
14961		41.564202	42.263136	7.026448
14962		41.565138	42.257644	7.015585
14963		41.564137	42.253320	7.002120
14964		41.564964	42.251599	6.987561
14965		41.567478	42.253800	6.974109
14966		41.574287	42.261078	6.965051
14967		41.585784	42.269399	6.961126
14968		41.600872	42.279101	6.958388
14969		41.619340	42.290379	6.958396
14970		41.635891	42.298686	6.953379
14971		41.654543	42.300735	6.945689
14972		41.673570	42.302259	6.937147
14973		41.690807	42.302040	6.924193
14974		41.710567	42.302736	6.912739
14975		41.735461	42.304508	6.900754
14976		41.754156	42.308861	6.880737
14977		41.777576	42.303661	6.838871
14978		41.894225	42.284652	6.774137
14979		42.114025	42.268088	6.702056
14980		42.445833	42.270912	6.670348
14981		42.807023	42.314184	6.722239
14982		43.112418	42.386330	6.833561
14983		43.339408	42.463430	6.958776
14984		43.470518	42.530406	7.054815
14985		43.518594	42.566000	7.105613
14986		43.496136	42.579406	7.101178
14987		43.446733	42.575176	7.054301
14988		43.391604	42.574488	6.990741
14989		43.328321	42.586682	6.932532
14990		43.248876	42.611377	6.887035
14991		43.157141	42.640550	6.863109
14992		43.061717	42.665150	6.852500
14993		42.969887	42.673370	6.842541
14994		42.890305	42.662145	6.841964
14995		42.830378	42.634612	6.838425
14996		42.787233	42.603542	6.829720
14997		42.762104	42.572650	6.812130
14998		42.749325	42.547939	6.786518
14999		42.745268	42.532031	6.758623
15000		42.738400	42.529605	6.734004
15001		42.729560	42.538269	6.720307
15002		42.720596	42.549674	6.716877
15003		42.703107	42.562012	6.717855
15004		42.680367	42.570560	6.718099
15005		42.655391	42.573359	6.712818
15006		42.629097	42.571758	6.697693
15007		42.615154	42.568023	6.680752
15008		42.613696	42.563593	6.663067
15009		42.625780	42.559354	6.649431
15010		42.655851	42.560320	6.642681
15011		42.696565	42.561448	6.641679
15012		42.731092	42.560117	6.642690
15013		42.748232	42.551545	6.636925
15014		42.753568	42.535785	6.623410
15015		42.754265	42.516005	6.604900
15016		42.756073	42.500685	6.587111
15017		42.758557	42.490928	6.574142
15018		42.764868	42.492313	6.564989
15019		42.776831	42.494518	6.558577
15020		42.788430	42.502681	6.552410
15021		42.798653	42.512088	6.549246
15022		42.799451	42.521191	6.545154
15023		42.793498	42.529557	6.546227
15024		42.776001	42.528246	6.544433
15025		42.747845	42.519491	6.533655
15026		42.727208	42.507026	6.517559
15027		42.717750	42.489276	6.493032
15028		42.722996	42.475719	6.468208
15029		42.744576	42.466181	6.452374
15030		42.776101	42.463377	6.446680
15031		42.806825	42.467003	6.444201
15032		42.837424	42.477247	6.448966
15033		42.858039	42.485073	6.456435
15034		42.861032	42.488911	6.465702
15035		42.848865	42.487492	6.465988
15036		42.830464	42.480465	6.456070
15037		42.808846	42.474796	6.438121
15038		42.794842	42.471024	6.420755
15039		42.790238	42.471226	6.409412
15040		42.800734	42.473629	6.405175
15041		42.819380	42.479209	6.404249
15042		42.839006	42.485834	6.405317
15043		42.852534	42.484362	6.410392
15044		42.858007	42.479897	6.411525
15045		42.857822	42.465914	6.400646
15046		42.859190	42.450201	6.384799
15047		42.865202	42.439774	6.368232
15048		42.884547	42.430909	6.360851
15049		42.909079	42.430227	6.358747
15050		42.937984	42.436382	6.362799
15051		42.962358	42.442165	6.367915
15052		42.970911	42.446292	6.373898
15053		42.961631	42.446821	6.376113
15054		42.944591	42.440449	6.369210
15055		42.930358	42.431692	6.352631
15056		42.929115	42.418610	6.340569
15057		42.943844	42.409197	6.333971
15058		42.969829	42.404831	6.333117
15059		43.005700	42.405708	6.341076
15060		43.039547	42.410090	6.349008
15061		43.068054	42.414054	6.355614
15062		43.086464	42.416037	6.355500
15063		43.097954	42.414150	6.355495
15064		43.098664	42.415180	6.351099
15065		43.098485	42.410182	6.347252
15066		43.099010	42.403595	6.343335
15067		43.099804	42.402477	6.344260
15068		43.096863	42.404398	6.344377
15069		43.090642	42.412136	6.348937
15070		43.082923	42.424442	6.355375
15071		43.075050	42.432746	6.364031
15072		43.064707	42.441430	6.367929
15073		43.053041	42.442062	6.366554
15074		43.045755	42.436296	6.361600
15075		43.041975	42.424108	6.352309
15076		43.046148	42.413669	6.343817
15077		43.060091	42.403599	6.337601
15078		43.085317	42.400910	6.333642
15079		43.119975	42.402727	6.341484
15080		43.153355	42.411773	6.355305
15081		43.176283	42.415803	6.368535
15082		43.195164	42.415951	6.377699
15083		43.200083	42.413027	6.380107
15084		43.199731	42.410203	6.378317
15085		43.196661	42.406755	6.378427
15086		43.190914	42.406419	6.381931
15087		43.191279	42.404890	6.387077
15088		43.192576	42.407718	6.390212
15089		43.193730	42.406834	6.394973
15090		43.190772	42.407815	6.395803
15091		43.180253	42.409342	6.397878
15092		43.171294	42.409859	6.397606
15093		43.162430	42.408063	6.395005
15094		43.162879	42.408482	6.393925
15095		43.168242	42.409443	6.398014
15096		43.175583	42.416301	6.406382
15097		43.186233	42.424594	6.417161
15098		43.194600	42.432265	6.417410
15099		43.206985	42.435378	6.420192
15100		43.214968	42.434638	6.414551
15101		43.223297	42.432193	6.411353
15102		43.233004	42.427698	6.410770
15103		43.246257	42.422054	6.413410
15104		43.256877	42.417675	6.417574
15105		43.263919	42.421534	6.423479
15106		43.262468	42.430555	6.425090
15107		43.257218	42.440732	6.423799
15108		43.252376	42.450217	6.419569
15109		43.249835	42.459088	6.415053
15110		43.257409	42.466885	6.410815
15111		43.271098	42.469188	6.405673
15112		43.282259	42.474739	6.398242
15113		43.293579	42.475108	6.394254
15114		43.298432	42.472831	6.389261
15115		43.298419	42.470351	6.385242
15116		43.291172	42.470105	6.381837
15117		43.282743	42.472201	6.380905
15118		43.272955	42.475439	6.381335
15119		43.265581	42.476797	6.381274
15120		43.262736	42.481067	6.380999
15121		43.258864	42.481764	6.377332
15122		43.257095	42.481886	6.372180
15123		43.259198	42.480684	6.370492
15124		43.265272	42.478967	6.367626
15125		43.273793	42.476995	6.369016
15126		43.279218	42.476389	6.369071
15127		43.282035	42.477688	6.370324
15128		43.282724	42.476954	6.372470
15129		43.278158	42.478622	6.371770
15130		43.272177	42.483185	6.373529
15131		43.267443	42.487846	6.374156
15132		43.260439	42.490684	6.376685
15133		43.254909	42.491950	6.377110
15134		43.252998	42.490326	6.377490
15135		43.251333	42.491165	6.378151
15136		43.252098	42.489084	6.379952
15137		43.250254	42.487414	6.380769
15138		43.253034	42.483373	6.380510
15139		43.255053	42.486059	6.377411
15140		43.259590	42.485886	6.375968
15141		43.262485	42.485327	6.373897
15142		43.267496	42.483442	6.373515
15143		43.272758	42.482064	6.369708
15144		43.281042	42.475830	6.366820
15145		43.279700	42.469964	6.359503
15146		43.277399	42.466489	6.354063
15147		43.271862	42.469788	6.349751
15148		43.269510	42.476670	6.348808
15149		43.266445	42.486262	6.346512
15150		43.265122	42.498825	6.343870
15151		43.260215	42.511257	6.341668
15152		43.260411	42.518915	6.342251
15153		43.260506	42.523547	6.341987
15154		43.255416	42.527967	6.339059
15155		43.252688	42.526792	6.338259
15156		43.248722	42.527918	6.335721
15157		43.248265	42.524309	6.330604
15158		43.250620	42.519930	6.326217
15159		43.253505	42.513872	6.322979
15160		43.260313	42.511880	6.322581
15161		43.274284	42.508017	6.322866
15162		43.283198	42.499348	6.316996
15163		43.286173	42.496932	6.311603
15164		43.283328	42.497032	6.308459
15165		43.274716	42.499370	6.308256
15166		43.260388	42.504049	6.308830
15167		43.245370	42.510625	6.311447
15168		43.230470	42.517077	6.312754
15169		43.224592	42.521576	6.315239
15170		43.219534	42.525265	6.315558
15171		43.220162	42.529888	6.318390
15172		43.223399	42.531443	6.324192
15173		43.224288	42.531939	6.327698
15174		43.222454	42.529545	6.331786
15175		43.213929	42.527994	6.332995
15176		43.204704	42.527245	6.335051
15177		43.195388	42.525050	6.336645
15178		43.185994	42.525089	6.335406
15179		43.181607	42.524481	6.338697
15180		43.180444	42.526382	6.338583
15181		43.181417	42.527771	6.339349
15182		43.182019	42.530522	6.338335
15183		43.189588	42.530901	6.341448
15184		43.195940	42.531750	6.339028
15185		43.200690	42.533848	6.338037
15186		43.209603	42.533136	6.339988
15187		43.219098	42.531566	6.340269
15188		43.226696	42.530330	6.339282
15189		43.229762	42.526780	6.335890
15190		43.233807	42.523741	6.331450
15191		43.238631	42.521234	6.326552
15192		43.244001	42.518675	6.325244
15193		43.250779	42.518408	6.328739
15194		43.248317	42.519605	6.326347
15195		43.244286	42.524012	6.329320
15196		43.237131	42.528003	6.329369
15197		43.230984	42.531131	6.330010
15198		43.224800	42.531698	6.329642
15199		43.216709	42.533304	6.327209
15200		43.216384	42.535762	6.327306
15201		43.220777	42.532848	6.326630
15202		43.226948	42.529816	6.326237
15203		43.229588	42.528607	6.327651
15204		43.231015	42.525684	6.328659
15205		43.235154	42.524867	6.332046
15206		43.240754	42.522968	6.335200
15207		43.244971	42.520296	6.335264
15208		43.247895	42.519832	6.333453
15209		43.241813	42.515610	6.329602
15210		43.237479	42.516098	6.329697
15211		43.229832	42.518834	6.328365
15212		43.226402	42.521454	6.331126
15213		43.224649	42.521400	6.334521
15214		43.222532	42.519146	6.338879
15215		43.218482	42.515308	6.340099
15216		43.216300	42.506075	6.340750
15217		43.216912	42.502452	6.341830
15218		43.215184	42.497096	6.335896
15219		43.218528	42.497664	6.334930
15220		43.222352	42.500269	6.332178
15221		43.227555	42.506240	6.332872
15222		43.231851	42.515919	6.334119
15223		43.236895	42.527626	6.336724
15224		43.241703	42.535927	6.339980
15225		43.248413	42.540259	6.347387
15226		43.246364	42.537775	6.350134
15227		43.244606	42.532945	6.357677
15228		43.235698	42.530717	6.361753
15229		43.228316	42.530047	6.366409
15230		43.221039	42.529370	6.369367
15231		43.210914	42.523790	6.370747
15232		43.203993	42.518732	6.364906
15233		43.204485	42.507285	6.356918
15234		43.209952	42.497423	6.351297
15235		43.221551	42.491633	6.352744
15236		43.233305	42.489226	6.361807
15237		43.239660	42.492013	6.375423
15238		43.236969	42.496965	6.389927
15239		43.220377	42.502971	6.398614
15240		43.195793	42.507656	6.408555
15241		43.162127	42.512643	6.406397
15242		43.131334	42.509654	6.402851
15243		43.102406	42.508213	6.401387
15244		43.075277	42.507489	6.405240
15245		43.049805	42.508667	6.414142
15246		43.025032	42.509670	6.425325
15247		42.998507	42.508824	6.432775
15248		42.974432	42.503725	6.433580
15249		42.956835	42.498184	6.420385
15250		42.958414	42.491581	6.406324
15251		42.973334	42.483959	6.394302
15252		42.997767	42.479128	6.390949
15253		43.029058	42.476252	6.393295
15254		43.056376	42.474602	6.399827
15255		43.071061	42.471219	6.407804
15256		43.072637	42.465000	6.413574
15257		43.063049	42.454622	6.422220
15258		43.035852	42.441889	6.427044
15259		43.004391	42.431213	6.431076
15260		42.976280	42.415636	6.427682
15261		42.961429	42.402703	6.425511
15262		42.949930	42.398189	6.425309
15263		42.947663	42.404350	6.432081
15264		42.952542	42.410655	6.443523
15265		42.958002	42.413224	6.450198
15266		42.958218	42.415733	6.453289
15267		42.957612	42.413800	6.459561
15268		42.947459	42.408964	6.465992
15269		42.929110	42.402895	6.473884
15270		42.907365	42.391165	6.477592
15271		42.892071	42.368851	6.472612
15272		42.885876	42.350938	6.464944
15273		42.886139	42.342297	6.466369
15274		42.896364	42.343796	6.484240
15275		42.905589	42.346481	6.504501
15276		42.908133	42.352189	6.525371
15277		42.902272	42.356066	6.543213
15278		42.890197	42.357818	6.556769
15279		42.869235	42.356678	6.565723
15280		42.843125	42.354480	6.575518
15281		42.813303	42.350544	6.579983
15282		42.788202	42.340514	6.576190
15283		42.777319	42.328040	6.571551
15284		42.776132	42.320808	6.572948
15285		42.780527	42.319326	6.582904
15286		42.788446	42.319525	6.596756
15287		42.797842	42.319209	6.615702
15288		42.807358	42.319730	6.632559
15289		42.810445	42.321066	6.645695
15290		42.807828	42.318830	6.655276
15291		42.800475	42.318128	6.659958
15292		42.789373	42.311432	6.656942
15293		42.778932	42.302837	6.653969
15294		42.766672	42.296289	6.654701
15295		42.759840	42.292823	6.661902
15296		42.752217	42.286876	6.665695
15297		42.747926	42.283067	6.675734
15298		42.742401	42.277491	6.685337
15299		42.738187	42.269790	6.696799
15300		42.735611	42.257750	6.704740
15301		42.729116	42.248300	6.709315
15302		42.716502	42.245400	6.717981
15303		42.704335	42.245408	6.728873
15304		42.690673	42.248662	6.743357
15305		42.670377	42.253869	6.753843
15306		42.646274	42.259066	6.762938
15307		42.619158	42.267348	6.775146
15308		42.592742	42.271098	6.787384
15309		42.566138	42.271107	6.800968
15310		42.538670	42.268726	6.821291
15311		42.510488	42.262632	6.839824
15312		42.489769	42.258301	6.856464
15313		42.473852	42.252753	6.873310
15314		42.463025	42.249607	6.890360
15315		42.453937	42.243726	6.906057
15316		42.443947	42.241800	6.925861
15317		42.432698	42.242674	6.949005
15318		42.414815	42.248079	6.974885
15319		42.389078	42.255579	6.999870
15320		42.361340	42.263628	7.024747
15321		42.333341	42.270068	7.048161
15322		42.304924	42.281573	7.076969
15323		42.271566	42.298085	7.103213
15324		42.237202	42.314072	7.130524
15325		42.199221	42.327562	7.156357
15326		42.162883	42.333275	7.175834
15327		42.124204	42.330742	7.187847
15328		42.085457	42.325708	7.201053
15329		42.050215	42.322316	7.217537
15330		42.010975	42.325847	7.232542
15331		41.977187	42.332207	7.250687
15332		41.946692	42.340681	7.264271
15333		41.920434	42.351265	7.279429
15334		41.896567	42.360996	7.293475
15335		41.874058	42.369572	7.306293
15336		41.857927	42.381259	7.321569
15337		41.854370	42.386492	7.333720
15338		41.852524	42.383981	7.337532
15339		41.854543	42.376393	7.337513
15340		41.861229	42.361762	7.333016
15341		41.871648	42.342372	7.325501
15342		41.881719	42.323572	7.319327
15343		41.895572	42.306086	7.316828
15344		41.908037	42.297445	7.321940
15345		41.915275	42.299007	7.331855
15346		41.917293	42.309106	7.342703
15347		41.925431	42.328467	7.360935
15348		41.936976	42.351703	7.379544
15349		41.948465	42.373417	7.395500
15350		41.958713	42.391812	7.408970
15351		41.975293	42.394093	7.410526
15352		41.987672	42.386797	7.394557
15353		41.998734	42.368521	7.379293
15354		42.001440	42.352891	7.363434
15355		41.996729	42.351317	7.357620
15356		41.989064	42.361346	7.360287
15357		41.982753	42.376531	7.370031
15358		41.980674	42.392607	7.383097
15359		41.977491	42.404905	7.390153
15360		41.981104	42.402302	7.389435
15361		41.983240	42.383054	7.373003
15362		41.983421	42.352877	7.353630
15363		41.983388	42.329371	7.342390
15364		41.979313	42.319567	7.336615
15365		41.975239	42.321622	7.331721
15366		41.973232	42.325023	7.320793
15367		41.981749	42.329947	7.313287
15368		41.995505	42.331196	7.310400
15369		42.015682	42.337201	7.311483
15370		42.036250	42.345050	7.318461
15371		42.048366	42.346838	7.319429
15372		42.050111	42.347062	7.315653
15373		42.043216	42.348101	7.306081
15374		42.035328	42.346005	7.297085
15375		42.029569	42.345162	7.290394
15376		42.029437	42.348423	7.288468
15377		42.032710	42.350149	7.285520
15378		42.039574	42.356295	7.287354
15379		42.043787	42.368494	7.288291
15380		42.046278	42.377991	7.286833
15381		42.047247	42.388734	7.287321
15382		42.046627	42.395577	7.287917
15383		42.043119	42.401036	7.291998
15384		42.044363	42.407338	7.302400
15385		42.044298	42.414699	7.311514
15386		42.040016	42.420515	7.312616
15387		42.039441	42.422640	7.309433
15388		42.043794	42.417126	7.299929
15389		42.052405	42.408097	7.288856
15390		42.068361	42.394374	7.277760
15391		42.089987	42.379041	7.268233
15392		42.104169	42.365238	7.254787
15393		42.120043	42.352216	7.247842
15394		42.127957	42.345842	7.243925
15395		42.133140	42.343593	7.242902
15396		42.129542	42.347673	7.244271
15397		42.123141	42.353954	7.246987
15398		42.119274	42.357307	7.243737
15399		42.110266	42.357068	7.231843
15400		42.100075	42.353933	7.221112
15401		42.093869	42.351968	7.213326
15402		42.088263	42.358060	7.211068
15403		42.081929	42.362505	7.210468
15404		42.078460	42.367273	7.209966
15405		42.078589	42.369140	7.209139
15406		42.075895	42.369059	7.207260
15407		42.079429	42.367348	7.210327
15408		42.077785	42.363797	7.208873
15409		42.074424	42.366281	7.211642
15410		42.069739	42.367091	7.212947
15411		42.058061	42.369493	7.214887
15412		42.045612	42.374101	7.217725
15413		42.031952	42.382301	7.221046
15414		42.021089	42.390996	7.223480
15415		42.016780	42.397857	7.223192
15416		42.013045	42.395843	7.219857
15417		42.015457	42.385262	7.209727
15418		42.020698	42.372369	7.198668
15419		42.029828	42.355088	7.189018
15420		42.038123	42.341861	7.183641
15421		42.043186	42.332533	7.178927
15422		42.041464	42.324745	7.174380
15423		42.039189	42.318486	7.168279
15424		42.038112	42.314904	7.159301
15425		42.044781	42.312359	7.154940
15426		42.048540	42.308834	7.147869
15427		42.052464	42.298635	7.139714
15428		42.053024	42.291021	7.130418
15429		42.049802	42.287092	7.126010
15430		42.048246	42.283252	7.123164
15431		42.047488	42.282870	7.120157
15432		42.052315	42.282224	7.119453
15433		42.063458	42.280856	7.120986
15434		42.077771	42.279898	7.123621
15435		42.085122	42.271606	7.120485
15436		42.085205	42.265224	7.118103
15437		42.081462	42.262008	7.115911
15438		42.073492	42.263429	7.111586
15439		42.064690	42.264328	7.109583
15440		42.052521	42.264907	7.104977
15441		42.041266	42.264999	7.102137
15442		42.030186	42.263791	7.099817
15443		42.021469	42.263543	7.099818
15444		42.018557	42.260928	7.097832
15445		42.018748	42.255471	7.092578
15446		42.018202	42.247643	7.084047
15447		42.020581	42.241627	7.077805
15448		42.025614	42.235194	7.072991
15449		42.029132	42.230047	7.070188
15450		42.028656	42.225648	7.068035
15451		42.030869	42.223310	7.068395
15452		42.028316	42.220794	7.067823
15453		42.022568	42.217895	7.065888
15454		42.017603	42.212992	7.062958
15455		42.014210	42.206553	7.058736
15456		42.014680	42.201107	7.054555
15457		42.011814	42.193953	7.048122
15458		42.010335	42.186275	7.046527
15459		42.003545	42.187547	7.049579
15460		41.993214	42.190284	7.052673
15461		41.979869	42.192530	7.053391
15462		41.969301	42.194003	7.054634
15463		41.963560	42.194543	7.058561
15464		41.959280	42.197443	7.059814
15465		41.959050	42.197043	7.059899
15466		41.959257	42.190770	7.058156
15467		41.956999	42.179013	7.050963
15468		41.956725	42.171390	7.045518
15469		41.954485	42.167865	7.039999
15470		41.950288	42.163144	7.033295
15471		41.945081	42.158827	7.023858
15472		41.946957	42.151801	7.018574
15473		41.944291	42.146449	7.006676
15474		41.946939	42.142329	6.995453
15475		41.946133	42.138238	6.974005
15476		41.946651	42.138640	6.954858
15477		41.936675	42.143178	6.932649
15478		41.915870	42.149530	6.920217
15479		41.888641	42.157134	6.907169
15480		41.871635	42.156131	6.901141
15481		41.866956	42.154534	6.895351
15482		41.874496	42.147888	6.895503
15483		41.883271	42.141842	6.897651
15484		41.887687	42.138226	6.891921
15485		41.892063	42.133652	6.868120
15486		41.900765	42.123006	6.833899
15487		41.908078	42.110704	6.799784
15488		41.916538	42.101801	6.776216
15489		41.923282	42.092335	6.760190
15490		41.933894	42.080527	6.749356
15491		41.946494	42.068304	6.738055
15492		41.956112	42.055361	6.722616
15493		41.968280	42.044750	6.710784
15494		41.985329	42.043142	6.706097
15495		42.000472	42.046645	6.708208
15496		42.008728	42.056192	6.711809
15497		42.007358	42.060410	6.709565
15498		41.994257	42.058500	6.698272
15499		41.983677	42.055296	6.684669
15500		41.980911	42.050052	6.671403
15501		41.982463	42.047252	6.664133
15502		41.986337	42.048084	6.657259
15503		41.995464	42.051833	6.654837
15504		42.002177	42.060845	6.656240
15505		42.000250	42.063750	6.660936
15506		41.988324	42.064832	6.661426
15507		41.969124	42.064338	6.656313
15508		41.949473	42.059966	6.649450
15509		41.937644	42.058437	6.640994
15510		41.940196	42.061456	6.631684
15511		41.961058	42.068551	6.625040
15512		41.989606	42.076497	6.620780
15513		42.022175	42.085607	6.619955
15514		42.057151	42.092743	6.619208
15515		42.081071	42.099484	6.618500
15516		42.095950	42.101346	6.615030
15517		42.105664	42.098155	6.604025
15518		42.114070	42.091073	6.583791
15519		42.129722	42.082973	6.561654
15520		42.152154	42.079750	6.545850
15521		42.179932	42.080277	6.531714
15522		42.209162	42.086701	6.520716
15523		42.238298	42.097708	6.513490
15524		42.264342	42.107147	6.504631
15525		42.287774	42.116602	6.501424
15526		42.306347	42.123432	6.498074
15527		42.319454	42.127641	6.493183
15528		42.329759	42.127658	6.489886
15529		42.334834	42.126954	6.479587
15530		42.345124	42.127523	6.468967
15531		42.352783	42.127794	6.451488
15532		42.369292	42.130595	6.436661
15533		42.391917	42.134305	6.425467
15534		42.417992	42.138978	6.420893
15535		42.447311	42.142893	6.421883
15536		42.469360	42.147107	6.419090
15537		42.483634	42.151458	6.412358
15538		42.495047	42.152926	6.405020
15539		42.503805	42.154786	6.396262
15540		42.508271	42.154261	6.381739
15541		42.510141	42.151379	6.365704
15542		42.513004	42.149158	6.348296
15543		42.521013	42.146902	6.334082
15544		42.533563	42.147323	6.326197
15545		42.552553	42.145994	6.325489
15546		42.571239	42.146281	6.322805
15547		42.585558	42.152955	6.323919
15548		42.599224	42.159586	6.329801
15549		42.605857	42.169423	6.338270
15550		42.604726	42.180333	6.345494
15551		42.596201	42.184247	6.347830
15552		42.587400	42.186220	6.342395
15553		42.582960	42.183265	6.337833
15554		42.580820	42.180843	6.329143
15555		42.582520	42.178513	6.326406
15556		42.586733	42.182696	6.325817
15557		42.592462	42.190685	6.324838
15558		42.596827	42.202737	6.325365
15559		42.598072	42.215742	6.324912
15560		42.598387	42.233576	6.325081
15561		42.599961	42.249558	6.329009
15562		42.605069	42.265456	6.332534
15563		42.612443	42.274313	6.338081
15564		42.618892	42.278283	6.340288
15565		42.619433	42.278537	6.339966
15566		42.614643	42.276102	6.337189
15567		42.609862	42.272912	6.328800
15568		42.607646	42.266805	6.322700
15569		42.611654	42.262051	6.315693
15570		42.628150	42.261848	6.317897
15571		42.650313	42.261054	6.320415
15572		42.675979	42.263070	6.325389
15573		42.699809	42.262420	6.329138
15574		42.713891	42.262637	6.330800
15575		42.708538	42.266383	6.331032
15576		42.693364	42.265491	6.325898
15577		42.679433	42.264357	6.317595
15578		42.671017	42.264011	6.306745
15579		42.669487	42.267745	6.299947
15580		42.677569	42.276772	6.301268
15581		42.691533	42.290110	6.310313
15582		42.709936	42.305880	6.323652
15583		42.729886	42.314586	6.334154
15584		42.742760	42.314998	6.339129
15585		42.749275	42.316108	6.341382
15586		42.753367	42.313859	6.342330
15587		42.755138	42.313139	6.342148
15588		42.760875	42.312105	6.342957
15589		42.771262	42.312792	6.345466
15590		42.778551	42.317393	6.347594
15591		42.782433	42.323430	6.350872
15592		42.781834	42.327283	6.349264
15593		42.779120	42.328841	6.349040
15594		42.773265	42.333343	6.351915
15595		42.766752	42.334191	6.353427
15596		42.756856	42.335897	6.350780
15597		42.750987	42.336909	6.347356
15598		42.747078	42.338698	6.339152
15599		42.752571	42.337078	6.334675
15600		42.760241	42.340375	6.330201
15601		42.769685	42.339941	6.328542
15602		42.779627	42.338249	6.330135
15603		42.784838	42.338721	6.329689
15604		42.783246	42.338873	6.325565
15605		42.780816	42.341077	6.321876
15606		42.776659	42.343468	6.318707
15607		42.776586	42.345577	6.318598
15608		42.776651	42.353505	6.323004
15609		42.779117	42.355276	6.325741
15610		42.783621	42.356988	6.330715
15611		42.785658	42.363111	6.333500
15612		42.786277	42.371745	6.335266
15613		42.788427	42.381494	6.335894
15614		42.791886	42.391481	6.336017
15615		42.799428	42.400479	6.333587
15616		42.815899	42.405168	6.333298
15617		42.836664	42.411435	6.330330
15618		42.862280	42.412982	6.330982
15619		42.886115	42.421632	6.334527
15620		42.913460	42.428839	6.337780
15621		42.937322	42.434022	6.335471
15622		42.957472	42.437806	6.330268
15623		42.974836	42.442144	6.322285
15624		42.990526	42.445492	6.316733
15625		43.003163	42.442125	6.312430
15626		43.013392	42.440832	6.308225
15627		43.027942	42.433503	6.305834
15628		43.038170	42.427449	6.306187
15629		43.042472	42.423647	6.308275
15630		43.041348	42.424690	6.312052
15631		43.037109	42.426581	6.315143
15632		43.034299	42.430053	6.318345
15633		43.033952	42.434251	6.322278
15634		43.034525	42.436195	6.324113
15635		43.039730	42.440109	6.329547
15636		43.048002	42.445766	6.336030
15637		43.058595	42.452372	6.344284
15638		43.076732	42.456751	6.351803
15639		43.094374	42.457268	6.357085
15640		43.109322	42.458499	6.360424
15641		43.121135	42.455199	6.361790
15642		43.131472	42.451578	6.361406
15643		43.141144	42.447725	6.365728
15644		43.148546	42.441810	6.370053
15645		43.159614	42.440188	6.379652
15646		43.173833	42.441209	6.387289
15647		43.191758	42.445807	6.394990
15648		43.209179	42.455965	6.400550
15649		43.221778	42.462628	6.401310
15650		43.229113	42.469266	6.398348
15651		43.236245	42.477823	6.400178
15652		43.246398	42.483421	6.407086
15653		43.255036	42.486474	6.417001
15654		43.264987	42.487587	6.429013
15655		43.275884	42.486189	6.439356
15656		43.283994	42.482739	6.446618
15657		43.288778	42.476180	6.451189
15658		43.293640	42.475208	6.457170
15659		43.295967	42.470602	6.461463
15660		43.299012	42.469437	6.465064
15661		43.301605	42.466191	6.471193
15662		43.303847	42.466270	6.479180
15663		43.303227	42.469809	6.486586
15664		43.305386	42.471743	6.497898
15665		43.304345	42.476894	6.504796
15666		43.307772	42.483320	6.517342
15667		43.309034	42.489488	6.525846
15668		43.310080	42.493195	6.534487
15669		43.310963	42.497110	6.543874
15670		43.312130	42.499743	6.554811
15671		43.314216	42.499946	6.563745
15672		43.320513	42.496618	6.570762
15673		43.323732	42.494243	6.577257
15674		43.325368	42.491547	6.581071
15675		43.326978	42.487897	6.588308
15676		43.325805	42.484945	6.592843
15677		43.324712	42.481187	6.592669
15678		43.325868	42.479656	6.592222
15679		43.327730	42.480525	6.594612
15680		43.330814	42.483220	6.597470
15681		43.341554	42.481333	6.603254
15682		43.350635	42.481413	6.602796
15683		43.361311	42.480658	6.606598
15684		43.371318	42.479047	6.609824
15685		43.379450	42.478649	6.610775
15686		43.385440	42.477069	6.609217
15687		43.391478	42.478147	6.608420
15688		43.397186	42.475296	6.604705
15689		43.402954	42.475016	6.602068
15690		43.404634	42.470083	6.598866
15691		43.401054	42.472151	6.597030
15692		43.398969	42.474718	6.597060
15693		43.397932	42.476426	6.598073
15694		43.395033	42.478360	6.598381
15695		43.394686	42.479811	6.601742
15696		43.391082	42.481914	6.599815
15697		43.385619	42.481351	6.596878
15698		43.382413	42.481199	6.589590
15699		43.379246	42.478215	6.582370
15700		43.381303	42.473651	6.574235
15701		43.386803	42.472013	6.569760
15702		43.394192	42.472013	6.567725
15703		43.405013	42.474880	6.569406
15704		43.412433	42.475541	6.573270
15705		43.411814	42.475635	6.574789
15706		43.406399	42.472861	6.575187
15707		43.392873	42.472535	6.575165
15708		43.377232	42.471026	6.572871
15709		43.364870	42.470852	6.571005
15710		43.351495	42.470326	6.570085
15711		43.339135	42.470150	6.568220
15712		43.326682	42.464537	6.564959
15713		43.318662	42.454999	6.559378
15714		43.312937	42.445926	6.549593
15715		43.310442	42.439949	6.544135
15716		43.312728	42.442048	6.547361
15717		43.309593	42.448669	6.552508
15718		43.303490	42.455365	6.559226
15719		43.290112	42.458653	6.557081
15720		43.269660	42.455341	6.551943
15721		43.243957	42.453604	6.547442
15722		43.213930	42.454072	6.541733
15723		43.189611	42.451814	6.541931
15724		43.167289	42.451924	6.542213
15725		43.142845	42.451922	6.538446
15726		43.123122	42.450395	6.530660
15727		43.107569	42.450093	6.518315
15728		43.102916	42.452198	6.510053
15729		43.107635	42.461988	6.506315
15730		43.118099	42.470253	6.504695
15731		43.130561	42.479878	6.506795
15732		43.142690	42.485442	6.506201
15733		43.154464	42.485993	6.506183
15734		43.163083	42.484074	6.508210
15735		43.164897	42.479483	6.509426
15736		43.155674	42.481047	6.508990
15737		43.139521	42.482887	6.509423
15738		43.123764	42.481199	6.515148
15739		43.104620	42.485708	6.517508
15740		43.090712	42.485831	6.518838
15741		43.078982	42.486506	6.517337
15742		43.072611	42.487202	6.517925
15743		43.063538	42.488415	6.516556
15744		43.062038	42.493597	6.520979
15745		43.056041	42.497177	6.526130
15746		43.047592	42.505097	6.538283
15747		43.032377	42.508736	6.548190
15748		43.017855	42.511387	6.555195
15749		43.005457	42.509155	6.558039
15750		42.997548	42.501985	6.560569
15751		42.992607	42.492066	6.560962
15752		42.986437	42.481150	6.566394
15753		42.977678	42.473969	6.574377
15754		42.964266	42.469318	6.583288
15755		42.949819	42.468122	6.591663
15756		42.931826	42.465861	6.599324
15757		42.911896	42.463816	6.608178
15758		42.891876	42.463659	6.620362
15759		42.874693	42.463749	6.631917
15760		42.858727	42.462923	6.643516
15761		42.840369	42.456682	6.650468
15762		42.824757	42.452582	6.660312
15763		42.805984	42.444513	6.660883
15764		42.792262	42.432391	6.660954
15765		42.789657	42.416889	6.663803
15766		42.801255	42.399129	6.665085
15767		42.826544	42.385128	6.668023
15768		42.853802	42.378903	6.680625
15769		42.880408	42.371679	6.692705
15770		42.897977	42.368149	6.707897
15771		42.905213	42.369238	6.725088
15772		42.897935	42.372647	6.739868
15773		42.883831	42.371660	6.752074
15774		42.855713	42.366684	6.758883
15775		42.822014	42.359187	6.763466
15776		42.792145	42.345868	6.767063
15777		42.769290	42.332996	6.766969
15778		42.759382	42.321773	6.777998
15779		42.751433	42.318632	6.791497
15780		42.749006	42.319176	6.805228
15781		42.748164	42.320897	6.818070
15782		42.750103	42.324090	6.828590
15783		42.760372	42.324541	6.839145
15784		42.766222	42.323934	6.844211
15785		42.770810	42.321038	6.855407
15786		42.767040	42.316364	6.861697
15787		42.757988	42.311660	6.866468
15788		42.749488	42.305820	6.876300
15789		42.744521	42.300006	6.887872
15790		42.739330	42.294482	6.899838
15791		42.737544	42.291922	6.915195
15792		42.739061	42.292478	6.933014
15793		42.745194	42.292242	6.954030
15794		42.750576	42.292935	6.977879
15795		42.748972	42.293550	6.998371
15796		42.744055	42.290111	7.017623
15797		42.735696	42.285380	7.037299
15798		42.730661	42.276448	7.054912
15799		42.722327	42.264419	7.070118
15800		42.706459	42.252566	7.091403
15801		42.680050	42.251271	7.117775
15802		42.643407	42.251924	7.146513
15803		42.606491	42.253884	7.173575
15804		42.564990	42.257758	7.196065
15805		42.519080	42.259239	7.214626
15806		42.467528	42.259408	7.228919
15807		42.411292	42.260464	7.241566
15808		42.355335	42.264733	7.260021
15809		42.301840	42.275167	7.279816
15810		42.249100	42.290161	7.297532
15811		42.202238	42.308193	7.314132
15812		42.164734	42.323951	7.330486
15813		42.131012	42.336536	7.345955
15814		42.102009	42.348226	7.363212
15815		42.072511	42.359907	7.377468
15816		42.041120	42.369634	7.395906
15817		42.008532	42.380303	7.414242
15818		41.968682	42.396765	7.432216
15819		41.932277	42.410546	7.450855
15820		41.898784	42.427400	7.469967
15821		41.875270	42.437151	7.486238
15822		41.866146	42.430473	7.497441
15823		41.859415	42.407398	7.499163
15824		41.851185	42.376893	7.496656
15825		41.840302	42.350137	7.495734
15826		41.824826	42.331311	7.496524
15827		41.806703	42.326482	7.506178
15828		41.783029	42.333117	7.517580
15829		41.759764	42.347396	7.528962
15830		41.738542	42.364980	7.537127
15831		41.719069	42.379987	7.546766
15832		41.699181	42.392696	7.557183
15833		41.674880	42.408356	7.572971
15834		41.645036	42.414329	7.582184
15835		41.607253	42.415138	7.585267
15836		41.565148	42.410690	7.582677
15837		41.524757	42.402966	7.575938
15838		41.487057	42.395203	7.564305
15839		41.456542	42.389305	7.550396
15840		41.437272	42.392151	7.538440
15841		41.436311	42.395866	7.534740
15842		41.441545	42.402893	7.533978
15843		41.453397	42.407864	7.537068
15844		41.479879	42.404118	7.542171
15845		41.500545	42.383700	7.538184
15846		41.520909	42.350952	7.531050
15847		41.527409	42.313869	7.516782
15848		41.520924	42.287433	7.503075
15849		41.508695	42.274360	7.495800
15850		41.493342	42.277419	7.489972
15851		41.484170	42.285364	7.488518
15852		41.482357	42.293905	7.485585
15853		41.487560	42.300992	7.484285
15854		41.499505	42.304160	7.484404
15855		41.515085	42.304420	7.484628
15856		41.534166	42.297207	7.491074
15857		41.546597	42.287595	7.488428
15858		41.547064	42.270732	7.479840
15859		41.544843	42.257221	7.469374
15860		41.537204	42.247364	7.464150
15861		41.532604	42.248056	7.466194
15862		41.529309	42.254023	7.475199
15863		41.527535	42.261862	7.488310
15864		41.519389	42.268667	7.494425
15865		41.508322	42.271917	7.496654
15866		41.495695	42.263959	7.494748
15867		41.479132	42.257442	7.490535
15868		41.465459	42.242808	7.483176
15869		41.444408	42.229659	7.471972
15870		41.423033	42.222330	7.463556
15871		41.391837	42.221215	7.451214
15872		41.362069	42.222451	7.435617
15873		41.333900	42.220050	7.411349
15874		41.315522	42.215468	7.389296
15875		41.306237	42.209520	7.372526
15876		41.305173	42.206107	7.365540
15877		41.309593	42.203224	7.364968
15878		41.316103	42.199011	7.366054
15879		41.320700	42.195892	7.364748
15880		41.319677	42.191451	7.359291
15881		41.316224	42.186168	7.353110
15882		41.309768	42.184551	7.347551
15883		41.298268	42.183249	7.342871
15884		41.284960	42.185059	7.340612
15885		41.270725	42.182279	7.338561
15886		41.260966	42.177321	7.336737
15887		41.258354	42.163351	7.330551
15888		41.259962	42.150151	7.325158
15889		41.271066	42.132419	7.323504
15890		41.280618	42.118810	7.324075
15891		41.287283	42.108774	7.323445
15892		41.287180	42.102627	7.321524
15893		41.282769	42.096926	7.316477
15894		41.273324	42.093629	7.307513
15895		41.260283	42.090335	7.298348
15896		41.247229	42.087854	7.294470
15897		41.231709	42.084437	7.289746
15898		41.212203	42.087180	7.286779
15899		41.194690	42.092267	7.283915
15900		41.178778	42.100167	7.282552
15901		41.164792	42.107376	7.276664
15902		41.154484	42.107495	7.268803
15903		41.148051	42.096388	7.250379
15904		41.150734	42.076347	7.228961
15905		41.165066	42.052074	7.206354
15906		41.189868	42.026984	7.190230
15907		41.216051	42.005182	7.177991
15908		41.233567	41.987907	7.169320
15909		41.244212	41.978380	7.166220
15910		41.245745	41.974109	7.169690
15911		41.237289	41.972453	7.170951
15912		41.223283	41.972139	7.169077
15913		41.210704	41.967217	7.160480
15914		41.206119	41.970343	7.159675
15915		41.205724	41.972906	7.161045
15916		41.207577	41.979240	7.164523
15917		41.206212	41.986859	7.168086
15918		41.199606	41.993446	7.171455
15919		41.188347	41.999652	7.174951
15920		41.178712	42.006991	7.175717
15921		41.175941	42.007603	7.178256
15922		41.170938	42.006518	7.173917
15923		41.171040	42.000862	7.176758
15924		41.168585	41.998612	7.179067
15925		41.163298	41.996816	7.178236
15926		41.154372	41.992006	7.172808
15927		41.145711	41.988289	7.166998
15928		41.146154	41.988586	7.168312
15929		41.148885	41.988974	7.172325
15930		41.148042	41.985814	7.167902
15931		41.154234	41.981262	7.165291
15932		41.162700	41.975587	7.156619
15933		41.171609	41.970216	7.143576
15934		41.185670	41.966113	7.129782
15935		41.201126	41.962523	7.119628
15936		41.220239	41.960433	7.112365
15937		41.240770	41.958222	7.103147
15938		41.261486	41.946858	7.086099
15939		41.273697	41.936766	7.067168
15940		41.286383	41.930551	7.050320
15941		41.293459	41.931148	7.030599
15942		41.295387	41.935951	7.013077
