// General information: 
//  MT Manager version: 2022.2.0 
//  XDA version: 2022.2.0 build 7381 rev 124627 built on 2023-07-19
// Device information: 
//  DeviceId: 00B44730
//  ProductCode: MTW2-3A7G6
//  Firmware Version: 4.3.5
//  Hardware Version: 2.0.0
// Device settings: 
//  Filter Profile: human(46.1)
//  Option Flags: Orientation Smoother Disabled, Position/Velocity Smoother Disabled, Continuous Zero Rotation Update Disabled, AHS Disabled, ICC Disabled
// Coordinate system: ENU
PacketCounter	SampleTimeFine	Roll	Pitch	Yaw
12625		23.637751	27.458209	-25.567273
12626		23.634948	27.455434	-25.566096
12627		23.629993	27.453594	-25.564978
12628		23.628044	27.455138	-25.562001
12629		23.628922	27.458839	-25.558191
12630		23.629517	27.461144	-25.554041
12631		23.631113	27.462724	-25.551790
12632		23.634094	27.463428	-25.549640
12633		23.635719	27.469241	-25.545116
12634		23.636172	27.476502	-25.543498
12635		23.637195	27.478166	-25.538938
12636		23.634634	27.478068	-25.534907
12637		23.631459	27.476381	-25.530865
12638		23.625530	27.470921	-25.528333
12639		23.618211	27.464548	-25.528602
12640		23.615909	27.463858	-25.529356
12641		23.616694	27.463791	-25.530851
12642		23.617997	27.465619	-25.534005
12643		23.622660	27.464275	-25.539515
12644		23.631606	27.466141	-25.543257
12645		23.638542	27.470902	-25.545104
12646		23.644247	27.473818	-25.545363
12647		23.646900	27.476798	-25.545448
12648		23.645090	27.477742	-25.546031
12649		23.642422	27.476439	-25.547331
12650		23.635077	27.475487	-25.553087
12651		23.631890	27.472931	-25.555874
12652		23.627242	27.472293	-25.555347
12653		23.620113	27.471479	-25.557151
12654		23.616589	27.473556	-25.556424
12655		23.615415	27.476475	-25.556292
12656		23.613354	27.481287	-25.556761
12657		23.614654	27.482471	-25.556770
12658		23.615442	27.482564	-25.558649
12659		23.620685	27.482005	-25.559640
12660		23.622052	27.483273	-25.559885
12661		23.622373	27.485950	-25.559080
12662		23.619311	27.487391	-25.558418
12663		23.615488	27.486251	-25.555109
12664		23.609728	27.487318	-25.548917
12665		23.606162	27.491268	-25.544105
12666		23.604962	27.497880	-25.542095
12667		23.608881	27.499755	-25.540734
12668		23.611674	27.498079	-25.540171
12669		23.618070	27.493755	-25.539711
12670		23.619894	27.487542	-25.541691
12671		23.619352	27.480980	-25.542362
12672		23.613986	27.481290	-25.547475
12673		23.611974	27.487265	-25.551842
12674		23.612643	27.491933	-25.557288
12675		23.610514	27.495246	-25.561652
12676		23.607098	27.499171	-25.567673
12677		23.599065	27.498283	-25.570958
12678		23.591040	27.499540	-25.574842
12679		23.580527	27.500385	-25.577989
12680		23.574598	27.499151	-25.583453
12681		23.570914	27.495108	-25.586222
12682		23.573086	27.490538	-25.588599
12683		23.571306	27.480377	-25.589961
12684		23.571156	27.471779	-25.587785
12685		23.572048	27.466306	-25.583989
12686		23.571499	27.460193	-25.579597
12687		23.574750	27.459250	-25.574413
12688		23.582247	27.463475	-25.566159
12689		23.589562	27.463451	-25.561955
12690		23.593644	27.461906	-25.555934
12691		23.597758	27.465734	-25.550034
12692		23.602363	27.465730	-25.543806
12693		23.603455	27.461351	-25.542298
12694		23.606631	27.458494	-25.541714
12695		23.608704	27.457085	-25.540254
12696		23.606729	27.452461	-25.539111
12697		23.605597	27.437052	-25.539016
12698		23.603040	27.426362	-25.539148
12699		23.599314	27.418953	-25.537382
12700		23.597002	27.413728	-25.537275
12701		23.598325	27.410209	-25.536535
12702		23.601404	27.409113	-25.533419
12703		23.606263	27.410583	-25.527565
12704		23.612030	27.413819	-25.517965
12705		23.618462	27.418798	-25.506135
12706		23.623798	27.421550	-25.497799
12707		23.625271	27.425537	-25.486458
12708		23.625552	27.426026	-25.476111
12709		23.624259	27.426899	-25.467657
12710		23.624771	27.426605	-25.460859
12711		23.625787	27.423552	-25.455568
12712		23.627725	27.421452	-25.453319
12713		23.635288	27.417578	-25.449142
12714		23.640409	27.416712	-25.452274
12715		23.643769	27.417808	-25.455417
12716		23.648119	27.417344	-25.458332
12717		23.650492	27.415471	-25.461432
12718		23.649788	27.413371	-25.464926
12719		23.650315	27.412682	-25.467165
12720		23.649932	27.409509	-25.472508
12721		23.649685	27.406948	-25.476980
12722		23.648262	27.405695	-25.482898
12723		23.647248	27.405726	-25.488833
12724		23.647209	27.405918	-25.493450
12725		23.646452	27.406572	-25.498641
12726		23.648447	27.407690	-25.501116
12727		23.650728	27.407379	-25.501936
12728		23.651382	27.406473	-25.502846
12729		23.652911	27.404054	-25.504390
12730		23.653579	27.407537	-25.502840
12731		23.656769	27.407057	-25.500686
12732		23.660305	27.405450	-25.499256
12733		23.662743	27.402862	-25.497827
12734		23.660841	27.402768	-25.495493
12735		23.657199	27.402723	-25.494486
12736		23.656374	27.406214	-25.492171
12737		23.652946	27.407270	-25.493438
12738		23.649780	27.405205	-25.497845
12739		23.655526	27.406125	-25.498844
12740		23.660284	27.404632	-25.503201
12741		23.662257	27.399713	-25.508559
12742		23.662602	27.395605	-25.509804
12743		23.659072	27.393760	-25.509568
12744		23.656206	27.400508	-25.509095
12745		23.653617	27.407176	-25.502828
12746		23.649610	27.410006	-25.499549
12747		23.649573	27.413614	-25.497209
12748		23.649744	27.415597	-25.495666
12749		23.647430	27.413122	-25.497011
12750		23.645788	27.410458	-25.499381
12751		23.642864	27.408298	-25.499937
12752		23.640039	27.406517	-25.501978
12753		23.636362	27.402249	-25.503260
12754		23.632620	27.401856	-25.504350
12755		23.631476	27.404294	-25.501203
12756		23.628937	27.402701	-25.499455
12757		23.627155	27.401231	-25.497803
12758		23.625651	27.404749	-25.497667
12759		23.623419	27.405413	-25.502024
12760		23.618174	27.405747	-25.506637
12761		23.612144	27.409973	-25.516824
12762		23.612946	27.410675	-25.523097
12763		23.611079	27.405700	-25.528254
12764		23.606701	27.404395	-25.532623
12765		23.607828	27.412548	-25.535611
12766		23.612669	27.422244	-25.539723
12767		23.614540	27.428044	-25.542760
12768		23.613198	27.430588	-25.545013
12769		23.606763	27.432131	-25.547646
12770		23.596279	27.434590	-25.548535
12771		23.580952	27.440870	-25.546922
12772		23.568629	27.443815	-25.542584
12773		23.555828	27.438720	-25.538130
12774		23.543252	27.432219	-25.535868
12775		23.532881	27.430565	-25.535298
12776		23.527535	27.429899	-25.532898
12777		23.526136	27.427010	-25.529765
12778		23.524493	27.422950	-25.527540
12779		23.525560	27.418563	-25.526047
12780		23.526589	27.420883	-25.524490
12781		23.526877	27.423787	-25.525193
12782		23.529729	27.424579	-25.523353
12783		23.532397	27.422846	-25.522686
12784		23.537218	27.420892	-25.523906
12785		23.538049	27.420102	-25.520879
12786		23.539198	27.416068	-25.520972
12787		23.537125	27.409752	-25.522353
12788		23.534692	27.410754	-25.520701
12789		23.530413	27.411017	-25.518924
12790		23.527463	27.401758	-25.520407
12791		23.522543	27.393657	-25.520899
12792		23.516721	27.391704	-25.519844
12793		23.522269	27.391275	-25.517050
12794		23.531545	27.400300	-25.506374
12795		23.537815	27.407033	-25.493776
12796		23.545457	27.412485	-25.478386
12797		23.552489	27.416622	-25.464330
12798		23.556419	27.416644	-25.456024
12799		23.558743	27.415605	-25.452322
12800		23.562697	27.419015	-25.448770
12801		23.554793	27.415633	-25.448350
12802		23.545518	27.408397	-25.450738
12803		23.533567	27.398805	-25.456937
12804		23.522511	27.387194	-25.464520
12805		23.512033	27.377832	-25.473047
12806		23.501793	27.375757	-25.480767
12807		23.493211	27.378345	-25.486310
12808		23.489871	27.384414	-25.489840
12809		23.493167	27.391280	-25.488406
12810		23.509261	27.395196	-25.488937
12811		23.532554	27.400215	-25.489993
12812		23.557062	27.401798	-25.491230
12813		23.568515	27.401820	-25.494753
12814		23.568368	27.405810	-25.498831
12815		23.561935	27.420973	-25.500643
12816		23.557059	27.431932	-25.505772
12817		23.560044	27.434442	-25.510377
12818		23.565776	27.431533	-25.515544
12819		23.569930	27.425091	-25.514980
12820		23.568496	27.424947	-25.515332
12821		23.558705	27.427684	-25.516305
12822		23.539633	27.428703	-25.522263
12823		23.520082	27.426361	-25.528830
12824		23.502747	27.428519	-25.537676
12825		23.493735	27.433005	-25.547727
12826		23.494489	27.434896	-25.559666
12827		23.501901	27.437867	-25.569754
12828		23.516395	27.443066	-25.577037
12829		23.532554	27.448393	-25.583005
12830		23.547820	27.452247	-25.584712
12831		23.559205	27.457801	-25.582159
12832		23.563879	27.459218	-25.579949
12833		23.559953	27.458300	-25.578216
12834		23.553868	27.459161	-25.575497
12835		23.547832	27.463260	-25.572883
12836		23.542399	27.466738	-25.568613
12837		23.537613	27.465270	-25.565339
12838		23.529769	27.460404	-25.567861
12839		23.522707	27.462019	-25.568231
12840		23.518339	27.464126	-25.566049
12841		23.515403	27.466174	-25.564349
12842		23.515045	27.466657	-25.562785
12843		23.521956	27.468010	-25.560040
12844		23.530131	27.468396	-25.556273
12845		23.534813	27.467407	-25.551933
12846		23.537077	27.461976	-25.549751
12847		23.533995	27.457151	-25.550349
12848		23.526031	27.453113	-25.550450
12849		23.516332	27.449594	-25.552993
12850		23.511653	27.446036	-25.552125
12851		23.507451	27.444739	-25.552648
12852		23.504326	27.446672	-25.553123
12853		23.507595	27.449316	-25.553967
12854		23.511533	27.453584	-25.554530
12855		23.510817	27.462670	-25.555152
12856		23.502312	27.466920	-25.558057
12857		23.493069	27.465611	-25.565132
12858		23.479622	27.465523	-25.572392
12859		23.466504	27.464399	-25.580797
12860		23.453706	27.462026	-25.588436
12861		23.442605	27.457195	-25.593941
12862		23.438023	27.455008	-25.597319
12863		23.438805	27.454689	-25.597313
12864		23.444824	27.455563	-25.597855
12865		23.446354	27.452892	-25.597896
12866		23.446235	27.450643	-25.603826
12867		23.449379	27.450625	-25.604679
12868		23.450850	27.450609	-25.608510
12869		23.448494	27.448368	-25.611386
12870		23.448184	27.447123	-25.612600
12871		23.448194	27.449640	-25.615555
12872		23.444002	27.448700	-25.617949
12873		23.446265	27.453073	-25.619489
12874		23.445526	27.457657	-25.619861
12875		23.444404	27.454791	-25.624304
12876		23.441334	27.452561	-25.628454
12877		23.439449	27.447833	-25.635130
12878		23.437671	27.441562	-25.642929
12879		23.432706	27.438154	-25.644191
12880		23.426230	27.438199	-25.641187
12881		23.421782	27.435789	-25.639456
12882		23.420497	27.432469	-25.633310
12883		23.417680	27.427773	-25.630161
12884		23.421188	27.423646	-25.627966
12885		23.428595	27.426475	-25.625226
12886		23.434440	27.429062	-25.623532
12887		23.434480	27.430849	-25.621976
12888		23.431095	27.427231	-25.622801
12889		23.430127	27.426295	-25.622723
12890		23.428279	27.423037	-25.625447
12891		23.424660	27.417453	-25.630547
12892		23.428067	27.411714	-25.635815
12893		23.434562	27.410753	-25.639827
12894		23.443137	27.406619	-25.644154
12895		23.450746	27.402375	-25.649742
12896		23.457868	27.402817	-25.652139
12897		23.459136	27.404223	-25.653649
12898		23.459776	27.407850	-25.653599
12899		23.454678	27.406483	-25.655599
12900		23.450882	27.404092	-25.656490
12901		23.448158	27.402784	-25.657843
12902		23.448835	27.402207	-25.659846
12903		23.450336	27.400265	-25.664397
12904		23.452100	27.399098	-25.668597
12905		23.455100	27.401606	-25.673183
12906		23.455536	27.405751	-25.676940
12907		23.455295	27.407649	-25.680636
12908		23.455879	27.406768	-25.681685
12909		23.456393	27.406070	-25.683929
12910		23.460783	27.406737	-25.682736
12911		23.467548	27.405908	-25.682997
12912		23.477123	27.403749	-25.681532
12913		23.483902	27.402431	-25.678791
12914		23.482379	27.395611	-25.682625
12915		23.477375	27.384032	-25.689974
12916		23.472041	27.380067	-25.695414
12917		23.466556	27.375667	-25.699679
12918		23.462319	27.369635	-25.702648
12919		23.459836	27.364736	-25.705543
12920		23.459402	27.360813	-25.704900
12921		23.460668	27.353066	-25.706476
12922		23.464367	27.347224	-25.706412
12923		23.468887	27.339598	-25.705875
12924		23.471960	27.331693	-25.703571
12925		23.471746	27.323214	-25.699830
12926		23.473430	27.317818	-25.697500
12927		23.477074	27.309884	-25.696929
12928		23.478719	27.303423	-25.700540
12929		23.477728	27.294069	-25.705037
12930		23.472285	27.289615	-25.708017
12931		23.466167	27.276866	-25.714571
12932		23.457199	27.265140	-25.725409
12933		23.451970	27.261604	-25.730421
12934		23.452477	27.263247	-25.733079
12935		23.455882	27.263600	-25.731678
12936		23.458545	27.267658	-25.726511
12937		23.465842	27.276236	-25.719205
12938		23.476766	27.286569	-25.715042
12939		23.490551	27.296613	-25.711004
12940		23.500757	27.304775	-25.707524
12941		23.502276	27.302347	-25.709072
12942		23.500489	27.295329	-25.714466
12943		23.498497	27.292656	-25.721872
12944		23.492405	27.286819	-25.729606
12945		23.482896	27.272034	-25.742799
12946		23.476477	27.255826	-25.748887
12947		23.469494	27.242032	-25.750914
12948		23.466148	27.233445	-25.749379
12949		23.466302	27.228240	-25.744884
12950		23.467648	27.228147	-25.737863
12951		23.469565	27.232215	-25.730361
12952		23.474644	27.234690	-25.727309
12953		23.479684	27.241656	-25.722917
12954		23.482788	27.243159	-25.719981
12955		23.487679	27.239301	-25.721685
12956		23.493542	27.234177	-25.724650
12957		23.499679	27.229697	-25.727915
12958		23.504529	27.226205	-25.731811
12959		23.506793	27.221920	-25.736409
12960		23.510418	27.220812	-25.737359
12961		23.511695	27.222465	-25.740357
12962		23.516005	27.218968	-25.745947
12963		23.518029	27.217775	-25.746004
12964		23.519192	27.216031	-25.743253
12965		23.519829	27.208843	-25.745560
12966		23.527358	27.207236	-25.743622
12967		23.538011	27.210166	-25.738756
12968		23.550843	27.212001	-25.729581
12969		23.559626	27.215611	-25.720876
12970		23.573166	27.219347	-25.711509
12971		23.582825	27.223758	-25.705833
12972		23.592185	27.226419	-25.698417
12973		23.597215	27.228428	-25.691819
12974		23.599244	27.228676	-25.687967
12975		23.602391	27.227910	-25.684321
12976		23.607243	27.225342	-25.680647
12977		23.618492	27.218553	-25.675164
12978		23.629580	27.215526	-25.668148
12979		23.640838	27.212685	-25.658873
12980		23.652382	27.212764	-25.651027
12981		23.661908	27.214508	-25.645373
12982		23.669480	27.214677	-25.641860
12983		23.675390	27.217737	-25.639785
12984		23.676745	27.222950	-25.636219
12985		23.677550	27.231029	-25.631617
12986		23.676237	27.236346	-25.622311
12987		23.672662	27.242893	-25.617545
12988		23.669931	27.251993	-25.613467
12989		23.666745	27.262315	-25.610922
12990		23.663278	27.270021	-25.612059
12991		23.663464	27.279410	-25.612665
12992		23.668854	27.288609	-25.616554
12993		23.679408	27.295316	-25.622867
12994		23.698246	27.303483	-25.628299
12995		23.722935	27.312545	-25.631407
12996		23.749437	27.320402	-25.634397
12997		23.774858	27.326357	-25.633074
12998		23.794883	27.331609	-25.626890
12999		23.803920	27.335801	-25.617424
13000		23.803556	27.339528	-25.607366
13001		23.802600	27.345726	-25.595218
13002		23.798353	27.351049	-25.583938
13003		23.792364	27.351327	-25.570174
13004		23.789140	27.352922	-25.557797
13005		23.788922	27.357021	-25.547210
13006		23.790758	27.358424	-25.540075
13007		23.794401	27.358878	-25.534943
13008		23.800178	27.359066	-25.531970
13009		23.804956	27.360944	-25.529111
13010		23.810908	27.362012	-25.527251
13011		23.820329	27.366282	-25.525289
13012		23.826222	27.375508	-25.520109
13013		23.827390	27.381641	-25.511047
13014		23.823775	27.385166	-25.503241
13015		23.818551	27.389057	-25.497711
13016		23.815279	27.394386	-25.496379
13017		23.814291	27.393967	-25.499325
13018		23.814243	27.391074	-25.500301
13019		23.817786	27.394835	-25.503359
13020		23.826327	27.396955	-25.505853
13021		23.833606	27.397850	-25.507601
13022		23.841328	27.404373	-25.510592
13023		23.852313	27.418290	-25.512279
13024		23.859133	27.431111	-25.512273
13025		23.864987	27.445600	-25.512254
13026		23.864821	27.451619	-25.512379
13027		23.859327	27.451975	-25.517397
13028		23.850553	27.454088	-25.523908
13029		23.843809	27.455314	-25.528866
13030		23.836043	27.455608	-25.532801
13031		23.831529	27.453461	-25.532650
13032		23.832024	27.452308	-25.530662
13033		23.831017	27.450871	-25.527635
13034		23.834880	27.449624	-25.523295
13035		23.836501	27.448592	-25.517365
13036		23.841455	27.445845	-25.513378
13037		23.847592	27.445056	-25.511359
13038		23.851547	27.445169	-25.511613
13039		23.854567	27.446686	-25.510190
13040		23.857172	27.450763	-25.505119
13041		23.859953	27.455346	-25.499143
13042		23.864078	27.459143	-25.493312
13043		23.868586	27.459634	-25.486718
13044		23.873527	27.459166	-25.480176
13045		23.879400	27.457252	-25.475920
13046		23.886223	27.457532	-25.470542
13047		23.887843	27.456752	-25.466111
13048		23.886871	27.451229	-25.465631
13049		23.884312	27.444840	-25.459643
13050		23.874321	27.444535	-25.458163
13051		23.863275	27.441440	-25.457798
13052		23.855710	27.443446	-25.457164
13053		23.848985	27.448615	-25.458317
13054		23.843629	27.453069	-25.459366
13055		23.840685	27.460577	-25.462866
13056		23.842735	27.468460	-25.466060
13057		23.850307	27.474662	-25.467717
13058		23.859283	27.480075	-25.469228
13059		23.866298	27.479585	-25.467234
13060		23.873860	27.476185	-25.466360
13061		23.878718	27.471819	-25.465104
13062		23.881747	27.468907	-25.463025
13063		23.880336	27.464457	-25.462295
13064		23.878441	27.464914	-25.459849
13065		23.876690	27.466083	-25.458261
13066		23.875996	27.470082	-25.455487
13067		23.875867	27.469459	-25.455485
13068		23.874886	27.470681	-25.456034
13069		23.870759	27.472062	-25.456604
13070		23.863115	27.472609	-25.459091
13071		23.851336	27.472636	-25.463156
13072		23.845777	27.476169	-25.463259
13073		23.840514	27.476634	-25.464555
13074		23.840285	27.474284	-25.469403
13075		23.845561	27.473953	-25.471832
13076		23.849985	27.473521	-25.474470
13077		23.851730	27.471718	-25.475304
13078		23.849900	27.470317	-25.474001
13079		23.844621	27.470268	-25.472314
13080		23.837755	27.473918	-25.468024
13081		23.829471	27.474390	-25.467721
13082		23.824592	27.471124	-25.468840
13083		23.823326	27.469584	-25.469564
13084		23.823660	27.468163	-25.471162
13085		23.823399	27.465397	-25.474187
13086		23.825767	27.463274	-25.476577
13087		23.830184	27.466825	-25.476661
13088		23.833342	27.464443	-25.478938
13089		23.833585	27.462900	-25.480463
13090		23.833504	27.460479	-25.484699
13091		23.834008	27.459804	-25.486966
13092		23.830102	27.459791	-25.489794
13093		23.825570	27.457904	-25.491161
13094		23.822954	27.456771	-25.492296
13095		23.823188	27.454970	-25.492330
13096		23.824527	27.451784	-25.493191
13097		23.826020	27.449368	-25.494775
13098		23.827752	27.446875	-25.494043
13099		23.829981	27.442108	-25.495693
13100		23.830943	27.437961	-25.498947
13101		23.828280	27.430968	-25.504956
13102		23.822451	27.426192	-25.510679
13103		23.820545	27.421031	-25.514437
13104		23.821385	27.416291	-25.515366
13105		23.819352	27.412659	-25.516850
13106		23.819508	27.414990	-25.518263
13107		23.825060	27.419454	-25.517616
13108		23.828116	27.419361	-25.522145
13109		23.829524	27.419506	-25.527416
13110		23.829491	27.417385	-25.532886
13111		23.823208	27.411479	-25.540996
13112		23.817062	27.405641	-25.549012
13113		23.809804	27.401731	-25.559293
13114		23.804015	27.395996	-25.562933
13115		23.797938	27.385740	-25.568135
13116		23.794601	27.375979	-25.570376
13117		23.792425	27.369690	-25.571901
13118		23.790673	27.364142	-25.572267
13119		23.792036	27.359327	-25.575380
13120		23.798024	27.351134	-25.575721
13121		23.799756	27.345143	-25.578867
13122		23.802187	27.340224	-25.578475
13123		23.804052	27.336631	-25.580088
13124		23.805782	27.334225	-25.581167
13125		23.809411	27.331241	-25.582829
13126		23.814437	27.327666	-25.586013
13127		23.822359	27.327989	-25.587013
13128		23.829786	27.324542	-25.589276
13129		23.836823	27.320637	-25.594060
13130		23.842173	27.315953	-25.597386
13131		23.845523	27.307918	-25.600630
13132		23.845113	27.293748	-25.605565
13133		23.841041	27.284455	-25.608580
13134		23.836349	27.281773	-25.609234
13135		23.831292	27.278143	-25.609119
13136		23.825357	27.275599	-25.604921
13137		23.823078	27.275278	-25.603344
13138		23.820980	27.274618	-25.598096
13139		23.823803	27.272689	-25.592245
13140		23.826108	27.273698	-25.588905
13141		23.827621	27.275463	-25.588163
13142		23.830275	27.275903	-25.587920
13143		23.832258	27.274447	-25.586511
13144		23.835042	27.275223	-25.584579
13145		23.838525	27.269584	-25.586288
13146		23.843441	27.262608	-25.584580
13147		23.846323	27.257795	-25.588492
13148		23.852338	27.252512	-25.590926
13149		23.858500	27.248306	-25.595683
13150		23.863821	27.245732	-25.599218
13151		23.867601	27.245404	-25.600832
13152		23.863999	27.245671	-25.601169
13153		23.861732	27.245610	-25.601083
13154		23.861463	27.246769	-25.603524
13155		23.860462	27.246096	-25.604985
13156		23.864040	27.245345	-25.607436
13157		23.868702	27.245321	-25.609073
13158		23.871617	27.246781	-25.611349
13159		23.871764	27.247283	-25.613571
13160		23.870449	27.250149	-25.617067
13161		23.866447	27.250000	-25.619911
13162		23.857537	27.253876	-25.625843
13163		23.847400	27.256299	-25.629180
13164		23.838244	27.259222	-25.632360
13165		23.832622	27.261119	-25.635112
13166		23.831760	27.260444	-25.636540
13167		23.834537	27.261596	-25.637344
13168		23.842670	27.265005	-25.639926
13169		23.845729	27.267287	-25.642954
13170		23.850128	27.268343	-25.642824
13171		23.853521	27.268929	-25.642914
13172		23.855162	27.268482	-25.640247
13173		23.853873	27.266677	-25.639489
13174		23.851994	27.265102	-25.636505
13175		23.848286	27.262734	-25.633443
13176		23.847566	27.261473	-25.626576
13177		23.846235	27.263063	-25.619036
13178		23.844012	27.262304	-25.614506
13179		23.836344	27.259113	-25.606863
13180		23.826629	27.258948	-25.600874
13181		23.817276	27.260372	-25.596811
13182		23.804600	27.261900	-25.595599
13183		23.792279	27.264372	-25.595896
13184		23.783464	27.272593	-25.598765
13185		23.779770	27.278014	-25.603003
13186		23.780858	27.284465	-25.610962
13187		23.785377	27.289311	-25.618451
13188		23.789460	27.292226	-25.622945
13189		23.790393	27.291157	-25.629699
13190		23.788702	27.288844	-25.633433
13191		23.783021	27.286041	-25.635545
13192		23.775765	27.284957	-25.634516
13193		23.768893	27.280457	-25.632898
13194		23.760236	27.274725	-25.626987
13195		23.748781	27.269969	-25.621507
13196		23.742623	27.267088	-25.616829
13197		23.739545	27.268589	-25.612226
13198		23.738767	27.270068	-25.610725
13199		23.740640	27.270650	-25.610019
13200		23.744699	27.270795	-25.609612
13201		23.748482	27.270462	-25.611218
13202		23.753351	27.272937	-25.611442
13203		23.758107	27.274778	-25.608563
13204		23.762125	27.274835	-25.608535
13205		23.762325	27.272765	-25.607089
13206		23.759893	27.271747	-25.604448
13207		23.759885	27.277682	-25.600594
13208		23.758139	27.283191	-25.596911
13209		23.752290	27.281651	-25.595274
13210		23.745434	27.277123	-25.592200
13211		23.736290	27.274978	-25.589732
13212		23.730745	27.276353	-25.589547
13213		23.731234	27.275414	-25.590320
13214		23.737907	27.274343	-25.592627
13215		23.751629	27.273254	-25.593052
13216		23.766648	27.272627	-25.589265
13217		23.779136	27.273490	-25.580678
13218		23.788782	27.274716	-25.571566
13219		23.790132	27.274635	-25.560436
13220		23.785113	27.274225	-25.551823
13221		23.776392	27.272512	-25.543411
13222		23.766330	27.273238	-25.535508
13223		23.756764	27.271748	-25.530047
13224		23.751955	27.268247	-25.526424
13225		23.750896	27.267049	-25.524927
13226		23.753458	27.266956	-25.521906
13227		23.760732	27.263133	-25.522941
13228		23.769461	27.261559	-25.525641
13229		23.776663	27.260045	-25.528856
13230		23.780311	27.259484	-25.532714
13231		23.781568	27.260632	-25.532722
13232		23.775852	27.264242	-25.533249
13233		23.771575	27.267404	-25.533053
13234		23.771407	27.272923	-25.529795
13235		23.769399	27.277905	-25.528136
13236		23.766595	27.278481	-25.528791
13237		23.767507	27.281068	-25.530245
13238		23.771384	27.283581	-25.532442
13239		23.775560	27.282335	-25.535563
13240		23.781953	27.284582	-25.534888
13241		23.789946	27.282316	-25.532189
13242		23.793230	27.280375	-25.532555
13243		23.791681	27.282134	-25.530240
13244		23.786196	27.285490	-25.525382
13245		23.774649	27.287487	-25.521294
13246		23.765036	27.290274	-25.516735
13247		23.755403	27.291358	-25.514955
13248		23.748642	27.292147	-25.517375
13249		23.745090	27.292958	-25.517259
13250		23.747675	27.293915	-25.520547
13251		23.754644	27.295965	-25.522181
13252		23.763831	27.297261	-25.522424
13253		23.771768	27.301474	-25.519572
13254		23.774298	27.303216	-25.515161
13255		23.771060	27.302323	-25.512120
13256		23.768274	27.304461	-25.507048
13257		23.757876	27.307632	-25.503721
13258		23.749124	27.306919	-25.505102
13259		23.740136	27.303791	-25.507908
13260		23.734429	27.302894	-25.509123
13261		23.732154	27.303095	-25.510546
13262		23.730970	27.301922	-25.512830
13263		23.727806	27.301820	-25.514236
13264		23.727360	27.306864	-25.513724
13265		23.723043	27.309760	-25.512060
13266		23.717252	27.308095	-25.508794
13267		23.708619	27.311869	-25.505510
13268		23.706014	27.323766	-25.502798
13269		23.706251	27.333400	-25.504819
13270		23.708223	27.340872	-25.505126
13271		23.708892	27.347020	-25.505008
13272		23.703907	27.348902	-25.508576
13273		23.695088	27.348690	-25.512819
13274		23.684529	27.348221	-25.519011
13275		23.676872	27.349181	-25.524003
13276		23.668448	27.347646	-25.526998
13277		23.661564	27.343680	-25.528404
13278		23.655853	27.340089	-25.526373
13279		23.654076	27.338662	-25.521162
13280		23.651052	27.336077	-25.518864
13281		23.647643	27.332527	-25.515889
13282		23.645393	27.332602	-25.515946
13283		23.644191	27.333180	-25.513678
13284		23.642298	27.337665	-25.508687
13285		23.638433	27.341508	-25.504051
13286		23.634259	27.348398	-25.498169
13287		23.628493	27.353419	-25.492719
13288		23.623989	27.355536	-25.490291
13289		23.615078	27.354531	-25.490102
13290		23.613489	27.356146	-25.491396
13291		23.616937	27.357244	-25.494433
13292		23.623385	27.359973	-25.496786
13293		23.631312	27.355837	-25.498564
13294		23.639169	27.348969	-25.498637
13295		23.649934	27.349719	-25.492945
13296		23.654404	27.349602	-25.483523
13297		23.656448	27.343240	-25.476300
13298		23.655596	27.337507	-25.470393
13299		23.652677	27.339338	-25.463603
13300		23.645482	27.338231	-25.459405
13301		23.635578	27.331965	-25.457091
13302		23.629237	27.329265	-25.457304
13303		23.623762	27.331252	-25.456391
13304		23.619238	27.333410	-25.453967
13305		23.616860	27.332814	-25.450961
13306		23.611270	27.336374	-25.448188
13307		23.608807	27.339153	-25.438422
13308		23.603845	27.339909	-25.432844
13309		23.601375	27.341361	-25.430532
13310		23.600208	27.344570	-25.432120
13311		23.597428	27.346400	-25.440184
13312		23.597908	27.350515	-25.446642
13313		23.597091	27.351697	-25.458479
13314		23.606481	27.354646	-25.467384
13315		23.621490	27.362240	-25.474242
13316		23.647591	27.364776	-25.475598
13317		23.674971	27.365938	-25.470272
13318		23.695232	27.367966	-25.461011
13319		23.706707	27.370252	-25.451581
13320		23.708040	27.370521	-25.442287
13321		23.696742	27.366914	-25.439161
13322		23.681053	27.360433	-25.441678
13323		23.663758	27.354002	-25.445161
13324		23.648614	27.353635	-25.448660
13325		23.640216	27.358280	-25.446142
13326		23.636924	27.365844	-25.443812
13327		23.640609	27.375614	-25.439960
13328		23.645452	27.390017	-25.430198
13329		23.645881	27.401039	-25.421049
13330		23.649758	27.408561	-25.414861
13331		23.658080	27.415739	-25.409687
13332		23.663342	27.418873	-25.405623
13333		23.667831	27.415913	-25.405808
13334		23.672140	27.415058	-25.410324
13335		23.675657	27.416692	-25.416311
13336		23.679572	27.416415	-25.420353
13337		23.693810	27.414914	-25.425164
13338		23.717811	27.417869	-25.421738
13339		23.740531	27.418478	-25.411099
13340		23.749655	27.413649	-25.399975
13341		23.745517	27.407284	-25.389681
13342		23.733297	27.411471	-25.383641
13343		23.715267	27.415736	-25.382424
13344		23.699562	27.418155	-25.388376
13345		23.698587	27.418021	-25.392826
13346		23.706387	27.415427	-25.395420
13347		23.717099	27.418464	-25.391876
13348		23.730045	27.422986	-25.384037
13349		23.736935	27.425527	-25.373751
13350		23.734521	27.428356	-25.364148
13351		23.729762	27.433470	-25.353554
13352		23.726271	27.446776	-25.346768
13353		23.726340	27.457652	-25.345024
13354		23.730179	27.469783	-25.342826
13355		23.737518	27.474534	-25.340646
13356		23.743063	27.474030	-25.338028
13357		23.744715	27.471679	-25.335920
13358		23.743795	27.470638	-25.333798
13359		23.736579	27.465826	-25.334545
13360		23.725753	27.463952	-25.336492
13361		23.714972	27.462100	-25.334866
13362		23.702165	27.463354	-25.332018
13363		23.690522	27.461471	-25.331861
13364		23.686472	27.460396	-25.328518
13365		23.682709	27.458560	-25.328514
13366		23.682468	27.455108	-25.326824
13367		23.685106	27.455169	-25.321706
13368		23.688722	27.461760	-25.314724
13369		23.692830	27.461279	-25.307426
13370		23.692043	27.464631	-25.301382
13371		23.685334	27.469346	-25.295965
13372		23.678248	27.471428	-25.295001
13373		23.669760	27.474238	-25.297013
13374		23.662203	27.479525	-25.299485
13375		23.658587	27.482926	-25.303057
13376		23.658394	27.484205	-25.302060
13377		23.659793	27.481248	-25.300705
13378		23.660316	27.476047	-25.302084
13379		23.659195	27.474842	-25.300636
13380		23.658870	27.473386	-25.299692
13381		23.654971	27.469169	-25.301236
13382		23.649970	27.468287	-25.301518
13383		23.642053	27.470255	-25.301345
13384		23.634152	27.467879	-25.302155
13385		23.631641	27.471913	-25.303508
13386		23.635209	27.475110	-25.301887
13387		23.631719	27.474146	-25.302614
13388		23.626757	27.473295	-25.302599
13389		23.624180	27.480950	-25.298672
13390		23.620068	27.492576	-25.290442
13391		23.610295	27.501726	-25.282649
13392		23.598179	27.503913	-25.272725
13393		23.594380	27.503383	-25.265293
13394		23.596096	27.505291	-25.260916
13395		23.604455	27.501806	-25.258214
13396		23.611025	27.493624	-25.258257
13397		23.614035	27.484454	-25.259318
13398		23.616990	27.479451	-25.261658
13399		23.616175	27.475227	-25.264743
13400		23.615573	27.466709	-25.267636
13401		23.611943	27.459208	-25.272240
13402		23.618476	27.457984	-25.278252
13403		23.628652	27.453794	-25.283006
13404		23.641246	27.453946	-25.284995
13405		23.656246	27.455536	-25.280054
13406		23.668592	27.449136	-25.275336
13407		23.672968	27.430567	-25.275948
13408		23.670381	27.412501	-25.281248
13409		23.664332	27.394075	-25.287594
13410		23.653337	27.371434	-25.301690
13411		23.641701	27.345150	-25.318502
13412		23.631866	27.321952	-25.337510
13413		23.627659	27.301248	-25.357251
13414		23.631136	27.286241	-25.376162
13415		23.636919	27.275371	-25.392117
13416		23.647279	27.268530	-25.406996
13417		23.658680	27.260064	-25.422253
13418		23.668922	27.252405	-25.435419
13419		23.678619	27.249611	-25.445312
13420		23.681684	27.243669	-25.453557
13421		23.678559	27.233212	-25.458982
13422		23.671936	27.219026	-25.463461
13423		23.662584	27.204147	-25.466669
13424		23.646738	27.192568	-25.467181
13425		23.635355	27.180643	-25.468784
13426		23.628078	27.167246	-25.476031
13427		23.620197	27.150252	-25.483012
13428		23.612704	27.136465	-25.492684
13429		23.611523	27.125845	-25.508485
13430		23.612794	27.117408	-25.523927
13431		23.615397	27.104163	-25.539873
13432		23.618800	27.086851	-25.560160
13433		23.622767	27.075863	-25.582720
13434		23.625767	27.070427	-25.600346
13435		23.624980	27.067969	-25.621098
13436		23.616339	27.063031	-25.643051
13437		23.604531	27.056081	-25.662966
13438		23.595134	27.048989	-25.680773
13439		23.588279	27.042156	-25.695606
13440		23.585464	27.032904	-25.706613
13441		23.574872	27.015462	-25.720177
13442		23.568016	26.994554	-25.729651
13443		23.558273	26.981299	-25.739417
13444		23.555489	26.969747	-25.748288
13445		23.560095	26.959002	-25.756060
13446		23.563462	26.946456	-25.763464
13447		23.569446	26.937220	-25.769748
13448		23.578455	26.929436	-25.775440
13449		23.582608	26.926076	-25.781527
13450		23.579960	26.917407	-25.792307
13451		23.574622	26.907709	-25.802800
13452		23.570165	26.899952	-25.810459
13453		23.563763	26.891457	-25.818678
13454		23.558346	26.881223	-25.829468
13455		23.557004	26.871827	-25.841507
13456		23.560006	26.865343	-25.851869
13457		23.566459	26.855475	-25.861131
13458		23.578150	26.838113	-25.869408
13459		23.588483	26.825420	-25.873667
13460		23.598535	26.820240	-25.872794
13461		23.610582	26.816199	-25.870947
13462		23.623591	26.812515	-25.869179
13463		23.637550	26.807300	-25.868147
13464		23.651793	26.800403	-25.867394
13465		23.660549	26.796025	-25.866229
13466		23.665907	26.790717	-25.866331
13467		23.663646	26.781836	-25.864319
13468		23.653846	26.773467	-25.861431
13469		23.639267	26.767435	-25.858331
13470		23.626358	26.763892	-25.854757
13471		23.614482	26.761361	-25.855305
13472		23.608947	26.761239	-25.857739
13473		23.606970	26.758146	-25.862205
13474		23.607625	26.753718	-25.868166
13475		23.608694	26.755273	-25.878466
13476		23.618997	26.760432	-25.888439
13477		23.635533	26.765410	-25.896022
13478		23.654609	26.770425	-25.899864
13479		23.671107	26.776966	-25.901497
13480		23.687024	26.783764	-25.902620
13481		23.697490	26.792946	-25.901094
13482		23.701967	26.798294	-25.897145
13483		23.699158	26.802996	-25.891781
13484		23.692220	26.811590	-25.886508
13485		23.681798	26.821254	-25.879368
13486		23.669841	26.828791	-25.874668
13487		23.657899	26.836894	-25.872715
13488		23.654144	26.845736	-25.870303
13489		23.653720	26.855388	-25.870015
13490		23.660219	26.862836	-25.873245
13491		23.667572	26.870176	-25.874654
13492		23.679252	26.876472	-25.879265
13493		23.695741	26.881177	-25.885358
13494		23.712211	26.885681	-25.890252
13495		23.727443	26.886338	-25.890536
13496		23.742162	26.889601	-25.886776
13497		23.750544	26.896525	-25.876406
13498		23.748617	26.900820	-25.863428
13499		23.743006	26.903293	-25.847020
13500		23.732951	26.908785	-25.830133
13501		23.723427	26.915654	-25.812785
13502		23.715638	26.921169	-25.798714
13503		23.709438	26.926818	-25.786634
13504		23.706981	26.930400	-25.781827
13505		23.706859	26.936776	-25.784592
13506		23.709735	26.947354	-25.790391
13507		23.714259	26.962810	-25.798866
13508		23.720839	26.973064	-25.807318
13509		23.721607	26.979740	-25.810093
13510		23.715513	26.984710	-25.812093
13511		23.705562	26.992196	-25.813918
13512		23.692264	27.001549	-25.817288
13513		23.677634	27.007201	-25.821308
13514		23.668120	27.009530	-25.825416
13515		23.660392	27.008413	-25.833448
13516		23.659071	27.012075	-25.842249
13517		23.664364	27.020529	-25.846528
13518		23.672952	27.027382	-25.850287
13519		23.685067	27.030349	-25.851155
13520		23.696686	27.034014	-25.849731
13521		23.705267	27.042025	-25.845223
13522		23.710705	27.049607	-25.836296
13523		23.709070	27.057302	-25.827202
13524		23.703162	27.062348	-25.822396
13525		23.694623	27.066685	-25.818459
13526		23.684247	27.072577	-25.815450
13527		23.675388	27.078364	-25.812943
13528		23.664470	27.085454	-25.813607
13529		23.653964	27.097437	-25.808680
13530		23.648911	27.103115	-25.808485
13531		23.642093	27.105954	-25.807581
13532		23.633585	27.114581	-25.801378
13533		23.631370	27.127274	-25.792137
13534		23.633875	27.139742	-25.783686
13535		23.637908	27.150115	-25.775345
13536		23.644940	27.166549	-25.765647
13537		23.645003	27.181041	-25.754911
13538		23.646213	27.198895	-25.745757
13539		23.644414	27.210686	-25.738028
13540		23.639594	27.220781	-25.733025
13541		23.632674	27.229821	-25.730477
13542		23.628783	27.236340	-25.729450
13543		23.624896	27.236535	-25.730161
13544		23.622450	27.236546	-25.733790
13545		23.624400	27.235320	-25.733882
13546		23.625203	27.235451	-25.735216
13547		23.631637	27.239873	-25.732983
13548		23.639883	27.244726	-25.729362
13549		23.646520	27.245325	-25.727247
13550		23.653097	27.247785	-25.724430
13551		23.654860	27.252203	-25.719924
13552		23.653012	27.257347	-25.714287
13553		23.647010	27.264362	-25.709607
13554		23.641478	27.272167	-25.700317
13555		23.634870	27.285724	-25.689532
13556		23.628279	27.299384	-25.679096
13557		23.620211	27.313494	-25.670495
13558		23.612159	27.325358	-25.663012
13559		23.605339	27.336773	-25.658938
13560		23.601815	27.350592	-25.655041
13561		23.604354	27.367973	-25.648679
13562		23.609152	27.383083	-25.646567
13563		23.616913	27.397792	-25.644764
13564		23.628377	27.409171	-25.638741
13565		23.639876	27.414230	-25.634319
13566		23.650977	27.417958	-25.629429
13567		23.660066	27.422992	-25.625719
13568		23.668544	27.426087	-25.619415
13569		23.669935	27.431674	-25.614874
13570		23.672747	27.436748	-25.611642
13571		23.671769	27.446733	-25.606941
13572		23.671334	27.459754	-25.599293
13573		23.670372	27.471554	-25.590111
13574		23.667814	27.481369	-25.583357
13575		23.665690	27.490456	-25.579414
13576		23.664903	27.499015	-25.577306
13577		23.663904	27.507183	-25.577091
13578		23.662193	27.517864	-25.576878
13579		23.666579	27.530151	-25.578792
13580		23.675034	27.542280	-25.578748
13581		23.686653	27.558770	-25.576160
13582		23.703318	27.577740	-25.570395
13583		23.722889	27.589334	-25.562116
13584		23.741385	27.597460	-25.550931
13585		23.758129	27.604987	-25.536116
13586		23.774182	27.615247	-25.523090
13587		23.788491	27.625077	-25.511127
13588		23.796375	27.634807	-25.503543
13589		23.798593	27.642735	-25.499669
13590		23.798919	27.645641	-25.500261
13591		23.800407	27.647641	-25.501004
13592		23.802845	27.651853	-25.497466
13593		23.805646	27.652454	-25.491626
13594		23.807185	27.653771	-25.484275
13595		23.810736	27.653830	-25.474034
13596		23.813608	27.656051	-25.462025
13597		23.816986	27.657599	-25.449521
13598		23.820976	27.656592	-25.439217
13599		23.824890	27.655473	-25.429019
13600		23.829728	27.657024	-25.421218
13601		23.834192	27.662318	-25.416705
13602		23.845231	27.667852	-25.407776
13603		23.854912	27.673804	-25.397371
13604		23.867806	27.677517	-25.386302
13605		23.881344	27.681113	-25.377474
13606		23.892758	27.681037	-25.369119
13607		23.903944	27.678430	-25.362707
13608		23.911367	27.674602	-25.363433
13609		23.917280	27.666925	-25.363806
13610		23.923169	27.663452	-25.365223
13611		23.928220	27.662227	-25.366838
13612		23.929228	27.656420	-25.367923
13613		23.926837	27.651696	-25.363723
13614		23.921258	27.650935	-25.354662
13615		23.911761	27.650336	-25.346591
13616		23.903366	27.650583	-25.341563
13617		23.898357	27.651999	-25.340079
13618		23.901409	27.653575	-25.338360
13619		23.914006	27.653263	-25.338506
13620		23.928062	27.650318	-25.339650
13621		23.939992	27.646172	-25.341406
13622		23.948363	27.640631	-25.341510
13623		23.949132	27.634387	-25.344756
13624		23.948077	27.629379	-25.347086
13625		23.943059	27.622532	-25.350322
13626		23.938474	27.616360	-25.349292
13627		23.936656	27.611590	-25.350995
13628		23.936401	27.606258	-25.350494
13629		23.938503	27.597084	-25.353117
13630		23.941982	27.587452	-25.357249
13631		23.945220	27.577372	-25.363594
13632		23.947582	27.569387	-25.372352
13633		23.951642	27.562193	-25.385960
13634		23.958499	27.557186	-25.391528
13635		23.962392	27.549144	-25.400748
13636		23.963008	27.540549	-25.409211
13637		23.962319	27.533077	-25.419119
13638		23.959152	27.525454	-25.431486
13639		23.954243	27.517375	-25.442127
13640		23.944480	27.511162	-25.453205
13641		23.934328	27.503946	-25.463779
13642		23.928756	27.499748	-25.468313
13643		23.920243	27.496406	-25.472128
13644		23.912390	27.490457	-25.478046
13645		23.909184	27.482400	-25.485743
13646		23.908119	27.473888	-25.496846
13647		23.909916	27.462576	-25.509844
13648		23.912810	27.452224	-25.525679
13649		23.910930	27.441775	-25.539357
13650		23.911426	27.432913	-25.549616
13651		23.907987	27.424259	-25.558065
13652		23.905681	27.416207	-25.564631
13653		23.904660	27.409364	-25.567877
13654		23.902548	27.401684	-25.572025
13655		23.901709	27.393355	-25.577533
13656		23.900728	27.380365	-25.586048
13657		23.898628	27.368781	-25.593872
13658		23.895266	27.353958	-25.607474
13659		23.890406	27.335268	-25.620686
13660		23.886347	27.321000	-25.635639
13661		23.882990	27.308493	-25.647895
13662		23.876556	27.296347	-25.660573
13663		23.867834	27.286465	-25.671955
13664		23.855916	27.274343	-25.683415
13665		23.847992	27.260056	-25.694222
13666		23.837251	27.246980	-25.709368
13667		23.829078	27.238562	-25.720691
13668		23.824094	27.231948	-25.729288
13669		23.818578	27.221806	-25.737013
13670		23.812047	27.214927	-25.742877
13671		23.809042	27.213634	-25.748094
13672		23.809270	27.212692	-25.756511
13673		23.810075	27.209309	-25.768448
13674		23.811983	27.208623	-25.778845
13675		23.813753	27.205821	-25.792239
13676		23.817258	27.198895	-25.808428
13677		23.818505	27.190489	-25.824225
13678		23.817637	27.184397	-25.835852
13679		23.812380	27.173047	-25.847294
13680		23.803775	27.156439	-25.857173
13681		23.792267	27.140939	-25.867976
13682		23.782007	27.124356	-25.877554
13683		23.769953	27.109177	-25.883924
13684		23.760406	27.096061	-25.886957
13685		23.753627	27.088579	-25.890150
13686		23.753394	27.085609	-25.891595
13687		23.754792	27.082904	-25.891744
13688		23.755031	27.076981	-25.894169
13689		23.757544	27.068955	-25.898925
13690		23.761485	27.060422	-25.905027
13691		23.765284	27.052059	-25.916417
13692		23.769194	27.041938	-25.929269
13693		23.773900	27.031541	-25.938537
13694		23.779122	27.024824	-25.945439
13695		23.783725	27.017738	-25.944305
13696		23.782058	27.010452	-25.941660
13697		23.776229	27.000678	-25.937599
13698		23.765533	26.986424	-25.939525
13699		23.753811	26.975997	-25.939108
13700		23.742324	26.970373	-25.938893
13701		23.733248	26.962897	-25.939123
13702		23.729385	26.956351	-25.938649
13703		23.730012	26.951575	-25.939597
13704		23.734399	26.947973	-25.940321
13705		23.740816	26.946156	-25.943412
13706		23.746829	26.942688	-25.944275
13707		23.754688	26.942645	-25.947314
13708		23.761294	26.943322	-25.948662
13709		23.766504	26.940328	-25.951054
13710		23.771485	26.936220	-25.950937
13711		23.777296	26.932647	-25.952621
13712		23.780233	26.929483	-25.950358
13713		23.781161	26.925587	-25.952014
13714		23.779370	26.923075	-25.951050
13715		23.778098	26.921549	-25.948197
13716		23.774411	26.921882	-25.944874
13717		23.769339	26.925316	-25.944007
13718		23.763704	26.929399	-25.944033
13719		23.758045	26.926944	-25.944116
13720		23.752282	26.930947	-25.948079
13721		23.750481	26.932621	-25.949506
13722		23.753507	26.938750	-25.952403
13723		23.759607	26.942523	-25.954548
13724		23.768557	26.947627	-25.954928
13725		23.777066	26.951420	-25.956357
13726		23.783066	26.952242	-25.956919
13727		23.784683	26.956597	-25.956074
13728		23.783924	26.964803	-25.951928
13729		23.779727	26.972666	-25.948709
13730		23.772251	26.984005	-25.942349
13731		23.763763	26.990966	-25.938404
13732		23.756267	26.998259	-25.934435
13733		23.753396	27.003194	-25.930606
13734		23.751775	27.005342	-25.929902
13735		23.751404	27.006451	-25.929167
13736		23.752482	27.006996	-25.929792
13737		23.751616	27.011046	-25.928211
13738		23.747787	27.015191	-25.924415
13739		23.741161	27.020697	-25.919812
13740		23.734917	27.027102	-25.915974
13741		23.728996	27.034390	-25.909111
13742		23.726667	27.042673	-25.900907
13743		23.729077	27.046492	-25.892022
13744		23.728955	27.052023	-25.886678
13745		23.731709	27.057267	-25.885075
13746		23.734934	27.059720	-25.887706
13747		23.735708	27.064059	-25.888326
13748		23.734446	27.073666	-25.889882
13749		23.731877	27.081817	-25.888877
13750		23.724176	27.088526	-25.885372
13751		23.715527	27.094918	-25.878542
13752		23.700237	27.107274	-25.873104
13753		23.690319	27.116880	-25.868354
13754		23.678394	27.120875	-25.865322
13755		23.667681	27.122210	-25.866747
13756		23.660742	27.122857	-25.869627
13757		23.659652	27.122183	-25.871164
13758		23.663212	27.123045	-25.872443
13759		23.670981	27.124498	-25.869534
13760		23.677876	27.127868	-25.866953
13761		23.689745	27.131701	-25.862503
13762		23.696089	27.132997	-25.853321
13763		23.693858	27.135296	-25.848147
13764		23.688862	27.144620	-25.840137
13765		23.678568	27.155401	-25.835354
13766		23.669618	27.163252	-25.830417
13767		23.663879	27.171396	-25.827950
13768		23.660448	27.176928	-25.828045
13769		23.664608	27.181862	-25.829390
13770		23.669440	27.184247	-25.829663
13771		23.674900	27.188041	-25.825923
13772		23.680510	27.185664	-25.824008
13773		23.678084	27.182978	-25.816830
13774		23.667663	27.184422	-25.807600
13775		23.653230	27.188151	-25.800156
13776		23.641840	27.193480	-25.791742
13777		23.633784	27.203970	-25.788458
13778		23.631472	27.212440	-25.785152
13779		23.635293	27.218281	-25.781330
13780		23.643768	27.225703	-25.777156
13781		23.656025	27.230687	-25.774842
13782		23.662409	27.232565	-25.772156
13783		23.661579	27.234559	-25.769940
13784		23.657615	27.238814	-25.763396
13785		23.650142	27.246385	-25.757299
13786		23.641512	27.259383	-25.747016
13787		23.636125	27.270214	-25.737138
13788		23.637739	27.278451	-25.729222
13789		23.644440	27.283146	-25.721047
13790		23.654686	27.284336	-25.715721
13791		23.665317	27.284900	-25.713565
13792		23.674196	27.289677	-25.715691
13793		23.681095	27.289035	-25.717244
13794		23.684330	27.286961	-25.717585
13795		23.680567	27.289543	-25.713153
13796		23.674220	27.295606	-25.707951
13797		23.665027	27.304943	-25.700331
13798		23.649294	27.311703	-25.693522
13799		23.634219	27.316024	-25.686838
13800		23.618004	27.321155	-25.680037
13801		23.602830	27.325459	-25.677022
13802		23.595122	27.328371	-25.674495
13803		23.590202	27.330066	-25.670839
13804		23.591373	27.333058	-25.666589
13805		23.596981	27.334805	-25.658524
13806		23.602523	27.338690	-25.651549
13807		23.607654	27.345715	-25.644746
13808		23.609391	27.348174	-25.639886
13809		23.604776	27.350748	-25.636933
13810		23.601652	27.353035	-25.637053
13811		23.598677	27.353557	-25.634176
13812		23.594182	27.353760	-25.628960
13813		23.587122	27.353986	-25.624640
13814		23.579514	27.358632	-25.616937
13815		23.570951	27.365339	-25.607981
13816		23.566900	27.373296	-25.600896
13817		23.569351	27.377378	-25.593481
13818		23.575110	27.381861	-25.588942
13819		23.580627	27.383584	-25.584537
13820		23.586091	27.385133	-25.581991
13821		23.588270	27.386552	-25.578339
13822		23.585004	27.385690	-25.571275
13823		23.575232	27.387102	-25.564000
13824		23.568711	27.388324	-25.553080
13825		23.563387	27.388858	-25.547291
13826		23.559529	27.388973	-25.542516
13827		23.555740	27.391559	-25.538107
13828		23.556617	27.393988	-25.534823
13829		23.556143	27.394537	-25.527556
13830		23.546204	27.393382	-25.520634
13831		23.535004	27.397712	-25.517651
13832		23.525309	27.404224	-25.519624
13833		23.515108	27.418207	-25.525046
13834		23.507513	27.430142	-25.528875
13835		23.498571	27.437052	-25.539693
13836		23.491068	27.443076	-25.547035
13837		23.484870	27.450600	-25.552700
13838		23.483178	27.457266	-25.560062
13839		23.486369	27.464212	-25.567171
13840		23.496142	27.467106	-25.572517
13841		23.505352	27.468224	-25.572503
13842		23.510441	27.466689	-25.572700
13843		23.507101	27.464263	-25.572153
13844		23.496974	27.462836	-25.570559
13845		23.485699	27.462751	-25.568499
13846		23.479690	27.465628	-25.562814
13847		23.479515	27.467051	-25.556251
13848		23.485116	27.466438	-25.549627
13849		23.491466	27.468161	-25.543749
13850		23.495610	27.468819	-25.542908
13851		23.499866	27.473753	-25.540574
13852		23.501529	27.480200	-25.536933
13853		23.500902	27.482781	-25.533987
13854		23.498894	27.483689	-25.530996
13855		23.495500	27.483044	-25.525998
13856		23.493094	27.482776	-25.520916
13857		23.496334	27.484785	-25.515044
13858		23.507029	27.480924	-25.513705
13859		23.516246	27.475302	-25.508829
13860		23.524796	27.467593	-25.504666
13861		23.534088	27.462257	-25.501243
13862		23.539812	27.460236	-25.497129
13863		23.538865	27.455477	-25.493745
13864		23.535976	27.449537	-25.487803
13865		23.531485	27.452140	-25.477569
13866		23.525570	27.459165	-25.465550
13867		23.520868	27.463244	-25.453069
13868		23.512720	27.464527	-25.441178
13869		23.505034	27.467135	-25.429509
13870		23.499966	27.468297	-25.419906
13871		23.495772	27.465596	-25.415736
13872		23.499659	27.465355	-25.413890
13873		23.505221	27.465285	-25.413933
13874		23.515727	27.461289	-25.411408
13875		23.527401	27.458279	-25.412990
13876		23.542158	27.454700	-25.416479
13877		23.557388	27.450792	-25.424651
13878		23.571208	27.445250	-25.432807
13879		23.577332	27.436353	-25.440515
13880		23.576670	27.423945	-25.444709
13881		23.573280	27.413283	-25.452551
13882		23.571485	27.406133	-25.455385
13883		23.565285	27.400759	-25.461565
13884		23.564101	27.393670	-25.470519
13885		23.570581	27.387996	-25.481012
13886		23.582314	27.383345	-25.490473
13887		23.592185	27.375917	-25.499559
13888		23.602194	27.366720	-25.509911
13889		23.610423	27.361348	-25.518924
13890		23.618963	27.361181	-25.526242
13891		23.625905	27.356409	-25.530127
13892		23.629880	27.345570	-25.533694
13893		23.631636	27.333452	-25.538649
13894		23.635117	27.323576	-25.540839
13895		23.634812	27.316457	-25.541215
13896		23.636223	27.309366	-25.542068
13897		23.638556	27.300779	-25.543951
13898		23.639184	27.291949	-25.547464
13899		23.642385	27.279535	-25.555344
13900		23.645807	27.267464	-25.564289
13901		23.653985	27.257694	-25.574221
13902		23.663263	27.244483	-25.584556
13903		23.670059	27.233244	-25.596021
13904		23.675552	27.216141	-25.606359
13905		23.678096	27.204310	-25.618601
13906		23.681668	27.194860	-25.627749
13907		23.678130	27.188020	-25.635428
13908		23.675903	27.184446	-25.640871
13909		23.674553	27.183194	-25.643190
13910		23.675414	27.179108	-25.646665
13911		23.677920	27.171104	-25.651444
13912		23.675559	27.158352	-25.657060
13913		23.671304	27.149459	-25.661909
13914		23.668964	27.141489	-25.668578
13915		23.667332	27.129070	-25.677942
13916		23.668391	27.117428	-25.685730
13917		23.674326	27.110016	-25.691196
13918		23.681066	27.104682	-25.699484
13919		23.685791	27.100785	-25.712099
13920		23.687466	27.095165	-25.727722
13921		23.682366	27.093012	-25.742494
13922		23.677921	27.087739	-25.752247
13923		23.670170	27.080589	-25.765785
13924		23.667352	27.073483	-25.777795
13925		23.667243	27.060772	-25.786430
13926		23.663452	27.042486	-25.796372
13927		23.656429	27.022121	-25.807550
13928		23.651119	27.005934	-25.813329
13929		23.643112	26.991439	-25.822795
13930		23.637466	26.978641	-25.830991
13931		23.636280	26.965045	-25.836743
13932		23.636218	26.956174	-25.841141
13933		23.637137	26.946106	-25.848191
13934		23.638719	26.937570	-25.854907
13935		23.638329	26.932493	-25.859560
13936		23.636969	26.926808	-25.866478
13937		23.631000	26.922007	-25.875510
13938		23.628310	26.917367	-25.885665
13939		23.627416	26.917570	-25.895192
13940		23.626751	26.916059	-25.902036
13941		23.626595	26.911570	-25.905932
13942		23.629565	26.909167	-25.909153
13943		23.635432	26.901464	-25.913167
13944		23.647688	26.889448	-25.917672
13945		23.655611	26.878523	-25.918178
13946		23.664101	26.873260	-25.919640
13947		23.672530	26.865861	-25.920723
13948		23.677361	26.859413	-25.918915
13949		23.679268	26.853760	-25.916300
13950		23.674648	26.847736	-25.916963
13951		23.669843	26.843533	-25.916491
13952		23.664768	26.840941	-25.917587
13953		23.657093	26.839668	-25.913354
13954		23.648435	26.835708	-25.911130
13955		23.642894	26.829447	-25.907838
13956		23.645477	26.825000	-25.902933
13957		23.651901	26.818476	-25.898156
13958		23.662503	26.812403	-25.894615
13959		23.675549	26.806481	-25.891978
13960		23.685368	26.800637	-25.891751
13961		23.691467	26.793525	-25.895017
13962		23.694115	26.785616	-25.899451
13963		23.696023	26.782312	-25.902560
13964		23.694970	26.781781	-25.907439
13965		23.695010	26.779942	-25.911216
13966		23.692304	26.777271	-25.915418
13967		23.689641	26.772488	-25.918608
13968		23.686365	26.774839	-25.922725
13969		23.690120	26.778588	-25.925511
13970		23.690687	26.786511	-25.927952
13971		23.694268	26.794078	-25.930568
13972		23.697287	26.802054	-25.931991
13973		23.696390	26.810490	-25.933128
13974		23.697207	26.819026	-25.931228
13975		23.695302	26.826871	-25.930941
13976		23.693239	26.836267	-25.928323
13977		23.694616	26.842062	-25.925204
13978		23.695266	26.845678	-25.926737
13979		23.696961	26.850301	-25.927310
13980		23.702396	26.856338	-25.927351
13981		23.707008	26.858031	-25.928042
13982		23.709622	26.862736	-25.926917
13983		23.709224	26.872343	-25.922906
13984		23.707619	26.882856	-25.918874
13985		23.703962	26.888049	-25.914353
13986		23.699559	26.895385	-25.908167
13987		23.693936	26.901749	-25.902878
13988		23.687120	26.906577	-25.898721
13989		23.681547	26.915292	-25.895512
13990		23.680598	26.927290	-25.890786
13991		23.679787	26.938072	-25.890370
13992		23.684517	26.948678	-25.889392
13993		23.691580	26.961239	-25.891758
13994		23.696200	26.971248	-25.890899
13995		23.691716	26.978797	-25.893568
13996		23.685256	26.985165	-25.897019
13997		23.676418	26.991823	-25.899033
13998		23.666880	26.996133	-25.899916
13999		23.658576	26.997801	-25.902153
14000		23.655670	27.000658	-25.901365
14001		23.653821	27.002336	-25.902828
14002		23.656947	27.003714	-25.900671
14003		23.665814	27.005997	-25.900572
14004		23.676481	27.006497	-25.898751
14005		23.689463	27.006726	-25.894347
14006		23.699277	27.006677	-25.890168
14007		23.709282	27.007483	-25.883577
14008		23.714298	27.014519	-25.877356
14009		23.719224	27.016781	-25.870008
14010		23.720234	27.020940	-25.864116
14011		23.721775	27.024961	-25.858169
14012		23.719878	27.028455	-25.855287
14013		23.719866	27.032776	-25.853707
14014		23.723601	27.033876	-25.852676
14015		23.726051	27.034093	-25.852721
14016		23.730786	27.023183	-25.855458
14017		23.733024	27.014300	-25.855926
14018		23.735031	27.013149	-25.848817
14019		23.735194	27.015702	-25.844405
14020		23.738773	27.020359	-25.837649
14021		23.742245	27.027311	-25.830095
14022		23.743608	27.034896	-25.822405
14023		23.746850	27.041261	-25.815607
14024		23.751291	27.050544	-25.808671
14025		23.757973	27.057500	-25.802542
14026		23.763188	27.064403	-25.798950
14027		23.769213	27.065499	-25.797467
14028		23.773563	27.066283	-25.797608
14029		23.778440	27.066500	-25.796904
14030		23.785834	27.066694	-25.795451
14031		23.793794	27.070720	-25.792356
14032		23.802878	27.075601	-25.786527
14033		23.813401	27.079911	-25.780483
14034		23.821781	27.082699	-25.777698
14035		23.830695	27.084961	-25.773949
14036		23.836760	27.086044	-25.772713
14037		23.838981	27.087721	-25.770511
14038		23.837830	27.090833	-25.768206
14039		23.835523	27.095441	-25.765179
14040		23.832838	27.103222	-25.763188
14041		23.827803	27.113405	-25.759921
14042		23.824449	27.123711	-25.753709
14043		23.824210	27.131533	-25.746873
14044		23.825258	27.140673	-25.740623
14045		23.827580	27.146733	-25.733844
14046		23.829253	27.151117	-25.729398
14047		23.830651	27.154841	-25.725652
14048		23.831912	27.160072	-25.722978
14049		23.835670	27.167906	-25.719734
14050		23.842032	27.174084	-25.716556
14051		23.846022	27.182500	-25.712553
14052		23.854694	27.190734	-25.709694
14053		23.861573	27.198272	-25.706427
14054		23.864108	27.207220	-25.705387
14055		23.864023	27.217695	-25.702057
14056		23.863108	27.225725	-25.695911
14057		23.859971	27.232381	-25.691351
14058		23.858060	27.237970	-25.685376
14059		23.860475	27.244324	-25.680037
14060		23.864818	27.253450	-25.674804
14061		23.868017	27.259814	-25.671636
14062		23.877579	27.265551	-25.664836
14063		23.885419	27.273358	-25.657900
14064		23.891437	27.278253	-25.652365
14065		23.892863	27.279916	-25.647997
14066		23.892585	27.281569	-25.640436
14067		23.890370	27.290555	-25.632844
14068		23.887692	27.298466	-25.627045
14069		23.882053	27.302771	-25.621188
14070		23.875828	27.310084	-25.615272
14071		23.874105	27.324651	-25.608854
14072		23.874811	27.336876	-25.603170
14073		23.874098	27.349997	-25.601175
14074		23.875544	27.360171	-25.600933
14075		23.873896	27.368923	-25.604988
14076		23.873458	27.376177	-25.609488
14077		23.872728	27.385221	-25.613517
14078		23.872275	27.386759	-25.614942
14079		23.867923	27.382010	-25.617528
14080		23.871229	27.380004	-25.613628
14081		23.871258	27.378170	-25.613822
14082		23.870497	27.378393	-25.612763
14083		23.869841	27.378887	-25.609217
14084		23.868344	27.379095	-25.605723
14085		23.864463	27.379586	-25.600772
14086		23.858264	27.384223	-25.593785
14087		23.849808	27.389709	-25.588657
14088		23.842708	27.398463	-25.584443
14089		23.841589	27.406302	-25.582722
14090		23.840181	27.413236	-25.584080
14091		23.843992	27.419342	-25.588912
14092		23.854960	27.424592	-25.590173
14093		23.865986	27.430370	-25.591270
14094		23.876838	27.435202	-25.587964
14095		23.885867	27.441807	-25.579598
14096		23.896353	27.445464	-25.566868
14097		23.902047	27.441218	-25.558376
14098		23.904808	27.433628	-25.550038
14099		23.905495	27.431157	-25.542266
14100		23.904284	27.425971	-25.535900
14101		23.897452	27.420894	-25.530564
14102		23.889918	27.419894	-25.524030
14103		23.881644	27.421547	-25.515470
14104		23.876380	27.422338	-25.507446
14105		23.873742	27.426039	-25.500144
14106		23.871059	27.433931	-25.494315
14107		23.872212	27.439097	-25.488329
14108		23.873336	27.440298	-25.485229
14109		23.878137	27.440174	-25.479451
14110		23.881834	27.436919	-25.475500
14111		23.884453	27.433296	-25.472118
14112		23.888222	27.432691	-25.468713
14113		23.894246	27.433764	-25.467212
14114		23.905865	27.432524	-25.464630
14115		23.917486	27.431222	-25.461704
14116		23.928728	27.431106	-25.459259
14117		23.935471	27.429830	-25.457869
14118		23.936316	27.428067	-25.456893
14119		23.930767	27.428587	-25.454894
14120		23.920365	27.428806	-25.452823
14121		23.909805	27.429075	-25.454557
14122		23.902727	27.433993	-25.454819
14123		23.905259	27.436542	-25.453302
14124		23.909197	27.438459	-25.453704
14125		23.916606	27.438948	-25.453660
14126		23.925560	27.441195	-25.453651
14127		23.932378	27.442279	-25.454313
14128		23.934442	27.445705	-25.455330
14129		23.936971	27.446223	-25.456824
14130		23.938395	27.447525	-25.457997
14131		23.936507	27.449232	-25.459508
14132		23.934854	27.451312	-25.458533
14133		23.930913	27.451830	-25.457240
14134		23.926096	27.452125	-25.456051
14135		23.922924	27.456745	-25.454530
14136		23.923533	27.460485	-25.452388
14137		23.927090	27.463626	-25.452273
14138		23.936087	27.463918	-25.447815
14139		23.948173	27.463767	-25.443358
14140		23.954037	27.459912	-25.439592
14141		23.957465	27.456269	-25.434756
14142		23.954922	27.453498	-25.430945
14143		23.949025	27.453135	-25.428287
14144		23.942780	27.447759	-25.424549
14145		23.932823	27.445383	-25.424978
14146		23.921925	27.444513	-25.427941
14147		23.916183	27.444817	-25.435407
14148		23.913507	27.444672	-25.444902
14149		23.913882	27.446146	-25.455094
14150		23.917158	27.446809	-25.466329
14151		23.922389	27.450312	-25.475596
14152		23.926575	27.450615	-25.482972
14153		23.933987	27.447045	-25.488943
14154		23.944431	27.442595	-25.491834
14155		23.957778	27.439561	-25.494035
14156		23.971258	27.430335	-25.494552
14157		23.976918	27.419981	-25.495116
14158		23.979097	27.414869	-25.491566
14159		23.976817	27.411269	-25.489741
14160		23.972158	27.410118	-25.491176
14161		23.965437	27.407740	-25.492999
14162		23.955890	27.406350	-25.497521
14163		23.943341	27.403743	-25.504545
14164		23.928448	27.398806	-25.513341
14165		23.917442	27.391805	-25.522019
14166		23.912606	27.383709	-25.530970
14167		23.914765	27.370807	-25.541159
14168		23.919292	27.351473	-25.555034
14169		23.921380	27.334181	-25.566183
14170		23.924334	27.318906	-25.580214
14171		23.927344	27.303932	-25.588322
14172		23.930187	27.290150	-25.592177
14173		23.930615	27.280997	-25.594220
14174		23.930946	27.271635	-25.595051
14175		23.931122	27.263962	-25.598469
14176		23.928006	27.258522	-25.601373
14177		23.927823	27.252023	-25.604734
14178		23.930032	27.247012	-25.611622
14179		23.932381	27.240837	-25.619270
14180		23.936006	27.235479	-25.629652
14181		23.940683	27.226991	-25.641732
14182		23.945097	27.213250	-25.653738
14183		23.947852	27.199791	-25.666845
14184		23.957639	27.185572	-25.676834
14185		23.966361	27.168533	-25.684958
14186		23.965587	27.151935	-25.692505
14187		23.959561	27.138721	-25.697780
14188		23.953857	27.128216	-25.702613
14189		23.949971	27.122579	-25.703090
14190		23.945603	27.119498	-25.701227
14191		23.940889	27.115901	-25.700158
14192		23.940509	27.112821	-25.698582
14193		23.941811	27.110102	-25.698810
14194		23.939871	27.103330	-25.704266
14195		23.935411	27.096262	-25.708452
14196		23.931810	27.087241	-25.714326
14197		23.928995	27.078115	-25.718595
14198		23.929200	27.068235	-25.723199
14199		23.932922	27.054966	-25.725407
14200		23.933445	27.042017	-25.732094
14201		23.936217	27.030551	-25.738566
14202		23.935615	27.019268	-25.744446
14203		23.938711	27.010713	-25.748581
14204		23.937397	27.005328	-25.753821
14205		23.935583	27.000919	-25.760708
14206		23.936423	26.996501	-25.766133
14207		23.939121	26.993240	-25.771433
14208		23.938893	26.991066	-25.779862
14209		23.943366	26.983996	-25.786065
14210		23.941955	26.978202	-25.794731
14211		23.941448	26.970850	-25.801033
14212		23.937336	26.961728	-25.807043
14213		23.933246	26.953518	-25.814898
14214		23.925359	26.947819	-25.820487
14215		23.917604	26.946918	-25.825105
14216		23.912573	26.944663	-25.827555
14217		23.908670	26.941114	-25.832253
14218		23.906514	26.933201	-25.837995
14219		23.908316	26.927623	-25.846326
14220		23.907592	26.921666	-25.858202
14221		23.908358	26.915525	-25.868752
14222		23.913514	26.912048	-25.878809
14223		23.920505	26.909393	-25.886894
14224		23.926542	26.906453	-25.895630
14225		23.932944	26.904322	-25.897184
14226		23.935164	26.904064	-25.901876
14227		23.937261	26.903384	-25.901251
14228		23.938213	26.901904	-25.898023
14229		23.935344	26.898843	-25.893271
14230		23.932593	26.897758	-25.885339
14231		23.926114	26.895862	-25.879137
14232		23.913841	26.887725	-25.876758
14233		23.898948	26.880914	-25.876033
14234		23.889675	26.880395	-25.878048
14235		23.879411	26.875076	-25.880780
14236		23.868364	26.872179	-25.887780
14237		23.862892	26.875074	-25.891425
14238		23.859447	26.881212	-25.895449
14239		23.860314	26.887899	-25.898055
14240		23.867039	26.894552	-25.900913
14241		23.867353	26.897678	-25.899386
14242		23.864451	26.900658	-25.901822
14243		23.855182	26.900056	-25.907177
14244		23.846230	26.900159	-25.911507
14245		23.836055	26.897203	-25.916284
14246		23.828162	26.893960	-25.919493
14247		23.822878	26.888921	-25.922127
14248		23.820373	26.884455	-25.923082
14249		23.821172	26.884617	-25.918815
14250		23.821073	26.882070	-25.916197
14251		23.825459	26.883091	-25.910373
14252		23.826501	26.888027	-25.906600
14253		23.830380	26.894069	-25.904125
14254		23.833874	26.898742	-25.901053
14255		23.837323	26.901567	-25.899485
14256		23.839187	26.904256	-25.895048
14257		23.838932	26.905916	-25.893612
14258		23.836517	26.910168	-25.889269
14259		23.834066	26.910359	-25.887233
14260		23.829880	26.912555	-25.886198
14261		23.824630	26.913933	-25.884873
14262		23.821660	26.915159	-25.881722
14263		23.820754	26.910925	-25.877734
14264		23.815766	26.908485	-25.872771
14265		23.812132	26.909829	-25.868527
14266		23.810934	26.913053	-25.862170
14267		23.813686	26.914066	-25.855655
14268		23.819501	26.914464	-25.847945
14269		23.822134	26.915167	-25.840005
14270		23.823456	26.920931	-25.833584
14271		23.825216	26.927792	-25.825319
14272		23.824967	26.929551	-25.820361
14273		23.822582	26.934133	-25.817363
14274		23.819644	26.937339	-25.814699
14275		23.817528	26.938418	-25.813337
14276		23.816259	26.937544	-25.813783
14277		23.819513	26.937767	-25.815974
14278		23.827889	26.938237	-25.817922
14279		23.838922	26.939610	-25.819893
14280		23.846342	26.939732	-25.822156
14281		23.851196	26.941979	-25.822034
14282		23.850281	26.946384	-25.822535
14283		23.842952	26.957136	-25.819293
14284		23.833852	26.967242	-25.816294
14285		23.824095	26.975950	-25.813222
14286		23.816565	26.985896	-25.812612
14287		23.809872	26.992012	-25.814683
14288		23.810008	26.998640	-25.815216
14289		23.811834	27.001497	-25.816568
14290		23.820814	27.001044	-25.815657
14291		23.833828	27.001202	-25.814756
14292		23.846110	26.999288	-25.811161
14293		23.854602	26.996203	-25.807649
14294		23.858921	26.996659	-25.798319
14295		23.853710	27.000284	-25.788219
14296		23.841478	27.008688	-25.776959
14297		23.822363	27.016435	-25.764043
14298		23.803975	27.025727	-25.758038
14299		23.791025	27.036762	-25.752035
14300		23.783253	27.046374	-25.750687
14301		23.780371	27.053920	-25.750437
14302		23.785942	27.058284	-25.750219
14303		23.796732	27.061089	-25.749927
14304		23.809960	27.063966	-25.749207
14305		23.820268	27.067635	-25.747432
14306		23.827306	27.075124	-25.743735
14307		23.824679	27.081231	-25.745728
14308		23.815196	27.086178	-25.746274
14309		23.803209	27.093425	-25.742644
14310		23.789448	27.098139	-25.738361
14311		23.773990	27.100685	-25.732916
14312		23.761806	27.105061	-25.727583
14313		23.753392	27.115216	-25.722993
14314		23.751472	27.125182	-25.719587
14315		23.752960	27.137675	-25.717520
14316		23.755324	27.149839	-25.715820
14317		23.754276	27.160023	-25.716111
14318		23.752906	27.167044	-25.717087
14319		23.743872	27.171435	-25.720790
14320		23.728549	27.176082	-25.723034
14321		23.713702	27.178160	-25.727737
14322		23.697347	27.180162	-25.727906
14323		23.685165	27.180695	-25.726854
14324		23.675420	27.181340	-25.725329
14325		23.671374	27.183856	-25.721077
14326		23.675038	27.186725	-25.714815
14327		23.676024	27.187454	-25.709813
14328		23.680482	27.192832	-25.703438
14329		23.678057	27.197410	-25.700475
14330		23.673981	27.201407	-25.696910
14331		23.666672	27.203964	-25.694909
14332		23.660153	27.203961	-25.690822
14333		23.652842	27.206518	-25.688822
14334		23.644941	27.211547	-25.686199
14335		23.638559	27.214393	-25.684161
14336		23.632348	27.217561	-25.683758
14337		23.629072	27.224177	-25.679266
14338		23.628801	27.225930	-25.678031
14339		23.632764	27.221696	-25.676115
14340		23.633960	27.218719	-25.671235
14341		23.634108	27.219425	-25.664094
14342		23.632706	27.222617	-25.658672
14343		23.627453	27.226288	-25.652234
14344		23.617058	27.231163	-25.647184
14345		23.605172	27.232548	-25.643219
14346		23.595561	27.235464	-25.636026
14347		23.589594	27.239424	-25.628874
14348		23.583644	27.243463	-25.621995
14349		23.578858	27.244169	-25.612830
14350		23.576396	27.246434	-25.603935
14351		23.570698	27.246895	-25.598417
14352		23.565461	27.248570	-25.595538
14353		23.561703	27.245572	-25.595930
14354		23.560600	27.244987	-25.597425
14355		23.560253	27.242297	-25.600589
14356		23.559898	27.241104	-25.604297
14357		23.561169	27.242532	-25.609349
14358		23.561420	27.243426	-25.613187
14359		23.561844	27.246892	-25.616707
14360		23.554885	27.248071	-25.620549
14361		23.546068	27.248925	-25.622313
14362		23.538999	27.254240	-25.623961
14363		23.534771	27.260568	-25.619524
14364		23.534279	27.265837	-25.616260
14365		23.539915	27.268001	-25.611052
14366		23.545487	27.270330	-25.606372
14367		23.549530	27.268417	-25.602879
14368		23.550339	27.268724	-25.602286
14369		23.547695	27.272768	-25.603700
14370		23.542854	27.275341	-25.601108
14371		23.539323	27.270860	-25.600141
14372		23.533573	27.267047	-25.595648
14373		23.527908	27.263430	-25.592533
14374		23.526654	27.264592	-25.593258
14375		23.529938	27.271205	-25.591473
14376		23.535952	27.276355	-25.587716
14377		23.540428	27.277651	-25.583311
14378		23.546409	27.278349	-25.580428
14379		23.547943	27.280532	-25.575339
14380		23.544339	27.284246	-25.573692
14381		23.538433	27.282115	-25.571949
14382		23.529417	27.279966	-25.568364
14383		23.519046	27.279034	-25.566687
14384		23.516616	27.279332	-25.564423
14385		23.516711	27.277795	-25.566071
14386		23.521852	27.271917	-25.570058
14387		23.524721	27.264841	-25.575537
14388		23.527262	27.265357	-25.581353
14389		23.528898	27.265613	-25.586457
14390		23.529194	27.266555	-25.589909
14391		23.527302	27.268297	-25.595035
14392		23.530531	27.266078	-25.604077
14393		23.535856	27.265204	-25.614177
14394		23.544415	27.264008	-25.624347
14395		23.553151	27.259281	-25.632402
14396		23.557169	27.250838	-25.642423
14397		23.559638	27.240601	-25.652420
14398		23.564811	27.230681	-25.662784
14399		23.570799	27.221021	-25.673364
14400		23.576189	27.208034	-25.683729
14401		23.579288	27.188960	-25.690610
14402		23.579899	27.167536	-25.696294
14403		23.583934	27.148750	-25.703133
14404		23.590204	27.133512	-25.707555
14405		23.600604	27.118443	-25.709679
14406		23.612067	27.101637	-25.710897
14407		23.623850	27.085946	-25.710865
14408		23.632428	27.068234	-25.712768
14409		23.634673	27.051199	-25.718131
14410		23.633679	27.034234	-25.722188
14411		23.624560	27.019614	-25.728449
14412		23.611659	27.007714	-25.738423
14413		23.603456	26.999561	-25.746437
14414		23.598608	26.991415	-25.752018
14415		23.600201	26.985231	-25.757483
14416		23.604057	26.976137	-25.764324
14417		23.616492	26.964068	-25.771989
14418		23.626073	26.944550	-25.785943
14419		23.638542	26.922017	-25.799980
14420		23.649922	26.906880	-25.809228
14421		23.656085	26.893424	-25.820033
14422		23.657531	26.878298	-25.829466
14423		23.653454	26.866002	-25.836163
14424		23.645279	26.855799	-25.844051
14425		23.640205	26.849346	-25.848990
14426		23.640565	26.844363	-25.852877
14427		23.637720	26.837313	-25.857791
14428		23.634949	26.828253	-25.862123
14429		23.637224	26.819673	-25.864112
14430		23.640063	26.812418	-25.867991
14431		23.642613	26.802402	-25.872215
14432		23.649480	26.792739	-25.877636
14433		23.651868	26.780140	-25.885614
14434		23.655583	26.767119	-25.895812
14435		23.657259	26.754806	-25.903073
14436		23.659536	26.744036	-25.910436
14437		23.663457	26.737521	-25.913700
14438		23.663535	26.729619	-25.919931
14439		23.661768	26.723171	-25.926215
14440		23.658121	26.715972	-25.934702
14441		23.658641	26.706920	-25.943956
14442		23.654641	26.698814	-25.951826
14443		23.650350	26.692126	-25.961062
14444		23.647137	26.683741	-25.969227
14445		23.642139	26.675275	-25.977148
14446		23.638065	26.666814	-25.983350
14447		23.636681	26.663522	-25.985119
14448		23.633913	26.663029	-25.985917
14449		23.631021	26.657985	-25.987829
14450		23.625826	26.650945	-25.989568
14451		23.621492	26.652656	-25.991834
14452		23.619539	26.651990	-25.995447
14453		23.620222	26.647581	-26.001539
14454		23.626341	26.644286	-26.004449
14455		23.633070	26.638638	-26.007584
14456		23.643427	26.633596	-26.011162
14457		23.649139	26.629461	-26.017109
14458		23.648841	26.626833	-26.020585
14459		23.647810	26.626491	-26.023606
14460		23.642352	26.625349	-26.026333
14461		23.635584	26.620894	-26.027594
14462		23.630288	26.617901	-26.027210
14463		23.623526	26.619838	-26.024497
14464		23.618459	26.617432	-26.027309
14465		23.614986	26.615048	-26.030515
14466		23.616618	26.617316	-26.029081
14467		23.618474	26.624492	-26.025831
14468		23.617663	26.624979	-26.022860
14469		23.612619	26.620789	-26.022627
14470		23.604258	26.618743	-26.022073
14471		23.593021	26.619603	-26.024576
14472		23.581769	26.626391	-26.031184
14473		23.575985	26.634855	-26.033809
14474		23.568912	26.640177	-26.035589
14475		23.562064	26.639790	-26.034463
14476		23.553903	26.640115	-26.035535
14477		23.543014	26.641861	-26.038702
14478		23.531303	26.645402	-26.042354
14479		23.520120	26.644249	-26.047856
14480		23.508060	26.640829	-26.056958
14481		23.501130	26.633786	-26.061972
14482		23.495908	26.630959	-26.064808
14483		23.491859	26.625045	-26.067521
14484		23.489234	26.622628	-26.069520
14485		23.485690	26.620185	-26.069144
14486		23.483586	26.623021	-26.070303
14487		23.482257	26.628229	-26.072287
14488		23.481581	26.636882	-26.070945
14489		23.480539	26.644986	-26.070598
14490		23.475499	26.655429	-26.069144
14491		23.467968	26.667953	-26.068723
14492		23.460566	26.678368	-26.071720
14493		23.458782	26.688610	-26.077017
14494		23.460395	26.700910	-26.080218
14495		23.468051	26.710183	-26.081711
14496		23.482450	26.707158	-26.082193
14497		23.497419	26.688898	-26.087250
14498		23.509530	26.675399	-26.094467
14499		23.521675	26.658130	-26.106015
14500		23.533724	26.642470	-26.122565
14501		23.540316	26.631974	-26.134592
14502		23.541679	26.629186	-26.139044
14503		23.536188	26.632495	-26.131211
14504		23.524185	26.642401	-26.114976
14505		23.505593	26.652583	-26.093478
14506		23.488921	26.663326	-26.072204
14507		23.474411	26.677417	-26.057545
14508		23.468304	26.691692	-26.045713
14509		23.467477	26.700574	-26.038859
14510		23.471961	26.706030	-26.035771
14511		23.479634	26.711176	-26.036061
14512		23.489578	26.713461	-26.037688
14513		23.499914	26.716894	-26.041587
14514		23.511140	26.718268	-26.047471
14515		23.525367	26.721110	-26.052006
14516		23.536834	26.727502	-26.052165
14517		23.543284	26.731729	-26.049674
14518		23.543965	26.738314	-26.045977
14519		23.538954	26.746952	-26.041415
14520		23.533310	26.756011	-26.035882
14521		23.521879	26.762946	-26.033057
14522		23.516810	26.765144	-26.029358
14523		23.511072	26.769743	-26.028654
14524		23.511753	26.776066	-26.026702
14525		23.514814	26.780026	-26.025047
14526		23.520155	26.785437	-26.024254
14527		23.526099	26.792580	-26.020883
14528		23.535609	26.802237	-26.015197
14529		23.540606	26.817339	-26.014243
14530		23.547377	26.828601	-26.010874
14531		23.551807	26.833994	-26.007655
14532		23.553629	26.832506	-26.005937
14533		23.559069	26.834122	-26.005066
14534		23.567524	26.841046	-26.002723
14535		23.573902	26.849331	-25.997829
14536		23.575864	26.852661	-25.991395
14537		23.577844	26.860334	-25.983809
14538		23.580481	26.869477	-25.976185
14539		23.583760	26.876263	-25.968610
14540		23.583837	26.883189	-25.963379
14541		23.583072	26.887997	-25.958928
14542		23.582531	26.893128	-25.955964
14543		23.582052	26.894445	-25.953152
14544		23.582413	26.897793	-25.949772
14545		23.587129	26.903814	-25.949370
14546		23.595634	26.906532	-25.945762
14547		23.600424	26.910746	-25.942598
14548		23.606443	26.916255	-25.936614
14549		23.608274	26.921352	-25.932777
14550		23.608014	26.925345	-25.926115
14551		23.603636	26.935699	-25.919293
14552		23.603947	26.947119	-25.910689
14553		23.608960	26.962404	-25.903962
14554		23.615073	26.980325	-25.895583
14555		23.623266	26.993232	-25.888174
14556		23.626515	27.001825	-25.883639
14557		23.625743	27.008693	-25.879784
14558		23.621210	27.016072	-25.876462
14559		23.615010	27.021603	-25.877903
14560		23.611764	27.019911	-25.880372
14561		23.609827	27.021607	-25.881901
14562		23.612902	27.023271	-25.881788
14563		23.620727	27.024786	-25.876529
14564		23.630402	27.026542	-25.869700
14565		23.639097	27.028276	-25.860810
14566		23.643172	27.030832	-25.852449
14567		23.642829	27.032653	-25.845309
14568		23.642190	27.033725	-25.837386
14569		23.641125	27.037893	-25.830125
14570		23.640616	27.047698	-25.824510
14571		23.647513	27.059420	-25.816490
14572		23.656056	27.068605	-25.808510
14573		23.666925	27.073603	-25.802918
14574		23.679598	27.078661	-25.797603
14575		23.692417	27.082233	-25.794897
14576		23.702981	27.086100	-25.790610
14577		23.708132	27.089130	-25.787500
14578		23.709963	27.088080	-25.782277
14579		23.707874	27.087583	-25.776070
14580		23.701350	27.092353	-25.767444
14581		23.698108	27.095308	-25.757476
14582		23.694225	27.100448	-25.749056
14583		23.692072	27.106071	-25.741030
14584		23.694811	27.111209	-25.735434
14585		23.701273	27.117474	-25.733500
14586		23.714644	27.124392	-25.729450
14587		23.724872	27.131796	-25.727301
14588		23.738454	27.139223	-25.722664
14589		23.749987	27.147978	-25.715357
14590		23.758102	27.154181	-25.706517
14591		23.764194	27.157667	-25.697602
14592		23.766433	27.161817	-25.688175
14593		23.765932	27.163311	-25.679639
14594		23.764441	27.162163	-25.673206
14595		23.762992	27.161133	-25.669889
14596		23.764985	27.160112	-25.667783
14597		23.768758	27.161714	-25.666247
14598		23.771650	27.165245	-25.665251
14599		23.774641	27.171010	-25.666342
14600		23.784213	27.176376	-25.664820
14601		23.792127	27.182068	-25.664292
14602		23.798282	27.183497	-25.664446
14603		23.802559	27.184246	-25.664380
14604		23.809831	27.188237	-25.662420
14605		23.814989	27.193322	-25.659885
14606		23.816049	27.198205	-25.655460
14607		23.816853	27.200695	-25.653265
14608		23.819807	27.206394	-25.651074
14609		23.823377	27.213787	-25.646298
14610		23.824676	27.219499	-25.643357
14611		23.830193	27.223408	-25.640884
14612		23.833896	27.225074	-25.640118
14613		23.836505	27.225822	-25.639402
14614		23.839199	27.224607	-25.637904
14615		23.838620	27.225678	-25.637292
14616		23.840780	27.225269	-25.638758
14617		23.844776	27.229500	-25.637039
14618		23.848134	27.236028	-25.627066
14619		23.849573	27.236093	-25.621425
14620		23.847210	27.232368	-25.619858
14621		23.847416	27.231337	-25.617206
14622		23.846334	27.233070	-25.617299
14623		23.842775	27.230738	-25.620618
14624		23.841943	27.230710	-25.620961
14625		23.844201	27.234695	-25.620760
14626		23.848213	27.242880	-25.618182
14627		23.858745	27.251078	-25.613066
14628		23.873070	27.258300	-25.603433
14629		23.884887	27.263705	-25.592000
14630		23.891811	27.267132	-25.581896
14631		23.895779	27.267395	-25.573276
14632		23.897791	27.266493	-25.570739
14633		23.896830	27.262385	-25.574079
14634		23.894337	27.258344	-25.580591
14635		23.889413	27.258729	-25.586656
14636		23.887941	27.261413	-25.592781
14637		23.886414	27.259976	-25.597397
14638		23.883584	27.255633	-25.599313
14639		23.884449	27.258364	-25.594953
14640		23.887423	27.259976	-25.591276
14641		23.887321	27.258296	-25.585822
14642		23.886806	27.255574	-25.582104
14643		23.885574	27.259236	-25.579201
14644		23.887526	27.262076	-25.580363
14645		23.891676	27.264401	-25.585208
14646		23.894027	27.268526	-25.588940
14647		23.894099	27.269072	-25.591209
14648		23.890278	27.265872	-25.593765
14649		23.883805	27.264681	-25.594275
14650		23.879733	27.261409	-25.594193
14651		23.876349	27.253457	-25.595033
14652		23.873725	27.241031	-25.601285
14653		23.872583	27.228181	-25.606660
14654		23.872279	27.215424	-25.614812
14655		23.872962	27.202898	-25.622237
14656		23.876282	27.188284	-25.627736
14657		23.876191	27.182152	-25.632609
14658		23.877323	27.174876	-25.636064
14659		23.878254	27.171333	-25.639287
14660		23.882766	27.166045	-25.644637
14661		23.892055	27.162501	-25.651098
14662		23.903959	27.161157	-25.656685
14663		23.915686	27.153444	-25.661186
14664		23.924886	27.145777	-25.667384
14665		23.937555	27.138349	-25.671830
14666		23.945613	27.131402	-25.673241
14667		23.955207	27.122715	-25.672891
14668		23.961986	27.113318	-25.672851
14669		23.968450	27.100912	-25.675036
14670		23.974472	27.086944	-25.677288
14671		23.974929	27.076079	-25.680327
14672		23.976207	27.064696	-25.680326
14673		23.975967	27.058245	-25.683801
14674		23.973748	27.050973	-25.686015
14675		23.971993	27.044847	-25.690243
14676		23.972240	27.039613	-25.692245
14677		23.972821	27.037248	-25.695402
14678		23.974612	27.035688	-25.698098
14679		23.974667	27.032106	-25.699214
14680		23.975437	27.028092	-25.703272
14681		23.981732	27.021317	-25.707937
14682		23.989440	27.013696	-25.712411
14683		24.003427	27.007446	-25.717448
14684		24.024390	27.002012	-25.722604
14685		24.042938	26.996852	-25.725957
14686		24.056552	26.987700	-25.730120
14687		24.065658	26.979713	-25.734054
14688		24.067287	26.969481	-25.738547
14689		24.068349	26.962143	-25.742040
14690		24.065796	26.957866	-25.746592
14691		24.066643	26.949963	-25.750849
14692		24.068185	26.943617	-25.754699
14693		24.069680	26.937408	-25.756664
14694		24.071386	26.929464	-25.759595
14695		24.073551	26.922736	-25.764431
14696		24.080114	26.916608	-25.768428
14697		24.080941	26.912602	-25.775983
14698		24.083307	26.908687	-25.780974
14699		24.088771	26.908071	-25.785244
14700		24.092826	26.906009	-25.787589
14701		24.093612	26.902148	-25.789416
14702		24.096187	26.896097	-25.791381
14703		24.100589	26.893040	-25.791578
14704		24.107512	26.887724	-25.792133
14705		24.112510	26.881848	-25.796799
14706		24.120588	26.875375	-25.800104
14707		24.127961	26.871430	-25.800965
14708		24.134901	26.865985	-25.801705
14709		24.138853	26.859734	-25.802867
14710		24.141185	26.855665	-25.804063
14711		24.146156	26.851998	-25.803570
14712		24.147669	26.845641	-25.801964
14713		24.151481	26.841128	-25.802293
14714		24.154185	26.834300	-25.799059
14715		24.154061	26.828325	-25.798220
14716		24.154956	26.824402	-25.800140
14717		24.156921	26.823456	-25.801711
14718		24.160005	26.821381	-25.802387
14719		24.164512	26.818420	-25.806149
14720		24.167885	26.812169	-25.808258
14721		24.171857	26.807985	-25.809987
14722		24.174358	26.799675	-25.813482
14723		24.175305	26.796147	-25.816712
14724		24.176490	26.795420	-25.819933
14725		24.177363	26.789592	-25.824763
14726		24.178420	26.784026	-25.827180
14727		24.184946	26.784164	-25.827063
14728		24.192291	26.780034	-25.825994
14729		24.193506	26.777302	-25.826297
14730		24.194820	26.778780	-25.827813
14731		24.191972	26.782292	-25.829959
14732		24.189107	26.785603	-25.834565
14733		24.190270	26.792876	-25.836276
14734		24.188874	26.797593	-25.838737
14735		24.180960	26.796596	-25.845706
14736		24.172634	26.790299	-25.853409
14737		24.164935	26.789863	-25.859612
14738		24.156097	26.786545	-25.866354
14739		24.146768	26.780001	-25.873785
14740		24.142310	26.775123	-25.878748
14741		24.144558	26.770702	-25.881990
14742		24.148488	26.768021	-25.884768
14743		24.151591	26.765853	-25.884954
14744		24.154005	26.766336	-25.883445
14745		24.152767	26.769982	-25.880520
14746		24.146656	26.773942	-25.873282
14747		24.136970	26.781611	-25.864689
14748		24.128120	26.791146	-25.857286
14749		24.120410	26.797413	-25.851577
14750		24.112828	26.801771	-25.849094
14751		24.107563	26.805559	-25.849897
14752		24.108449	26.805639	-25.854883
14753		24.113666	26.804231	-25.862065
14754		24.123196	26.800901	-25.871963
14755		24.134721	26.796545	-25.880534
14756		24.144866	26.784830	-25.887344
14757		24.150590	26.772710	-25.888872
14758		24.147558	26.772010	-25.882533
14759		24.140202	26.773197	-25.873616
14760		24.128696	26.776467	-25.861844
14761		24.117300	26.784498	-25.844739
14762		24.105397	26.786910	-25.832337
14763		24.093233	26.790726	-25.821291
14764		24.085591	26.794922	-25.810577
14765		24.075193	26.800675	-25.806456
14766		24.068537	26.803292	-25.803172
14767		24.063171	26.802716	-25.805017
14768		24.060766	26.802781	-25.808370
14769		24.059752	26.806624	-25.812564
14770		24.061851	26.809359	-25.819054
14771		24.066324	26.816399	-25.824210
14772		24.072082	26.822280	-25.827525
14773		24.078020	26.824857	-25.830806
14774		24.083709	26.826577	-25.833191
14775		24.084845	26.831778	-25.834341
14776		24.087271	26.840157	-25.833203
14777		24.087626	26.847838	-25.828494
14778		24.090459	26.853074	-25.826204
14779		24.093676	26.853431	-25.822628
14780		24.096503	26.855059	-25.819531
14781		24.098607	26.854803	-25.814622
14782		24.098285	26.856697	-25.807059
14783		24.092932	26.856715	-25.798883
14784		24.087380	26.858197	-25.788286
14785		24.080744	26.857272	-25.777383
14786		24.073758	26.855257	-25.768060
14787		24.064776	26.854483	-25.761530
14788		24.055696	26.855226	-25.756352
14789		24.047258	26.855677	-25.751849
14790		24.037710	26.857479	-25.748863
14791		24.027167	26.860709	-25.748527
14792		24.017493	26.868102	-25.748019
14793		24.009125	26.874755	-25.745199
14794		24.000164	26.879498	-25.746843
14795		23.995444	26.882680	-25.746974
14796		23.993708	26.884720	-25.750248
14797		23.996385	26.885324	-25.755235
14798		24.004368	26.886674	-25.759896
14799		24.011759	26.886618	-25.764010
14800		24.017071	26.885507	-25.769254
14801		24.020217	26.887467	-25.770555
14802		24.017497	26.886989	-25.775162
14803		24.011542	26.887029	-25.777722
14804		24.003952	26.893239	-25.777618
14805		23.995005	26.900501	-25.775501
14806		23.981541	26.904662	-25.774522
14807		23.976384	26.913049	-25.772156
14808		23.971630	26.924580	-25.771133
14809		23.973738	26.936030	-25.776058
14810		23.978186	26.945163	-25.778096
14811		23.980834	26.953933	-25.781769
14812		23.979561	26.961312	-25.784485
14813		23.973118	26.966327	-25.786713
14814		23.963976	26.968769	-25.790486
14815		23.955015	26.969699	-25.792420
14816		23.941367	26.967198	-25.794119
14817		23.935055	26.962670	-25.790628
14818		23.927356	26.958702	-25.785823
14819		23.921110	26.956472	-25.780735
14820		23.914796	26.953958	-25.774150
14821		23.907455	26.953184	-25.768294
14822		23.904005	26.955484	-25.758688
14823		23.899833	26.958645	-25.748121
14824		23.898021	26.961183	-25.737487
14825		23.899860	26.964624	-25.728759
14826		23.900213	26.968755	-25.718981
14827		23.902348	26.972627	-25.715196
14828		23.906475	26.977297	-25.709399
14829		23.909009	26.980225	-25.703527
14830		23.906782	26.981917	-25.698236
14831		23.901965	26.983393	-25.689969
14832		23.892252	26.990918	-25.683300
14833		23.882253	26.989871	-25.676892
14834		23.868404	26.987844	-25.671280
14835		23.855815	26.990654	-25.665426
14836		23.846852	26.996213	-25.660897
14837		23.841191	26.999348	-25.658965
14838		23.839794	27.000477	-25.660371
14839		23.844274	27.003602	-25.662228
14840		23.843821	27.005028	-25.663569
14841		23.846876	27.007112	-25.659161
14842		23.846075	27.011475	-25.658691
14843		23.843065	27.013052	-25.654613
14844		23.836102	27.012473	-25.655672
14845		23.829060	27.014205	-25.655340
14846		23.822537	27.016928	-25.655242
14847		23.813761	27.018431	-25.656437
14848		23.806772	27.020341	-25.655992
14849		23.797917	27.025877	-25.654759
14850		23.794743	27.028567	-25.656157
14851		23.796936	27.030239	-25.657517
14852		23.802768	27.030385	-25.659026
14853		23.809298	27.032332	-25.661578
14854		23.816542	27.034481	-25.661634
14855		23.820226	27.033754	-25.661675
14856		23.817885	27.030395	-25.661808
14857		23.816106	27.028780	-25.659335
14858		23.807346	27.025955	-25.661432
14859		23.798428	27.022865	-25.665828
14860		23.792640	27.023343	-25.670012
14861		23.786144	27.026298	-25.671707
14862		23.779033	27.025450	-25.671055
14863		23.770584	27.021876	-25.669057
14864		23.759851	27.023068	-25.664715
14865		23.749865	27.026157	-25.659458
14866		23.741402	27.028357	-25.653580
14867		23.729854	27.031550	-25.651243
14868		23.721698	27.034528	-25.652624
14869		23.717102	27.038042	-25.654188
14870		23.717309	27.040858	-25.655117
14871		23.719299	27.040129	-25.654527
14872		23.721122	27.038636	-25.656915
14873		23.722783	27.041148	-25.656815
14874		23.725858	27.042658	-25.662923
14875		23.727474	27.046775	-25.667689
14876		23.729588	27.051859	-25.672864
14877		23.734391	27.053575	-25.676934
14878		23.740050	27.055558	-25.677555
14879		23.742990	27.055109	-25.676897
14880		23.745102	27.054960	-25.672033
14881		23.746179	27.052345	-25.666649
14882		23.744472	27.051150	-25.660476
14883		23.740845	27.049434	-25.653843
14884		23.731736	27.046438	-25.649090
14885		23.727351	27.048677	-25.647184
14886		23.733749	27.052205	-25.645221
14887		23.747815	27.056508	-25.641508
14888		23.757485	27.058163	-25.634313
14889		23.758671	27.051745	-25.629209
14890		23.741187	27.044680	-25.623677
14891		23.718833	27.048279	-25.620461
14892		23.699621	27.057215	-25.619793
14893		23.684575	27.063633	-25.625958
14894		23.678665	27.069742	-25.632522
14895		23.677915	27.073786	-25.643815
14896		23.679737	27.075649	-25.655173
14897		23.687159	27.079246	-25.664653
14898		23.694298	27.090640	-25.667984
14899		23.699296	27.099242	-25.667262
14900		23.700581	27.102496	-25.665576
14901		23.697736	27.106466	-25.663472
14902		23.693056	27.107798	-25.660975
14903		23.689455	27.103658	-25.661644
14904		23.690949	27.097728	-25.661965
14905		23.692416	27.091513	-25.663944
14906		23.690571	27.085258	-25.664864
14907		23.687685	27.078769	-25.665669
14908		23.683658	27.077561	-25.665524
14909		23.683468	27.079970	-25.661262
14910		23.684516	27.083390	-25.655968
14911		23.683940	27.083068	-25.648374
14912		23.683366	27.084295	-25.641560
14913		23.681138	27.081555	-25.640632
14914		23.680778	27.075372	-25.638621
14915		23.682423	27.067652	-25.639281
14916		23.681661	27.060196	-25.639014
14917		23.675306	27.051420	-25.640174
14918		23.668406	27.041352	-25.641392
14919		23.659279	27.036101	-25.641724
14920		23.653818	27.041468	-25.637865
14921		23.653330	27.047345	-25.631940
14922		23.656680	27.050304	-25.624516
14923		23.656159	27.054114	-25.618037
14924		23.651429	27.053730	-25.612782
14925		23.650392	27.052058	-25.608871
14926		23.647845	27.050656	-25.607853
14927		23.644416	27.046850	-25.609912
14928		23.639692	27.033635	-25.614778
14929		23.637096	27.025517	-25.619955
14930		23.638597	27.019402	-25.622074
14931		23.644244	27.013126	-25.623834
14932		23.652197	27.010106	-25.624797
14933		23.660779	27.008799	-25.627451
14934		23.672070	27.007568	-25.632850
14935		23.685103	27.004345	-25.641806
14936		23.698810	27.002594	-25.650702
14937		23.711451	26.998482	-25.659038
14938		23.724373	26.994733	-25.668683
14939		23.732178	26.993484	-25.672799
14940		23.733441	26.990547	-25.675079
14941		23.732247	26.984058	-25.676516
14942		23.729073	26.981095	-25.676009
14943		23.724667	26.983332	-25.674115
14944		23.722379	26.984629	-25.671105
14945		23.721761	26.985914	-25.668373
14946		23.718083	26.980079	-25.666924
14947		23.714535	26.978235	-25.666005
14948		23.711471	26.979533	-25.666091
14949		23.711963	26.981203	-25.666821
14950		23.717053	26.981347	-25.669742
14951		23.727905	26.979425	-25.672321
14952		23.744814	26.978261	-25.673187
14953		23.757332	26.974270	-25.675836
14954		23.766233	26.969593	-25.680362
14955		23.773162	26.962200	-25.684283
14956		23.773527	26.957248	-25.687965
14957		23.771765	26.951377	-25.690102
14958		23.771215	26.944730	-25.688445
14959		23.770546	26.935560	-25.688647
14960		23.775389	26.929422	-25.687762
14961		23.776962	26.919411	-25.690039
14962		23.782779	26.907525	-25.689458
14963		23.792526	26.897056	-25.689919
14964		23.802434	26.887267	-25.690154
14965		23.809103	26.875405	-25.691599
14966		23.811066	26.861914	-25.695590
14967		23.809440	26.845929	-25.702052
14968		23.802500	26.834723	-25.713596
14969		23.798065	26.821815	-25.723513
14970		23.790337	26.809066	-25.731768
14971		23.786174	26.799006	-25.739318
14972		23.791885	26.792050	-25.747378
14973		23.803475	26.783092	-25.758986
14974		23.811233	26.774522	-25.771856
14975		23.819953	26.766355	-25.788522
14976		23.828471	26.755221	-25.809527
14977		23.824455	26.746675	-25.827596
14978		23.815762	26.755886	-25.837609
14979		23.812114	26.776224	-25.834260
14980		23.817422	26.789747	-25.832260
14981		23.836074	26.786709	-25.830267
14982		23.863451	26.767555	-25.837856
14983		23.888624	26.731621	-25.862235
14984		23.906528	26.689410	-25.901195
14985		23.914924	26.656091	-25.944705
14986		23.912699	26.625971	-25.981425
14987		23.899595	26.609219	-26.004851
14988		23.877192	26.605836	-26.006322
14989		23.853052	26.612228	-25.990890
14990		23.835303	26.625072	-25.965295
14991		23.828446	26.637836	-25.935730
14992		23.832858	26.648737	-25.910876
14993		23.848339	26.653458	-25.894268
14994		23.867673	26.658401	-25.885944
14995		23.890373	26.667265	-25.882110
14996		23.910315	26.675310	-25.878389
14997		23.923009	26.678199	-25.876251
14998		23.929178	26.676814	-25.875624
14999		23.934544	26.674230	-25.873590
15000		23.935879	26.671677	-25.871574
15001		23.935733	26.661451	-25.875398
15002		23.940896	26.651380	-25.878642
15003		23.948110	26.640319	-25.886408
15004		23.956280	26.625034	-25.897056
15005		23.959139	26.605537	-25.905013
15006		23.950064	26.592048	-25.907174
15007		23.935988	26.585281	-25.904346
15008		23.923746	26.586936	-25.898408
15009		23.916525	26.588985	-25.890272
15010		23.915145	26.592756	-25.881540
15011		23.922551	26.595522	-25.874012
15012		23.936374	26.599308	-25.871624
15013		23.958096	26.607444	-25.872139
15014		23.981282	26.613121	-25.873625
15015		24.000018	26.615848	-25.877563
15016		24.011366	26.620834	-25.878829
15017		24.017372	26.621769	-25.877191
15018		24.014314	26.620763	-25.878644
15019		24.011926	26.619749	-25.876891
15020		24.006255	26.618874	-25.878196
15021		24.005041	26.620331	-25.880436
15022		24.009732	26.619911	-25.880593
15023		24.014635	26.622297	-25.878185
15024		24.019352	26.628148	-25.874042
15025		24.020842	26.638689	-25.869025
15026		24.021478	26.651775	-25.858435
15027		24.016833	26.659752	-25.853241
15028		24.010344	26.667207	-25.848296
15029		24.006329	26.678490	-25.845638
15030		24.005292	26.688112	-25.846042
15031		24.007942	26.692751	-25.848532
15032		24.011205	26.694481	-25.851874
15033		24.021007	26.696092	-25.854228
15034		24.032136	26.700695	-25.855973
15035		24.043688	26.711107	-25.851136
15036		24.048685	26.717740	-25.843705
15037		24.049304	26.722561	-25.834238
15038		24.045408	26.732306	-25.824723
15039		24.036854	26.743403	-25.815241
15040		24.029346	26.747962	-25.809518
15041		24.024175	26.750473	-25.806936
15042		24.019936	26.750998	-25.806185
15043		24.024130	26.755727	-25.803621
15044		24.032709	26.761314	-25.798228
15045		24.040143	26.765914	-25.793371
15046		24.047017	26.770696	-25.789139
15047		24.056279	26.779863	-25.781679
15048		24.065322	26.788358	-25.777437
15049		24.069017	26.795989	-25.773951
15050		24.073718	26.801620	-25.771921
15051		24.075730	26.802955	-25.771881
15052		24.076897	26.806567	-25.768365
15053		24.075610	26.812471	-25.763879
15054		24.073946	26.821461	-25.756342
15055		24.074120	26.832891	-25.751321
15056		24.074065	26.843509	-25.745124
15057		24.080794	26.850451	-25.740106
15058		24.086232	26.857554	-25.737161
15059		24.093830	26.862063	-25.737963
15060		24.098151	26.866877	-25.741409
15061		24.104483	26.874354	-25.742745
15062		24.110424	26.884623	-25.743335
15063		24.113073	26.897417	-25.744438
15064		24.116740	26.916521	-25.743633
15065		24.117413	26.933197	-25.738148
15066		24.115783	26.944221	-25.732861
15067		24.109738	26.950812	-25.729309
15068		24.100985	26.958885	-25.724265
15069		24.090685	26.963265	-25.722562
15070		24.083086	26.963723	-25.721936
15071		24.077016	26.961952	-25.721917
15072		24.074020	26.961450	-25.723339
15073		24.074356	26.964856	-25.723230
15074		24.078223	26.968744	-25.720027
15075		24.084284	26.971947	-25.716767
15076		24.091423	26.973512	-25.710582
15077		24.096539	26.976651	-25.705256
15078		24.100371	26.980632	-25.700424
15079		24.102226	26.983694	-25.699546
15080		24.103827	26.994048	-25.696356
15081		24.108607	27.000007	-25.695774
15082		24.110168	27.006326	-25.695776
15083		24.113102	27.014226	-25.691598
15084		24.117200	27.023017	-25.686992
15085		24.123576	27.031121	-25.681884
15086		24.131900	27.037886	-25.675844
15087		24.138743	27.041227	-25.668979
15088		24.146684	27.038792	-25.663898
15089		24.146634	27.033575	-25.660286
15090		24.145396	27.029601	-25.658958
15091		24.139749	27.022656	-25.661493
15092		24.132718	27.020739	-25.661800
15093		24.123666	27.022158	-25.659584
15094		24.114754	27.019845	-25.657865
15095		24.110467	27.020780	-25.652574
15096		24.109967	27.025748	-25.650539
15097		24.112220	27.029705	-25.650271
15098		24.112982	27.033826	-25.653178
15099		24.116889	27.035499	-25.655128
15100		24.120624	27.036928	-25.655921
15101		24.126611	27.037634	-25.656411
15102		24.135818	27.037454	-25.656977
15103		24.146659	27.033667	-25.656846
15104		24.158554	27.032375	-25.657154
15105		24.169589	27.028932	-25.658401
15106		24.171236	27.026976	-25.661192
15107		24.170936	27.028518	-25.665531
15108		24.168381	27.028360	-25.671771
15109		24.164370	27.026867	-25.679424
15110		24.158569	27.025182	-25.684687
15111		24.150579	27.024523	-25.689675
15112		24.147756	27.027649	-25.696084
15113		24.145532	27.028639	-25.700586
15114		24.144500	27.028521	-25.703579
15115		24.146229	27.027022	-25.705927
15116		24.144244	27.026613	-25.708991
15117		24.141227	27.026018	-25.710134
15118		24.135272	27.027945	-25.709301
15119		24.124671	27.029499	-25.710014
15120		24.117208	27.030023	-25.711562
15121		24.113276	27.031223	-25.713318
15122		24.114803	27.032926	-25.716196
15123		24.120790	27.033631	-25.716681
15124		24.128187	27.035525	-25.717951
15125		24.136098	27.036780	-25.718272
15126		24.137864	27.035701	-25.718420
15127		24.137728	27.035931	-25.719319
15128		24.136259	27.034751	-25.722229
15129		24.135171	27.034913	-25.721069
15130		24.135519	27.030349	-25.720712
15131		24.132252	27.027339	-25.719954
15132		24.129325	27.025152	-25.716015
15133		24.126223	27.020831	-25.711820
15134		24.122064	27.017789	-25.709133
15135		24.119766	27.015261	-25.706152
15136		24.118360	27.018682	-25.706032
15137		24.115741	27.018984	-25.707786
15138		24.113462	27.016199	-25.707453
15139		24.116779	27.016838	-25.705274
15140		24.119150	27.017509	-25.701337
15141		24.114307	27.012776	-25.700826
15142		24.109386	27.009820	-25.699535
15143		24.106774	27.010330	-25.699148
15144		24.107322	27.013907	-25.702860
15145		24.111269	27.017236	-25.709613
15146		24.114467	27.022910	-25.710490
15147		24.109957	27.024320	-25.717223
15148		24.101590	27.024993	-25.722458
15149		24.088061	27.025105	-25.729863
15150		24.076122	27.023301	-25.738004
15151		24.069379	27.019465	-25.744614
15152		24.064155	27.013162	-25.752006
15153		24.068710	27.010000	-25.757855
15154		24.073531	27.003499	-25.759364
15155		24.078049	26.998681	-25.760403
15156		24.079839	26.995423	-25.759851
15157		24.079849	26.993925	-25.761596
15158		24.078015	26.994195	-25.762230
15159		24.078695	26.996630	-25.760061
15160		24.078522	26.998918	-25.757656
15161		24.078233	27.000871	-25.757711
15162		24.083302	27.002987	-25.757023
15163		24.085242	27.002245	-25.756462
15164		24.084221	27.002738	-25.753061
15165		24.079424	27.000280	-25.750946
15166		24.075199	26.999627	-25.747000
15167		24.071065	27.000896	-25.743111
15168		24.065459	27.002596	-25.740108
15169		24.063340	27.000204	-25.740650
15170		24.062769	26.993590	-25.736962
15171		24.057562	26.990236	-25.734243
15172		24.056883	26.987314	-25.730510
15173		24.056340	26.986851	-25.728666
15174		24.058682	26.988818	-25.727423
15175		24.061789	26.988901	-25.726010
15176		24.066589	26.987156	-25.722882
15177		24.072490	26.991857	-25.720896
15178		24.075349	26.996908	-25.718525
15179		24.077748	26.999339	-25.716955
15180		24.076464	26.999243	-25.714680
15181		24.072471	26.998787	-25.711643
15182		24.066838	26.995826	-25.711585
15183		24.062785	26.992683	-25.714439
15184		24.063749	26.989510	-25.715618
15185		24.064569	26.989807	-25.718573
15186		24.065543	26.986356	-25.721984
15187		24.066568	26.987204	-25.724171
15188		24.069756	26.989019	-25.727778
15189		24.076007	26.992135	-25.730145
15190		24.081700	26.997672	-25.731922
15191		24.085468	27.001272	-25.730870
15192		24.084496	27.001197	-25.731719
15193		24.080345	27.002056	-25.732117
15194		24.073391	27.003965	-25.735769
15195		24.068177	27.008140	-25.738071
15196		24.063208	27.010963	-25.738743
15197		24.059461	27.012718	-25.739746
15198		24.057839	27.015865	-25.738094
15199		24.056579	27.017749	-25.736100
15200		24.057053	27.017646	-25.734202
15201		24.058278	27.019045	-25.735624
15202		24.061353	27.020604	-25.735453
15203		24.066790	27.021719	-25.738747
15204		24.071534	27.021342	-25.738375
15205		24.077529	27.022242	-25.736704
15206		24.080638	27.024132	-25.733931
15207		24.080748	27.027390	-25.730316
15208		24.080914	27.030654	-25.726937
15209		24.081322	27.030667	-25.722878
15210		24.074119	27.032773	-25.720819
15211		24.067824	27.032739	-25.720029
15212		24.062902	27.032009	-25.717353
15213		24.054471	27.030878	-25.717505
15214		24.049998	27.030816	-25.717386
15215		24.048788	27.034364	-25.720194
15216		24.053664	27.040099	-25.721784
15217		24.060070	27.041284	-25.727124
15218		24.067336	27.048469	-25.728835
15219		24.066585	27.055189	-25.730632
15220		24.057183	27.057404	-25.732672
15221		24.044841	27.060843	-25.735520
15222		24.033722	27.063041	-25.738634
15223		24.023151	27.060200	-25.746149
15224		24.015130	27.056145	-25.750030
15225		24.014213	27.056649	-25.750258
15226		24.017185	27.058194	-25.750681
15227		24.020689	27.059168	-25.749869
15228		24.024790	27.063517	-25.745702
15229		24.027636	27.069317	-25.740984
15230		24.024691	27.073643	-25.736963
15231		24.019450	27.078635	-25.730735
15232		24.019832	27.086785	-25.725980
15233		24.015963	27.092947	-25.720267
15234		24.014065	27.095086	-25.717424
15235		24.011414	27.095595	-25.717066
15236		24.016136	27.094525	-25.716731
15237		24.023811	27.092938	-25.719393
15238		24.032519	27.089592	-25.721247
15239		24.041509	27.087509	-25.719627
15240		24.048129	27.085944	-25.714387
15241		24.050227	27.078616	-25.703801
15242		24.043715	27.075315	-25.687549
15243		24.034003	27.072914	-25.670972
15244		24.018795	27.071339	-25.657052
15245		24.003446	27.073320	-25.644714
15246		23.987934	27.074614	-25.635503
15247		23.974736	27.076883	-25.630765
15248		23.963687	27.081328	-25.630459
15249		23.962266	27.084530	-25.631902
15250		23.962951	27.088241	-25.632835
15251		23.969023	27.090594	-25.638078
15252		23.977773	27.092906	-25.641877
15253		23.987960	27.090829	-25.647932
15254		23.998815	27.084192	-25.656107
15255		24.009308	27.078467	-25.665991
15256		24.018151	27.077421	-25.672463
15257		24.025978	27.074310	-25.673831
15258		24.029525	27.073229	-25.672444
15259		24.030008	27.077983	-25.663033
15260		24.023935	27.081462	-25.653781
15261		24.015653	27.081496	-25.646796
15262		24.007809	27.084497	-25.641670
15263		24.002211	27.090061	-25.641782
15264		23.999311	27.089428	-25.642714
15265		23.996960	27.086291	-25.646189
15266		24.000091	27.083860	-25.650424
15267		24.002379	27.081534	-25.654217
15268		24.001035	27.078685	-25.657920
15269		24.001540	27.082633	-25.657049
15270		24.002161	27.089066	-25.654309
15271		23.998220	27.092954	-25.650222
15272		23.993216	27.092238	-25.647774
15273		23.988919	27.097301	-25.643609
15274		23.987319	27.104360	-25.638845
15275		23.987409	27.107411	-25.637377
15276		23.989604	27.107364	-25.635873
15277		23.995330	27.105829	-25.632302
15278		24.001198	27.106735	-25.626809
15279		24.000898	27.103223	-25.622419
15280		23.996851	27.104791	-25.615859
15281		23.992745	27.110604	-25.608796
15282		23.981694	27.116559	-25.599693
15283		23.970071	27.114685	-25.594541
15284		23.962984	27.115250	-25.591131
15285		23.960366	27.118037	-25.589172
15286		23.962760	27.118232	-25.589313
15287		23.966372	27.115003	-25.593090
15288		23.973535	27.109925	-25.595049
15289		23.980046	27.107710	-25.596419
15290		23.983116	27.105696	-25.596594
15291		23.981254	27.108406	-25.593179
15292		23.978122	27.112064	-25.589941
15293		23.971057	27.114593	-25.586908
15294		23.961471	27.121315	-25.582179
15295		23.952938	27.126271	-25.580448
15296		23.944868	27.121701	-25.582262
15297		23.935768	27.118944	-25.584779
15298		23.931545	27.123203	-25.589469
15299		23.932865	27.134411	-25.594248
15300		23.937202	27.142419	-25.601770
15301		23.943200	27.148567	-25.606664
15302		23.945311	27.153062	-25.612204
15303		23.944454	27.155241	-25.617231
15304		23.942544	27.153115	-25.621430
15305		23.935095	27.153945	-25.626341
15306		23.928443	27.152690	-25.627378
15307		23.918211	27.151382	-25.629152
15308		23.909579	27.149822	-25.630092
15309		23.903015	27.149250	-25.630128
15310		23.899427	27.147715	-25.626846
15311		23.896519	27.148079	-25.623014
15312		23.893822	27.144609	-25.621275
15313		23.895103	27.142610	-25.618761
15314		23.895253	27.141501	-25.615782
15315		23.897932	27.140471	-25.615902
15316		23.904011	27.141379	-25.614239
15317		23.906940	27.143168	-25.611977
15318		23.907833	27.140136	-25.611336
15319		23.910083	27.138407	-25.608730
15320		23.910780	27.135376	-25.604106
15321		23.906016	27.131404	-25.600794
15322		23.900124	27.132626	-25.598377
15323		23.893665	27.130933	-25.592872
15324		23.886293	27.124215	-25.592624
15325		23.879118	27.116534	-25.590519
15326		23.876710	27.113606	-25.585717
15327		23.876535	27.108367	-25.582188
15328		23.876042	27.102357	-25.577815
15329		23.876668	27.099311	-25.571216
15330		23.876441	27.098260	-25.563272
15331		23.869973	27.096569	-25.557770
15332		23.862862	27.093208	-25.555410
15333		23.856996	27.090293	-25.555609
15334		23.852094	27.089232	-25.556720
15335		23.846461	27.086466	-25.560410
15336		23.840961	27.083522	-25.566113
15337		23.843630	27.079819	-25.572101
15338		23.853811	27.073860	-25.574899
15339		23.862184	27.067635	-25.579290
15340		23.872639	27.062016	-25.583157
15341		23.879733	27.058968	-25.585951
15342		23.880886	27.056210	-25.588381
15343		23.868888	27.052252	-25.595454
15344		23.847689	27.052697	-25.601577
15345		23.825834	27.055892	-25.607321
15346		23.804547	27.051928	-25.621432
15347		23.785306	27.048167	-25.636755
15348		23.773803	27.042426	-25.650363
15349		23.767674	27.039678	-25.661123
15350		23.763320	27.037353	-25.668338
15351		23.760250	27.036565	-25.671663
15352		23.763944	27.036057	-25.669665
15353		23.765832	27.035499	-25.666978
15354		23.767671	27.030363	-25.667943
15355		23.769313	27.024315	-25.673501
15356		23.776782	27.017763	-25.680165
15357		23.786274	27.007616	-25.689035
15358		23.792600	26.993465	-25.698641
15359		23.796877	26.983140	-25.707907
15360		23.805538	26.976714	-25.713586
15361		23.816664	26.973225	-25.714714
15362		23.827986	26.965951	-25.716130
15363		23.837746	26.955428	-25.716578
15364		23.846167	26.948260	-25.715909
15365		23.847990	26.942962	-25.718577
15366		23.849459	26.932189	-25.723676
15367		23.853518	26.921521	-25.731589
15368		23.851201	26.910356	-25.736546
15369		23.846911	26.898345	-25.743771
15370		23.841166	26.886556	-25.754084
15371		23.843880	26.876989	-25.759883
15372		23.847997	26.868619	-25.766621
15373		23.852416	26.856778	-25.774613
15374		23.857429	26.847964	-25.783560
15375		23.866749	26.839749	-25.789471
15376		23.876147	26.831758	-25.793196
15377		23.878352	26.819420	-25.795767
15378		23.875939	26.804402	-25.797056
15379		23.868143	26.792600	-25.800994
15380		23.859970	26.781935	-25.807457
15381		23.857126	26.773363	-25.813562
15382		23.858790	26.767458	-25.819367
15383		23.863391	26.762033	-25.826769
15384		23.874977	26.758758	-25.830676
15385		23.881258	26.751258	-25.838147
15386		23.886713	26.746946	-25.837465
15387		23.887931	26.745875	-25.842605
15388		23.886869	26.743320	-25.847539
15389		23.884780	26.740341	-25.854492
15390		23.884385	26.742903	-25.860264
15391		23.887932	26.746676	-25.869722
15392		23.889422	26.743798	-25.877679
15393		23.888013	26.738666	-25.882670
15394		23.880603	26.730381	-25.893756
15395		23.875270	26.721893	-25.900734
15396		23.869931	26.717192	-25.909358
15397		23.864706	26.713044	-25.915231
15398		23.855752	26.706482	-25.918340
15399		23.845833	26.696047	-25.919489
15400		23.838549	26.690333	-25.914312
15401		23.830082	26.693938	-25.909170
15402		23.826280	26.692136	-25.902230
15403		23.821985	26.693580	-25.896286
15404		23.821509	26.695540	-25.890640
15405		23.821710	26.697051	-25.887883
15406		23.825318	26.698068	-25.886888
15407		23.827757	26.702546	-25.885812
15408		23.832361	26.703836	-25.884580
15409		23.838808	26.705410	-25.885587
15410		23.847048	26.706920	-25.889471
15411		23.850834	26.707837	-25.894243
15412		23.856127	26.706865	-25.893091
15413		23.855835	26.705404	-25.889236
15414		23.853371	26.706978	-25.883651
15415		23.850130	26.704898	-25.877956
15416		23.848586	26.696285	-25.875440
15417		23.845981	26.689784	-25.869400
15418		23.843564	26.687604	-25.864279
15419		23.849843	26.685224	-25.862143
15420		23.858910	26.685499	-25.859010
15421		23.867291	26.681940	-25.857534
15422		23.871126	26.681302	-25.856854
15423		23.870138	26.687863	-25.855127
15424		23.861985	26.691683	-25.853535
15425		23.854436	26.693296	-25.849926
15426		23.847762	26.696327	-25.845338
15427		23.846016	26.699758	-25.839037
15428		23.847493	26.698715	-25.836742
15429		23.848552	26.696155	-25.835001
15430		23.850624	26.694919	-25.838882
15431		23.852403	26.693222	-25.843330
15432		23.852672	26.695770	-25.848021
15433		23.854908	26.694780	-25.855180
15434		23.860618	26.702177	-25.860396
15435		23.867211	26.707894	-25.862410
15436		23.869047	26.712271	-25.864829
15437		23.865873	26.715477	-25.865679
15438		23.861748	26.720828	-25.865324
15439		23.856205	26.725054	-25.862041
15440		23.850823	26.731141	-25.861672
15441		23.843401	26.736900	-25.859091
15442		23.837874	26.747076	-25.856153
15443		23.834536	26.752003	-25.856160
15444		23.831297	26.754828	-25.855349
15445		23.829835	26.758222	-25.854656
15446		23.829785	26.762830	-25.854848
15447		23.828410	26.762430	-25.854497
15448		23.827277	26.762517	-25.855707
15449		23.828186	26.767350	-25.855410
15450		23.826878	26.775171	-25.853714
15451		23.824793	26.777120	-25.853202
15452		23.823145	26.782459	-25.849978
15453		23.822621	26.788775	-25.843333
15454		23.817393	26.794302	-25.837088
15455		23.809265	26.799004	-25.830459
15456		23.800939	26.811098	-25.826151
15457		23.795128	26.820841	-25.821699
15458		23.791687	26.827737	-25.818631
15459		23.794241	26.830683	-25.816280
15460		23.797329	26.836788	-25.813082
15461		23.799882	26.839733	-25.810731
15462		23.803184	26.840161	-25.811162
15463		23.801214	26.840583	-25.809384
15464		23.796366	26.843945	-25.807494
15465		23.794539	26.850972	-25.802994
15466		23.790487	26.861390	-25.792473
15467		23.788197	26.867712	-25.785267
15468		23.783993	26.875605	-25.779452
15469		23.779892	26.885536	-25.773459
15470		23.777146	26.899669	-25.771917
15471		23.777709	26.911350	-25.773832
15472		23.777595	26.916508	-25.779335
15473		23.779664	26.919696	-25.781914
15474		23.778916	26.919901	-25.785982
15475		23.776547	26.916775	-25.789482
15476		23.765147	26.910273	-25.792997
15477		23.749215	26.907715	-25.796787
15478		23.733463	26.909013	-25.799188
15479		23.721504	26.909604	-25.803087
15480		23.708824	26.910435	-25.806639
15481		23.706523	26.911838	-25.806910
15482		23.707675	26.921234	-25.802839
15483		23.714037	26.929046	-25.799749
15484		23.725192	26.931741	-25.796968
15485		23.738572	26.933850	-25.793852
15486		23.744979	26.933601	-25.792291
15487		23.751078	26.936336	-25.793192
15488		23.756660	26.947746	-25.795902
15489		23.762151	26.959626	-25.791799
15490		23.763953	26.962924	-25.788961
15491		23.761894	26.961273	-25.786693
15492		23.759738	26.964979	-25.785209
15493		23.752969	26.968395	-25.782845
15494		23.744757	26.959498	-25.785599
15495		23.735824	26.951244	-25.789390
15496		23.728791	26.949704	-25.791318
15497		23.722559	26.953442	-25.795899
15498		23.722732	26.952843	-25.794730
15499		23.723266	26.958847	-25.794362
15500		23.726708	26.970336	-25.789301
15501		23.735962	26.981597	-25.780044
15502		23.745837	26.992205	-25.770332
15503		23.755927	26.999586	-25.759959
15504		23.761589	27.000295	-25.755608
15505		23.765936	27.002079	-25.748312
15506		23.767396	27.001161	-25.738441
15507		23.767917	26.998079	-25.731899
15508		23.766678	26.996503	-25.726027
15509		23.766522	26.998034	-25.717709
15510		23.765374	26.999082	-25.712543
15511		23.765220	26.998159	-25.707961
15512		23.761421	26.996418	-25.705756
15513		23.760676	26.997274	-25.707370
15514		23.760077	26.998167	-25.708668
15515		23.768853	26.996631	-25.713250
15516		23.781071	26.997071	-25.715740
15517		23.793556	27.000968	-25.713207
15518		23.801150	27.006009	-25.707941
15519		23.804819	27.012400	-25.698866
15520		23.802493	27.018862	-25.690035
15521		23.798835	27.026084	-25.682874
15522		23.797888	27.026895	-25.679008
15523		23.801676	27.032717	-25.676288
15524		23.809186	27.034532	-25.677371
15525		23.818387	27.036345	-25.678798
15526		23.828211	27.037519	-25.679744
15527		23.834510	27.040794	-25.679865
15528		23.841265	27.042775	-25.680351
15529		23.843879	27.047785	-25.678502
15530		23.840934	27.048042	-25.675092
15531		23.837790	27.049919	-25.672602
15532		23.834150	27.054681	-25.667763
15533		23.831311	27.061437	-25.663388
15534		23.830505	27.066217	-25.662888
15535		23.834886	27.068769	-25.665335
15536		23.844989	27.074729	-25.666700
15537		23.857716	27.078972	-25.665501
15538		23.866746	27.082855	-25.662112
15539		23.875042	27.085504	-25.656516
15540		23.877392	27.088019	-25.653288
15541		23.878003	27.092682	-25.649531
15542		23.875291	27.099045	-25.649787
15543		23.873509	27.105693	-25.649546
15544		23.872874	27.111193	-25.646085
15545		23.874704	27.114031	-25.647311
15546		23.881210	27.115499	-25.648823
15547		23.885827	27.114988	-25.648735
15548		23.890022	27.115265	-25.646945
15549		23.895619	27.115020	-25.646751
15550		23.899135	27.113771	-25.647581
15551		23.901083	27.115077	-25.647540
15552		23.902051	27.120082	-25.645075
15553		23.900658	27.127816	-25.643296
15554		23.901559	27.136495	-25.642599
15555		23.904435	27.146565	-25.636739
15556		23.904598	27.154215	-25.632065
15557		23.905716	27.155983	-25.629246
15558		23.906206	27.158012	-25.625519
15559		23.907638	27.162210	-25.624545
15560		23.909652	27.161348	-25.624009
15561		23.910544	27.157869	-25.627320
15562		23.909662	27.154566	-25.628462
15563		23.912314	27.153522	-25.628588
15564		23.916603	27.154549	-25.624182
15565		23.920073	27.152066	-25.619470
15566		23.923949	27.152351	-25.612040
15567		23.925996	27.157011	-25.603258
15568		23.924187	27.164231	-25.596653
15569		23.927655	27.167612	-25.592081
15570		23.929785	27.171096	-25.590362
15571		23.936204	27.178697	-25.589342
15572		23.943406	27.185257	-25.591709
15573		23.950812	27.184816	-25.594184
15574		23.955656	27.186086	-25.596981
15575		23.960038	27.188639	-25.599421
15576		23.964805	27.190621	-25.595119
15577		23.963955	27.191855	-25.592520
15578		23.964488	27.188740	-25.586420
15579		23.958914	27.185765	-25.579719
15580		23.947483	27.185167	-25.570864
15581		23.933309	27.186030	-25.566624
15582		23.924783	27.187235	-25.565368
15583		23.919657	27.186143	-25.566860
15584		23.921364	27.188495	-25.568961
15585		23.930660	27.192373	-25.570853
15586		23.945302	27.196464	-25.572251
15587		23.957658	27.199604	-25.572553
15588		23.966731	27.201114	-25.572302
15589		23.973891	27.202752	-25.569685
15590		23.976221	27.203131	-25.567553
15591		23.981173	27.198015	-25.563678
15592		23.985306	27.194778	-25.560295
15593		23.986014	27.183730	-25.558761
15594		23.987055	27.173107	-25.558250
15595		23.981839	27.164079	-25.559125
15596		23.978134	27.156287	-25.560013
15597		23.976430	27.150845	-25.563743
15598		23.976453	27.149435	-25.565479
15599		23.980361	27.151270	-25.565221
15600		23.982096	27.153642	-25.566620
15601		23.983928	27.156483	-25.567840
15602		23.983196	27.161218	-25.568168
15603		23.984592	27.163159	-25.568813
15604		23.981799	27.165288	-25.569264
15605		23.981228	27.166699	-25.570129
15606		23.983367	27.167716	-25.573498
15607		23.990004	27.165112	-25.579044
15608		23.998750	27.159503	-25.581396
15609		24.009469	27.150378	-25.587233
15610		24.021152	27.139698	-25.589152
15611		24.025076	27.130797	-25.596249
15612		24.025613	27.121810	-25.603398
15613		24.026239	27.113290	-25.610738
15614		24.028591	27.106549	-25.616566
15615		24.032041	27.102794	-25.621096
15616		24.036854	27.096128	-25.623973
15617		24.043402	27.085587	-25.628910
15618		24.045903	27.077132	-25.636001
15619		24.048572	27.065353	-25.643491
15620		24.048255	27.052134	-25.653320
15621		24.049475	27.036936	-25.661971
15622		24.049156	27.023716	-25.671984
15623		24.050934	27.013749	-25.680070
15624		24.055529	27.001857	-25.689512
15625		24.061837	26.990958	-25.693108
15626		24.066376	26.979245	-25.700654
15627		24.070647	26.971607	-25.704100
15628		24.077468	26.964115	-25.703936
15629		24.082776	26.955385	-25.703905
15630		24.085034	26.945390	-25.704555
15631		24.082606	26.938869	-25.704254
15632		24.078806	26.937295	-25.701109
15633		24.075952	26.934558	-25.694868
15634		24.069912	26.935705	-25.692590
15635		24.072564	26.934661	-25.692717
15636		24.073054	26.931721	-25.698603
15637		24.076464	26.929329	-25.706498
15638		24.085025	26.926619	-25.714409
15639		24.091541	26.923309	-25.722836
15640		24.100500	26.918067	-25.727619
15641		24.106312	26.917109	-25.735871
15642		24.113385	26.922894	-25.743237
15643		24.120423	26.922565	-25.752724
15644		24.125303	26.925027	-25.762860
15645		24.129074	26.927332	-25.770958
15646		24.133078	26.927994	-25.779941
15647		24.134874	26.923902	-25.788147
15648		24.136608	26.917982	-25.793693
15649		24.135269	26.912555	-25.802996
15650		24.136178	26.904655	-25.809664
15651		24.134670	26.895076	-25.817997
15652		24.135390	26.886637	-25.825414
15653		24.136422	26.879205	-25.831219
15654		24.136738	26.872117	-25.836386
15655		24.138431	26.868378	-25.840365
15656		24.146081	26.865114	-25.838276
15657		24.152899	26.864308	-25.833833
15658		24.157695	26.862328	-25.832374
15659		24.167018	26.861415	-25.827032
15660		24.172978	26.860237	-25.824979
15661		24.176658	26.858094	-25.821635
15662		24.177467	26.855227	-25.818630
15663		24.178170	26.850037	-25.817244
15664		24.177715	26.844288	-25.814740
15665		24.179456	26.839188	-25.815357
15666		24.178847	26.836340	-25.817585
15667		24.184339	26.828148	-25.816802
15668		24.190227	26.816598	-25.817721
15669		24.193857	26.806337	-25.815907
15670		24.199395	26.800640	-25.811373
15671		24.205016	26.793159	-25.807712
15672		24.206828	26.792808	-25.803116
15673		24.209011	26.793286	-25.798934
15674		24.210763	26.793104	-25.792296
15675		24.214219	26.792845	-25.785984
15676		24.215397	26.791055	-25.781641
15677		24.217267	26.786667	-25.779381
15678		24.221235	26.782702	-25.779135
15679		24.227915	26.781177	-25.777577
15680		24.233464	26.776673	-25.778613
15681		24.239829	26.770284	-25.778979
15682		24.246514	26.764332	-25.780897
15683		24.251417	26.758143	-25.784164
15684		24.257282	26.753820	-25.788678
15685		24.263860	26.749164	-25.793745
15686		24.268891	26.746499	-25.800900
15687		24.271915	26.745477	-25.806590
15688		24.273893	26.748235	-25.810097
15689		24.274482	26.748202	-25.811695
15690		24.270526	26.749537	-25.813445
15691		24.269531	26.750049	-25.813722
15692		24.267247	26.749295	-25.815746
15693		24.264127	26.746321	-25.820756
15694		24.260641	26.742517	-25.825274
15695		24.258154	26.740982	-25.830082
15696		24.253301	26.744107	-25.832694
15697		24.248627	26.743925	-25.834751
15698		24.246617	26.745788	-25.836591
15699		24.246533	26.750353	-25.836375
15700		24.245512	26.752470	-25.838053
15701		24.244575	26.752809	-25.840441
15702		24.245702	26.756000	-25.841178
15703		24.244795	26.758588	-25.841934
15704		24.239679	26.761362	-25.843197
15705		24.236772	26.765842	-25.840434
15706		24.235270	26.769470	-25.837898
15707		24.233695	26.773039	-25.835116
15708		24.229005	26.775507	-25.831369
15709		24.221278	26.777125	-25.827916
15710		24.213785	26.777086	-25.825575
15711		24.206941	26.780508	-25.823260
15712		24.197575	26.785645	-25.823136
15713		24.196881	26.791018	-25.821494
15714		24.196202	26.791987	-25.823157
15715		24.196693	26.789875	-25.824281
15716		24.198711	26.791264	-25.824303
15717		24.202369	26.792730	-25.822690
15718		24.201014	26.792422	-25.822225
15719		24.196740	26.791946	-25.819398
15720		24.186779	26.800138	-25.816397
15721		24.173883	26.809555	-25.813994
15722		24.160600	26.821774	-25.812946
15723		24.145695	26.832033	-25.814132
15724		24.130193	26.832781	-25.817171
15725		24.119208	26.833558	-25.823186
15726		24.111703	26.838355	-25.828102
15727		24.103062	26.840733	-25.832354
15728		24.094703	26.839038	-25.841307
15729		24.092483	26.840113	-25.845832
15730		24.089819	26.839500	-25.854948
15731		24.091205	26.834518	-25.862572
15732		24.094608	26.832553	-25.866234
15733		24.097434	26.835657	-25.867318
15734		24.097149	26.837679	-25.867234
15735		24.098227	26.839424	-25.864418
15736		24.095188	26.843445	-25.862399
15737		24.093337	26.846647	-25.858294
15738		24.090228	26.850842	-25.854193
15739		24.082581	26.856785	-25.849618
15740		24.075535	26.859907	-25.846014
15741		24.069197	26.862691	-25.843046
15742		24.061297	26.861589	-25.842089
15743		24.054366	26.860513	-25.843062
15744		24.046733	26.857530	-25.844641
15745		24.043743	26.857509	-25.845158
15746		24.042368	26.852519	-25.850342
15747		24.041682	26.845985	-25.850624
15748		24.038927	26.848953	-25.846735
15749		24.037675	26.851345	-25.844060
15750		24.040482	26.853501	-25.837494
15751		24.043458	26.855944	-25.832346
15752		24.047246	26.856095	-25.827177
15753		24.047477	26.860532	-25.819972
15754		24.047961	26.864681	-25.816701
15755		24.048636	26.870020	-25.810063
15756		24.047805	26.873575	-25.806110
15757		24.044510	26.875612	-25.801561
15758		24.039227	26.875101	-25.796857
15759		24.034757	26.872721	-25.791471
15760		24.030361	26.870421	-25.786113
15761		24.027931	26.868396	-25.782603
15762		24.025986	26.867498	-25.777384
15763		24.020311	26.869306	-25.777959
15764		24.017022	26.874168	-25.780240
15765		24.020014	26.879175	-25.783900
15766		24.023882	26.883979	-25.788236
15767		24.027646	26.886466	-25.794180
