// General information: 
//  MT Manager version: 2022.2.0 
//  XDA version: 2022.2.0 build 7381 rev 124627 built on 2023-07-19
// Device information: 
//  DeviceId: 00B447FA
//  ProductCode: MTW2-3A7G6
//  Firmware Version: 4.3.5
//  Hardware Version: 2.0.0
// Device settings: 
//  Filter Profile: human(46.1)
//  Option Flags: Orientation Smoother Disabled, Position/Velocity Smoother Disabled, Continuous Zero Rotation Update Disabled, AHS Disabled, ICC Disabled
// Coordinate system: ENU
PacketCounter	SampleTimeFine	Roll	Pitch	Yaw
15440		75.796536	-11.516372	31.582663
15441		75.795774	-11.517402	31.584254
15442		75.791284	-11.519462	31.586047
15443		75.786650	-11.517292	31.591380
15444		75.783634	-11.516716	31.593799
15445		75.782866	-11.513020	31.598387
15446		75.777612	-11.510805	31.600416
15447		75.773563	-11.511560	31.602006
15448		75.771494	-11.511934	31.604030
15449		75.767449	-11.510869	31.607414
15450		75.767374	-11.513628	31.607066
15451		75.766274	-11.509747	31.607273
15452		75.761755	-11.501636	31.609128
15453		75.757074	-11.490375	31.615095
15454		75.750772	-11.479342	31.625907
15455		75.741655	-11.467756	31.636954
15456		75.729640	-11.456748	31.652493
15457		75.715786	-11.447915	31.666008
15458		75.705354	-11.445455	31.674307
15459		75.696619	-11.443117	31.689116
15460		75.690460	-11.444342	31.700940
15461		75.692184	-11.450857	31.712020
15462		75.699458	-11.458857	31.722953
15463		75.709514	-11.464536	31.731196
15464		75.720560	-11.465194	31.743616
15465		75.724016	-11.456492	31.755465
15466		75.730924	-11.442476	31.766832
15467		75.737911	-11.414603	31.780785
15468		75.738035	-11.384092	31.794481
15469		75.730407	-11.353770	31.808497
15470		75.702038	-11.329986	31.823371
15471		75.665562	-11.305463	31.844794
15472		75.648914	-11.279524	31.861311
15473		75.630655	-11.250247	31.882962
15474		75.614887	-11.213714	31.912660
15475		75.611887	-11.180319	31.936547
15476		75.635316	-11.148002	31.962574
15477		75.664885	-11.123073	31.988277
15478		75.697031	-11.108255	32.014472
15479		75.747223	-11.107468	32.040336
15480		75.823879	-11.109257	32.080541
15481		75.930984	-11.111984	32.130374
15482		76.085880	-11.122670	32.174905
15483		76.271097	-11.129675	32.215870
15484		76.427504	-11.130428	32.260448
15485		76.548306	-11.126318	32.301321
15486		76.628746	-11.119280	32.331516
15487		76.667122	-11.106510	32.363418
15488		76.652142	-11.086779	32.394067
15489		76.598376	-11.055701	32.428748
15490		76.553063	-11.023285	32.460161
15491		76.524420	-10.989623	32.494997
15492		76.555713	-10.959968	32.538758
15493		76.627438	-10.943319	32.586032
15494		76.732304	-10.950262	32.632770
15495		76.868854	-10.975451	32.669574
15496		77.046435	-11.013281	32.693292
15497		77.260487	-11.058602	32.721660
15498		77.454187	-11.125889	32.718653
15499		77.607251	-11.187672	32.731593
15500		77.644109	-11.242865	32.726508
15501		77.634249	-11.286834	32.710794
15502		77.651571	-11.326069	32.714307
15503		77.691758	-11.366632	32.718241
15504		77.737163	-11.412551	32.725511
15505		77.787630	-11.461524	32.751972
15506		77.828525	-11.534163	32.775719
15507		77.870456	-11.635240	32.798410
15508		77.922595	-11.769953	32.828794
15509		77.990062	-11.937889	32.866552
15510		78.079115	-12.116781	32.910149
15511		78.191620	-12.314589	32.946927
15512		78.309593	-12.531471	32.979055
15513		78.417571	-12.759717	33.009419
15514		78.508621	-13.007194	33.033417
15515		78.571104	-13.274461	33.050305
15516		78.615027	-13.557152	33.074005
15517		78.676280	-13.833984	33.114808
15518		78.764350	-14.113097	33.139048
15519		78.855522	-14.407799	33.153804
15520		78.937100	-14.717681	33.176125
15521		78.999877	-15.046921	33.199916
15522		79.052902	-15.397391	33.222199
15523		79.089265	-15.766136	33.252455
15524		79.099632	-16.158195	33.294097
15525		79.100802	-16.571154	33.338882
15526		79.105899	-16.998388	33.396181
15527		79.126094	-17.440969	33.470207
15528		79.163881	-17.903053	33.556495
15529		79.199067	-18.383110	33.650605
15530		79.222998	-18.877710	33.763100
15531		79.233124	-19.383265	33.886335
15532		79.217633	-19.895760	34.034128
15533		79.187655	-20.414273	34.198063
15534		79.152685	-20.942295	34.374408
15535		79.108975	-21.479734	34.557146
15536		79.049596	-22.024453	34.740607
15537		78.980698	-22.575932	34.929340
15538		78.905932	-23.134537	35.116631
15539		78.842011	-23.696638	35.315656
15540		78.787443	-24.266169	35.524734
15541		78.738597	-24.838463	35.742069
15542		78.695978	-25.414432	35.970702
15543		78.650809	-25.992636	36.209721
15544		78.593665	-26.572764	36.452231
15545		78.510419	-27.157508	36.699304
15546		78.421342	-27.743976	36.952462
15547		78.324080	-28.340268	37.207559
15548		78.232848	-28.944517	37.459732
15549		78.148988	-29.554258	37.718282
15550		78.074275	-30.172646	37.986917
15551		78.004514	-30.801384	38.260741
15552		77.937890	-31.437013	38.552214
15553		77.884539	-32.084423	38.863001
15554		77.820955	-32.750289	39.177969
15555		77.709482	-33.425493	39.524918
15556		77.517365	-34.101405	39.879340
15557		77.254340	-34.775917	40.263857
15558		76.944381	-35.446761	40.662092
15559		76.613730	-36.119932	41.085843
15560		76.251713	-36.807497	41.510369
15561		75.862068	-37.508934	41.954541
15562		75.458197	-38.222761	42.401766
15563		75.044518	-38.936547	42.876620
15564		74.621759	-39.653871	43.348976
15565		74.177796	-40.368367	43.844697
15566		73.708822	-41.080096	44.344435
15567		73.223962	-41.790281	44.867482
15568		72.724558	-42.504301	45.402912
15569		72.186282	-43.218017	45.975563
15570		71.613140	-43.924736	46.565352
15571		71.022555	-44.631444	47.194145
15572		70.415228	-45.329123	47.849369
15573		69.776965	-46.012459	48.556297
15574		69.102814	-46.683713	49.294247
15575		68.406623	-47.347335	50.075446
15576		67.702468	-48.012384	50.861963
15577		66.994986	-48.676090	51.668951
15578		66.264628	-49.334147	52.491917
15579		65.512672	-49.982002	53.344227
15580		64.757045	-50.607978	54.212206
15581		63.983884	-51.209213	55.110540
15582		63.188200	-51.788839	56.019547
15583		62.358705	-52.340695	56.972584
15584		61.502162	-52.870179	57.932970
15585		60.624270	-53.382851	58.917804
15586		59.731977	-53.886690	59.902590
15587		58.821018	-54.376534	60.897542
15588		57.887058	-54.846515	61.901699
15589		56.919506	-55.303730	62.925409
15590		55.931532	-55.749795	63.936929
15591		54.946009	-56.180814	64.957235
15592		53.949042	-56.602778	65.976674
15593		52.949730	-57.011320	67.011073
15594		51.954279	-57.404834	68.053329
15595		50.984524	-57.780973	69.101867
15596		50.044263	-58.150178	70.142518
15597		49.117318	-58.512996	71.179117
15598		48.197630	-58.860697	72.205704
15599		47.293580	-59.184248	73.244095
15600		46.403007	-59.482500	74.282968
15601		45.510845	-59.759352	75.327216
15602		44.627872	-60.007868	76.335214
15603		43.754924	-60.234757	77.301195
15604		42.895370	-60.438664	78.211717
15605		42.055376	-60.620615	79.078183
15606		41.290798	-60.793486	79.862946
15607		40.601571	-60.949305	80.599875
15608		39.997812	-61.086842	81.273700
15609		39.473607	-61.211233	81.902864
15610		39.005574	-61.322372	82.471189
15611		38.594401	-61.421555	82.982940
15612		38.203450	-61.518159	83.452369
15613		37.833434	-61.612623	83.894834
15614		37.484561	-61.703262	84.311407
15615		37.144485	-61.785061	84.716447
15616		36.805754	-61.859670	85.103340
15617		36.485148	-61.922513	85.477802
15618		36.167222	-61.980933	85.830824
15619		35.851223	-62.036352	86.153023
15620		35.533060	-62.086053	86.452143
15621		35.189591	-62.129311	86.750383
15622		34.826108	-62.166501	87.051411
15623		34.489195	-62.200467	87.369081
15624		34.161708	-62.241214	87.705210
15625		33.861429	-62.292969	88.055548
15626		33.582827	-62.341602	88.435640
15627		33.313936	-62.391991	88.840707
15628		33.046861	-62.438839	89.259876
15629		32.737587	-62.486348	89.708067
15630		32.364529	-62.535748	90.169482
15631		31.942038	-62.582741	90.657385
15632		31.463209	-62.629848	91.169333
15633		30.915555	-62.682298	91.713931
15634		30.272233	-62.734035	92.294708
15635		29.523411	-62.781198	92.916044
15636		28.676180	-62.822347	93.563432
15637		27.734073	-62.860168	94.225978
15638		26.694403	-62.888547	94.889733
15639		25.569168	-62.911083	95.561499
15640		24.395870	-62.919667	96.216330
15641		23.170290	-62.912920	96.861338
15642		21.883036	-62.891908	97.491167
15643		20.578806	-62.870160	98.083746
15644		19.265084	-62.843700	98.636004
15645		17.923240	-62.819861	99.148672
15646		16.581653	-62.797769	99.615186
15647		15.288760	-62.756865	100.062638
15648		14.058666	-62.708418	100.505477
15649		12.858129	-62.656649	100.940404
15650		11.687112	-62.601429	101.361259
15651		10.534889	-62.551404	101.764633
15652		9.421173	-62.515868	102.129775
15653		8.382617	-62.495133	102.473252
15654		7.417804	-62.479644	102.803241
15655		6.545807	-62.475866	103.113882
15656		5.816482	-62.459445	103.396828
15657		5.214618	-62.426281	103.651896
15658		4.740078	-62.396373	103.874624
15659		4.318210	-62.374441	104.118611
15660		3.859277	-62.348966	104.357171
15661		3.379547	-62.320789	104.591898
15662		2.860827	-62.302621	104.833605
15663		2.302607	-62.291625	105.077715
15664		1.747807	-62.287364	105.291553
15665		1.193978	-62.283278	105.504679
15666		0.673567	-62.282123	105.693785
15667		0.192539	-62.276981	105.870189
15668		-0.258805	-62.273064	106.039133
15669		-0.707760	-62.274330	106.214932
15670		-1.158123	-62.263773	106.390176
15671		-1.605053	-62.248598	106.567701
15672		-2.059116	-62.231725	106.737271
15673		-2.542754	-62.224513	106.890069
15674		-2.991738	-62.205282	106.991326
15675		-3.393253	-62.173688	107.051220
15676		-3.784508	-62.143545	107.085275
15677		-4.159859	-62.114948	107.106188
15678		-4.514578	-62.077954	107.111411
15679		-4.853424	-62.043147	107.119872
15680		-5.149345	-62.003975	107.119312
15681		-5.410258	-61.964514	107.120786
15682		-5.633797	-61.915196	107.102872
15683		-5.814561	-61.871581	107.096968
15684		-5.931222	-61.817430	107.079048
15685		-6.007482	-61.758325	107.080482
15686		-6.097695	-61.705411	107.098669
15687		-6.236354	-61.654637	107.114757
15688		-6.369393	-61.607849	107.113263
15689		-6.441785	-61.572345	107.114738
15690		-6.446788	-61.549127	107.117832
15691		-6.400972	-61.532612	107.146937
15692		-6.323571	-61.516505	107.180097
15693		-6.235010	-61.501319	107.217815
15694		-6.157363	-61.495568	107.246860
15695		-6.092026	-61.495049	107.268578
15696		-6.075678	-61.499675	107.277342
15697		-6.107584	-61.505065	107.274017
15698		-6.211724	-61.514083	107.261430
15699		-6.384627	-61.529302	107.244370
15700		-6.583529	-61.542592	107.213070
15701		-6.764348	-61.550752	107.194734
15702		-6.911758	-61.566916	107.191489
15703		-7.007155	-61.587664	107.197567
15704		-7.043192	-61.619239	107.220416
15705		-7.006156	-61.653764	107.243691
15706		-6.909139	-61.688884	107.251817
15707		-6.794380	-61.723357	107.277849
15708		-6.636851	-61.742238	107.290050
15709		-6.458455	-61.746058	107.306373
15710		-6.291279	-61.753044	107.315228
15711		-6.151082	-61.760063	107.308864
15712		-6.058809	-61.772466	107.273928
15713		-6.014801	-61.792853	107.218307
15714		-6.001677	-61.819737	107.139738
15715		-5.996921	-61.855384	107.040983
15716		-5.980669	-61.897621	106.923335
15717		-5.935067	-61.946573	106.797820
15718		-5.843635	-61.998519	106.653208
15719		-5.709180	-62.044444	106.487290
15720		-5.522711	-62.088065	106.290897
15721		-5.295331	-62.133209	106.082981
15722		-5.025404	-62.173907	105.834560
15723		-4.697678	-62.219785	105.551738
15724		-4.336436	-62.276123	105.240211
15725		-3.936057	-62.331893	104.911381
15726		-3.470832	-62.385192	104.561441
15727		-2.905365	-62.446103	104.195559
15728		-2.218050	-62.512628	103.786314
15729		-1.422087	-62.584201	103.328278
15730		-0.532910	-62.660449	102.804044
15731		0.398856	-62.739168	102.221327
15732		1.366349	-62.816020	101.572519
15733		2.356868	-62.887690	100.874922
15734		3.366059	-62.949422	100.133560
15735		4.390178	-63.001340	99.366174
15736		5.399270	-63.040572	98.580083
15737		6.417378	-63.073014	97.774217
15738		7.453561	-63.101511	96.944589
15739		8.517428	-63.123426	96.091182
15740		9.566764	-63.146512	95.213571
15741		10.567845	-63.159209	94.333491
15742		11.519895	-63.160957	93.448742
15743		12.440957	-63.156922	92.577415
15744		13.333469	-63.141561	91.704633
15745		14.208306	-63.115436	90.835472
15746		15.093948	-63.084187	89.957526
15747		15.977707	-63.038339	89.101999
15748		16.858305	-62.985220	88.266304
15749		17.761195	-62.923405	87.446836
15750		18.669684	-62.858149	86.632741
15751		19.580576	-62.791692	85.815055
15752		20.509582	-62.727131	84.966560
15753		21.450880	-62.658748	84.110959
15754		22.399206	-62.576211	83.239461
15755		23.350272	-62.481809	82.383657
15756		24.307515	-62.384614	81.522495
15757		25.261322	-62.279097	80.665738
15758		26.217021	-62.163707	79.797968
15759		27.189376	-62.044425	78.919530
15760		28.179883	-61.919728	78.021211
15761		29.186322	-61.780546	77.115709
15762		30.210690	-61.632373	76.185183
15763		31.245761	-61.481095	75.245792
15764		32.299275	-61.322269	74.294006
15765		33.352365	-61.150154	73.343353
15766		34.417203	-60.965466	72.378922
15767		35.507471	-60.763445	71.402346
15768		36.625237	-60.539978	70.410397
15769		37.784713	-60.304346	69.414244
15770		38.983403	-60.045824	68.407457
15771		40.185245	-59.758585	67.421909
15772		41.379956	-59.447430	66.430144
15773		42.550622	-59.110583	65.432245
15774		43.698094	-58.746836	64.419808
15775		44.836619	-58.356922	63.410220
15776		45.945552	-57.936471	62.407103
15777		47.039199	-57.491454	61.423003
15778		48.133281	-57.014021	60.440366
15779		49.233125	-56.521900	59.456667
15780		50.302570	-56.004702	58.474196
15781		51.323644	-55.458545	57.510887
15782		52.308687	-54.895647	56.551353
15783		53.267448	-54.315772	55.609303
15784		54.204339	-53.710016	54.680433
15785		55.144398	-53.086706	53.778487
15786		56.086585	-52.439818	52.920094
15787		57.032836	-51.777919	52.107903
15788		57.992788	-51.113265	51.316963
15789		58.944705	-50.443308	50.562528
15790		59.864441	-49.755077	49.846293
15791		60.748955	-49.050844	49.169107
15792		61.594188	-48.326273	48.534586
15793		62.460523	-47.592096	47.888402
15794		63.364681	-46.867707	47.215413
15795		64.217702	-46.128073	46.617701
15796		65.034788	-45.393004	46.066387
15797		65.815506	-44.673466	45.551466
15798		66.551718	-43.959846	45.072406
15799		67.234930	-43.253208	44.649320
15800		67.861632	-42.560844	44.254579
15801		68.419103	-41.877334	43.904227
15802		68.946189	-41.203096	43.548967
15803		69.431442	-40.540760	43.203856
15804		69.846385	-39.886425	42.885279
15805		70.230083	-39.239477	42.610044
15806		70.626994	-38.611500	42.347506
15807		71.034608	-38.013856	42.107639
15808		71.444315	-37.441764	41.870759
15809		71.830688	-36.884693	41.649224
15810		72.170709	-36.333789	41.430726
15811		72.469885	-35.788054	41.217813
15812		72.734646	-35.245144	40.992259
15813		72.983741	-34.709766	40.764464
15814		73.215982	-34.183945	40.525422
15815		73.421928	-33.653252	40.313786
15816		73.607472	-33.122965	40.100759
15817		73.775936	-32.590979	39.899378
15818		73.923087	-32.040263	39.699991
15819		74.076622	-31.473845	39.484181
15820		74.261893	-30.893135	39.234680
15821		74.454939	-30.302194	38.989782
15822		74.639692	-29.704531	38.729767
15823		74.825775	-29.098952	38.451394
15824		75.032946	-28.487800	38.172937
15825		75.230200	-27.870261	37.902678
15826		75.455844	-27.245734	37.617426
15827		75.731459	-26.627356	37.322606
15828		76.047496	-26.007164	37.036641
15829		76.417579	-25.382647	36.746878
15830		76.881365	-24.760860	36.453936
15831		77.427720	-24.141928	36.160927
15832		78.038957	-23.523060	35.875256
15833		78.678932	-22.897719	35.594789
15834		79.290270	-22.268445	35.315484
15835		79.864572	-21.630133	35.039501
15836		80.321766	-20.993047	34.781442
15837		80.639875	-20.362680	34.533617
15838		80.850314	-19.739400	34.279446
15839		80.988088	-19.127014	34.028162
15840		81.039785	-18.528167	33.789952
15841		81.013484	-17.945920	33.557354
15842		80.974441	-17.386861	33.326390
15843		80.940970	-16.843019	33.130792
15844		80.897177	-16.318482	32.962249
15845		80.854801	-15.811093	32.812246
15846		80.803772	-15.322483	32.689736
15847		80.753745	-14.860542	32.573632
15848		80.717528	-14.424994	32.462877
15849		80.712999	-14.015309	32.344903
15850		80.776394	-13.632866	32.217593
15851		80.917233	-13.275817	32.086562
15852		81.079199	-12.948503	31.932219
15853		81.229410	-12.625434	31.795694
15854		81.374070	-12.317664	31.663311
15855		81.506847	-12.032516	31.539837
15856		81.644100	-11.781757	31.423554
15857		81.805517	-11.583239	31.305078
15858		81.988570	-11.450642	31.190447
15859		82.194649	-11.379336	31.108726
15860		82.417710	-11.341363	31.064336
15861		82.649744	-11.316126	31.042761
15862		82.844268	-11.284694	31.031089
15863		82.950924	-11.243509	31.036280
15864		82.962912	-11.185149	31.053706
15865		82.932473	-11.115076	31.067666
15866		82.919402	-11.021551	31.058703
15867		82.963943	-10.911422	31.042830
15868		83.098202	-10.803706	31.021332
15869		83.335825	-10.697585	30.989111
15870		83.686206	-10.611695	30.930036
15871		84.083814	-10.562601	30.857264
15872		84.371345	-10.552266	30.800812
15873		84.384746	-10.547201	30.796995
15874		84.332905	-10.551393	30.783652
15875		84.281021	-10.550105	30.764799
15876		84.222881	-10.554126	30.728930
15877		84.184757	-10.568001	30.694251
15878		84.168899	-10.582344	30.680730
15879		84.153345	-10.605430	30.666591
15880		84.123529	-10.634724	30.656885
15881		84.071921	-10.658930	30.658981
15882		84.018298	-10.680650	30.660816
15883		83.964214	-10.694072	30.662669
15884		83.895615	-10.701853	30.659566
15885		83.835340	-10.709751	30.651916
15886		83.806031	-10.721151	30.640366
15887		83.809275	-10.736521	30.625160
15888		83.841976	-10.756385	30.607127
15889		83.885164	-10.774069	30.580370
15890		83.932046	-10.790502	30.552459
15891		83.972787	-10.800790	30.526871
15892		84.005090	-10.806355	30.509385
15893		84.031248	-10.808065	30.495214
15894		84.043341	-10.805075	30.485014
15895		84.036683	-10.793882	30.478431
15896		84.002506	-10.774508	30.474670
15897		83.945144	-10.747682	30.471315
15898		83.873204	-10.715228	30.468462
15899		83.796484	-10.674908	30.474814
15900		83.715072	-10.629481	30.482529
15901		83.632660	-10.584959	30.491226
15902		83.559466	-10.550301	30.497914
15903		83.505402	-10.529137	30.502821
15904		83.465068	-10.522355	30.502964
15905		83.437016	-10.531122	30.500275
15906		83.433148	-10.550165	30.489170
15907		83.458648	-10.582767	30.470145
15908		83.511190	-10.620034	30.449974
15909		83.579210	-10.658619	30.429216
15910		83.650896	-10.694248	30.409304
15911		83.716145	-10.726558	30.394186
15912		83.760523	-10.756188	30.381971
15913		83.786402	-10.780232	30.378799
15914		83.800609	-10.802325	30.381929
15915		83.802783	-10.826298	30.385232
15916		83.797792	-10.847622	30.392567
15917		83.789872	-10.865731	30.406481
15918		83.778665	-10.879492	30.424184
15919		83.761552	-10.886922	30.445668
15920		83.734592	-10.883945	30.467868
15921		83.704789	-10.875511	30.490163
15922		83.687186	-10.864794	30.503793
15923		83.673035	-10.850237	30.517113
15924		83.657360	-10.835698	30.521644
15925		83.643082	-10.819662	30.524501
15926		83.625094	-10.807581	30.526189
15927		83.597781	-10.797708	30.525391
15928		83.568309	-10.793694	30.520837
15929		83.540403	-10.790254	30.522583
15930		83.515988	-10.789882	30.520716
15931		83.495285	-10.787822	30.521014
15932		83.485450	-10.787742	30.522218
15933		83.481062	-10.787668	30.529962
15934		83.478016	-10.790657	30.537225
15935		83.482650	-10.794903	30.542912
15936		83.495781	-10.800713	30.548162
15937		83.512635	-10.801405	30.554070
15938		83.525680	-10.800297	30.561813
15939		83.534195	-10.800569	30.566255
15940		83.537443	-10.801790	30.571628
15941		83.537295	-10.803416	30.576618
15942		83.537808	-10.803088	30.584159
15943		83.533700	-10.799479	30.591885
15944		83.528027	-10.796483	30.593822
15945		83.520691	-10.791022	30.597755
15946		83.511061	-10.783932	30.602927
15947		83.494668	-10.771241	30.610406
15948		83.466009	-10.754489	30.625727
15949		83.426117	-10.735684	30.644136
15950		83.390461	-10.715008	30.666877
15951		83.358171	-10.690285	30.694790
15952		83.328052	-10.669464	30.727182
15953		83.302295	-10.649009	30.760202
15954		83.287994	-10.631017	30.794640
15955		83.277223	-10.617165	30.826769
15956		83.275650	-10.609518	30.852473
15957		83.278452	-10.607441	30.878319
15958		83.298732	-10.611394	30.901737
15959		83.333560	-10.617493	30.923173
15960		83.389127	-10.617199	30.942478
15961		83.447830	-10.608422	30.963505
15962		83.509814	-10.595626	30.973487
15963		83.563850	-10.576855	30.987868
15964		83.608462	-10.560907	31.001958
15965		83.644354	-10.552585	31.013449
15966		83.673132	-10.549192	31.029486
15967		83.699362	-10.549786	31.048560
15968		83.722497	-10.559534	31.063415
15969		83.753523	-10.571993	31.081715
15970		83.792452	-10.584629	31.098696
15971		83.836108	-10.596461	31.111795
15972		83.881043	-10.604554	31.126971
15973		83.919073	-10.613463	31.137402
15974		83.960655	-10.626853	31.139226
15975		84.012044	-10.643689	31.137377
15976		84.079981	-10.671377	31.136217
15977		84.166027	-10.703444	31.135954
15978		84.277705	-10.742674	31.130901
15979		84.396437	-10.779059	31.127904
15980		84.514791	-10.811677	31.120590
15981		84.621766	-10.837123	31.109816
15982		84.709100	-10.855108	31.100268
15983		84.771513	-10.866381	31.090442
15984		84.815470	-10.876220	31.082198
15985		84.842389	-10.880380	31.082285
15986		84.871193	-10.886407	31.084391
15987		84.890250	-10.890476	31.088899
15988		84.899574	-10.894679	31.093001
15989		84.911389	-10.901947	31.100856
15990		84.924226	-10.911957	31.109253
15991		84.944430	-10.921385	31.116675
15992		84.952807	-10.937884	31.124221
15993		84.942555	-10.957366	31.129022
15994		84.928103	-10.989278	31.127494
15995		84.920706	-11.032725	31.125906
15996		84.919824	-11.089450	31.120983
15997		84.923172	-11.160120	31.122668
15998		84.933247	-11.243338	31.125050
15999		84.946724	-11.336766	31.130612
16000		84.967186	-11.443752	31.138874
16001		84.989052	-11.560217	31.157499
16002		85.007780	-11.688619	31.175884
16003		85.008018	-11.827780	31.196725
16004		84.978281	-11.979052	31.222493
16005		84.926291	-12.138571	31.253730
16006		84.865321	-12.312089	31.287460
16007		84.805011	-12.499282	31.320997
16008		84.757787	-12.700852	31.359850
16009		84.726889	-12.918471	31.396072
16010		84.708084	-13.146664	31.439663
16011		84.697257	-13.390231	31.486251
16012		84.686627	-13.642671	31.536516
16013		84.664621	-13.902746	31.591237
16014		84.633555	-14.172033	31.646975
16015		84.593347	-14.449287	31.708799
16016		84.561596	-14.738594	31.774569
16017		84.526611	-15.037305	31.851762
16018		84.479563	-15.347482	31.931775
16019		84.424690	-15.658622	32.021679
16020		84.362427	-15.976803	32.119268
16021		84.290801	-16.305651	32.215240
16022		84.214497	-16.642993	32.316960
16023		84.129484	-16.989655	32.427531
16024		84.036487	-17.346565	32.533354
16025		83.926495	-17.714825	32.647433
16026		83.818079	-18.089319	32.761045
16027		83.713842	-18.467407	32.878376
16028		83.609717	-18.853261	32.994039
16029		83.508046	-19.243386	33.108604
16030		83.403997	-19.639078	33.222314
16031		83.295652	-20.041663	33.338208
16032		83.191418	-20.452254	33.448586
16033		83.092541	-20.865915	33.564843
16034		82.998806	-21.285575	33.685678
16035		82.910260	-21.710282	33.807421
16036		82.825229	-22.135817	33.934593
16037		82.743706	-22.563247	34.066312
16038		82.653910	-22.996368	34.198589
16039		82.540455	-23.431088	34.338627
16040		82.412915	-23.866629	34.480709
16041		82.256731	-24.301876	34.625055
16042		82.079528	-24.744751	34.772540
16043		81.892469	-25.188268	34.920188
16044		81.703379	-25.637190	35.074494
16045		81.519820	-26.091218	35.235269
16046		81.339340	-26.549026	35.400555
16047		81.154996	-27.008038	35.572753
16048		80.967550	-27.472083	35.750068
16049		80.788447	-27.942139	35.927813
16050		80.613389	-28.411636	36.112555
16051		80.442259	-28.874887	36.306791
16052		80.278014	-29.337235	36.510389
16053		80.114178	-29.795966	36.720925
16054		79.948826	-30.250591	36.942227
16055		79.779696	-30.700674	37.171925
16056		79.607407	-31.140995	37.384336
16057		79.432083	-31.576794	37.608921
16058		79.254552	-32.010712	37.821989
16059		79.082882	-32.442192	38.049381
16060		78.917044	-32.875246	38.273093
16061		78.756379	-33.307696	38.513775
16062		78.593652	-33.739323	38.747686
16063		78.409813	-34.174228	39.000563
16064		78.213135	-34.604595	39.246753
16065		77.999417	-35.035182	39.514190
16066		77.775379	-35.469993	39.776172
16067		77.541360	-35.912405	40.047073
16068		77.310173	-36.356004	40.311519
16069		77.101453	-36.796216	40.591887
16070		76.921360	-37.231741	40.867102
16071		76.756895	-37.666565	41.150940
16072		76.600357	-38.095118	41.426379
16073		76.430590	-38.524471	41.715703
16074		76.258585	-38.950457	42.003653
16075		76.077167	-39.376554	42.307947
16076		75.885664	-39.799694	42.606087
16077		75.672628	-40.221115	42.914343
16078		75.437963	-40.636253	43.218778
16079		75.200077	-41.041844	43.546642
16080		74.955915	-41.439287	43.876474
16081		74.690840	-41.830012	44.221482
16082		74.411068	-42.206679	44.563541
16083		74.144433	-42.577029	44.902252
16084		73.885932	-42.941615	45.222911
16085		73.635692	-43.300557	45.546843
16086		73.406131	-43.660607	45.854103
16087		73.190629	-44.022939	46.167009
16088		72.988544	-44.383432	46.479416
16089		72.780819	-44.748310	46.801569
16090		72.558413	-45.108975	47.118434
16091		72.323460	-45.464635	47.453204
16092		72.062346	-45.818772	47.781611
16093		71.787600	-46.168695	48.120551
16094		71.493703	-46.516204	48.462555
16095		71.192863	-46.859862	48.821780
16096		70.895197	-47.196846	49.180240
16097		70.580963	-47.531708	49.538717
16098		70.246860	-47.857568	49.885786
16099		69.908005	-48.175638	50.241174
16100		69.585629	-48.488976	50.574362
16101		69.266651	-48.802310	50.912009
16102		68.965736	-49.109070	51.245521
16103		68.674638	-49.422181	51.589130
16104		68.388826	-49.743222	51.926567
16105		68.097097	-50.069745	52.282694
16106		67.792360	-50.404119	52.643665
16107		67.476739	-50.742923	53.025083
16108		67.145784	-51.081423	53.420471
16109		66.775303	-51.417324	53.854043
16110		66.361471	-51.749709	54.306263
16111		65.904790	-52.081567	54.783746
16112		65.397774	-52.407922	55.269714
16113		64.855523	-52.726675	55.776320
16114		64.285050	-53.049898	56.275105
16115		63.682221	-53.370476	56.782762
16116		63.054218	-53.687373	57.300330
16117		62.398326	-54.007578	57.833335
16118		61.719456	-54.328938	58.369885
16119		61.026012	-54.649708	58.933329
16120		60.331979	-54.966361	59.508763
16121		59.651766	-55.273446	60.112265
16122		58.993550	-55.577632	60.723621
16123		58.354889	-55.878266	61.344186
16124		57.731877	-56.179809	61.959993
16125		57.116700	-56.484266	62.585100
16126		56.499554	-56.789879	63.222738
16127		55.855570	-57.094400	63.894955
16128		55.181618	-57.395211	64.593879
16129		54.474498	-57.693497	65.318626
16130		53.726763	-57.983892	66.054729
16131		52.928935	-58.265642	66.808402
16132		52.096921	-58.537544	67.561751
16133		51.237623	-58.796414	68.329825
16134		50.363432	-59.045577	69.094578
16135		49.485009	-59.284345	69.865420
16136		48.636757	-59.509847	70.623764
16137		47.791236	-59.731214	71.395448
16138		46.948991	-59.951038	72.152833
16139		46.134112	-60.160790	72.921807
16140		45.328131	-60.361546	73.698656
16141		44.538088	-60.561008	74.475515
16142		43.743921	-60.754729	75.254780
16143		42.944536	-60.939481	76.053924
16144		42.153894	-61.122708	76.846321
16145		41.347526	-61.293605	77.673884
16146		40.533502	-61.452448	78.515848
16147		39.725432	-61.602489	79.366076
16148		38.935981	-61.739821	80.201547
16149		38.161119	-61.865615	81.037055
16150		37.398767	-61.985301	81.846875
16151		36.642500	-62.102076	82.647849
16152		35.880003	-62.203978	83.450060
16153		35.116956	-62.294589	84.242954
16154		34.367880	-62.369338	85.010748
16155		33.640962	-62.427485	85.751877
16156		32.962026	-62.472361	86.433256
16157		32.324576	-62.506461	87.062044
16158		31.739861	-62.527798	87.634747
16159		31.224688	-62.536359	88.151228
16160		30.782926	-62.541599	88.605583
16161		30.394221	-62.544530	89.015131
16162		30.045988	-62.546162	89.379125
16163		29.719951	-62.543765	89.728654
16164		29.414151	-62.533661	90.048775
16165		29.122179	-62.517449	90.357710
16166		28.852330	-62.501632	90.631604
16167		28.608724	-62.482311	90.890486
16168		28.406205	-62.471953	91.105347
16169		28.216748	-62.466711	91.304572
16170		28.034544	-62.466037	91.485318
16171		27.851303	-62.467037	91.655415
16172		27.660812	-62.471929	91.798766
16173		27.456110	-62.473498	91.933078
16174		27.221112	-62.476667	92.048142
16175		26.960879	-62.479265	92.155886
16176		26.705158	-62.478842	92.247402
16177		26.439485	-62.472750	92.353527
16178		26.144171	-62.473680	92.466516
16179		25.814114	-62.471234	92.596049
16180		25.459610	-62.471356	92.737644
16181		25.081794	-62.474179	92.903659
16182		24.675948	-62.481059	93.079148
16183		24.254037	-62.485275	93.269348
16184		23.822780	-62.484191	93.461288
16185		23.374633	-62.483192	93.655524
16186		22.915610	-62.476083	93.824811
16187		22.432973	-62.460924	93.997966
16188		21.928460	-62.452161	94.151531
16189		21.395663	-62.432113	94.312162
16190		20.844338	-62.413608	94.478142
16191		20.220768	-62.386319	94.661413
16192		19.559400	-62.347206	94.826836
16193		18.881472	-62.306555	94.994516
16194		18.179545	-62.270544	95.158844
16195		17.447681	-62.228862	95.313949
16196		16.721935	-62.186067	95.450000
16197		15.999230	-62.141849	95.582121
16198		15.254617	-62.102261	95.671080
16199		14.533516	-62.063202	95.722132
16200		13.832491	-62.026922	95.768219
16201		13.118112	-61.999061	95.835336
16202		12.410483	-61.968447	95.909164
16203		11.704459	-61.932087	96.007262
16204		10.978587	-61.890298	96.091106
16205		10.251441	-61.843084	96.175293
16206		9.565379	-61.798532	96.266686
16207		8.915333	-61.750943	96.357551
16208		8.267798	-61.706698	96.425234
16209		7.671564	-61.674428	96.479083
16210		7.147148	-61.645005	96.530861
16211		6.704355	-61.621210	96.616461
16212		6.347987	-61.610776	96.722984
16213		6.059085	-61.611630	96.849374
16214		5.824156	-61.613974	96.966636
16215		5.627460	-61.618783	97.080241
16216		5.466824	-61.630356	97.188098
16217		5.341738	-61.630364	97.272939
16218		5.240582	-61.622810	97.339563
16219		5.180915	-61.610385	97.395935
16220		5.134530	-61.597228	97.445138
16221		5.084258	-61.578872	97.498705
16222		5.022225	-61.559979	97.536089
16223		4.921928	-61.551117	97.572859
16224		4.800305	-61.550086	97.584635
16225		4.645800	-61.544940	97.586520
16226		4.464828	-61.535886	97.573717
16227		4.256140	-61.512615	97.560346
16228		4.035573	-61.472417	97.522524
16229		3.810807	-61.437971	97.475677
16230		3.597054	-61.412709	97.440914
16231		3.377115	-61.382761	97.448250
16232		3.156039	-61.357650	97.470097
16233		2.933002	-61.347171	97.517598
16234		2.718997	-61.346703	97.573062
16235		2.501260	-61.360863	97.650541
16236		2.305167	-61.384998	97.739544
16237		2.162432	-61.417400	97.837153
16238		2.077453	-61.449969	97.928525
16239		2.041321	-61.488657	98.032473
16240		2.040170	-61.527788	98.132031
16241		2.019431	-61.550450	98.239652
16242		1.980140	-61.575337	98.325182
16243		1.889632	-61.588455	98.406954
16244		1.792885	-61.608354	98.463871
16245		1.716518	-61.631041	98.506257
16246		1.650418	-61.658699	98.520407
16247		1.608220	-61.692641	98.518561
16248		1.597762	-61.726004	98.499354
16249		1.612114	-61.759899	98.475822
16250		1.662853	-61.793717	98.441001
16251		1.729979	-61.818204	98.404355
16252		1.806073	-61.842228	98.352117
16253		1.879138	-61.857506	98.300847
16254		1.948643	-61.871058	98.236117
16255		2.030440	-61.882568	98.161871
16256		2.140381	-61.889139	98.060391
16257		2.271337	-61.890570	97.937704
16258		2.424447	-61.905248	97.782663
16259		2.580592	-61.918586	97.612055
16260		2.761316	-61.932689	97.411361
16261		2.981060	-61.948805	97.185852
16262		3.248941	-61.966024	96.933416
16263		3.573898	-61.981755	96.663747
16264		3.951983	-61.994132	96.359468
16265		4.355077	-61.997156	96.028692
16266		4.789900	-62.000310	95.663212
16267		5.253661	-62.003594	95.282263
16268		5.757642	-62.001900	94.880294
16269		6.315581	-62.002129	94.456016
16270		6.937332	-62.005980	93.997187
16271		7.608094	-62.009765	93.516443
16272		8.315094	-62.005979	93.013541
16273		9.041310	-61.991239	92.498616
16274		9.808143	-61.974429	91.951510
16275		10.601122	-61.952836	91.393768
16276		11.420990	-61.923416	90.809262
16277		12.284569	-61.891875	90.196268
16278		13.177231	-61.859436	89.550206
16279		14.068369	-61.823063	88.876604
16280		14.952288	-61.782235	88.160683
16281		15.828970	-61.737638	87.434875
16282		16.716453	-61.686705	86.685109
16283		17.614734	-61.623487	85.936533
16284		18.548562	-61.555660	85.165639
16285		19.485979	-61.481001	84.389740
16286		20.420961	-61.395028	83.600463
16287		21.346208	-61.298980	82.809516
16288		22.261580	-61.194269	82.012780
16289		23.194666	-61.078681	81.205647
16290		24.133643	-60.966663	80.369782
16291		25.077824	-60.845543	79.512821
16292		26.030034	-60.713871	78.635529
16293		26.987208	-60.564364	77.761600
16294		27.969607	-60.396524	76.877089
16295		28.966132	-60.214066	76.003251
16296		29.963115	-60.016061	75.152998
16297		30.952353	-59.803241	74.333764
16298		31.931761	-59.580732	73.532058
16299		32.907016	-59.347779	72.753568
16300		33.885057	-59.109094	71.980340
16301		34.868598	-58.861249	71.235821
16302		35.853504	-58.595528	70.508605
16303		36.826562	-58.321112	69.798007
16304		37.773418	-58.034229	69.097580
16305		38.669793	-57.721914	68.421110
16306		39.528539	-57.394959	67.744908
16307		40.367529	-57.047799	67.081309
16308		41.221845	-56.685369	66.406134
16309		42.091322	-56.307694	65.732266
16310		42.976566	-55.916525	65.043243
16311		43.868217	-55.515784	64.355127
16312		44.789012	-55.105464	63.658848
16313		45.722388	-54.692988	62.960731
16314		46.688946	-54.271548	62.240289
16315		47.693227	-53.840265	61.531408
16316		48.733778	-53.396799	60.823740
16317		49.791265	-52.942726	60.132837
16318		50.837861	-52.483214	59.446425
16319		51.865241	-52.015732	58.774911
16320		52.847910	-51.540554	58.112534
16321		53.783983	-51.053110	57.464279
16322		54.709559	-50.545313	56.799851
16323		55.622291	-50.024437	56.124243
16324		56.495115	-49.488301	55.442818
16325		57.319388	-48.932151	54.776280
16326		58.102510	-48.368966	54.103520
16327		58.835309	-47.798836	53.440592
16328		59.526237	-47.216797	52.792286
16329		60.187561	-46.623294	52.166523
16330		60.843330	-46.028930	51.562201
16331		61.540784	-45.428033	50.977689
16332		62.303926	-44.823579	50.379937
16333		63.115281	-44.220579	49.778727
16334		63.914103	-43.609947	49.194077
16335		64.692044	-42.999400	48.633338
16336		65.463977	-42.391376	48.079068
16337		66.249971	-41.785545	47.552846
16338		67.042564	-41.184333	47.038726
16339		67.830804	-40.583412	46.536433
16340		68.608933	-39.978416	46.039315
16341		69.362894	-39.372075	45.541103
16342		70.077193	-38.760856	45.063313
16343		70.744690	-38.154447	44.615291
16344		71.373343	-37.550643	44.181666
16345		71.967962	-36.948385	43.776924
16346		72.517440	-36.347807	43.393487
16347		73.000999	-35.751938	43.041675
16348		73.408888	-35.153432	42.699928
16349		73.756193	-34.551797	42.379590
16350		74.064832	-33.952134	42.059084
16351		74.341993	-33.361493	41.744941
16352		74.580171	-32.779585	41.435130
16353		74.796149	-32.207524	41.145665
16354		74.998190	-31.650158	40.863602
16355		75.193988	-31.110973	40.596050
16356		75.398478	-30.581930	40.329531
16357		75.623722	-30.066152	40.076555
16358		75.851361	-29.561913	39.817124
16359		76.057856	-29.061256	39.579250
16360		76.265972	-28.571545	39.339805
16361		76.472844	-28.091780	39.112215
16362		76.689010	-27.616852	38.885636
16363		76.881750	-27.143085	38.671818
16364		77.059858	-26.669562	38.448738
16365		77.217432	-26.194206	38.236108
16366		77.347796	-25.714243	38.026087
16367		77.450560	-25.230329	37.824034
16368		77.529752	-24.745593	37.621056
16369		77.601054	-24.260251	37.426924
16370		77.665328	-23.780594	37.229233
16371		77.729506	-23.303520	37.025052
16372		77.787932	-22.828151	36.816367
16373		77.859233	-22.355861	36.607002
16374		77.947693	-21.885532	36.393078
16375		78.049579	-21.422501	36.187202
16376		78.156681	-20.969452	35.994287
16377		78.273197	-20.529037	35.809462
16378		78.402895	-20.109062	35.634567
16379		78.527385	-19.703609	35.475105
16380		78.666346	-19.313258	35.323347
16381		78.805829	-18.938155	35.176320
16382		78.949963	-18.577465	35.033236
16383		79.093090	-18.234118	34.890125
16384		79.224115	-17.901158	34.751278
16385		79.341287	-17.576250	34.623776
16386		79.466215	-17.258314	34.510057
16387		79.591099	-16.943637	34.421690
16388		79.732743	-16.635499	34.344404
16389		79.884301	-16.333908	34.276902
16390		80.044788	-16.033884	34.209061
16391		80.202285	-15.732908	34.135715
16392		80.334086	-15.441046	34.060437
16393		80.431871	-15.151108	33.984338
16394		80.520248	-14.868374	33.906237
16395		80.593587	-14.602391	33.828905
16396		80.667470	-14.346863	33.758944
16397		80.742755	-14.101089	33.695113
16398		80.822579	-13.866208	33.629872
16399		80.887857	-13.639276	33.570662
16400		80.943115	-13.415731	33.505990
16401		80.990493	-13.199352	33.437773
16402		81.031038	-12.990167	33.372109
16403		81.062588	-12.785773	33.308434
16404		81.097911	-12.583705	33.248483
16405		81.139549	-12.385069	33.190006
16406		81.182343	-12.182660	33.133778
16407		81.233430	-11.975504	33.081950
16408		81.294287	-11.769586	33.028968
16409		81.357110	-11.567505	32.969539
16410		81.432500	-11.364289	32.907859
16411		81.499593	-11.177176	32.831521
16412		81.557407	-10.988550	32.762144
16413		81.622507	-10.800112	32.694795
16414		81.700577	-10.615044	32.624744
16415		81.776074	-10.438178	32.550954
16416		81.844795	-10.261801	32.480342
16417		81.913021	-10.098712	32.409358
16418		81.995210	-9.954417	32.325729
16419		82.085559	-9.845814	32.227235
16420		82.146614	-9.769052	32.144173
16421		82.194992	-9.732021	32.073075
16422		82.235239	-9.724248	32.022653
16423		82.258685	-9.725734	31.989676
16424		82.236561	-9.712827	31.979410
16425		82.146775	-9.669641	31.984891
16426		82.024547	-9.620561	31.996222
16427		81.892942	-9.576929	32.003869
16428		81.761126	-9.530468	32.009836
16429		81.665209	-9.481086	32.004847
16430		81.631623	-9.435292	31.982019
16431		81.664512	-9.395196	31.945263
16432		81.790597	-9.359787	31.912555
16433		82.071005	-9.326603	31.886289
16434		82.462502	-9.310029	31.833938
16435		82.882092	-9.300567	31.770043
16436		83.221886	-9.296372	31.715463
16437		83.453543	-9.294667	31.689278
16438		83.620601	-9.303803	31.662668
16439		83.789807	-9.320225	31.607481
16440		83.991345	-9.341269	31.546166
16441		84.170538	-9.367779	31.489857
16442		84.314867	-9.404487	31.441573
16443		84.400405	-9.445348	31.413245
16444		84.426161	-9.484095	31.399550
16445		84.392614	-9.513772	31.393991
16446		84.299427	-9.534036	31.395734
16447		84.165356	-9.543493	31.406720
16448		84.024717	-9.544732	31.420541
16449		83.917546	-9.544374	31.444114
16450		83.873216	-9.552256	31.460956
16451		83.870497	-9.566495	31.469152
16452		83.901838	-9.584632	31.471543
16453		83.962772	-9.606022	31.464473
16454		84.054626	-9.633480	31.446473
16455		84.172054	-9.661700	31.418661
16456		84.308196	-9.686642	31.388108
16457		84.431973	-9.706557	31.357568
16458		84.518331	-9.722730	31.330409
16459		84.562017	-9.735163	31.308508
16460		84.557335	-9.744494	31.295599
16461		84.507696	-9.751217	31.291502
16462		84.434195	-9.755754	31.293142
16463		84.338186	-9.759757	31.298299
16464		84.238388	-9.762554	31.304949
16465		84.154506	-9.771329	31.308938
16466		84.108133	-9.777743	31.307882
16467		84.081957	-9.787905	31.302594
16468		84.082073	-9.799305	31.294775
16469		84.103263	-9.813564	31.284254
16470		84.140303	-9.828378	31.272362
16471		84.176797	-9.838433	31.261310
16472		84.213736	-9.847767	31.255754
16473		84.240056	-9.854024	31.249033
16474		84.256177	-9.860865	31.245302
16475		84.250033	-9.865178	31.248684
16476		84.224908	-9.866138	31.254244
16477		84.198844	-9.865915	31.260532
16478		84.173068	-9.865806	31.268193
16479		84.139388	-9.864250	31.272557
16480		84.112042	-9.865401	31.274057
16481		84.089484	-9.867407	31.273084
16482		84.078612	-9.871832	31.269203
16483		84.079364	-9.875169	31.264372
16484		84.080713	-9.879184	31.259875
16485		84.078184	-9.880443	31.256680
16486		84.078076	-9.883118	31.252244
16487		84.070374	-9.885710	31.251106
16488		84.064904	-9.888700	31.246715
16489		84.058980	-9.893180	31.244475
16490		84.056833	-9.899778	31.243526
16491		84.056296	-9.908764	31.237504
16492		84.063165	-9.916523	31.233359
16493		84.074779	-9.921437	31.230936
16494		84.088517	-9.926105	31.227854
16495		84.102774	-9.929036	31.227521
16496		84.119099	-9.932889	31.227010
16497		84.126830	-9.933484	31.227841
16498		84.136338	-9.936302	31.227430
16499		84.147274	-9.935323	31.230849
16500		84.151727	-9.931201	31.234816
16501		84.157129	-9.926515	31.237897
16502		84.160974	-9.920168	31.243489
16503		84.164796	-9.911636	31.251330
16504		84.168650	-9.902312	31.258569
16505		84.160646	-9.890284	31.274315
16506		84.156751	-9.879828	31.289866
16507		84.161787	-9.875452	31.301677
16508		84.168203	-9.870985	31.315427
16509		84.176054	-9.868642	31.329723
16510		84.189590	-9.868756	31.340717
16511		84.208292	-9.868301	31.350269
16512		84.233066	-9.866700	31.356647
16513		84.255136	-9.861191	31.367392
16514		84.274422	-9.857405	31.378518
16515		84.294938	-9.845057	31.395692
16516		84.312559	-9.828966	31.419609
16517		84.324677	-9.809579	31.450972
16518		84.336262	-9.790590	31.486368
16519		84.346709	-9.772651	31.521837
16520		84.359995	-9.760012	31.547790
16521		84.381214	-9.748428	31.570177
16522		84.422016	-9.746540	31.591589
16523		84.483815	-9.747399	31.608839
16524		84.551090	-9.756100	31.622152
16525		84.622643	-9.767346	31.633405
16526		84.704743	-9.779903	31.637880
16527		84.807056	-9.793015	31.638322
16528		84.925675	-9.806446	31.630528
16529		85.037047	-9.820836	31.620758
16530		85.138800	-9.837481	31.616534
16531		85.207419	-9.853500	31.610797
16532		85.236657	-9.873986	31.601584
16533		85.211928	-9.893007	31.597482
16534		85.156191	-9.911759	31.592729
16535		85.069558	-9.925602	31.591845
16536		84.978565	-9.936233	31.595723
16537		84.885764	-9.945225	31.596718
16538		84.813613	-9.958338	31.596533
16539		84.752120	-9.967753	31.589383
16540		84.716561	-9.977677	31.578053
16541		84.698720	-9.984839	31.561214
16542		84.693727	-9.993836	31.539097
16543		84.676297	-10.005191	31.516959
16544		84.638272	-10.021437	31.496685
16545		84.585914	-10.043463	31.476812
16546		84.527674	-10.079243	31.456458
16547		84.459233	-10.124983	31.434872
16548		84.391223	-10.183946	31.411863
16549		84.308286	-10.252397	31.387760
16550		84.219102	-10.329215	31.368204
16551		84.130147	-10.414787	31.348631
16552		84.040915	-10.506143	31.328576
16553		83.965325	-10.605500	31.320266
16554		83.902246	-10.710640	31.311325
16555		83.859168	-10.817621	31.309007
16556		83.849797	-10.927530	31.306244
16557		83.870049	-11.040865	31.307202
16558		83.901668	-11.157359	31.308416
16559		83.929430	-11.274198	31.312342
16560		83.950795	-11.391239	31.321510
16561		83.964386	-11.505785	31.329952
16562		83.967885	-11.620223	31.335502
16563		83.961064	-11.733321	31.342456
16564		83.956067	-11.845742	31.351483
16565		83.956595	-11.957549	31.365198
16566		83.970195	-12.072638	31.380129
16567		83.985252	-12.187718	31.397739
16568		83.996484	-12.306686	31.414866
16569		83.987713	-12.421868	31.440452
16570		83.965347	-12.543456	31.467396
16571		83.932874	-12.665295	31.495365
16572		83.900475	-12.788576	31.527054
16573		83.864081	-12.912049	31.561714
16574		83.821829	-13.032743	31.600863
16575		83.770447	-13.145530	31.646871
16576		83.711629	-13.249916	31.692307
16577		83.642293	-13.344693	31.740003
16578		83.574049	-13.430094	31.785264
16579		83.500227	-13.512781	31.820623
16580		83.429810	-13.590380	31.849251
16581		83.378361	-13.665317	31.875286
16582		83.346361	-13.742955	31.896459
16583		83.327832	-13.823453	31.914643
16584		83.320062	-13.907782	31.928248
16585		83.310858	-13.998497	31.944657
16586		83.305047	-14.093650	31.958867
16587		83.304204	-14.198985	31.979810
16588		83.313327	-14.317312	31.998833
16589		83.324260	-14.447338	32.022176
16590		83.332905	-14.593690	32.049417
16591		83.334088	-14.757578	32.088348
16592		83.330874	-14.942173	32.132520
16593		83.313864	-15.143319	32.191045
16594		83.275002	-15.370007	32.256099
16595		83.211559	-15.620032	32.330970
16596		83.135839	-15.897034	32.409917
16597		83.053537	-16.205113	32.496428
16598		82.969090	-16.545019	32.589822
16599		82.887427	-16.907659	32.690673
16600		82.806137	-17.285725	32.800950
16601		82.728575	-17.683856	32.924812
16602		82.651538	-18.101618	33.058181
16603		82.545291	-18.536880	33.206821
16604		82.420393	-18.985434	33.370395
16605		82.295353	-19.449584	33.548772
16606		82.171538	-19.928732	33.740071
16607		82.036224	-20.424321	33.943847
16608		81.887097	-20.925599	34.168169
16609		81.730876	-21.427750	34.406961
16610		81.569592	-21.936577	34.654272
16611		81.402967	-22.444565	34.904878
16612		81.226175	-22.953762	35.161869
16613		81.042953	-23.467364	35.425885
16614		80.848428	-23.986398	35.697958
16615		80.648163	-24.506463	35.979345
16616		80.447288	-25.029438	36.264124
16617		80.226615	-25.550767	36.562720
16618		79.996185	-26.062042	36.859876
16619		79.793614	-26.566269	37.152852
16620		79.605943	-27.075452	37.443415
16621		79.421555	-27.582093	37.735851
16622		79.236835	-28.087808	38.024742
16623		79.032536	-28.588820	38.312800
16624		78.800392	-29.083208	38.591468
16625		78.542063	-29.568987	38.880975
16626		78.261755	-30.046870	39.162164
16627		77.942888	-30.525401	39.461975
16628		77.597312	-31.000961	39.755717
16629		77.250421	-31.476562	40.061192
16630		76.918774	-31.951736	40.364545
16631		76.618261	-32.425576	40.674625
16632		76.356947	-32.898055	40.974272
16633		76.133465	-33.363993	41.284334
16634		75.938334	-33.834945	41.582885
16635		75.760357	-34.313354	41.887648
16636		75.572602	-34.802649	42.189473
16637		75.374753	-35.300696	42.506816
16638		75.166954	-35.806008	42.815932
16639		74.955093	-36.313995	43.136871
16640		74.727963	-36.824882	43.461083
16641		74.475810	-37.338815	43.810913
16642		74.193741	-37.855787	44.170751
16643		73.897390	-38.377384	44.553208
16644		73.581188	-38.903491	44.956091
16645		73.246766	-39.435088	45.390943
16646		72.917190	-39.975625	45.835329
16647		72.584124	-40.526136	46.306471
16648		72.246194	-41.082338	46.793998
16649		71.896000	-41.645192	47.310302
16650		71.530713	-42.215087	47.840600
16651		71.146918	-42.775709	48.395601
16652		70.753098	-43.324947	48.953426
16653		70.327304	-43.861864	49.536255
16654		69.860860	-44.381237	50.134236
16655		69.355369	-44.882472	50.747926
16656		68.814072	-45.364755	51.372104
16657		68.258822	-45.829836	52.014297
16658		67.712258	-46.282195	52.654027
16659		67.163955	-46.727465	53.310446
16660		66.625996	-47.170340	53.961745
16661		66.114764	-47.610089	54.628714
16662		65.624916	-48.042964	55.291637
16663		65.165776	-48.468406	55.967249
16664		64.742050	-48.889291	56.632703
16665		64.301722	-49.316379	57.317936
16666		63.850458	-49.741329	58.007506
16667		63.381770	-50.162783	58.713835
16668		62.880634	-50.581796	59.421599
16669		62.347428	-50.998512	60.144224
16670		61.781150	-51.406278	60.867108
16671		61.176834	-51.805666	61.597691
16672		60.569666	-52.199865	62.315275
16673		59.949766	-52.596457	63.043010
16674		59.323555	-52.990121	63.764643
16675		58.722309	-53.380404	64.504214
16676		58.103970	-53.769514	65.257807
16677		57.495823	-54.156620	66.031602
16678		56.876192	-54.542672	66.817164
16679		56.231646	-54.915690	67.611161
16680		55.584653	-55.274613	68.398967
16681		54.940206	-55.622975	69.184477
16682		54.294998	-55.957171	69.955584
16683		53.648909	-56.270409	70.737710
16684		53.001260	-56.572488	71.513643
16685		52.347955	-56.863604	72.285114
16686		51.715475	-57.139470	73.032039
16687		51.082868	-57.398982	73.773276
16688		50.418080	-57.649858	74.475625
16689		49.764052	-57.880937	75.158059
16690		49.133744	-58.096735	75.807267
16691		48.492668	-58.287049	76.453681
16692		47.867385	-58.454402	77.079947
16693		47.266804	-58.609713	77.682681
16694		46.692832	-58.743527	78.260061
16695		46.169690	-58.856415	78.812790
16696		45.715172	-58.952888	79.316944
16697		45.311159	-59.037319	79.782988
16698		44.948585	-59.105972	80.205773
16699		44.633091	-59.157430	80.581001
16700		44.355036	-59.194789	80.906732
16701		44.119844	-59.230727	81.179945
16702		43.931453	-59.264090	81.402979
16703		43.784315	-59.295526	81.603087
16704		43.668908	-59.333825	81.765444
16705		43.572909	-59.377108	81.891115
16706		43.493750	-59.418147	81.997183
16707		43.429192	-59.452977	82.090460
16708		43.360673	-59.490120	82.161857
16709		43.291531	-59.526724	82.214718
16710		43.222884	-59.565435	82.247220
16711		43.156507	-59.604955	82.266512
16712		43.093582	-59.644898	82.278107
16713		43.034962	-59.689735	82.291941
16714		42.961366	-59.735614	82.308976
16715		42.855119	-59.779937	82.349483
16716		42.734777	-59.824954	82.397245
16717		42.599158	-59.869466	82.455857
16718		42.443699	-59.917901	82.508413
16719		42.271743	-59.968899	82.572408
16720		42.079099	-60.021982	82.633436
16721		41.850286	-60.069542	82.712157
16722		41.586076	-60.111405	82.805055
16723		41.287276	-60.157109	82.902467
16724		40.945557	-60.205332	82.995815
16725		40.549562	-60.251149	83.100684
16726		40.102784	-60.299364	83.198583
16727		39.590846	-60.340103	83.298174
16728		39.014336	-60.370714	83.397221
16729		38.385928	-60.411273	83.495254
16730		37.713409	-60.458535	83.605369
16731		37.047530	-60.499366	83.737222
16732		36.397393	-60.546388	83.886107
16733		35.720378	-60.601830	84.051514
16734		35.008396	-60.656010	84.209911
16735		34.284253	-60.709072	84.360742
16736		33.565839	-60.756115	84.486204
16737		32.859463	-60.805362	84.629822
16738		32.210720	-60.856708	84.775170
16739		31.635027	-60.912902	84.957258
16740		31.133064	-60.986445	85.181686
16741		30.689155	-61.070761	85.445109
16742		30.316343	-61.153458	85.710052
16743		29.944485	-61.217860	86.012042
16744		29.516203	-61.276752	86.323207
16745		29.018678	-61.328256	86.632960
16746		28.417344	-61.366244	86.955621
16747		27.702604	-61.393464	87.289894
16748		26.907674	-61.411654	87.607048
16749		26.064927	-61.427394	87.925689
16750		25.199517	-61.455666	88.239892
16751		24.323518	-61.485536	88.574463
16752		23.455305	-61.518239	88.916048
16753		22.584736	-61.543523	89.276840
16754		21.762541	-61.552712	89.622409
16755		20.980381	-61.553469	89.979553
16756		20.198455	-61.555107	90.337633
16757		19.396010	-61.540275	90.681526
16758		18.630503	-61.515626	90.990934
16759		17.915423	-61.500240	91.296299
16760		17.222054	-61.501562	91.584795
16761		16.546878	-61.498872	91.860879
16762		15.850114	-61.496880	92.126091
16763		15.127293	-61.499336	92.372202
16764		14.406263	-61.506029	92.595925
16765		13.677704	-61.510139	92.829835
16766		12.968092	-61.516930	93.056429
16767		12.358086	-61.530752	93.279915
16768		11.868703	-61.541295	93.499515
16769		11.474033	-61.549108	93.714668
16770		11.150574	-61.547982	93.911736
16771		10.878546	-61.557094	94.096741
16772		10.650677	-61.578323	94.256092
16773		10.454593	-61.602535	94.407926
16774		10.264968	-61.624661	94.580051
16775		10.042436	-61.639143	94.775309
16776		9.742664	-61.652126	94.936327
16777		9.413139	-61.634186	95.031657
16778		9.048631	-61.615550	95.084789
16779		8.657639	-61.602566	95.142043
16780		8.243923	-61.587494	95.220633
16781		7.815821	-61.572322	95.333856
16782		7.372132	-61.552904	95.462543
16783		6.906074	-61.529261	95.599370
16784		6.431315	-61.500607	95.731446
16785		5.993132	-61.462249	95.858225
16786		5.643839	-61.422181	95.971911
16787		5.421031	-61.385345	96.074268
16788		5.328179	-61.360481	96.177246
16789		5.339287	-61.341793	96.294235
16790		5.408070	-61.321154	96.408713
16791		5.484101	-61.301898	96.524088
16792		5.547745	-61.293824	96.610594
16793		5.560835	-61.286401	96.679335
16794		5.544350	-61.287489	96.717503
16795		5.518252	-61.298477	96.742894
16796		5.495062	-61.319281	96.748850
16797		5.495080	-61.347870	96.751899
16798		5.522961	-61.380992	96.751877
16799		5.574961	-61.415648	96.768751
16800		5.645205	-61.450394	96.782851
16801		5.715301	-61.467037	96.805905
16802		5.783581	-61.479931	96.823511
16803		5.835082	-61.497242	96.840091
16804		5.854127	-61.523429	96.845575
16805		5.845495	-61.547265	96.843628
16806		5.828909	-61.571859	96.825589
16807		5.823330	-61.606269	96.809285
16808		5.843286	-61.641587	96.786017
16809		5.877436	-61.671692	96.753677
16810		5.919040	-61.704327	96.713454
16811		5.975260	-61.728254	96.662651
16812		6.036474	-61.741507	96.587452
16813		6.103311	-61.759750	96.499693
16814		6.190310	-61.776470	96.392270
16815		6.314435	-61.785565	96.259269
16816		6.466868	-61.790906	96.094900
16817		6.651590	-61.800700	95.891227
16818		6.856815	-61.807045	95.646867
16819		7.099051	-61.807705	95.379552
16820		7.400974	-61.803767	95.077886
16821		7.757952	-61.799162	94.750805
16822		8.184832	-61.795058	94.391898
16823		8.666522	-61.795080	94.001620
16824		9.200932	-61.796302	93.560472
16825		9.781954	-61.793841	93.083634
16826		10.407645	-61.790220	92.566626
16827		11.084678	-61.790496	92.012525
16828		11.824100	-61.794770	91.419897
16829		12.644488	-61.806734	90.799121
16830		13.554702	-61.823909	90.146340
16831		14.547321	-61.837328	89.470592
16832		15.608089	-61.840537	88.763198
16833		16.719187	-61.845777	88.033507
16834		17.867600	-61.851842	87.280249
16835		19.012467	-61.851710	86.505969
16836		20.135571	-61.849138	85.701609
16837		21.227118	-61.841552	84.880664
16838		22.286266	-61.826014	84.041465
16839		23.347474	-61.797324	83.187282
16840		24.433657	-61.769674	82.296800
16841		25.523855	-61.737117	81.404051
16842		26.615919	-61.685740	80.514282
16843		27.714220	-61.614873	79.643607
16844		28.822332	-61.534958	78.784904
16845		29.946442	-61.434561	77.941564
16846		31.090205	-61.315403	77.100932
16847		32.223620	-61.171467	76.271904
16848		33.332961	-61.013798	75.434660
16849		34.407575	-60.842978	74.603668
16850		35.428441	-60.654205	73.776103
16851		36.411438	-60.455726	72.948996
16852		37.359419	-60.255065	72.115451
16853		38.247995	-60.045324	71.287442
16854		39.078632	-59.824263	70.461668
16855		39.891321	-59.598379	69.641324
16856		40.715630	-59.374205	68.801254
16857		41.556366	-59.145721	67.946454
16858		42.364508	-58.913414	67.090613
16859		43.145908	-58.670572	66.237012
16860		43.917394	-58.419648	65.390629
16861		44.692522	-58.163903	64.568955
16862		45.470595	-57.899274	63.780818
16863		46.251112	-57.627694	63.036793
16864		47.054921	-57.353110	62.311030
16865		47.869323	-57.069676	61.612123
16866		48.696339	-56.782214	60.936800
16867		49.538991	-56.492817	60.273356
16868		50.374341	-56.195168	59.612515
16869		51.188760	-55.885138	58.964031
16870		51.968785	-55.569156	58.317450
16871		52.688277	-55.243939	57.691983
16872		53.376945	-54.911693	57.077832
16873		54.040805	-54.572348	56.490194
16874		54.716355	-54.226817	55.894339
16875		55.404581	-53.884840	55.295792
16876		56.091945	-53.540632	54.687200
16877		56.746946	-53.186520	54.094874
16878		57.372456	-52.821559	53.497991
16879		57.960763	-52.448809	52.921330
16880		58.520389	-52.067059	52.351947
16881		59.062293	-51.685859	51.798097
16882		59.602689	-51.296795	51.254218
16883		60.129476	-50.905695	50.733948
16884		60.632899	-50.513423	50.229105
16885		61.108548	-50.116108	49.747112
16886		61.567616	-49.713951	49.278778
16887		62.014009	-49.309721	48.835212
16888		62.447522	-48.902366	48.396586
16889		62.874394	-48.493805	47.972266
16890		63.291014	-48.089635	47.550127
16891		63.689271	-47.686069	47.157425
16892		64.082353	-47.283531	46.775532
16893		64.455237	-46.880386	46.418182
16894		64.806670	-46.474596	46.065968
16895		65.152915	-46.067560	45.722490
16896		65.498544	-45.662135	45.378426
16897		65.854828	-45.259426	45.039304
16898		66.229171	-44.857387	44.686559
16899		66.604542	-44.457371	44.331625
16900		66.966043	-44.060315	43.976540
16901		67.301591	-43.666066	43.637215
16902		67.636035	-43.275107	43.299557
16903		67.961027	-42.883456	42.985621
16904		68.298989	-42.493687	42.684970
16905		68.668962	-42.115292	42.392527
16906		69.070943	-41.747566	42.100498
16907		69.487267	-41.381713	41.825317
16908		69.914349	-41.016545	41.555201
16909		70.351539	-40.655079	41.289607
16910		70.773194	-40.295880	41.026001
16911		71.146275	-39.936968	40.779969
16912		71.481884	-39.574420	40.530842
16913		71.780592	-39.210289	40.299748
16914		72.069463	-38.836053	40.070399
16915		72.341700	-38.464449	39.849240
16916		72.601785	-38.093748	39.616449
16917		72.830545	-37.722569	39.393142
16918		73.024619	-37.355209	39.170062
16919		73.189738	-36.989090	38.962406
16920		73.331189	-36.621129	38.762758
16921		73.460465	-36.253512	38.575499
16922		73.574664	-35.886815	38.388712
16923		73.702923	-35.523401	38.209500
16924		73.859566	-35.162317	38.026922
16925		74.028653	-34.805822	37.851042
16926		74.197374	-34.450421	37.672759
16927		74.348747	-34.097017	37.505928
16928		74.496289	-33.748322	37.334248
16929		74.649021	-33.401957	37.178622
16930		74.795371	-33.065820	37.020852
16931		74.946784	-32.732344	36.870767
16932		75.097939	-32.411132	36.712184
16933		75.244404	-32.097885	36.566896
16934		75.390648	-31.793674	36.417602
16935		75.525884	-31.498144	36.280744
16936		75.656787	-31.203964	36.149902
16937		75.780449	-30.916668	36.028405
16938		75.897281	-30.630255	35.904569
16939		75.996943	-30.341756	35.798778
16940		76.090465	-30.053078	35.692884
16941		76.184622	-29.768753	35.599305
16942		76.272798	-29.481278	35.508973
16943		76.361873	-29.191542	35.429966
16944		76.459750	-28.902875	35.343171
16945		76.551566	-28.609652	35.278020
16946		76.633223	-28.313593	35.211938
16947		76.703544	-28.018894	35.164502
16948		76.765429	-27.724095	35.122302
16949		76.818650	-27.434432	35.080726
16950		76.870444	-27.151565	35.025952
16951		76.928320	-26.875363	34.967914
16952		77.002781	-26.611784	34.907389
16953		77.079225	-26.354544	34.843903
16954		77.169514	-26.102767	34.781782
16955		77.282981	-25.854451	34.718806
16956		77.421001	-25.608452	34.656306
16957		77.577631	-25.366088	34.589718
16958		77.738174	-25.125268	34.522734
16959		77.892133	-24.881140	34.454335
16960		78.036792	-24.641052	34.382907
16961		78.179953	-24.396487	34.315079
16962		78.310992	-24.150972	34.240621
16963		78.441888	-23.900921	34.159725
16964		78.567632	-23.650486	34.077767
16965		78.680413	-23.394425	33.996473
16966		78.787935	-23.132762	33.911874
16967		78.888997	-22.866284	33.828207
16968		78.985539	-22.596044	33.742962
16969		79.073301	-22.321762	33.656265
16970		79.151733	-22.042617	33.571686
16971		79.222743	-21.758046	33.485302
16972		79.304759	-21.472391	33.398490
16973		79.390828	-21.184867	33.314912
16974		79.476658	-20.897516	33.231277
16975		79.571607	-20.610815	33.148441
16976		79.679817	-20.328963	33.067299
16977		79.789795	-20.048937	32.985712
16978		79.894922	-19.767092	32.905555
16979		79.981626	-19.476785	32.826089
16980		80.050908	-19.177305	32.743270
16981		80.094517	-18.870622	32.659463
16982		80.125621	-18.557497	32.568142
16983		80.165759	-18.241431	32.473711
16984		80.228023	-17.918063	32.368809
16985		80.325812	-17.580759	32.262651
16986		80.450389	-17.230322	32.144784
16987		80.583890	-16.866938	32.011330
16988		80.720647	-16.490295	31.861005
16989		80.836711	-16.096976	31.706673
16990		80.953272	-15.690597	31.542877
16991		81.087690	-15.278463	31.372629
16992		81.242575	-14.859738	31.197513
16993		81.416591	-14.435126	31.016099
16994		81.598638	-14.009508	30.836189
16995		81.762706	-13.592451	30.668007
16996		81.921592	-13.190333	30.512159
16997		82.073617	-12.813327	30.371976
16998		82.241373	-12.488738	30.209463
16999		82.358094	-12.195554	30.059717
17000		82.438822	-11.925431	29.926504
17001		82.462837	-11.674590	29.819473
17002		82.406835	-11.457408	29.711880
17003		82.289990	-11.275503	29.610726
17004		82.143713	-11.142860	29.513060
17005		81.996058	-11.063965	29.440729
17006		81.850080	-11.021935	29.407411
17007		81.757086	-10.990572	29.412190
17008		81.793002	-10.954854	29.456185
17009		81.948992	-10.940562	29.488572
17010		82.159090	-10.937547	29.512548
17011		82.364229	-10.927851	29.543520
17012		82.523265	-10.907513	29.568033
17013		82.621394	-10.864515	29.578408
17014		82.652353	-10.813247	29.570367
17015		82.634168	-10.761888	29.552802
17016		82.612033	-10.712882	29.519934
17017		82.588006	-10.672993	29.478086
17018		82.570123	-10.648839	29.436006
17019		82.571125	-10.637220	29.400522
17020		82.580709	-10.635681	29.377452
17021		82.582671	-10.636843	29.349731
17022		82.567143	-10.636349	29.315008
17023		82.527398	-10.633239	29.289121
17024		82.490242	-10.628117	29.260588
17025		82.508629	-10.624401	29.222417
17026		82.610443	-10.624743	29.170840
17027		82.790384	-10.625767	29.112671
17028		83.012642	-10.629590	29.042092
17029		83.227553	-10.631183	28.969959
17030		83.426973	-10.632530	28.891536
17031		83.596850	-10.629947	28.815316
17032		83.729823	-10.628276	28.747168
17033		83.836068	-10.622675	28.682635
17034		83.931884	-10.624059	28.622087
17035		84.014412	-10.623307	28.573985
17036		84.089112	-10.623654	28.539470
17037		84.150767	-10.624870	28.517181
17038		84.189467	-10.627010	28.505032
17039		84.210981	-10.628070	28.509209
17040		84.249365	-10.634178	28.524158
17041		84.304181	-10.646255	28.544449
17042		84.377644	-10.664421	28.557486
17043		84.468915	-10.676745	28.567336
17044		84.570491	-10.686653	28.573379
17045		84.668010	-10.695828	28.573884
17046		84.760755	-10.700344	28.570864
17047		84.831448	-10.700617	28.569258
17048		84.873135	-10.694938	28.563519
17049		84.874523	-10.685630	28.557051
17050		84.872979	-10.680089	28.547025
17051		84.874790	-10.678556	28.536464
17052		84.886789	-10.683468	28.524092
17053		84.910858	-10.692139	28.513505
17054		84.939545	-10.704701	28.501119
17055		84.963005	-10.718333	28.489164
17056		84.974627	-10.731123	28.475243
17057		84.977313	-10.745118	28.456476
17058		84.987709	-10.764158	28.430759
17059		85.007919	-10.786167	28.399064
17060		85.023010	-10.810022	28.355618
17061		85.041097	-10.830838	28.311555
17062		85.066740	-10.854047	28.266902
17063		85.098749	-10.878507	28.222482
17064		85.133281	-10.903232	28.177984
17065		85.158527	-10.921948	28.145092
17066		85.176594	-10.935310	28.115830
17067		85.181479	-10.944417	28.097946
17068		85.175082	-10.947331	28.089821
17069		85.155651	-10.947822	28.090892
17070		85.141518	-10.948345	28.093544
17071		85.131808	-10.948616	28.102125
17072		85.122212	-10.949181	28.113677
17073		85.117027	-10.947236	28.128723
17074		85.118171	-10.943920	28.143938
17075		85.110265	-10.941378	28.163076
17076		85.105170	-10.935525	28.182417
17077		85.111349	-10.928912	28.201201
17078		85.127051	-10.921173	28.220768
17079		85.160178	-10.914145	28.233681
17080		85.211353	-10.905859	28.248188
17081		85.270321	-10.899049	28.260893
17082		85.330372	-10.890853	28.269040
17083		85.389772	-10.881113	28.277907
17084		85.434820	-10.871824	28.288313
17085		85.469557	-10.863749	28.300464
17086		85.492840	-10.858863	28.314029
17087		85.513656	-10.854745	28.328057
17088		85.537409	-10.855671	28.341261
17089		85.558304	-10.858780	28.352221
17090		85.567201	-10.860472	28.365391
17091		85.572014	-10.857473	28.378819
17092		85.573522	-10.858952	28.391753
17093		85.558622	-10.860935	28.408294
17094		85.537481	-10.857748	28.433712
17095		85.523070	-10.850934	28.457620
17096		85.507258	-10.847374	28.483267
17097		85.482072	-10.843930	28.513825
17098		85.452520	-10.844448	28.549090
17099		85.429682	-10.851696	28.576425
17100		85.442359	-10.865303	28.602969
17101		85.477496	-10.883157	28.629032
17102		85.512603	-10.905347	28.650617
17103		85.548510	-10.931226	28.665283
17104		85.584991	-10.958417	28.673094
17105		85.616655	-10.983719	28.675715
17106		85.638729	-11.010993	28.681962
17107		85.641745	-11.043070	28.690355
17108		85.636396	-11.080081	28.707419
17109		85.627828	-11.131852	28.731736
17110		85.615867	-11.207479	28.758980
17111		85.602977	-11.308829	28.796553
17112		85.591673	-11.436341	28.842917
17113		85.573526	-11.592176	28.891126
17114		85.540862	-11.772832	28.945344
17115		85.498136	-11.981556	29.009001
17116		85.459050	-12.211183	29.084511
17117		85.431724	-12.460129	29.169358
17118		85.417989	-12.724457	29.259483
17119		85.412138	-12.999891	29.354734
17120		85.404088	-13.286938	29.453148
17121		85.377191	-13.588413	29.554194
17122		85.336568	-13.901801	29.664375
17123		85.293130	-14.225196	29.782814
17124		85.247648	-14.563439	29.902354
17125		85.192956	-14.916960	30.026058
17126		85.126019	-15.281729	30.156153
17127		85.049178	-15.650826	30.288628
17128		84.963461	-16.025791	30.422766
17129		84.864650	-16.402518	30.556537
17130		84.755372	-16.785904	30.685403
17131		84.644003	-17.172273	30.811890
17132		84.540094	-17.564445	30.936005
17133		84.423869	-17.956213	31.061313
17134		84.310173	-18.350308	31.186073
17135		84.188651	-18.750640	31.313737
17136		84.077255	-19.160547	31.439674
17137		83.988405	-19.579355	31.561518
17138		83.911612	-20.002343	31.686167
17139		83.848315	-20.430236	31.813864
17140		83.802113	-20.861289	31.948236
17141		83.743805	-21.296449	32.094114
17142		83.649393	-21.738231	32.249206
17143		83.515807	-22.182345	32.410797
17144		83.354816	-22.630008	32.576019
17145		83.191301	-23.076521	32.754043
17146		83.030832	-23.529725	32.936747
17147		82.862693	-23.994686	33.115580
17148		82.696707	-24.464543	33.296049
17149		82.537720	-24.937765	33.482614
17150		82.399003	-25.412845	33.671486
17151		82.274990	-25.885985	33.873899
17152		82.150037	-26.357078	34.081968
17153		82.011683	-26.828863	34.295917
17154		81.862395	-27.290783	34.515573
17155		81.697520	-27.741150	34.736426
17156		81.543712	-28.176308	34.951446
17157		81.397023	-28.601120	35.164888
17158		81.264317	-29.020857	35.375986
17159		81.130160	-29.438659	35.606355
17160		80.998570	-29.850279	35.833886
17161		80.855509	-30.253233	36.082664
17162		80.690548	-30.650052	36.328145
17163		80.489216	-31.035408	36.590128
17164		80.253234	-31.404282	36.841653
17165		80.010702	-31.758898	37.102650
17166		79.767133	-32.107800	37.364408
17167		79.532010	-32.450085	37.658403
17168		79.308500	-32.791890	37.956755
17169		79.083481	-33.138754	38.277784
17170		78.864183	-33.490920	38.600503
17171		78.631953	-33.858475	38.939626
17172		78.399978	-34.239296	39.272247
17173		78.150972	-34.631009	39.609906
17174		77.897798	-35.032380	39.931751
17175		77.663619	-35.438134	40.257711
17176		77.437770	-35.853137	40.576011
17177		77.208534	-36.273240	40.896859
17178		76.970383	-36.698733	41.200069
17179		76.722519	-37.123157	41.504607
17180		76.467225	-37.548648	41.793755
17181		76.191316	-37.972158	42.090037
17182		75.879581	-38.388305	42.371758
17183		75.569019	-38.800138	42.645916
17184		75.273581	-39.213891	42.910654
17185		74.972514	-39.638261	43.182895
17186		74.655644	-40.075850	43.451620
17187		74.350065	-40.524179	43.736428
17188		74.058817	-40.986063	44.036932
17189		73.775643	-41.466639	44.365076
17190		73.504374	-41.965196	44.704280
17191		73.228907	-42.478328	45.069938
17192		72.934638	-43.005820	45.456154
17193		72.631151	-43.539466	45.872022
17194		72.306518	-44.086395	46.306923
17195		71.960197	-44.635432	46.772692
17196		71.583717	-45.182923	47.249370
17197		71.181299	-45.727942	47.725403
17198		70.766649	-46.268799	48.201597
17199		70.345941	-46.817915	48.704772
17200		69.910165	-47.374401	49.220264
17201		69.442722	-47.931947	49.765521
17202		68.930337	-48.488444	50.329264
17203		68.367613	-49.043416	50.924321
17204		67.776201	-49.589693	51.531436
17205		67.159067	-50.130840	52.159580
17206		66.540604	-50.667625	52.792461
17207		65.900414	-51.196379	53.451939
17208		65.242078	-51.703501	54.127347
17209		64.587932	-52.183039	54.817873
17210		63.942217	-52.649262	55.513800
17211		63.281880	-53.101297	56.212045
17212		62.622554	-53.538243	56.906651
17213		61.945434	-53.967564	57.616863
17214		61.249919	-54.386694	58.331611
17215		60.536562	-54.789615	59.062594
17216		59.826584	-55.178165	59.785277
17217		59.092336	-55.556546	60.530309
17218		58.344148	-55.924273	61.273700
17219		57.603884	-56.276691	62.025315
17220		56.872517	-56.619513	62.775761
17221		56.150311	-56.951419	63.528842
17222		55.453084	-57.278207	64.265584
17223		54.759327	-57.592712	65.013273
17224		54.080556	-57.889576	65.773685
17225		53.439842	-58.180243	66.538034
17226		52.815023	-58.458698	67.304644
17227		52.197555	-58.726207	68.084922
17228		51.577162	-58.976320	68.870534
17229		50.935471	-59.204417	69.670292
17230		50.287048	-59.410626	70.458741
17231		49.638802	-59.597026	71.241876
17232		48.990334	-59.771917	71.992741
17233		48.358290	-59.934768	72.704359
17234		47.743534	-60.083553	73.373582
17235		47.148130	-60.216621	74.008525
17236		46.583330	-60.336538	74.597794
17237		46.074597	-60.441540	75.131239
17238		45.620230	-60.528764	75.607742
17239		45.215335	-60.598064	76.046622
17240		44.869726	-60.659709	76.424915
17241		44.575958	-60.713747	76.746724
17242		44.326482	-60.755414	77.018803
17243		44.126791	-60.788981	77.233085
17244		43.978394	-60.821285	77.384410
17245		43.887285	-60.846723	77.484012
17246		43.841403	-60.871318	77.530676
17247		43.829240	-60.893293	77.543929
17248		43.858394	-60.912924	77.516592
17249		43.909628	-60.926540	77.474975
17250		43.968691	-60.934873	77.420562
17251		44.044873	-60.937857	77.345773
17252		44.121389	-60.937043	77.258631
17253		44.183650	-60.928855	77.176351
17254		44.242407	-60.919480	77.080103
17255		44.289214	-60.906270	76.989310
17256		44.323792	-60.890259	76.905964
17257		44.355856	-60.878824	76.821546
17258		44.384630	-60.865113	76.729738
17259		44.401920	-60.850393	76.653535
17260		44.399855	-60.837682	76.578502
17261		44.363583	-60.825052	76.517973
17262		44.286852	-60.809402	76.465759
17263		44.176458	-60.788543	76.435028
17264		44.030693	-60.770722	76.401387
17265		43.822465	-60.747338	76.384322
17266		43.569614	-60.724790	76.351474
17267		43.272028	-60.704882	76.325218
17268		42.910369	-60.689872	76.302384
17269		42.491180	-60.674765	76.293535
17270		42.040508	-60.660181	76.292285
17271		41.565453	-60.647522	76.294216
17272		41.061619	-60.634757	76.294752
17273		40.558610	-60.615544	76.304930
17274		40.037569	-60.604033	76.335654
17275		39.506795	-60.596924	76.378023
17276		38.959907	-60.588759	76.446605
17277		38.430654	-60.583913	76.539870
17278		37.923614	-60.586004	76.634318
17279		37.460722	-60.585252	76.745718
17280		37.048577	-60.582030	76.866434
17281		36.651747	-60.585922	76.999434
17282		36.305177	-60.593970	77.120863
17283		36.013788	-60.590170	77.241340
17284		35.731630	-60.584192	77.368086
17285		35.452003	-60.590866	77.503101
17286		35.132888	-60.600021	77.648950
17287		34.753291	-60.599359	77.806207
17288		34.338382	-60.604068	77.959245
17289		33.884869	-60.624033	78.131028
17290		33.407117	-60.657730	78.310908
17291		32.906216	-60.694302	78.507576
17292		32.371564	-60.730933	78.712414
17293		31.838056	-60.763092	78.913531
17294		31.314226	-60.798045	79.118646
17295		30.792639	-60.827091	79.343220
17296		30.281086	-60.849245	79.556511
17297		29.789047	-60.873979	79.763033
17298		29.305318	-60.897550	79.961067
17299		28.787523	-60.923005	80.171955
17300		28.244052	-60.948815	80.389456
17301		27.672439	-60.972875	80.620675
17302		27.099510	-60.997458	80.833618
17303		26.549035	-61.029133	81.037287
17304		26.019855	-61.071232	81.237642
17305		25.479894	-61.110547	81.459522
17306		24.941626	-61.135105	81.669469
17307		24.400178	-61.155425	81.896329
17308		23.852203	-61.175760	82.128739
17309		23.297768	-61.193849	82.367990
17310		22.754780	-61.211719	82.600939
17311		22.189045	-61.230895	82.859875
17312		21.570364	-61.245674	83.127294
17313		20.894689	-61.251759	83.400215
17314		20.178313	-61.251301	83.678666
17315		19.438778	-61.239954	83.954698
17316		18.701185	-61.233088	84.220659
17317		18.015618	-61.227060	84.475200
17318		17.405921	-61.222110	84.727717
17319		16.865626	-61.218445	84.994868
17320		16.392971	-61.217176	85.282325
17321		15.973689	-61.217224	85.574490
17322		15.588511	-61.223445	85.866292
17323		15.234062	-61.230100	86.153614
17324		14.901566	-61.228885	86.428254
17325		14.588560	-61.221294	86.690515
17326		14.294612	-61.211477	86.919819
17327		14.028174	-61.205421	87.129721
17328		13.780120	-61.205268	87.326162
17329		13.521874	-61.213251	87.526614
17330		13.276772	-61.231381	87.705258
17331		13.027406	-61.255405	87.874116
17332		12.779256	-61.282847	88.026756
17333		12.542354	-61.307564	88.171861
17334		12.328047	-61.335079	88.302157
17335		12.148741	-61.366545	88.426160
17336		12.004204	-61.398888	88.536052
17337		11.904880	-61.430404	88.648450
17338		11.852750	-61.466977	88.743096
17339		11.821510	-61.493830	88.838704
17340		11.790685	-61.522266	88.928525
17341		11.736235	-61.542209	89.019325
17342		11.671862	-61.555631	89.096519
17343		11.603939	-61.565464	89.161470
17344		11.523324	-61.570514	89.206223
17345		11.457628	-61.581112	89.236137
17346		11.390058	-61.595054	89.252319
17347		11.331123	-61.605966	89.260510
17348		11.313013	-61.618976	89.258103
17349		11.320021	-61.633519	89.257261
17350		11.344441	-61.647964	89.243612
17351		11.392810	-61.660689	89.216552
17352		11.452964	-61.671487	89.174625
17353		11.512366	-61.680597	89.129598
17354		11.583849	-61.690156	89.061950
17355		11.669615	-61.695875	88.975980
17356		11.770126	-61.697707	88.871453
17357		11.892260	-61.698413	88.746631
17358		12.031659	-61.698607	88.599522
17359		12.185167	-61.699214	88.444211
17360		12.355287	-61.694220	88.271813
17361		12.516588	-61.688071	88.102326
17362		12.685775	-61.679824	87.910352
17363		12.860599	-61.665583	87.713377
17364		13.041270	-61.650788	87.502360
17365		13.256560	-61.641633	87.285158
17366		13.498369	-61.640094	87.060717
17367		13.753609	-61.636813	86.825304
17368		14.034849	-61.629232	86.568838
17369		14.359104	-61.618226	86.291591
17370		14.729035	-61.605539	85.995305
17371		15.150761	-61.580962	85.676219
17372		15.628856	-61.549713	85.326506
17373		16.188377	-61.517134	84.938209
17374		16.807862	-61.489618	84.513525
17375		17.463117	-61.460575	84.068985
17376		18.127971	-61.424534	83.602373
17377		18.798802	-61.377199	83.107831
17378		19.472322	-61.311372	82.599546
17379		20.184586	-61.231779	82.072992
17380		20.918160	-61.143696	81.525622
17381		21.664261	-61.050002	80.958220
17382		22.420518	-60.954731	80.358333
17383		23.179221	-60.857635	79.746300
17384		23.955332	-60.765755	79.112842
17385		24.744377	-60.677632	78.459527
17386		25.535124	-60.585532	77.797814
17387		26.348643	-60.478237	77.123311
17388		27.208141	-60.368442	76.411231
17389		28.115091	-60.242478	75.676073
17390		29.091430	-60.107640	74.910876
17391		30.146292	-59.961269	74.121792
17392		31.248586	-59.805662	73.308398
17393		32.381917	-59.634569	72.489685
17394		33.526015	-59.445704	71.648458
17395		34.668878	-59.245066	70.798554
17396		35.814421	-59.030700	69.931373
17397		36.975777	-58.800235	69.044586
17398		38.159636	-58.558122	68.131059
17399		39.335234	-58.306253	67.204433
17400		40.506705	-58.049418	66.262849
17401		41.660538	-57.771675	65.320801
17402		42.807167	-57.479385	64.374917
17403		43.943704	-57.165431	63.448049
17404		45.106021	-56.836113	62.515187
17405		46.281531	-56.493674	61.571581
17406		47.442620	-56.137215	60.621137
17407		48.583522	-55.769139	59.670595
17408		49.701155	-55.394469	58.714217
17409		50.777418	-54.998059	57.771471
17410		51.834386	-54.589197	56.833609
17411		52.894353	-54.168156	55.919274
17412		53.967195	-53.737520	55.050100
17413		55.040818	-53.302525	54.239441
17414		56.063902	-52.867438	53.463790
17415		56.989693	-52.423023	52.738354
17416		57.845665	-51.977953	52.047010
17417		58.646515	-51.531620	51.398558
17418		59.407497	-51.083313	50.769443
17419		60.113195	-50.629167	50.176681
17420		60.774491	-50.174916	49.600653
17421		61.382760	-49.717508	49.054240
17422		61.946996	-49.266189	48.526566
17423		62.470685	-48.812712	48.025892
17424		62.970400	-48.364590	47.540051
17425		63.453170	-47.919198	47.091516
17426		63.923020	-47.487847	46.668218
17427		64.397250	-47.055396	46.280764
17428		64.854985	-46.631331	45.916730
17429		65.298838	-46.213591	45.577129
17430		65.742476	-45.804408	45.248372
17431		66.167107	-45.406417	44.946117
17432		66.567234	-45.017839	44.655650
17433		66.965040	-44.633637	44.386028
17434		67.348099	-44.260627	44.120335
17435		67.692331	-43.887139	43.865474
17436		68.014858	-43.514422	43.600237
17437		68.299372	-43.140089	43.341921
17438		68.543139	-42.760931	43.072532
17439		68.757515	-42.381413	42.802215
17440		68.966099	-42.002522	42.531650
17441		69.165018	-41.622860	42.268392
17442		69.379855	-41.247077	42.004956
17443		69.625307	-40.867928	41.753270
17444		69.893940	-40.488243	41.510147
17445		70.188091	-40.099671	41.285407
17446		70.524722	-39.700988	41.056273
17447		70.878812	-39.295825	40.821449
17448		71.207321	-38.880674	40.580388
17449		71.492311	-38.457108	40.351019
17450		71.761817	-38.029782	40.107827
17451		72.016265	-37.595722	39.874583
17452		72.258088	-37.153119	39.643315
17453		72.492998	-36.698977	39.418650
17454		72.720927	-36.233642	39.185153
17455		72.962688	-35.759838	38.949488
17456		73.223957	-35.273638	38.702664
17457		73.493553	-34.778960	38.464625
17458		73.780857	-34.273087	38.218545
17459		74.066187	-33.761887	37.965653
17460		74.336592	-33.241812	37.706471
17461		74.595859	-32.715015	37.452760
17462		74.851093	-32.180144	37.198570
17463		75.106679	-31.640032	36.955096
17464		75.370966	-31.097974	36.707091
17465		75.649493	-30.556316	36.470413
17466		75.944068	-30.015686	36.232646
17467		76.231145	-29.480023	36.003914
17468		76.504152	-28.945026	35.778385
17469		76.752784	-28.409621	35.567087
17470		76.970076	-27.872359	35.357718
17471		77.161452	-27.327634	35.155873
17472		77.321460	-26.779338	34.954914
17473		77.447012	-26.225581	34.762943
17474		77.535249	-25.678789	34.569598
17475		77.594881	-25.131504	34.391038
17476		77.643342	-24.594717	34.202228
17477		77.694922	-24.067494	34.014265
17478		77.753464	-23.554171	33.830393
17479		77.814613	-23.050309	33.652083
17480		77.879614	-22.556033	33.474123
17481		77.950247	-22.074681	33.309202
17482		78.028296	-21.609359	33.154472
17483		78.108360	-21.156902	33.004341
17484		78.197148	-20.722671	32.856870
17485		78.300661	-20.307612	32.712583
17486		78.415300	-19.908199	32.566538
17487		78.535932	-19.526331	32.420634
17488		78.653341	-19.164423	32.284668
17489		78.766239	-18.819268	32.155426
17490		78.869268	-18.491416	32.034586
17491		78.967643	-18.176653	31.924088
17492		79.062064	-17.878406	31.820570
17493		79.128256	-17.594700	31.721853
17494		79.168747	-17.324462	31.629658
17495		79.186225	-17.065136	31.545601
17496		79.195754	-16.820986	31.466946
17497		79.217538	-16.586590	31.396044
17498		79.269053	-16.367274	31.330973
17499		79.360768	-16.150938	31.278383
17500		79.490218	-15.942486	31.224149
17501		79.641920	-15.737879	31.174067
17502		79.803600	-15.533385	31.121542
17503		79.964152	-15.327007	31.062382
17504		80.101920	-15.118524	31.002786
17505		80.204859	-14.905964	30.940919
17506		80.284566	-14.687184	30.875590
17507		80.352799	-14.462545	30.812992
17508		80.410846	-14.237740	30.749916
17509		80.470606	-14.006613	30.682563
17510		80.523312	-13.775690	30.615248
17511		80.557503	-13.542463	30.544472
17512		80.585667	-13.303749	30.464678
17513		80.586740	-13.061979	30.390263
17514		80.568023	-12.813832	30.317213
17515		80.546255	-12.561325	30.247613
17516		80.519452	-12.308557	30.183617
17517		80.476686	-12.062398	30.105359
17518		80.417693	-11.826434	30.027167
17519		80.375061	-11.596577	29.966659
17520		80.359516	-11.380215	29.912932
17521		80.365089	-11.180943	29.854382
17522		80.367977	-10.997463	29.803858
17523		80.353184	-10.832137	29.750480
17524		80.334500	-10.694697	29.681883
17525		80.303075	-10.579979	29.613847
17526		80.292329	-10.487676	29.552541
17527		80.313715	-10.424132	29.500264
17528		80.369949	-10.386131	29.456870
17529		80.460039	-10.358630	29.430074
17530		80.602321	-10.339410	29.419353
17531		80.765935	-10.312555	29.421459
17532		80.939990	-10.286739	29.412097
17533		81.106521	-10.247439	29.399312
17534		81.289260	-10.191523	29.380571
17535		81.487896	-10.126550	29.353184
17536		81.719169	-10.060012	29.316274
17537		81.973115	-9.991492	29.269456
17538		82.263728	-9.921630	29.217565
17539		82.566657	-9.854638	29.167350
17540		82.876210	-9.791273	29.119830
17541		83.176513	-9.732033	29.082114
17542		83.449193	-9.678845	29.062510
17543		83.684690	-9.621480	29.042184
17544		83.964425	-9.582733	29.002304
17545		84.248368	-9.568825	28.973572
17546		84.511958	-9.575784	28.954055
17547		84.744502	-9.601997	28.932515
17548		84.925081	-9.640155	28.915930
17549		85.039671	-9.685458	28.900562
17550		85.125734	-9.730596	28.890204
17551		85.221722	-9.769581	28.889342
17552		85.349974	-9.806439	28.891136
17553		85.472450	-9.840661	28.886592
17554		85.620169	-9.868630	28.875094
17555		85.794831	-9.884505	28.853035
17556		85.985442	-9.888624	28.825093
17557		86.162122	-9.878087	28.804273
17558		86.285364	-9.852293	28.798031
17559		86.364943	-9.817767	28.801905
17560		86.380036	-9.782238	28.819176
17561		86.327205	-9.737776	28.843160
17562		86.237079	-9.693863	28.867289
17563		86.115909	-9.648562	28.899028
17564		85.997521	-9.603178	28.934067
17565		85.900588	-9.558012	28.967435
17566		85.828837	-9.515202	28.992556
17567		85.781478	-9.478567	29.015617
17568		85.757912	-9.451392	29.030646
17569		85.769332	-9.431952	29.040679
17570		85.783873	-9.425723	29.045241
17571		85.807811	-9.423466	29.053537
17572		85.834981	-9.425936	29.065763
17573		85.877440	-9.432300	29.076433
17574		85.937804	-9.438596	29.083860
17575		85.996109	-9.438787	29.094027
17576		86.018577	-9.427913	29.099340
17577		86.015355	-9.409815	29.104249
17578		86.000496	-9.387495	29.110024
17579		85.969423	-9.371554	29.116374
17580		85.933474	-9.363019	29.120305
17581		85.898959	-9.362979	29.119313
17582		85.876166	-9.370563	29.107326
17583		85.850228	-9.381803	29.091584
17584		85.829843	-9.390607	29.078640
17585		85.819892	-9.393492	29.067930
17586		85.810455	-9.398095	29.054851
17587		85.800205	-9.394985	29.044756
17588		85.800833	-9.393380	29.038055
17589		85.808262	-9.389334	29.032342
17590		85.816957	-9.387162	29.028052
17591		85.821004	-9.383183	29.026273
17592		85.825249	-9.376018	29.024772
17593		85.831899	-9.362459	29.029049
17594		85.840018	-9.343149	29.039854
17595		85.833718	-9.323791	29.057906
17596		85.834468	-9.308550	29.074515
17597		85.840495	-9.297109	29.095008
17598		85.842435	-9.286795	29.114409
17599		85.838228	-9.275419	29.130753
17600		85.848100	-9.263612	29.148956
17601		85.849588	-9.250436	29.168705
17602		85.852499	-9.229398	29.190989
17603		85.867430	-9.204647	29.211145
17604		85.883509	-9.187658	29.231200
17605		85.901640	-9.172581	29.262674
17606		85.940102	-9.163598	29.287868
17607		86.016759	-9.163618	29.302963
17608		86.105814	-9.175729	29.311113
17609		86.187373	-9.198855	29.318676
17610		86.281726	-9.227289	29.319941
17611		86.362076	-9.258212	29.323334
17612		86.417610	-9.284203	29.327750
17613		86.459208	-9.301719	29.333651
17614		86.497361	-9.314458	29.336280
17615		86.518240	-9.319938	29.338062
17616		86.532186	-9.323385	29.340855
17617		86.538187	-9.324699	29.343825
17618		86.532199	-9.331284	29.348743
17619		86.509828	-9.342084	29.364747
17620		86.490197	-9.362800	29.386034
17621		86.493453	-9.387192	29.409973
17622		86.521635	-9.418672	29.432449
17623		86.553698	-9.456601	29.450845
17624		86.569793	-9.494766	29.460459
17625		86.587818	-9.536019	29.465608
17626		86.609509	-9.586860	29.467172
17627		86.634120	-9.652367	29.467831
17628		86.661040	-9.730952	29.469030
17629		86.682351	-9.819973	29.476092
17630		86.699681	-9.924728	29.488100
17631		86.706155	-10.040634	29.503245
17632		86.695956	-10.176509	29.512475
17633		86.680927	-10.323316	29.529374
17634		86.669727	-10.497091	29.539096
17635		86.656471	-10.679276	29.554480
17636		86.637652	-10.877921	29.577580
17637		86.625725	-11.092583	29.606541
17638		86.620430	-11.316813	29.641424
17639		86.625119	-11.541455	29.686238
17640		86.622781	-11.778951	29.725264
17641		86.623109	-12.025685	29.777683
17642		86.620341	-12.286367	29.834445
17643		86.604847	-12.559542	29.890313
17644		86.584598	-12.844143	29.956871
17645		86.551224	-13.138016	30.032904
17646		86.497489	-13.445128	30.124717
17647		86.410156	-13.759565	30.232963
17648		86.316606	-14.071688	30.352799
17649		86.218793	-14.389315	30.485157
17650		86.115332	-14.713831	30.627659
17651		85.998353	-15.046523	30.776342
17652		85.853249	-15.391503	30.922622
17653		85.689582	-15.748181	31.072607
17654		85.514817	-16.119074	31.231131
17655		85.345901	-16.507017	31.392141
17656		85.178769	-16.913179	31.556564
17657		85.011049	-17.334675	31.731036
17658		84.839004	-17.773164	31.915520
17659		84.658583	-18.222460	32.106861
17660		84.484749	-18.679345	32.293683
17661		84.325995	-19.142121	32.470786
17662		84.191083	-19.621076	32.634843
17663		84.070112	-20.113839	32.794457
17664		83.946649	-20.621208	32.952767
17665		83.815093	-21.135468	33.105868
17666		83.682055	-21.658587	33.255208
17667		83.543299	-22.177537	33.410829
17668		83.388804	-22.704583	33.566150
17669		83.212430	-23.232606	33.723195
17670		83.036220	-23.759598	33.883161
17671		82.850430	-24.285991	34.048837
17672		82.671179	-24.813594	34.219664
17673		82.481403	-25.343012	34.411751
17674		82.282346	-25.885496	34.614567
17675		82.094313	-26.435492	34.835075
17676		81.928373	-27.001666	35.060330
17677		81.771627	-27.575704	35.294901
17678		81.621951	-28.151145	35.529513
17679		81.455738	-28.730785	35.784382
17680		81.274081	-29.311701	36.042547
17681		81.056413	-29.897333	36.321836
17682		80.813595	-30.477749	36.604543
17683		80.586793	-31.055555	36.908727
17684		80.373315	-31.637942	37.216284
17685		80.148116	-32.221182	37.538079
17686		79.923873	-32.802492	37.860998
17687		79.686233	-33.389036	38.197963
17688		79.416552	-33.974510	38.539102
17689		79.120145	-34.556411	38.887489
17690		78.790905	-35.138307	39.238852
17691		78.438516	-35.719282	39.607181
17692		78.073205	-36.296723	39.971351
17693		77.692176	-36.869669	40.344375
17694		77.307107	-37.435404	40.714614
17695		76.918686	-37.995180	41.098490
17696		76.529134	-38.552550	41.479658
17697		76.134433	-39.102378	41.881918
17698		75.753229	-39.653544	42.276912
17699		75.379632	-40.195645	42.678408
17700		74.997113	-40.729057	43.087408
17701		74.599938	-41.251021	43.510626
17702		74.198105	-41.768765	43.931868
17703		73.775579	-42.280926	44.366235
17704		73.348299	-42.788837	44.796083
17705		72.917230	-43.294577	45.239886
17706		72.475643	-43.798526	45.692850
17707		72.044150	-44.294884	46.147815
17708		71.601781	-44.782981	46.614689
17709		71.141819	-45.263640	47.097761
17710		70.645343	-45.744079	47.586803
17711		70.095097	-46.218264	48.087637
17712		69.518252	-46.685550	48.588816
17713		68.923732	-47.150885	49.100454
17714		68.303119	-47.617609	49.617237
17715		67.665535	-48.076272	50.156197
17716		67.028712	-48.533241	50.702446
17717		66.386920	-48.983436	51.272540
17718		65.749168	-49.429456	51.852329
17719		65.108940	-49.869687	52.448734
17720		64.467451	-50.307712	53.046899
17721		63.822582	-50.738404	53.657082
17722		63.177058	-51.163757	54.267501
17723		62.539104	-51.578326	54.885189
17724		61.904389	-51.987419	55.493614
17725		61.241061	-52.383031	56.109492
17726		60.562457	-52.769247	56.718544
17727		59.865762	-53.144525	57.337318
17728		59.158901	-53.506497	57.962247
17729		58.455687	-53.849192	58.619221
17730		57.775978	-54.184300	59.279921
17731		57.146988	-54.515759	59.933330
17732		56.542471	-54.840285	60.577232
17733		55.930791	-55.152975	61.235354
17734		55.312678	-55.454113	61.893130
17735		54.697723	-55.740755	62.558329
17736		54.083010	-56.020393	63.231000
17737		53.469234	-56.294421	63.900892
17738		52.857571	-56.561549	64.566578
17739		52.249597	-56.829509	65.235284
17740		51.623377	-57.099272	65.907593
17741		50.988757	-57.370517	66.592678
17742		50.355116	-57.639988	67.287144
17743		49.697717	-57.904568	68.005870
17744		49.014027	-58.166103	68.732747
17745		48.311644	-58.425550	69.484317
17746		47.605190	-58.685233	70.249768
17747		46.916082	-58.942636	71.033990
17748		46.256955	-59.197695	71.835069
17749		45.618484	-59.442263	72.655979
17750		44.994641	-59.688463	73.477970
17751		44.379976	-59.931457	74.287726
17752		43.756210	-60.172455	75.100859
17753		43.141713	-60.405635	75.887819
17754		42.579988	-60.637635	76.624689
17755		42.070193	-60.857795	77.337534
17756		41.589943	-61.061963	78.052667
17757		41.100021	-61.248880	78.807400
17758		40.573597	-61.417579	79.595269
17759		40.001547	-61.568823	80.402780
17760		39.399909	-61.705717	81.201845
17761		38.791737	-61.824831	81.979052
17762		38.191228	-61.922872	82.721613
17763		37.604186	-62.004091	83.424112
17764		37.007650	-62.074316	84.076735
17765		36.425662	-62.132463	84.693307
17766		35.876566	-62.177379	85.267273
17767		35.368968	-62.208875	85.794884
17768		34.888685	-62.232257	86.254035
17769		34.432291	-62.243095	86.669162
17770		34.017390	-62.247269	87.031746
17771		33.652215	-62.242829	87.339798
17772		33.319152	-62.241141	87.608728
17773		33.019819	-62.243242	87.844250
17774		32.756164	-62.244546	88.053245
17775		32.503101	-62.242134	88.260721
17776		32.275549	-62.239113	88.439474
17777		32.072765	-62.238876	88.591224
17778		31.896984	-62.240448	88.712366
17779		31.732692	-62.247106	88.810621
17780		31.593998	-62.257674	88.876558
17781		31.473650	-62.267534	88.933136
17782		31.359551	-62.279729	88.983236
17783		31.250120	-62.295976	89.020991
17784		31.116070	-62.307448	89.063910
17785		30.978944	-62.319382	89.103667
17786		30.808706	-62.329921	89.135535
17787		30.600844	-62.334377	89.158420
17788		30.356209	-62.325547	89.183496
17789		30.056183	-62.307892	89.212513
17790		29.713807	-62.289148	89.233909
17791		29.338201	-62.267736	89.252697
17792		28.914976	-62.246361	89.266317
17793		28.443615	-62.224623	89.251722
17794		27.927518	-62.207481	89.208146
17795		27.360717	-62.177957	89.155487
17796		26.695868	-62.133256	89.086029
17797		25.991648	-62.088883	88.987559
17798		25.275122	-62.053850	88.866886
17799		24.531375	-62.029846	88.748732
17800		23.765669	-62.004151	88.633363
17801		22.979167	-61.983897	88.528847
17802		22.162001	-61.979443	88.426634
17803		21.337456	-61.989494	88.331144
17804		20.551458	-61.998139	88.241406
17805		19.789358	-62.006747	88.182443
17806		19.045672	-62.013883	88.160850
17807		18.359700	-62.016853	88.149688
17808		17.724841	-62.004984	88.160621
17809		17.119294	-61.999704	88.194090
17810		16.523499	-61.998907	88.243245
17811		15.915035	-61.991043	88.316848
17812		15.274349	-61.981370	88.398652
17813		14.625353	-61.971644	88.465219
17814		13.974974	-61.951917	88.525787
17815		13.364478	-61.937570	88.597211
17816		12.813881	-61.929954	88.700316
17817		12.323291	-61.919517	88.845975
17818		11.878490	-61.903010	89.016704
17819		11.475321	-61.893848	89.210166
17820		11.106658	-61.891241	89.407226
17821		10.751540	-61.881713	89.612563
17822		10.403692	-61.871754	89.814033
17823		10.080204	-61.862556	90.002805
17824		9.780279	-61.855654	90.196074
17825		9.515171	-61.849038	90.403911
17826		9.260569	-61.843605	90.627181
17827		9.012768	-61.834977	90.838952
17828		8.737980	-61.828043	91.023590
17829		8.426322	-61.822446	91.182051
17830		8.074918	-61.809596	91.302205
17831		7.702160	-61.795122	91.396402
17832		7.347792	-61.785813	91.475835
17833		7.028115	-61.778063	91.552081
17834		6.770491	-61.772201	91.604564
17835		6.584851	-61.775883	91.649678
17836		6.474494	-61.786281	91.680697
17837		6.417375	-61.796323	91.695671
17838		6.411776	-61.802835	91.689247
17839		6.472664	-61.811945	91.673090
17840		6.585387	-61.824749	91.640074
17841		6.711805	-61.835424	91.592059
17842		6.855118	-61.842202	91.525761
17843		7.018304	-61.845566	91.449686
17844		7.172069	-61.854877	91.367404
17845		7.300498	-61.863346	91.262327
17846		7.396758	-61.869525	91.139579
17847		7.498170	-61.873842	91.004880
17848		7.614641	-61.869917	90.861923
17849		7.749901	-61.869248	90.698831
17850		7.920024	-61.870333	90.518024
17851		8.128047	-61.864209	90.324041
17852		8.361722	-61.858507	90.113360
17853		8.626481	-61.850985	89.885640
17854		8.945519	-61.840964	89.630687
17855		9.338193	-61.824529	89.354111
17856		9.803780	-61.807420	89.052767
17857		10.342450	-61.783910	88.705929
17858		10.944510	-61.758883	88.315945
17859		11.634638	-61.722031	87.872664
17860		12.430372	-61.686023	87.361187
17861		13.321495	-61.649416	86.786536
17862		14.272901	-61.605739	86.168949
17863		15.281326	-61.546448	85.520148
17864		16.296523	-61.478134	84.845217
17865		17.300205	-61.398471	84.153274
17866		18.304460	-61.308202	83.445764
17867		19.299685	-61.204301	82.736406
17868		20.288922	-61.082892	82.020107
17869		21.281242	-60.937067	81.301205
17870		22.306073	-60.775296	80.550353
17871		23.383820	-60.610441	79.756640
17872		24.470893	-60.447220	78.938417
17873		25.530150	-60.268578	78.108993
17874		26.530471	-60.081249	77.270225
17875		27.492366	-59.896657	76.416805
17876		28.435933	-59.706761	75.567414
17877		29.375786	-59.511608	74.731542
17878		30.327163	-59.310110	73.900354
17879		31.302747	-59.099418	73.070460
17880		32.314142	-58.883392	72.217606
17881		33.346940	-58.666740	71.356528
17882		34.368469	-58.445897	70.496220
17883		35.361486	-58.210044	69.644182
17884		36.325733	-57.973982	68.774603
17885		37.255129	-57.738786	67.910043
17886		38.170362	-57.498250	67.056014
17887		39.089896	-57.250764	66.220479
17888		40.013481	-57.004107	65.406651
17889		40.941039	-56.749143	64.621420
17890		41.886714	-56.483844	63.832622
17891		42.840390	-56.212383	63.041775
17892		43.785136	-55.932276	62.241869
17893		44.688915	-55.641444	61.439068
17894		45.540988	-55.345086	60.628749
17895		46.335206	-55.036633	59.828080
17896		47.085656	-54.719062	59.050465
17897		47.812396	-54.391128	58.293349
17898		48.516394	-54.047686	57.559870
17899		49.207332	-53.697274	56.843213
17900		49.889235	-53.336931	56.141776
17901		50.564697	-52.968029	55.467342
17902		51.242863	-52.594958	54.810248
17903		51.927301	-52.216028	54.184274
17904		52.600177	-51.832964	53.578265
17905		53.256518	-51.447569	52.984543
17906		53.914640	-51.057061	52.403512
17907		54.580969	-50.655654	51.848865
17908		55.269086	-50.250790	51.299922
17909		55.951502	-49.837008	50.771778
17910		56.624966	-49.409509	50.264696
17911		57.283445	-48.969868	49.778661
17912		57.925788	-48.525160	49.278268
17913		58.532025	-48.067962	48.796399
17914		59.108431	-47.605929	48.323740
17915		59.674587	-47.137578	47.867742
17916		60.232065	-46.666249	47.425416
17917		60.763209	-46.182280	47.011947
17918		61.301196	-45.692098	46.591510
17919		61.853566	-45.193374	46.167463
17920		62.396769	-44.683099	45.750780
17921		62.925968	-44.162022	45.333933
17922		63.435790	-43.629820	44.906806
17923		63.934552	-43.089308	44.489273
17924		64.427348	-42.542808	44.070494
17925		64.925902	-41.984777	43.656275
17926		65.446253	-41.417890	43.239527
17927		65.981289	-40.844128	42.830548
17928		66.517063	-40.260996	42.417844
17929		67.034803	-39.667626	42.017393
17930		67.537556	-39.075241	41.631912
17931		68.019064	-38.484306	41.265764
17932		68.488245	-37.896544	40.902870
17933		68.933167	-37.305735	40.556472
17934		69.350385	-36.715140	40.209691
17935		69.750076	-36.125723	39.868434
17936		70.137283	-35.533351	39.523140
17937		70.493452	-34.938126	39.196583
17938		70.840090	-34.344322	38.869271
17939		71.193573	-33.752560	38.546205
17940		71.556628	-33.166763	38.225453
17941		71.921792	-32.584451	37.918124
17942		72.301468	-32.004321	37.608525
17943		72.698365	-31.423386	37.309099
17944		73.104236	-30.842243	37.014258
17945		73.505077	-30.253175	36.725392
17946		73.907292	-29.660591	36.424414
17947		74.287404	-29.059855	36.135317
17948		74.636368	-28.460991	35.851438
17949		74.957289	-27.867926	35.576091
17950		75.260634	-27.287149	35.300910
17951		75.545168	-26.720074	35.039382
17952		75.820095	-26.164928	34.792736
17953		76.076851	-25.627195	34.568682
17954		76.335025	-25.106927	34.345229
17955		76.599394	-24.602172	34.131790
17956		76.850878	-24.114088	33.926100
17957		77.068766	-23.640366	33.722370
17958		77.261437	-23.184788	33.517216
17959		77.433163	-22.750718	33.321258
17960		77.596180	-22.338202	33.136069
17961		77.765698	-21.948208	32.958099
17962		77.951968	-21.581060	32.792190
17963		78.148031	-21.232343	32.635317
17964		78.353497	-20.902866	32.486514
17965		78.537138	-20.582796	32.349316
17966		78.687339	-20.273123	32.214846
17967		78.800270	-19.972316	32.087639
17968		78.890104	-19.673867	31.966642
17969		78.964373	-19.380610	31.851709
17970		79.039222	-19.091847	31.746941
17971		79.123634	-18.799481	31.648477
17972		79.209314	-18.504593	31.552228
17973		79.299570	-18.205013	31.461625
17974		79.399130	-17.904407	31.373358
17975		79.486870	-17.597289	31.288588
17976		79.561766	-17.275625	31.201377
17977		79.627888	-16.944531	31.110113
17978		79.684529	-16.607637	31.021429
17979		79.743542	-16.266423	30.927603
17980		79.824145	-15.919599	30.830569
17981		79.930085	-15.573071	30.731237
17982		80.057039	-15.231151	30.633902
17983		80.192817	-14.888563	30.535560
17984		80.342075	-14.551390	30.436452
17985		80.475254	-14.214812	30.338337
17986		80.608639	-13.881239	30.235573
17987		80.744582	-13.552156	30.128915
17988		80.871654	-13.233395	30.018398
17989		80.986674	-12.918288	29.908529
17990		81.098812	-12.610823	29.798313
17991		81.211031	-12.310517	29.686870
17992		81.323729	-12.017802	29.571456
17993		81.413890	-11.733592	29.462826
17994		81.499283	-11.462599	29.351518
17995		81.539956	-11.194853	29.253804
17996		81.579979	-10.927328	29.162217
17997		81.656262	-10.663124	29.077689
17998		81.768239	-10.423135	28.991060
17999		81.915022	-10.286367	28.847376
18000		82.114165	-10.175619	28.702477
18001		82.290887	-10.069283	28.593989
18002		82.424017	-9.992989	28.515103
18003		82.557913	-9.927938	28.472390
18004		82.681569	-9.880575	28.440556
18005		82.761520	-9.855750	28.426897
18006		82.783400	-9.845744	28.441397
18007		82.762554	-9.824771	28.482210
18008		82.733634	-9.795279	28.531671
18009		82.697219	-9.763930	28.583639
18010		82.649243	-9.724213	28.629580
18011		82.561712	-9.670974	28.676418
18012		82.480603	-9.609690	28.703317
18013		82.429382	-9.551924	28.680122
18014		82.436542	-9.490867	28.630286
18015		82.546908	-9.392991	28.587528
18016		82.764711	-9.308461	28.497441
18017		83.057490	-9.232401	28.382146
18018		83.352322	-9.167034	28.249790
18019		83.603671	-9.129838	28.108696
18020		83.794047	-9.115816	27.994185
18021		83.911891	-9.116455	27.905312
18022		83.910137	-9.137724	27.830573
18023		83.739896	-9.126264	27.881533
18024		83.559628	-9.103809	28.001583
18025		83.286951	-9.083824	28.098523
18026		83.028767	-9.053078	28.178424
18027		82.835084	-9.019534	28.239356
18028		82.648750	-8.996550	28.270270
18029		82.472070	-8.976738	28.297836
18030		82.309408	-8.961193	28.331641
18031		82.137318	-8.944607	28.365943
18032		81.945202	-8.927125	28.397070
18033		81.754534	-8.902246	28.432630
18034		81.573731	-8.871140	28.467059
18035		81.402519	-8.838377	28.500181
18036		81.261987	-8.810867	28.532659
18037		81.153345	-8.789896	28.560101
18038		81.076140	-8.780624	28.574944
18039		81.025348	-8.783388	28.579014
18040		80.992838	-8.792673	28.574936
18041		80.974821	-8.812210	28.561198
18042		80.962454	-8.835259	28.542425
18043		80.955155	-8.868241	28.521448
18044		80.961710	-8.902557	28.493389
18045		80.986090	-8.935262	28.459776
18046		81.018032	-8.968306	28.425331
18047		81.006875	-9.003589	28.392615
18048		80.993818	-9.027592	28.364657
18049		80.958369	-9.056303	28.331751
18050		80.910193	-9.074879	28.311084
18051		80.860884	-9.074364	28.303553
18052		80.805488	-9.096760	28.267273
18053		80.705568	-9.101783	28.257416
18054		80.616070	-9.095479	28.248136
18055		80.531961	-9.083744	28.241451
18056		80.448390	-9.067008	28.243949
18057		80.367940	-9.045058	28.249705
18058		80.286823	-9.021930	28.268003
18059		80.218995	-9.000908	28.287690
18060		80.162022	-8.982141	28.316072
18061		80.121701	-8.966318	28.345906
18062		80.101974	-8.954467	28.372327
18063		80.098431	-8.944865	28.393969
18064		80.108870	-8.938234	28.409835
18065		80.134479	-8.928788	28.425660
18066		80.169056	-8.918321	28.442126
18067		80.209530	-8.907605	28.452404
18068		80.255748	-8.896701	28.470416
18069		80.305708	-8.881844	28.488311
18070		80.355287	-8.866240	28.504612
18071		80.400437	-8.845801	28.530407
18072		80.452181	-8.822535	28.567309
18073		80.510747	-8.806718	28.601197
18074		80.578584	-8.797881	28.634846
18075		80.642603	-8.787817	28.670680
18076		80.689455	-8.779184	28.710117
18077		80.726290	-8.776763	28.746165
18078		80.764366	-8.784136	28.781610
18079		80.814890	-8.799573	28.813334
18080		80.896354	-8.822521	28.839192
18081		80.997623	-8.842124	28.856206
18082		81.120838	-8.859630	28.864261
18083		81.256979	-8.872063	28.862051
18084		81.398246	-8.889250	28.854189
18085		81.544185	-8.914794	28.839962
18086		81.698848	-8.952484	28.825111
18087		81.852863	-8.998032	28.813068
18088		81.998227	-9.044784	28.794039
18089		82.133047	-9.084391	28.775293
18090		82.240531	-9.117229	28.767398
18091		82.341462	-9.135766	28.767611
18092		82.433547	-9.142708	28.782208
18093		82.500928	-9.140408	28.811588
18094		82.563216	-9.132818	28.852386
18095		82.620972	-9.122075	28.901167
18096		82.677118	-9.120274	28.953290
18097		82.734800	-9.121985	29.005913
18098		82.797610	-9.131315	29.062105
18099		82.852302	-9.142940	29.122828
18100		82.929248	-9.157001	29.183363
18101		83.017251	-9.173023	29.246512
18102		83.121871	-9.194675	29.306069
18103		83.231949	-9.225845	29.357024
18104		83.345614	-9.264268	29.404374
18105		83.445097	-9.316351	29.453618
18106		83.526432	-9.379685	29.506020
18107		83.604947	-9.457714	29.551477
18108		83.664040	-9.540703	29.594325
18109		83.695860	-9.629640	29.633721
18110		83.688680	-9.722134	29.671604
18111		83.647830	-9.823346	29.708471
18112		83.572380	-9.934274	29.744805
18113		83.458019	-10.056323	29.783319
18114		83.299371	-10.196919	29.817890
18115		83.093854	-10.349441	29.848923
18116		82.861549	-10.524414	29.871885
18117		82.648301	-10.722011	29.888847
18118		82.460529	-10.945407	29.909782
18119		82.328501	-11.188456	29.941341
18120		82.266345	-11.452713	29.976111
18121		82.254670	-11.735608	30.018562
18122		82.264664	-12.037237	30.063688
18123		82.273660	-12.347331	30.114196
18124		82.272586	-12.671343	30.168728
18125		82.253173	-13.007385	30.232952
18126		82.223993	-13.353201	30.302246
18127		82.182787	-13.711476	30.377158
18128		82.135600	-14.083697	30.457778
18129		82.068200	-14.463036	30.549318
18130		81.999361	-14.850185	30.643637
18131		81.924569	-15.244793	30.745250
18132		81.847641	-15.648534	30.856266
18133		81.752763	-16.059881	30.973940
18134		81.633991	-16.478796	31.097931
18135		81.498926	-16.902856	31.229418
18136		81.354184	-17.330671	31.360606
18137		81.205717	-17.761403	31.488573
18138		81.054285	-18.200693	31.625989
18139		80.921032	-18.650413	31.765616
18140		80.806138	-19.110589	31.913236
18141		80.712178	-19.581116	32.065697
18142		80.630136	-20.064261	32.222074
18143		80.543411	-20.557105	32.386351
18144		80.444998	-21.058323	32.557660
18145		80.321784	-21.564993	32.736582
18146		80.206482	-22.082733	32.923488
18147		80.100668	-22.610214	33.118944
18148		79.985877	-23.157023	33.318077
18149		79.852141	-23.711961	33.524732
18150		79.705820	-24.272149	33.738193
18151		79.542024	-24.839778	33.955775
18152		79.381357	-25.406784	34.180494
18153		79.239964	-25.983442	34.414730
18154		79.114490	-26.566579	34.652729
18155		78.993458	-27.150728	34.900007
18156		78.875208	-27.742182	35.142084
18157		78.758489	-28.333368	35.388247
18158		78.637266	-28.926947	35.630172
18159		78.496370	-29.514662	35.881340
18160		78.340809	-30.089194	36.140376
18161		78.173441	-30.656485	36.411022
18162		77.991908	-31.222108	36.670603
18163		77.798032	-31.778787	36.927667
18164		77.598247	-32.325071	37.172088
18165		77.422802	-32.863913	37.417988
18166		77.275975	-33.400393	37.663049
18167		77.131509	-33.937855	37.917627
18168		76.974043	-34.473495	38.168086
18169		76.794161	-35.003996	38.426650
18170		76.569093	-35.526095	38.690759
18171		76.328985	-36.035258	38.969141
18172		76.078733	-36.535571	39.238447
18173		75.815709	-37.022110	39.509161
18174		75.566458	-37.503512	39.769464
18175		75.345595	-37.984805	40.033456
18176		75.145242	-38.470333	40.298010
18177		74.964453	-38.961017	40.564104
18178		74.781944	-39.449567	40.831363
18179		74.581137	-39.944409	41.105407
18180		74.354498	-40.438146	41.379643
18181		74.094247	-40.926821	41.671718
18182		73.793468	-41.419237	41.970799
18183		73.440679	-41.919894	42.294613
18184		73.039968	-42.430903	42.623432
18185		72.583121	-42.949880	42.974422
18186		72.107593	-43.479280	43.333035
18187		71.622836	-44.020035	43.723299
18188		71.120995	-44.578038	44.124399
18189		70.613116	-45.150213	44.547073
18190		70.102431	-45.731379	44.993517
18191		69.596048	-46.318491	45.469990
18192		69.095890	-46.913025	45.965143
18193		68.583422	-47.509201	46.495533
18194		68.052042	-48.111434	47.046279
18195		67.495818	-48.716993	47.628280
18196		66.916501	-49.318352	48.230649
18197		66.312994	-49.917191	48.866825
18198		65.698414	-50.509519	49.527944
18199		65.084872	-51.100534	50.222849
18200		64.504417	-51.694414	50.923242
18201		63.964290	-52.289269	51.648292
18202		63.461676	-52.878678	52.411679
18203		63.000236	-53.463450	53.209898
18204		62.555414	-54.032434	54.028096
18205		62.088187	-54.576191	54.882426
18206		61.579913	-55.102509	55.750950
18207		61.017067	-55.611201	56.629257
18208		60.361834	-56.099918	57.515676
18209		59.581103	-56.563793	58.425143
18210		58.709565	-57.017386	59.343887
18211		57.758926	-57.462351	60.290108
18212		56.722045	-57.908540	61.242565
18213		55.632774	-58.347682	62.217817
18214		54.516673	-58.776398	63.224393
18215		53.391161	-59.189932	64.278592
18216		52.274848	-59.589196	65.358513
18217		51.164223	-59.973646	66.468012
18218		50.071455	-60.336593	67.595051
18219		48.973739	-60.693508	68.734013
18220		47.886261	-61.022765	69.875912
18221		46.806158	-61.319911	71.043068
18222		45.718189	-61.584992	72.219509
18223		44.614958	-61.820752	73.399900
18224		43.525346	-62.031856	74.562299
18225		42.466534	-62.231189	75.701137
18226		41.436497	-62.422264	76.803696
18227		40.418811	-62.598446	77.889169
18228		39.432359	-62.753692	78.953959
18229		38.469336	-62.887369	79.996526
18230		37.507673	-62.996301	81.004740
18231		36.558022	-63.065641	81.977151
18232		35.629390	-63.109734	82.897251
18233		34.739848	-63.141797	83.729689
18234		33.908756	-63.163287	84.467787
18235		33.143212	-63.175711	85.121403
18236		32.474375	-63.183905	85.688453
18237		31.900740	-63.185597	86.183092
18238		31.415877	-63.182374	86.600620
18239		31.018846	-63.170175	86.949297
18240		30.679191	-63.156384	87.243093
18241		30.408038	-63.138914	87.477077
18242		30.199534	-63.126580	87.655573
18243		30.034860	-63.115393	87.797256
18244		29.926123	-63.105772	87.905382
18245		29.853172	-63.097650	88.001462
18246		29.776797	-63.088101	88.095705
18247		29.699671	-63.075000	88.187523
18248		29.610000	-63.056332	88.279437
18249		29.496619	-63.038610	88.368153
18250		29.345839	-63.024055	88.461399
18251		29.166541	-63.001482	88.562812
18252		28.940497	-62.975488	88.667893
18253		28.676650	-62.936057	88.780702
18254		28.343105	-62.873648	88.912390
18255		27.907295	-62.786316	89.084707
18256		27.390134	-62.688457	89.270054
18257		26.804377	-62.580432	89.452520
18258		26.181996	-62.467179	89.601302
18259		25.495032	-62.350584	89.750856
18260		24.742760	-62.232589	89.900537
18261		23.929629	-62.101531	90.059514
18262		23.081305	-61.961851	90.241568
18263		22.233208	-61.823819	90.454034
18264		21.383061	-61.684165	90.689336
18265		20.570314	-61.557163	90.912383
18266		19.811309	-61.439866	91.122267
18267		19.082236	-61.317117	91.346031
18268		18.364816	-61.201601	91.578986
18269		17.670790	-61.087178	91.804312
18270		17.006377	-60.975105	92.023668
18271		16.369416	-60.871896	92.258472
18272		15.753028	-60.782143	92.514552
18273		15.160727	-60.705710	92.783697
18274		14.566567	-60.632151	93.069124
18275		13.957432	-60.561185	93.363441
18276		13.328699	-60.491293	93.649284
18277		12.682309	-60.421671	93.931448
18278		12.004252	-60.353515	94.197410
18279		11.294508	-60.285465	94.447076
18280		10.588198	-60.213935	94.667294
18281		9.896263	-60.145548	94.880818
18282		9.232975	-60.089373	95.080987
18283		8.616118	-60.037350	95.275400
18284		8.022293	-59.999588	95.460876
18285		7.436314	-59.971997	95.643003
18286		6.838580	-59.942486	95.804743
18287		6.236362	-59.903057	95.927175
18288		5.661565	-59.862934	96.021338
18289		5.176748	-59.816351	96.089319
18290		4.792202	-59.775215	96.137402
18291		4.500451	-59.745744	96.191524
18292		4.254174	-59.724240	96.246017
18293		4.021378	-59.702310	96.296921
18294		3.795230	-59.680289	96.330312
18295		3.535842	-59.654776	96.345310
18296		3.248108	-59.631300	96.311077
18297		2.951965	-59.600707	96.229428
18298		2.655633	-59.574954	96.134840
18299		2.406897	-59.547591	96.036296
18300		2.203349	-59.518144	95.959178
18301		2.069797	-59.488443	95.918951
18302		2.014760	-59.454786	95.900792
18303		2.025259	-59.415776	95.890430
18304		2.070888	-59.383138	95.877008
18305		2.127265	-59.355928	95.855723
18306		2.187162	-59.333042	95.820483
18307		2.239121	-59.322584	95.788719
18308		2.289578	-59.327363	95.759077
18309		2.326231	-59.340649	95.748938
18310		2.345085	-59.363318	95.747369
18311		2.342703	-59.385071	95.754181
18312		2.325140	-59.412030	95.762022
18313		2.308565	-59.439537	95.776633
18314		2.283633	-59.468163	95.799412
18315		2.266131	-59.490786	95.830637
18316		2.242956	-59.512743	95.868863
18317		2.224273	-59.529156	95.914312
18318		2.215112	-59.546953	95.963019
18319		2.211947	-59.562994	96.014850
18320		2.214072	-59.575334	96.060351
18321		2.211282	-59.575673	96.110025
18322		2.204011	-59.574408	96.151040
18323		2.180549	-59.569798	96.176336
18324		2.132871	-59.566296	96.185079
18325		2.089482	-59.560597	96.186379
18326		2.051468	-59.557324	96.179118
18327		2.026319	-59.551724	96.160147
18328		2.019268	-59.548488	96.123652
18329		2.038392	-59.547838	96.071419
18330		2.090405	-59.552407	95.995879
18331		2.168668	-59.559543	95.904731
18332		2.272934	-59.571045	95.789304
18333		2.399180	-59.584806	95.650730
18334		2.537493	-59.602379	95.489937
18335		2.692432	-59.626680	95.312242
18336		2.860500	-59.654932	95.120783
18337		3.050208	-59.680562	94.927735
18338		3.295613	-59.706129	94.724403
18339		3.612230	-59.738358	94.505950
18340		3.987959	-59.773039	94.269388
18341		4.415042	-59.810379	94.020241
18342		4.887057	-59.853594	93.746381
18343		5.393455	-59.891553	93.452218
18344		5.924441	-59.930479	93.133210
18345		6.465227	-59.964326	92.793604
18346		7.036720	-59.994840	92.409763
18347		7.630320	-60.015449	91.998671
18348		8.244413	-60.027004	91.542724
18349		8.877305	-60.030106	91.040506
18350		9.531127	-60.024375	90.486562
18351		10.210461	-60.000318	89.888312
18352		10.941685	-59.966242	89.241153
18353		11.729321	-59.919631	88.560352
18354		12.569398	-59.857536	87.848074
18355		13.439906	-59.775480	87.119426
18356		14.362572	-59.673650	86.351981
18357		15.340840	-59.557681	85.551831
18358		16.373162	-59.431554	84.717495
18359		17.435242	-59.285905	83.861312
18360		18.502552	-59.125569	82.978607
18361		19.568926	-58.954138	82.065660
18362		20.620592	-58.764079	81.130556
18363		21.672023	-58.557338	80.186298
18364		22.709637	-58.336668	79.239435
18365		23.733906	-58.106029	78.296148
18366		24.746327	-57.861811	77.339891
18367		25.738382	-57.604834	76.370829
18368		26.727178	-57.342794	75.379569
18369		27.717924	-57.075190	74.381477
18370		28.712912	-56.807455	73.385253
18371		29.719029	-56.531151	72.383955
18372		30.705653	-56.252413	71.391524
18373		31.680734	-55.973759	70.411776
18374		32.639122	-55.695524	69.440425
18375		33.569156	-55.417636	68.490034
18376		34.476964	-55.136411	67.551204
18377		35.375527	-54.853584	66.641031
18378		36.288619	-54.570663	65.749289
18379		37.222888	-54.290894	64.880530
18380		38.169854	-54.007286	64.031181
18381		39.108562	-53.727548	63.205540
18382		40.000450	-53.450341	62.389863
18383		40.802236	-53.167170	61.597674
18384		41.527134	-52.884444	60.820045
18385		42.210973	-52.594494	60.072402
18386		42.903877	-52.300100	59.347461
18387		43.627585	-52.007243	58.654978
18388		44.393234	-51.714416	57.977853
18389		45.194264	-51.414455	57.320987
18390		46.020828	-51.104215	56.673058
18391		46.837985	-50.786957	56.039391
18392		47.628302	-50.458382	55.414260
18393		48.378258	-50.116388	54.807469
18394		49.102232	-49.778466	54.192722
18395		49.802094	-49.432665	53.583268
18396		50.486178	-49.085621	52.977511
18397		51.162695	-48.732010	52.383029
18398		51.837887	-48.377052	51.802069
18399		52.523952	-48.022326	51.236590
18400		53.236221	-47.664492	50.685914
18401		53.988141	-47.300752	50.150209
18402		54.771783	-46.935999	49.624904
18403		55.567557	-46.564774	49.121691
18404		56.369426	-46.183187	48.624737
18405		57.169585	-45.793269	48.135001
18406		57.940618	-45.395161	47.656823
18407		58.651320	-44.983537	47.217792
18408		59.312635	-44.566045	46.803636
18409		59.937282	-44.137363	46.422213
18410		60.544927	-43.709230	46.077774
18411		61.124351	-43.268259	45.802027
18412		61.676996	-42.819419	45.582105
18413		62.215095	-42.354229	45.417718
18414		62.716997	-41.872789	45.285823
18415		63.165538	-41.378622	45.178334
18416		63.545975	-40.874079	45.068907
18417		63.837627	-40.361398	44.956575
18418		64.061487	-39.847541	44.820617
18419		64.227403	-39.330559	44.664370
18420		64.354050	-38.806190	44.478229
18421		64.471119	-38.281141	44.287188
18422		64.600827	-37.763558	44.085728
18423		64.771230	-37.254555	43.887373
18424		65.022537	-36.753392	43.695534
18425		65.350063	-36.257119	43.524864
18426		65.752083	-35.764032	43.360722
18427		66.208993	-35.277080	43.206121
18428		66.710254	-34.793498	43.026775
18429		67.229226	-34.308188	42.835724
18430		67.744996	-33.823859	42.631830
18431		68.207083	-33.339139	42.424625
18432		68.607125	-32.859642	42.205100
18433		68.972660	-32.379470	41.983528
18434		69.296891	-31.902825	41.749873
18435		69.579307	-31.423705	41.518888
18436		69.842948	-30.943972	41.275144
18437		70.110254	-30.472648	41.019734
18438		70.397935	-30.007650	40.747587
18439		70.711977	-29.550432	40.473962
18440		71.049665	-29.098962	40.181548
18441		71.393701	-28.647163	39.888162
18442		71.750353	-28.198119	39.576754
18443		72.120099	-27.745130	39.275182
18444		72.510424	-27.294107	38.969645
18445		72.937755	-26.848009	38.661754
18446		73.401233	-26.402720	38.346412
18447		73.883361	-25.956860	38.040622
18448		74.365514	-25.509451	37.740016
18449		74.820711	-25.055358	37.459468
18450		75.250219	-24.601281	37.195272
18451		75.639919	-24.138668	36.949426
18452		76.012909	-23.669767	36.719980
18453		76.385896	-23.196747	36.499271
18454		76.768285	-22.723626	36.287575
18455		77.129243	-22.250741	36.086507
18456		77.441112	-21.772846	35.878443
18457		77.676618	-21.284710	35.671447
18458		77.842201	-20.790889	35.458256
18459		77.962340	-20.286195	35.242168
18460		78.069777	-19.774522	35.018654
18461		78.184243	-19.257177	34.792567
18462		78.310791	-18.738593	34.570668
18463		78.466955	-18.227229	34.352030
18464		78.670869	-17.720572	34.140525
18465		78.923168	-17.225412	33.931210
18466		79.208333	-16.746105	33.727672
18467		79.509846	-16.282617	33.534010
18468		79.816874	-15.838375	33.345852
18469		80.107955	-15.418568	33.165256
18470		80.368762	-15.024839	32.992687
18471		80.617431	-14.657176	32.826283
18472		80.866424	-14.318607	32.667358
18473		81.109958	-14.004541	32.526654
18474		81.351914	-13.716428	32.397083
18475		81.584971	-13.450242	32.284631
18476		81.801021	-13.206903	32.191707
18477		82.004679	-12.982965	32.114762
18478		82.210296	-12.778825	32.044652
18479		82.407653	-12.592893	31.980337
18480		82.601637	-12.420765	31.919728
18481		82.790988	-12.259656	31.859936
18482		82.952463	-12.107610	31.803789
18483		83.067774	-11.959819	31.749781
18484		83.139249	-11.811440	31.698837
18485		83.165990	-11.676612	31.641468
18486		83.140012	-11.543478	31.593463
18487		83.116108	-11.438187	31.540531
18488		83.109894	-11.384292	31.462505
18489		83.101967	-11.339467	31.401854
18490		83.097385	-11.301070	31.345718
18491		83.120503	-11.272114	31.293378
18492		83.181893	-11.248418	31.244391
18493		83.273201	-11.226093	31.198098
18494		83.385242	-11.211745	31.150582
18495		83.497587	-11.200730	31.102201
18496		83.603634	-11.194253	31.055203
18497		83.708557	-11.190875	31.007512
18498		83.811570	-11.195407	30.953162
18499		83.896391	-11.193655	30.907488
18500		83.978330	-11.189255	30.857027
18501		84.058505	-11.174249	30.810761
18502		84.131662	-11.149579	30.774454
18503		84.207476	-11.114101	30.727631
18504		84.318273	-11.060668	30.667639
18505		84.497614	-10.994426	30.586344
18506		84.748933	-10.926787	30.484330
18507		85.041941	-10.855116	30.372665
18508		85.352078	-10.792080	30.248903
18509		85.625264	-10.743859	30.128323
18510		85.851684	-10.714464	30.024135
18511		86.004042	-10.712058	29.923650
18512		85.836290	-10.709184	29.902415
18513		85.635421	-10.691568	29.942208
18514		85.432890	-10.675638	29.975802
18515		85.298520	-10.666216	29.980677
18516		85.239349	-10.645333	29.986200
18517		85.225996	-10.621609	29.978013
18518		85.232984	-10.606962	29.955856
18519		85.260423	-10.610252	29.929344
18520		85.324412	-10.622736	29.903879
18521		85.451591	-10.645999	29.875876
18522		85.610135	-10.674650	29.831028
18523		85.789327	-10.700330	29.787717
18524		85.974860	-10.726828	29.736954
18525		86.141274	-10.754188	29.689494
18526		86.283244	-10.781789	29.647190
18527		86.379678	-10.803089	29.619079
18528		86.417327	-10.813789	29.601026
18529		86.402581	-10.813671	29.597119
18530		86.348348	-10.805640	29.601768
18531		86.256222	-10.790801	29.611758
18532		86.134109	-10.770910	29.632546
18533		85.988083	-10.749712	29.656370
18534		85.852674	-10.730551	29.679324
18535		85.754221	-10.719993	29.701661
18536		85.695860	-10.718148	29.712867
18537		85.660637	-10.720434	29.718333
18538		85.644419	-10.722847	29.721014
18539		85.647700	-10.725782	29.713532
18540		85.673118	-10.729807	29.700515
18541		85.708062	-10.733467	29.688531
18542		85.747912	-10.737405	29.675948
18543		85.788196	-10.741271	29.662792
18544		85.816998	-10.743687	29.657152
18545		85.834131	-10.745398	29.653444
18546		85.838032	-10.747510	29.650967
18547		85.827640	-10.746989	29.653703
18548		85.810804	-10.747290	29.656313
18549		85.789397	-10.745769	29.662352
18550		85.777363	-10.748814	29.663098
18551		85.770013	-10.753903	29.661119
18552		85.767691	-10.757778	29.660094
18553		85.779741	-10.761392	29.654990
18554		85.797987	-10.767076	29.647569
18555		85.812574	-10.768962	29.643267
18556		85.831997	-10.772225	29.641843
18557		85.852060	-10.772790	29.637920
18558		85.871100	-10.771340	29.634482
18559		85.879355	-10.764051	29.633086
18560		85.885757	-10.762942	29.631636
18561		85.892232	-10.761114	29.630627
18562		85.897128	-10.756696	29.629810
18563		85.896213	-10.753331	29.633514
18564		85.898336	-10.752693	29.637468
18565		85.901961	-10.750996	29.645304
18566		85.910797	-10.752859	29.654802
18567		85.924921	-10.757288	29.661845
18568		85.933438	-10.760673	29.668491
18569		85.942827	-10.764448	29.673523
18570		85.944767	-10.767965	29.679186
18571		85.940710	-10.763650	29.685638
18572		85.929573	-10.758098	29.691910
18573		85.911189	-10.749195	29.699864
18574		85.877883	-10.742120	29.707755
18575		85.840864	-10.731655	29.713742
18576		85.806487	-10.724953	29.720798
18577		85.770791	-10.714670	29.725225
18578		85.745894	-10.703586	29.733451
18579		85.718586	-10.693428	29.741276
18580		85.697896	-10.683971	29.750993
18581		85.694319	-10.673484	29.762196
18582		85.699391	-10.663485	29.771956
18583		85.722724	-10.652619	29.780359
18584		85.774292	-10.643971	29.785150
18585		85.832702	-10.641152	29.786849
18586		85.905272	-10.642219	29.786863
18587		85.982865	-10.646777	29.785166
18588		86.062925	-10.652542	29.779974
18589		86.141177	-10.653571	29.775436
18590		86.204746	-10.651853	29.774102
18591		86.230132	-10.648574	29.776690
18592		86.233439	-10.639953	29.783794
18593		86.223651	-10.631228	29.796419
18594		86.211891	-10.621534	29.806435
18595		86.203473	-10.609344	29.810848
