// General information: 
//  MT Manager version: 2022.2.0 
//  XDA version: 2022.2.0 build 7381 rev 124627 built on 2023-07-19
// Device information: 
//  DeviceId: 00B447FD
//  ProductCode: MTW2-3A7G6
//  Firmware Version: 4.3.5
//  Hardware Version: 2.0.0
// Device settings: 
//  Filter Profile: human(46.1)
//  Option Flags: Orientation Smoother Disabled, Position/Velocity Smoother Disabled, Continuous Zero Rotation Update Disabled, AHS Disabled, ICC Disabled
// Coordinate system: ENU
PacketCounter	SampleTimeFine	Roll	Pitch	Yaw
15440		70.886852	-17.263079	-1.228893
15441		70.889542	-17.262914	-1.226946
15442		70.888635	-17.262005	-1.226220
15443		70.884709	-17.263322	-1.226113
15444		70.882748	-17.259410	-1.223295
15445		70.882388	-17.254538	-1.219957
15446		70.880461	-17.253666	-1.218072
15447		70.879926	-17.253279	-1.216228
15448		70.876664	-17.257870	-1.214112
15449		70.877561	-17.261722	-1.213338
15450		70.883647	-17.263284	-1.217119
15451		70.888339	-17.260162	-1.226510
15452		70.888052	-17.253734	-1.236091
15453		70.880276	-17.243967	-1.238248
15454		70.865783	-17.234011	-1.231395
15455		70.846643	-17.224768	-1.220443
15456		70.826028	-17.219787	-1.204687
15457		70.810740	-17.214944	-1.188829
15458		70.798857	-17.215430	-1.177728
15459		70.794970	-17.217724	-1.169054
15460		70.801526	-17.226095	-1.167496
15461		70.819881	-17.231359	-1.169633
15462		70.843999	-17.239514	-1.176045
15463		70.870297	-17.242296	-1.183358
15464		70.893021	-17.242651	-1.194668
15465		70.909659	-17.236764	-1.214551
15466		70.918724	-17.212394	-1.229887
15467		70.914221	-17.177259	-1.239546
15468		70.898777	-17.138768	-1.243205
15469		70.876036	-17.106883	-1.239800
15470		70.848965	-17.087757	-1.236127
15471		70.816433	-17.073714	-1.232089
15472		70.778358	-17.055279	-1.220225
15473		70.738662	-17.030863	-1.209958
15474		70.702536	-16.995376	-1.198638
15475		70.674101	-16.951771	-1.184064
15476		70.667899	-16.900857	-1.170054
15477		70.688973	-16.853917	-1.158224
15478		70.735426	-16.825275	-1.150791
15479		70.808862	-16.810429	-1.151090
15480		70.910128	-16.805502	-1.168945
15481		71.067485	-16.790637	-1.190242
15482		71.250363	-16.742066	-1.197538
15483		71.433079	-16.683459	-1.209025
15484		71.603877	-16.620448	-1.226852
15485		71.746009	-16.566245	-1.266871
15486		71.875461	-16.524028	-1.323943
15487		71.988483	-16.483225	-1.386317
15488		72.077390	-16.430318	-1.433467
15489		72.118620	-16.365873	-1.455008
15490		72.112141	-16.286360	-1.443271
15491		72.070590	-16.197854	-1.405016
15492		72.035211	-16.128555	-1.369833
15493		72.062508	-16.081642	-1.338920
15494		72.172683	-16.053870	-1.340949
15495		72.396185	-16.060672	-1.388429
15496		72.821170	-16.053263	-1.490902
15497		73.317971	-16.016856	-1.638989
15498		73.823696	-15.962461	-1.816515
15499		74.287321	-15.888012	-1.985152
15500		74.629457	-15.833018	-2.139035
15501		74.821328	-15.805593	-2.265572
15502		74.904993	-15.753341	-2.355497
15503		74.919306	-15.700007	-2.408778
15504		74.928857	-15.669520	-2.445618
15505		74.982465	-15.681239	-2.499414
15506		75.094097	-15.725664	-2.575992
15507		75.262720	-15.802745	-2.674181
15508		75.483355	-15.909620	-2.777875
15509		75.726551	-16.030247	-2.877296
15510		75.970003	-16.167074	-2.974385
15511		76.192931	-16.318338	-3.062762
15512		76.400196	-16.481399	-3.144692
15513		76.601604	-16.634241	-3.220525
15514		76.811820	-16.767115	-3.289513
15515		77.031130	-16.871112	-3.343682
15516		77.241132	-16.956331	-3.370365
15517		77.436512	-17.032887	-3.370643
15518		77.619284	-17.120735	-3.349293
15519		77.807824	-17.229695	-3.320092
15520		78.012573	-17.360545	-3.297156
15521		78.222553	-17.509646	-3.277866
15522		78.421530	-17.668897	-3.252467
15523		78.597593	-17.825590	-3.219848
15524		78.760664	-17.984553	-3.180909
15525		78.926424	-18.162512	-3.141815
15526		79.114287	-18.377987	-3.113261
15527		79.341243	-18.641632	-3.095364
15528		79.613016	-18.956606	-3.094128
15529		79.909387	-19.305240	-3.097306
15530		80.216572	-19.675047	-3.104417
15531		80.509241	-20.048125	-3.099482
15532		80.778614	-20.425013	-3.078522
15533		81.029926	-20.805969	-3.041755
15534		81.277548	-21.184845	-2.985180
15535		81.513358	-21.556792	-2.911479
15536		81.750183	-21.933500	-2.825006
15537		82.004368	-22.313849	-2.721340
15538		82.260908	-22.709774	-2.609668
15539		82.517043	-23.114331	-2.494607
15540		82.776600	-23.513756	-2.383064
15541		83.042874	-23.898922	-2.276644
15542		83.310324	-24.269514	-2.171745
15543		83.560452	-24.622262	-2.062478
15544		83.776341	-24.962227	-1.937218
15545		83.963554	-25.289012	-1.793295
15546		84.128369	-25.603692	-1.622729
15547		84.278424	-25.902369	-1.422532
15548		84.440941	-26.191072	-1.187105
15549		84.612077	-26.474801	-0.928502
15550		84.804712	-26.767202	-0.653036
15551		85.018645	-27.078751	-0.389482
15552		85.250082	-27.427967	-0.147793
15553		85.505853	-27.803959	0.064798
15554		85.749049	-28.191458	0.282128
15555		85.917643	-28.597175	0.511356
15556		85.997887	-29.033987	0.784041
15557		85.998723	-29.503782	1.088132
15558		85.930285	-30.005616	1.420390
15559		85.816470	-30.524104	1.753987
15560		85.692231	-31.045737	2.085667
15561		85.594287	-31.561068	2.381231
15562		85.551773	-32.088166	2.630522
15563		85.557476	-32.639461	2.828349
15564		85.600173	-33.227341	2.989961
15565		85.659444	-33.849723	3.121053
15566		85.724508	-34.500661	3.243644
15567		85.791913	-35.158142	3.360316
15568		85.835630	-35.814753	3.490396
15569		85.839518	-36.452653	3.652916
15570		85.814920	-37.085151	3.846250
15571		85.783030	-37.711435	4.049286
15572		85.763364	-38.345221	4.258023
15573		85.751066	-38.993523	4.473959
15574		85.724737	-39.656423	4.733536
15575		85.658100	-40.316038	5.054839
15576		85.534080	-40.948051	5.446448
15577		85.368168	-41.550831	5.879753
15578		85.195733	-42.142511	6.333370
15579		85.048168	-42.739572	6.769899
15580		84.934827	-43.359498	7.180780
15581		84.857579	-43.997865	7.552508
15582		84.797718	-44.647683	7.885976
15583		84.720432	-45.296669	8.199096
15584		84.599375	-45.934137	8.507931
15585		84.444583	-46.551650	8.821188
15586		84.280853	-47.152542	9.136588
15587		84.100541	-47.744685	9.452355
15588		83.908484	-48.340114	9.776607
15589		83.721246	-48.944636	10.084169
15590		83.558533	-49.565291	10.383429
15591		83.421695	-50.186836	10.675458
15592		83.305764	-50.804525	10.951090
15593		83.217755	-51.410297	11.204233
15594		83.142535	-52.010298	11.460407
15595		83.079010	-52.587563	11.723223
15596		83.010824	-53.124984	12.001022
15597		82.934526	-53.621483	12.283566
15598		82.852312	-54.096832	12.582522
15599		82.768181	-54.567681	12.895180
15600		82.700889	-55.041512	13.204844
15601		82.642514	-55.518981	13.497904
15602		82.572687	-55.994580	13.782221
15603		82.480485	-56.469015	14.052404
15604		82.357172	-56.934530	14.330023
15605		82.229699	-57.376658	14.588360
15606		82.108975	-57.783534	14.850190
15607		82.002262	-58.144510	15.110155
15608		81.922907	-58.457276	15.352848
15609		81.881847	-58.719189	15.561936
15610		81.865152	-58.946526	15.737641
15611		81.848237	-59.131079	15.888209
15612		81.827930	-59.282018	16.014883
15613		81.817324	-59.412697	16.113516
15614		81.827870	-59.548835	16.190328
15615		81.843639	-59.706002	16.269955
15616		81.856881	-59.879217	16.362642
15617		81.864383	-60.054556	16.455097
15618		81.837020	-60.211087	16.561930
15619		81.779677	-60.339176	16.658055
15620		81.696585	-60.452026	16.746611
15621		81.585118	-60.563096	16.831907
15622		81.428878	-60.690460	16.947343
15623		81.244127	-60.823054	17.122608
15624		81.067078	-60.937288	17.348894
15625		80.911381	-61.032216	17.612564
15626		80.792364	-61.113574	17.903522
15627		80.681741	-61.202064	18.227025
15628		80.542607	-61.288140	18.592567
15629		80.356831	-61.374469	18.963710
15630		80.144514	-61.476355	19.308330
15631		79.946547	-61.617182	19.600151
15632		79.777991	-61.812353	19.840271
15633		79.652414	-62.069212	20.011668
15634		79.549313	-62.389406	20.126016
15635		79.433730	-62.775628	20.197549
15636		79.298808	-63.230013	20.227651
15637		79.156185	-63.754593	20.182839
15638		79.069605	-64.374235	20.014014
15639		79.105852	-65.105589	19.690006
15640		79.274630	-65.963987	19.216753
15641		79.539243	-66.946294	18.629853
15642		79.855965	-68.049783	17.979060
15643		80.157334	-69.246675	17.331360
15644		80.372999	-70.511726	16.743865
15645		80.543531	-71.824252	16.146551
15646		80.702529	-73.168834	15.519437
15647		80.930453	-74.508415	14.779748
15648		81.327015	-75.805344	13.819412
15649		81.946812	-77.009764	12.581272
15650		82.823039	-78.095553	11.049717
15651		83.933900	-79.066773	9.278547
15652		85.259220	-79.945659	7.329990
15653		86.769388	-80.752099	5.281029
15654		88.543415	-81.523146	3.060575
15655		90.738801	-82.292341	0.514782
15656		93.747857	-83.084403	-2.739403
15657		98.466088	-83.908937	-7.606600
15658		105.584737	-84.692885	-14.787239
15659		115.457074	-85.324098	-24.720027
15660		127.870467	-85.714517	-37.232890
15661		141.185807	-85.832801	-50.677986
15662		153.479930	-85.731597	-63.137618
15663		163.963577	-85.484964	-73.796109
15664		172.855889	-85.160013	-82.837153
15665		-179.442484	-84.778432	-90.654228
15666		-172.446718	-84.333755	-97.709686
15667		-166.127636	-83.806526	-104.044161
15668		-160.544627	-83.207210	-109.631555
15669		-155.959259	-82.582016	-114.224328
15670		-152.365513	-81.976594	-117.842989
15671		-149.687652	-81.418524	-120.601897
15672		-147.643636	-80.933779	-122.778785
15673		-145.933199	-80.506349	-124.662118
15674		-144.311459	-80.113953	-126.510895
15675		-142.749339	-79.744884	-128.347324
15676		-141.169706	-79.382877	-130.218899
15677		-139.644831	-79.017259	-132.040219
15678		-138.278666	-78.631945	-133.687328
15679		-137.090357	-78.230821	-135.115586
15680		-136.046814	-77.809581	-136.358602
15681		-135.149781	-77.351717	-137.417031
15682		-134.337662	-76.844633	-138.325983
15683		-133.578499	-76.288741	-139.107153
15684		-132.923347	-75.697033	-139.730860
15685		-132.501432	-75.126568	-140.119359
15686		-132.276946	-74.635971	-140.354853
15687		-132.170541	-74.242101	-140.490972
15688		-132.076627	-73.930506	-140.577720
15689		-131.968823	-73.690045	-140.610975
15690		-131.806009	-73.501895	-140.627039
15691		-131.642205	-73.355610	-140.599564
15692		-131.448362	-73.243569	-140.571926
15693		-131.203821	-73.147909	-140.595493
15694		-130.872587	-73.054520	-140.735192
15695		-130.494060	-72.959587	-140.986964
15696		-130.142783	-72.838854	-141.304136
15697		-129.931151	-72.682706	-141.577838
15698		-129.912296	-72.497723	-141.742326
15699		-130.043633	-72.290903	-141.816208
15700		-130.247394	-72.082744	-141.834132
15701		-130.442580	-71.897757	-141.835293
15702		-130.585870	-71.756431	-141.834504
15703		-130.640493	-71.678576	-141.847105
15704		-130.600785	-71.676460	-141.882196
15705		-130.477123	-71.754532	-141.934805
15706		-130.292356	-71.882278	-141.998026
15707		-130.096626	-72.034836	-142.032301
15708		-129.938669	-72.201131	-141.996200
15709		-129.886919	-72.349481	-141.860277
15710		-129.960256	-72.463737	-141.632912
15711		-130.141278	-72.541794	-141.351989
15712		-130.377099	-72.589012	-141.091372
15713		-130.627597	-72.619256	-140.883853
15714		-130.856192	-72.644763	-140.759917
15715		-131.023119	-72.678903	-140.719653
15716		-131.153035	-72.730438	-140.720877
15717		-131.261106	-72.813504	-140.723947
15718		-131.372046	-72.926958	-140.705781
15719		-131.483767	-73.059443	-140.664533
15720		-131.636803	-73.204132	-140.558752
15721		-131.869015	-73.359477	-140.363940
15722		-132.193451	-73.518616	-140.068820
15723		-132.677486	-73.686288	-139.616564
15724		-133.294393	-73.868696	-139.034743
15725		-134.027893	-74.072757	-138.324408
15726		-134.852026	-74.308562	-137.469775
15727		-135.759726	-74.590202	-136.454774
15728		-136.749840	-74.928986	-135.285973
15729		-137.866619	-75.331033	-133.951721
15730		-139.201387	-75.788567	-132.406266
15731		-140.795664	-76.285744	-130.629931
15732		-142.638562	-76.801913	-128.638057
15733		-144.738878	-77.302665	-126.424236
15734		-147.062499	-77.763414	-124.023328
15735		-149.541680	-78.173453	-121.495161
15736		-152.066777	-78.532459	-118.942375
15737		-154.544542	-78.842317	-116.432910
15738		-156.966057	-79.115036	-113.965250
15739		-159.401945	-79.357430	-111.489530
15740		-161.923865	-79.581931	-108.953653
15741		-164.578259	-79.788491	-106.323429
15742		-167.299724	-79.979491	-103.662249
15743		-170.058178	-80.159852	-101.001480
15744		-172.839908	-80.318110	-98.346654
15745		-175.620543	-80.430905	-95.708406
15746		-178.335107	-80.478801	-93.142083
15747		179.005750	-80.464910	-90.611556
15748		176.484100	-80.413208	-88.184445
15749		174.085372	-80.345332	-85.854825
15750		171.717749	-80.271946	-83.544305
15751		169.299889	-80.202593	-81.173870
15752		166.727581	-80.141158	-78.651034
15753		163.977754	-80.085249	-75.943426
15754		161.128464	-80.021144	-73.123617
15755		158.229537	-79.931648	-70.246992
15756		155.304684	-79.805389	-67.356571
15757		152.441502	-79.633265	-64.545227
15758		149.741113	-79.415865	-61.904350
15759		147.228911	-79.160588	-59.454464
15760		144.863551	-78.873881	-57.144106
15761		142.557831	-78.567918	-54.893800
15762		140.348513	-78.239885	-52.730368
15763		138.152454	-77.895090	-50.573292
15764		135.957038	-77.531079	-48.421190
15765		133.764536	-77.142740	-46.276246
15766		131.595112	-76.726703	-44.158429
15767		129.541590	-76.274433	-42.139003
15768		127.714232	-75.779375	-40.319859
15769		126.149736	-75.247747	-38.739103
15770		124.784942	-74.690638	-37.336314
15771		123.499074	-74.121731	-36.016577
15772		122.149602	-73.545496	-34.660923
15773		120.692292	-72.969168	-33.230570
15774		119.157375	-72.396150	-31.740785
15775		117.614427	-71.818054	-30.250417
15776		116.138336	-71.223232	-28.839812
15777		114.752157	-70.604557	-27.522276
15778		113.486187	-69.961069	-26.332949
15779		112.272531	-69.299930	-25.213896
15780		111.082342	-68.624597	-24.152257
15781		109.907790	-67.948127	-23.140313
15782		108.738671	-67.275226	-22.149059
15783		107.580263	-66.603692	-21.188959
15784		106.471822	-65.927172	-20.286330
15785		105.445102	-65.231257	-19.459677
15786		104.532914	-64.499917	-18.740410
15787		103.821323	-63.745399	-18.185879
15788		103.324157	-62.977798	-17.801244
15789		102.978146	-62.201306	-17.527942
15790		102.653089	-61.410993	-17.249856
15791		102.227736	-60.595634	-16.873950
15792		101.709026	-59.753110	-16.394391
15793		101.145773	-58.887337	-15.873392
15794		100.597529	-58.019689	-15.364601
15795		100.152149	-57.159955	-14.955724
15796		99.836347	-56.317657	-14.672848
15797		99.668084	-55.503111	-14.517106
15798		99.593516	-54.720593	-14.441786
15799		99.553451	-53.961741	-14.407768
15800		99.451094	-53.209308	-14.340807
15801		99.227959	-52.464971	-14.201585
15802		98.865342	-51.738132	-13.936787
15803		98.365490	-51.038082	-13.543031
15804		97.776009	-50.362221	-13.050396
15805		97.184739	-49.699586	-12.529253
15806		96.699489	-49.052824	-12.075735
15807		96.341486	-48.419050	-11.750143
15808		96.100801	-47.801663	-11.543889
15809		95.921038	-47.218253	-11.417993
15810		95.762281	-46.685081	-11.326939
15811		95.580839	-46.197878	-11.234821
15812		95.361733	-45.739953	-11.123549
15813		95.097263	-45.288410	-10.996893
15814		94.784714	-44.823644	-10.835901
15815		94.462599	-44.358073	-10.670444
15816		94.137437	-43.907918	-10.501076
15817		93.792128	-43.471260	-10.328549
15818		93.439478	-43.049041	-10.151155
15819		93.074966	-42.636570	-9.959387
15820		92.694228	-42.206025	-9.735437
15821		92.292635	-41.723585	-9.499368
15822		91.870903	-41.192770	-9.270519
15823		91.450823	-40.628935	-9.069221
15824		91.037182	-40.042637	-8.903714
15825		90.648470	-39.454410	-8.800994
15826		90.310451	-38.882901	-8.759254
15827		90.022774	-38.289647	-8.759668
15828		89.777235	-37.644008	-8.762400
15829		89.597090	-36.925675	-8.751603
15830		89.514360	-36.122604	-8.707399
15831		89.527601	-35.243763	-8.636745
15832		89.608138	-34.310817	-8.556004
15833		89.701250	-33.358561	-8.499033
15834		89.754540	-32.426283	-8.487178
15835		89.733104	-31.546131	-8.538539
15836		89.628008	-30.752138	-8.654805
15837		89.447102	-30.056078	-8.811643
15838		89.190179	-29.461676	-8.970356
15839		88.825484	-28.938025	-9.080431
15840		88.364907	-28.444572	-9.121542
15841		87.848718	-27.958141	-9.087449
15842		87.306072	-27.461392	-9.003053
15843		86.793545	-26.974192	-8.919628
15844		86.331433	-26.531027	-8.881799
15845		85.915499	-26.155382	-8.902278
15846		85.540856	-25.841393	-8.972986
15847		85.202757	-25.556338	-9.061842
15848		84.900682	-25.265167	-9.132979
15849		84.660812	-24.953697	-9.183608
15850		84.498164	-24.623008	-9.219119
15851		84.388953	-24.263555	-9.250247
15852		84.301344	-23.867026	-9.279594
15853		84.174817	-23.443711	-9.302366
15854		84.014952	-23.014652	-9.313243
15855		83.855195	-22.573635	-9.307319
15856		83.729088	-22.120848	-9.285497
15857		83.655571	-21.647192	-9.240233
15858		83.649375	-21.153800	-9.175828
15859		83.733636	-20.647239	-9.098708
15860		83.868556	-20.174534	-9.015861
15861		83.993096	-19.762540	-8.923130
15862		84.034657	-19.433628	-8.816106
15863		83.949718	-19.172418	-8.696841
15864		83.710576	-18.934146	-8.564682
15865		83.306136	-18.657635	-8.433191
15866		82.857008	-18.325815	-8.312421
15867		82.548036	-17.950780	-8.225674
15868		82.403724	-17.559401	-8.184129
15869		82.447773	-17.160997	-8.203159
15870		82.570720	-16.741179	-8.240748
15871		82.559005	-16.371795	-8.286929
15872		82.522043	-16.195000	-8.394028
15873		82.665556	-16.165454	-8.516856
15874		82.848745	-16.247837	-8.678494
15875		82.962594	-16.316632	-8.828557
15876		82.988434	-16.357506	-8.931587
15877		82.966100	-16.373134	-8.964151
15878		82.915225	-16.386155	-8.941482
15879		82.859901	-16.410831	-8.881802
15880		82.803738	-16.455768	-8.806946
15881		82.745817	-16.520782	-8.735509
15882		82.677907	-16.588714	-8.681015
15883		82.607074	-16.656503	-8.660915
15884		82.556565	-16.719996	-8.674422
15885		82.534943	-16.772526	-8.708201
15886		82.546791	-16.814675	-8.744368
15887		82.588229	-16.839764	-8.778936
15888		82.647778	-16.849945	-8.813254
15889		82.711427	-16.847746	-8.854119
15890		82.760941	-16.830402	-8.890087
15891		82.783973	-16.807323	-8.919353
15892		82.785563	-16.779576	-8.924996
15893		82.767953	-16.749881	-8.909598
15894		82.731451	-16.727276	-8.885079
15895		82.666143	-16.713338	-8.856696
15896		82.570785	-16.712544	-8.830650
15897		82.444594	-16.718549	-8.805500
15898		82.300059	-16.719539	-8.769476
15899		82.127679	-16.718875	-8.723814
15900		81.927828	-16.713353	-8.660176
15901		81.720190	-16.694333	-8.576429
15902		81.531913	-16.672873	-8.479326
15903		81.390849	-16.664608	-8.389492
15904		81.315896	-16.675212	-8.332582
15905		81.299621	-16.701002	-8.319877
15906		81.335001	-16.721508	-8.338699
15907		81.407611	-16.730256	-8.377434
15908		81.502113	-16.726841	-8.415731
15909		81.604842	-16.714602	-8.450936
15910		81.703470	-16.700013	-8.479527
15911		81.786359	-16.688201	-8.499934
15912		81.848023	-16.680838	-8.507619
15913		81.892599	-16.679462	-8.497589
15914		81.926553	-16.689167	-8.474642
15915		81.951000	-16.708816	-8.444012
15916		81.970456	-16.731757	-8.407302
15917		81.981637	-16.758437	-8.369808
15918		81.983616	-16.786188	-8.336835
15919		81.972545	-16.809681	-8.311155
15920		81.955231	-16.825734	-8.297207
15921		81.934172	-16.833780	-8.292004
15922		81.913473	-16.833270	-8.292752
15923		81.893614	-16.819766	-8.296614
15924		81.867271	-16.802598	-8.301652
15925		81.835099	-16.789163	-8.309015
15926		81.798206	-16.781865	-8.311546
15927		81.760408	-16.781748	-8.303291
15928		81.727327	-16.788234	-8.287908
15929		81.693471	-16.791851	-8.259594
15930		81.660433	-16.792995	-8.223586
15931		81.628461	-16.789772	-8.184678
15932		81.603737	-16.786334	-8.143754
15933		81.590204	-16.786715	-8.115200
15934		81.586740	-16.791734	-8.098161
15935		81.595166	-16.796346	-8.093889
15936		81.611817	-16.794974	-8.097449
15937		81.629221	-16.786333	-8.102722
15938		81.646578	-16.778503	-8.107820
15939		81.660997	-16.771731	-8.109296
15940		81.672519	-16.768558	-8.104780
15941		81.675116	-16.763583	-8.092518
15942		81.670349	-16.762623	-8.080750
15943		81.662208	-16.757765	-8.072582
15944		81.652850	-16.754146	-8.064598
15945		81.645007	-16.746727	-8.054697
15946		81.630802	-16.739796	-8.042211
15947		81.608271	-16.726989	-8.023822
15948		81.573533	-16.713790	-7.996115
15949		81.527064	-16.702597	-7.960158
15950		81.471376	-16.694598	-7.915772
15951		81.415820	-16.683561	-7.872736
15952		81.368584	-16.676192	-7.830856
15953		81.337662	-16.665019	-7.786709
15954		81.321735	-16.658374	-7.752981
15955		81.328173	-16.655042	-7.729115
15956		81.349907	-16.654801	-7.713368
15957		81.393369	-16.647925	-7.696959
15958		81.460060	-16.638011	-7.683364
15959		81.539995	-16.619536	-7.678864
15960		81.626128	-16.591126	-7.682286
15961		81.704015	-16.549920	-7.699384
15962		81.766506	-16.490396	-7.720990
15963		81.815659	-16.415192	-7.742860
15964		81.858015	-16.333273	-7.758642
15965		81.903580	-16.248862	-7.760626
15966		81.950127	-16.169393	-7.749319
15967		82.000606	-16.102972	-7.726073
15968		82.068436	-16.046822	-7.697104
15969		82.151879	-15.990088	-7.665770
15970		82.246255	-15.936570	-7.641479
15971		82.336176	-15.882961	-7.619345
15972		82.407722	-15.831305	-7.604486
15973		82.466488	-15.778609	-7.593854
15974		82.530692	-15.720159	-7.584674
15975		82.621144	-15.654297	-7.578028
15976		82.743349	-15.587627	-7.577837
15977		82.907145	-15.515698	-7.582116
15978		83.094959	-15.446618	-7.591883
15979		83.279709	-15.375403	-7.600776
15980		83.444989	-15.306521	-7.611389
15981		83.576133	-15.241136	-7.625274
15982		83.678306	-15.185374	-7.645693
15983		83.751091	-15.140093	-7.668067
15984		83.799801	-15.107476	-7.681587
15985		83.843774	-15.086288	-7.694903
15986		83.887718	-15.074700	-7.703649
15987		83.932603	-15.067058	-7.708456
15988		83.978046	-15.060562	-7.706684
15989		84.018672	-15.051734	-7.697104
15990		84.048935	-15.038886	-7.683642
15991		84.065658	-15.023799	-7.677195
15992		84.069300	-15.012838	-7.687463
15993		84.068175	-15.014396	-7.721607
15994		84.088166	-15.029232	-7.763744
15995		84.128509	-15.053179	-7.810426
15996		84.185985	-15.079923	-7.852196
15997		84.256924	-15.106987	-7.886370
15998		84.332745	-15.135939	-7.914152
15999		84.417683	-15.167616	-7.938452
16000		84.518300	-15.205042	-7.960087
16001		84.620602	-15.256266	-7.982838
16002		84.718309	-15.331906	-8.008119
16003		84.792345	-15.422952	-8.033397
16004		84.842961	-15.531166	-8.057746
16005		84.884029	-15.655700	-8.076739
16006		84.927633	-15.792118	-8.087290
16007		84.980699	-15.936610	-8.090256
16008		85.048690	-16.091398	-8.085921
16009		85.140651	-16.245213	-8.079094
16010		85.264205	-16.413451	-8.081408
16011		85.406321	-16.596570	-8.092681
16012		85.551976	-16.790902	-8.102580
16013		85.695674	-16.994524	-8.106426
16014		85.832945	-17.203526	-8.095307
16015		85.965201	-17.410834	-8.067565
16016		86.090027	-17.618058	-8.023439
16017		86.214225	-17.829374	-7.970474
16018		86.340990	-18.050360	-7.924378
16019		86.475664	-18.294326	-7.883406
16020		86.620961	-18.562564	-7.846660
16021		86.767593	-18.849576	-7.811889
16022		86.908348	-19.146904	-7.774994
16023		87.035970	-19.440793	-7.730682
16024		87.145473	-19.725089	-7.678280
16025		87.246152	-20.010897	-7.622314
16026		87.349409	-20.301985	-7.560290
16027		87.467816	-20.602914	-7.502936
16028		87.595383	-20.910121	-7.448997
16029		87.733125	-21.225180	-7.403588
16030		87.880457	-21.547190	-7.356676
16031		88.025906	-21.876784	-7.308372
16032		88.172820	-22.209889	-7.257078
16033		88.330770	-22.535569	-7.200802
16034		88.495732	-22.858578	-7.146460
16035		88.666148	-23.170762	-7.090489
16036		88.844538	-23.484599	-7.038386
16037		89.021725	-23.798784	-6.990020
16038		89.182955	-24.116590	-6.940112
16039		89.322637	-24.441694	-6.889916
16040		89.436229	-24.780280	-6.840847
16041		89.525015	-25.132405	-6.793949
16042		89.606662	-25.496107	-6.754447
16043		89.702153	-25.870412	-6.709372
16044		89.802330	-26.249080	-6.658559
16045		89.902426	-26.629290	-6.603335
16046		90.004363	-27.010131	-6.547428
16047		90.106983	-27.388877	-6.505673
16048		90.209782	-27.763752	-6.468993
16049		90.318175	-28.136283	-6.450374
16050		90.441484	-28.498576	-6.442037
16051		90.566592	-28.847572	-6.448866
16052		90.684629	-29.172840	-6.456750
16053		90.798339	-29.473705	-6.471992
16054		90.914265	-29.763391	-6.481043
16055		91.015912	-30.041386	-6.487081
16056		91.111223	-30.321314	-6.463121
16057		91.202027	-30.606451	-6.415437
16058		91.298397	-30.900135	-6.334284
16059		91.415501	-31.206386	-6.238507
16060		91.540803	-31.523750	-6.129104
16061		91.673096	-31.849150	-6.024031
16062		91.797379	-32.169541	-5.928557
16063		91.904964	-32.482672	-5.860705
16064		92.001021	-32.791981	-5.808326
16065		92.071210	-33.087914	-5.776026
16066		92.122581	-33.373208	-5.752764
16067		92.160663	-33.636787	-5.730473
16068		92.203125	-33.886716	-5.689032
16069		92.271655	-34.138937	-5.638076
16070		92.387319	-34.402734	-5.583040
16071		92.546175	-34.673678	-5.542013
16072		92.720302	-34.950015	-5.499454
16073		92.904983	-35.234610	-5.456335
16074		93.082445	-35.525530	-5.397520
16075		93.237961	-35.823230	-5.321408
16076		93.354127	-36.120631	-5.218060
16077		93.428281	-36.409926	-5.088797
16078		93.464494	-36.690256	-4.936717
16079		93.467659	-36.955560	-4.789840
16080		93.442766	-37.201953	-4.657885
16081		93.406941	-37.428321	-4.553175
16082		93.383079	-37.651588	-4.473942
16083		93.380563	-37.877401	-4.407341
16084		93.401191	-38.107261	-4.328400
16085		93.444918	-38.336662	-4.244990
16086		93.513245	-38.568691	-4.141404
16087		93.599984	-38.801040	-4.021565
16088		93.695740	-39.037624	-3.902648
16089		93.797553	-39.283607	-3.784577
16090		93.892446	-39.536611	-3.667024
16091		93.977019	-39.805686	-3.563631
16092		94.063455	-40.092039	-3.475082
16093		94.158124	-40.395951	-3.409710
16094		94.254878	-40.712599	-3.357738
16095		94.338912	-41.019591	-3.333566
16096		94.405770	-41.299293	-3.339980
16097		94.464857	-41.554092	-3.376470
16098		94.519853	-41.801910	-3.430429
16099		94.573646	-42.049908	-3.482453
16100		94.628452	-42.308144	-3.505361
16101		94.682589	-42.573006	-3.495909
16102		94.748986	-42.844034	-3.450975
16103		94.814379	-43.110269	-3.384368
16104		94.882593	-43.370059	-3.297897
16105		94.958834	-43.624743	-3.194007
16106		95.052462	-43.896321	-3.079593
16107		95.176676	-44.200855	-2.966625
16108		95.323406	-44.551519	-2.865205
16109		95.487984	-44.941258	-2.792105
16110		95.641565	-45.352548	-2.739351
16111		95.761500	-45.775535	-2.699240
16112		95.853264	-46.220973	-2.669192
16113		95.937936	-46.689258	-2.654699
16114		96.013162	-47.171673	-2.650049
16115		96.092209	-47.674087	-2.659531
16116		96.165836	-48.191256	-2.667912
16117		96.214331	-48.712855	-2.673088
16118		96.251963	-49.242374	-2.674332
16119		96.301230	-49.780026	-2.684664
16120		96.381294	-50.324332	-2.707025
16121		96.496308	-50.855581	-2.751575
16122		96.644414	-51.351653	-2.818344
16123		96.830301	-51.811572	-2.908013
16124		97.019520	-52.241555	-2.984474
16125		97.213983	-52.660662	-3.055274
16126		97.411974	-53.087158	-3.111235
16127		97.618378	-53.528651	-3.165826
16128		97.844994	-53.995103	-3.235396
16129		98.080377	-54.488527	-3.314826
16130		98.305795	-55.003875	-3.409814
16131		98.512666	-55.530029	-3.522689
16132		98.700786	-56.070620	-3.639879
16133		98.864868	-56.616396	-3.750788
16134		99.005906	-57.161170	-3.851516
16135		99.147535	-57.694102	-3.957822
16136		99.280335	-58.205225	-4.044773
16137		99.404675	-58.686267	-4.114704
16138		99.510608	-59.147284	-4.144381
16139		99.598184	-59.597939	-4.135264
16140		99.679057	-60.048714	-4.111354
16141		99.762010	-60.493462	-4.083153
16142		99.845126	-60.935493	-4.051242
16143		99.962614	-61.367310	-4.052172
16144		100.136792	-61.791432	-4.102132
16145		100.368735	-62.211335	-4.202779
16146		100.627291	-62.629342	-4.320193
16147		100.894576	-63.043973	-4.439806
16148		101.142097	-63.448880	-4.532540
16149		101.339112	-63.829879	-4.577396
16150		101.506514	-64.190512	-4.601949
16151		101.643389	-64.545208	-4.591025
16152		101.756077	-64.906580	-4.559018
16153		101.852388	-65.272270	-4.516986
16154		101.931364	-65.634189	-4.469178
16155		102.017675	-65.985504	-4.449096
16156		102.078276	-66.318520	-4.425853
16157		102.107825	-66.621673	-4.387837
16158		102.075227	-66.898298	-4.299523
16159		102.015688	-67.142417	-4.185194
16160		101.963024	-67.353796	-4.068771
16161		101.934473	-67.534043	-3.970240
16162		101.928511	-67.692656	-3.880650
16163		101.913107	-67.842685	-3.786303
16164		101.868056	-67.996951	-3.674483
16165		101.768578	-68.149323	-3.516144
16166		101.632275	-68.291512	-3.335078
16167		101.502439	-68.415554	-3.163107
16168		101.402917	-68.517806	-3.028651
16169		101.373810	-68.604009	-2.970639
16170		101.393358	-68.686938	-2.967115
16171		101.459930	-68.770377	-3.032635
16172		101.543799	-68.868818	-3.139067
16173		101.622352	-68.987291	-3.269356
16174		101.675420	-69.122357	-3.411629
16175		101.714478	-69.281437	-3.557212
16176		101.728825	-69.459851	-3.694513
16177		101.714618	-69.642076	-3.815090
16178		101.680498	-69.816856	-3.940234
16179		101.639782	-69.992307	-4.066582
16180		101.632550	-70.184857	-4.225148
16181		101.692641	-70.401982	-4.446329
16182		101.847919	-70.651993	-4.750742
16183		102.124426	-70.944596	-5.163628
16184		102.499160	-71.287732	-5.672751
16185		102.980102	-71.680818	-6.296568
16186		103.564473	-72.136590	-7.023261
16187		104.233317	-72.645360	-7.838322
16188		105.009808	-73.211885	-8.761776
16189		105.891643	-73.818132	-9.793525
16190		106.806017	-74.437645	-10.921369
16191		107.785405	-75.070564	-12.173696
16192		108.851109	-75.728263	-13.537806
16193		109.967994	-76.405852	-14.991762
16194		111.205298	-77.087892	-16.617226
16195		112.710649	-77.778120	-18.525901
16196		114.561341	-78.484470	-20.791383
16197		116.912967	-79.213267	-23.588197
16198		120.177644	-79.984690	-27.287935
16199		124.686577	-80.796133	-32.174015
16200		130.660299	-81.604513	-38.519759
16201		138.280393	-82.322710	-46.540834
16202		147.384523	-82.863922	-56.050060
16203		157.290764	-83.175593	-66.394529
16204		167.211707	-83.250589	-76.741114
16205		176.440107	-83.118761	-86.324677
16206		-175.724387	-82.833298	-94.486197
16207		-169.410916	-82.441000	-101.110927
16208		-164.318090	-81.972427	-106.477019
16209		-160.084612	-81.452518	-110.908680
16210		-156.422257	-80.898632	-114.669935
16211		-153.241391	-80.315232	-117.880505
16212		-150.507965	-79.721324	-120.593858
16213		-148.196951	-79.147142	-122.868782
16214		-146.267199	-78.611755	-124.753704
16215		-144.662209	-78.145750	-126.281826
16216		-143.341679	-77.779396	-127.489552
16217		-142.272227	-77.473731	-128.399766
16218		-141.380281	-77.188431	-129.087488
16219		-140.576613	-76.895941	-129.640001
16220		-139.863437	-76.569810	-130.110999
16221		-139.207982	-76.204324	-130.577511
16222		-138.537361	-75.805770	-131.144189
16223		-137.787258	-75.385452	-131.858831
16224		-136.971923	-74.954205	-132.694073
16225		-136.116052	-74.522396	-133.602855
16226		-135.240055	-74.106233	-134.545129
16227		-134.347341	-73.708138	-135.514326
16228		-133.471720	-73.291449	-136.469034
16229		-132.693610	-72.821104	-137.314490
16230		-132.007841	-72.326341	-138.033760
16231		-131.445270	-71.834453	-138.616540
16232		-130.995440	-71.372727	-139.101001
16233		-130.625231	-70.990094	-139.521683
16234		-130.311499	-70.707771	-139.908471
16235		-130.039477	-70.519588	-140.251599
16236		-129.760710	-70.427574	-140.564424
16237		-129.482647	-70.402790	-140.835294
16238		-129.194507	-70.420031	-141.057216
16239		-128.885574	-70.458848	-141.246613
16240		-128.631011	-70.492630	-141.373879
16241		-128.490326	-70.491136	-141.418325
16242		-128.475014	-70.455811	-141.393582
16243		-128.531575	-70.406227	-141.333772
16244		-128.586784	-70.349978	-141.293204
16245		-128.616213	-70.298125	-141.302187
16246		-128.600921	-70.271809	-141.358695
16247		-128.531792	-70.284842	-141.466578
16248		-128.433489	-70.334670	-141.605092
16249		-128.294178	-70.423255	-141.758967
16250		-128.139099	-70.537054	-141.904960
16251		-128.017726	-70.645813	-142.009343
16252		-127.960391	-70.738451	-142.053893
16253		-127.963706	-70.812942	-142.040425
16254		-128.014777	-70.873210	-141.988908
16255		-128.112614	-70.924727	-141.906930
16256		-128.239842	-70.974591	-141.801591
16257		-128.394201	-71.022961	-141.676383
16258		-128.562106	-71.081502	-141.555200
16259		-128.753071	-71.153481	-141.424542
16260		-128.962203	-71.251285	-141.283070
16261		-129.179460	-71.374934	-141.123418
16262		-129.402428	-71.523059	-140.932366
16263		-129.634221	-71.690712	-140.709877
16264		-129.912967	-71.877070	-140.435350
16265		-130.242288	-72.083536	-140.110525
16266		-130.603240	-72.311159	-139.753593
16267		-131.024837	-72.556698	-139.342005
16268		-131.521060	-72.825886	-138.831238
16269		-132.101543	-73.120427	-138.208675
16270		-132.774297	-73.442508	-137.473007
16271		-133.578275	-73.780335	-136.598389
16272		-134.509796	-74.132448	-135.590258
16273		-135.542315	-74.487357	-134.468081
16274		-136.596487	-74.855737	-133.302301
16275		-137.689975	-75.220125	-132.093958
16276		-138.802762	-75.581330	-130.850354
16277		-139.948381	-75.941907	-129.566059
16278		-141.213733	-76.304244	-128.187535
16279		-142.659894	-76.660816	-126.675370
16280		-144.291604	-77.011916	-125.008036
16281		-146.099242	-77.355194	-123.181278
16282		-148.077025	-77.690026	-121.196422
16283		-150.176306	-78.017286	-119.089479
16284		-152.373685	-78.348175	-116.885176
16285		-154.714111	-78.664686	-114.556728
16286		-157.210546	-78.963519	-112.091504
16287		-159.845879	-79.249599	-109.490516
16288		-162.580587	-79.526967	-106.785621
16289		-165.407637	-79.788082	-103.987310
16290		-168.325536	-80.038142	-101.107004
16291		-171.364496	-80.269542	-98.109040
16292		-174.567875	-80.472895	-94.954600
16293		-178.036266	-80.632765	-91.533658
16294		178.248112	-80.725236	-87.861412
16295		174.379710	-80.738025	-84.033208
16296		170.472208	-80.671974	-80.157325
16297		166.657167	-80.545254	-76.366617
16298		162.910259	-80.380101	-72.636392
16299		159.246099	-80.180881	-68.963346
16300		155.672550	-79.949478	-65.343974
16301		152.229903	-79.685182	-61.829164
16302		148.970321	-79.391789	-58.474229
16303		145.908258	-79.075686	-55.321470
16304		142.963336	-78.748140	-52.307895
16305		140.112518	-78.408657	-49.425199
16306		137.359550	-78.048048	-46.664454
16307		134.744070	-77.665185	-44.050277
16308		132.226906	-77.254414	-41.535058
16309		129.778994	-76.801200	-39.104049
16310		127.392323	-76.296353	-36.743929
16311		125.082916	-75.735113	-34.462174
16312		122.808139	-75.103663	-32.206933
16313		120.675130	-74.401325	-30.075715
16314		118.756013	-73.644291	-28.112879
16315		117.119063	-72.843041	-26.392870
16316		115.717017	-72.025088	-24.883572
16317		114.457737	-71.207793	-23.518077
16318		113.255401	-70.405934	-22.233659
16319		112.057048	-69.614183	-20.983707
16320		110.869620	-68.816880	-19.771936
16321		109.752086	-68.021000	-18.660798
16322		108.768719	-67.221645	-17.706361
16323		107.889015	-66.431648	-16.883410
16324		107.070735	-65.657850	-16.155335
16325		106.288365	-64.901688	-15.498520
16326		105.498732	-64.155608	-14.876866
16327		104.704554	-63.424016	-14.290046
16328		103.910504	-62.702659	-13.732161
16329		103.145664	-61.972817	-13.193405
16330		102.432634	-61.220059	-12.656639
16331		101.822638	-60.438786	-12.150168
16332		101.315208	-59.615038	-11.697370
16333		100.868979	-58.751051	-11.299899
16334		100.483080	-57.856039	-10.970694
16335		100.161239	-56.947763	-10.710747
16336		99.913407	-56.043900	-10.497274
16337		99.723320	-55.144262	-10.309055
16338		99.564050	-54.242223	-10.134146
16339		99.424768	-53.336232	-9.983208
16340		99.294709	-52.431873	-9.855247
16341		99.153747	-51.545067	-9.751376
16342		98.993033	-50.675983	-9.653428
16343		98.809737	-49.828981	-9.549959
16344		98.612689	-49.006373	-9.426901
16345		98.408440	-48.215729	-9.299916
16346		98.195419	-47.446902	-9.178613
16347		97.954083	-46.703425	-9.056490
16348		97.675764	-45.996449	-8.937398
16349		97.364132	-45.338308	-8.818114
16350		97.002389	-44.726686	-8.678429
16351		96.589431	-44.157920	-8.518767
16352		96.153570	-43.613561	-8.345551
16353		95.720781	-43.080740	-8.159927
16354		95.321183	-42.548694	-7.971483
16355		94.963546	-42.034091	-7.809546
16356		94.663727	-41.542322	-7.685194
16357		94.407283	-41.074844	-7.615587
16358		94.163700	-40.611009	-7.586452
16359		93.923647	-40.147007	-7.583174
16360		93.695612	-39.679281	-7.572581
16361		93.477643	-39.216010	-7.568805
16362		93.272636	-38.773741	-7.556413
16363		93.060327	-38.348504	-7.539053
16364		92.831409	-37.946235	-7.508238
16365		92.605050	-37.578371	-7.477606
16366		92.382347	-37.246095	-7.453813
16367		92.147170	-36.935411	-7.441296
16368		91.881780	-36.630223	-7.414397
16369		91.604555	-36.306318	-7.367233
16370		91.300296	-35.956930	-7.278805
16371		91.002687	-35.586295	-7.161031
16372		90.709416	-35.198667	-7.018614
16373		90.415459	-34.805394	-6.858371
16374		90.130753	-34.410193	-6.684419
16375		89.855195	-34.000596	-6.507888
16376		89.584304	-33.574480	-6.351166
16377		89.330404	-33.136733	-6.233320
16378		89.096225	-32.691417	-6.163920
16379		88.890522	-32.259112	-6.139045
16380		88.716167	-31.842869	-6.132235
16381		88.565096	-31.448535	-6.135340
16382		88.434717	-31.075346	-6.125922
16383		88.311824	-30.713855	-6.097114
16384		88.178855	-30.355262	-6.043782
16385		88.024703	-30.001213	-5.977619
16386		87.865264	-29.637820	-5.906058
16387		87.732780	-29.274777	-5.843326
16388		87.639430	-28.913637	-5.794401
16389		87.575441	-28.552033	-5.760941
16390		87.513301	-28.200632	-5.741105
16391		87.435355	-27.860616	-5.720953
16392		87.318734	-27.529261	-5.686481
16393		87.180923	-27.209466	-5.645161
16394		87.028763	-26.899331	-5.590955
16395		86.884156	-26.597612	-5.539298
16396		86.770094	-26.321806	-5.494478
16397		86.694112	-26.085730	-5.469031
16398		86.629059	-25.875912	-5.463805
16399		86.556015	-25.673487	-5.467005
16400		86.472868	-25.474817	-5.468321
16401		86.381994	-25.277211	-5.461415
16402		86.283421	-25.076967	-5.444478
16403		86.178176	-24.883799	-5.415387
16404		86.073878	-24.699264	-5.371783
16405		85.976161	-24.525716	-5.321529
16406		85.879377	-24.355935	-5.265914
16407		85.793651	-24.178159	-5.206580
16408		85.717181	-23.991091	-5.151827
16409		85.653904	-23.788655	-5.107490
16410		85.597851	-23.572058	-5.068322
16411		85.536221	-23.344213	-5.036698
16412		85.472046	-23.104493	-4.999590
16413		85.404731	-22.861678	-4.956309
16414		85.325814	-22.617233	-4.909106
16415		85.222145	-22.365193	-4.859819
16416		85.094088	-22.105423	-4.805880
16417		84.972021	-21.845196	-4.753861
16418		84.846160	-21.584186	-4.692363
16419		84.718685	-21.323668	-4.620693
16420		84.590012	-21.060178	-4.530429
16421		84.480797	-20.804685	-4.418406
16422		84.385923	-20.561537	-4.281892
16423		84.276134	-20.341821	-4.124228
16424		84.091440	-20.155587	-3.969727
16425		83.836779	-20.020282	-3.816168
16426		83.506766	-19.906604	-3.658463
16427		83.113731	-19.783801	-3.497207
16428		82.705014	-19.622981	-3.312271
16429		82.340918	-19.410444	-3.090143
16430		82.019029	-19.128813	-2.817030
16431		81.739326	-18.772539	-2.504661
16432		81.539014	-18.338674	-2.171756
16433		81.473714	-17.823457	-1.843425
16434		81.448038	-17.322516	-1.561266
16435		81.417390	-16.914159	-1.404475
16436		81.461708	-16.636283	-1.395266
16437		81.637017	-16.502813	-1.523531
16438		81.907885	-16.441697	-1.747633
16439		82.215106	-16.391121	-2.009808
16440		82.500979	-16.334567	-2.248214
16441		82.748063	-16.287770	-2.432623
16442		82.951183	-16.256396	-2.553571
16443		83.109787	-16.260760	-2.624208
16444		83.212660	-16.298258	-2.660427
16445		83.241756	-16.360805	-2.669878
16446		83.196857	-16.430417	-2.643460
16447		83.088153	-16.505690	-2.585006
16448		82.940853	-16.575938	-2.505337
16449		82.787298	-16.625508	-2.411286
16450		82.670805	-16.644943	-2.308830
16451		82.603118	-16.649608	-2.231693
16452		82.603193	-16.641835	-2.202436
16453		82.672256	-16.621278	-2.228018
16454		82.798119	-16.588167	-2.296458
16455		82.965054	-16.544112	-2.390036
16456		83.143664	-16.490965	-2.488287
16457		83.300516	-16.437628	-2.579006
16458		83.419345	-16.398100	-2.652946
16459		83.491390	-16.385543	-2.705845
16460		83.508339	-16.395977	-2.731327
16461		83.474429	-16.424682	-2.722085
16462		83.393635	-16.462410	-2.676724
16463		83.289676	-16.510730	-2.614682
16464		83.182528	-16.565022	-2.553664
16465		83.100380	-16.607804	-2.500885
16466		83.045324	-16.636181	-2.461673
16467		83.028263	-16.650570	-2.445289
16468		83.045137	-16.657577	-2.454817
16469		83.094562	-16.654191	-2.483456
16470		83.159230	-16.641773	-2.519912
16471		83.225712	-16.626657	-2.558264
16472		83.277147	-16.611698	-2.592306
16473		83.309576	-16.596264	-2.606232
16474		83.321008	-16.584507	-2.601978
16475		83.312021	-16.586100	-2.588736
16476		83.281249	-16.593161	-2.562703
16477		83.243915	-16.600888	-2.527584
16478		83.206572	-16.610774	-2.498781
16479		83.176913	-16.624032	-2.483609
16480		83.157140	-16.634731	-2.473828
16481		83.148027	-16.645334	-2.473595
16482		83.142628	-16.649716	-2.473502
16483		83.141108	-16.649095	-2.474175
16484		83.135604	-16.644401	-2.473232
16485		83.129145	-16.639529	-2.472837
16486		83.119475	-16.635834	-2.468960
16487		83.111263	-16.634292	-2.461570
16488		83.102713	-16.637478	-2.456240
16489		83.095348	-16.638113	-2.444171
16490		83.087545	-16.641468	-2.436846
16491		83.088626	-16.645898	-2.439369
16492		83.100094	-16.644120	-2.446109
16493		83.119307	-16.639829	-2.456264
16494		83.141345	-16.632379	-2.466772
16495		83.168116	-16.625018	-2.480770
16496		83.189272	-16.620660	-2.491476
16497		83.208442	-16.617455	-2.501019
16498		83.220195	-16.611311	-2.504023
16499		83.231737	-16.604316	-2.501573
16500		83.238618	-16.595033	-2.496811
16501		83.242195	-16.585501	-2.489373
16502		83.240494	-16.574412	-2.479520
16503		83.240430	-16.563146	-2.471937
16504		83.239795	-16.548771	-2.460369
16505		83.241501	-16.538368	-2.455903
16506		83.240463	-16.525442	-2.446739
16507		83.241161	-16.514356	-2.437158
16508		83.240364	-16.504350	-2.423216
16509		83.245764	-16.497910	-2.411603
16510		83.255093	-16.488973	-2.399347
16511		83.276501	-16.477495	-2.391317
16512		83.304363	-16.465442	-2.387770
16513		83.336228	-16.453359	-2.389688
16514		83.362599	-16.441835	-2.394113
16515		83.382245	-16.422883	-2.398662
16516		83.394286	-16.394046	-2.394609
16517		83.400752	-16.360927	-2.377819
16518		83.406949	-16.319416	-2.349276
16519		83.425634	-16.275916	-2.325916
16520		83.466492	-16.222040	-2.307261
16521		83.538920	-16.163189	-2.306439
16522		83.641830	-16.103824	-2.324311
16523		83.776431	-16.043376	-2.354427
16524		83.931643	-15.977030	-2.393018
16525		84.098386	-15.902292	-2.434068
16526		84.270484	-15.820863	-2.473799
16527		84.441908	-15.733472	-2.514912
16528		84.600744	-15.645848	-2.553201
16529		84.751805	-15.568148	-2.594174
16530		84.885248	-15.503480	-2.637122
16531		85.003272	-15.451886	-2.685460
16532		85.087264	-15.409631	-2.739406
16533		85.153574	-15.379073	-2.800944
16534		85.185831	-15.367254	-2.853099
16535		85.170814	-15.376357	-2.885624
16536		85.107733	-15.411624	-2.884354
16537		85.037195	-15.464427	-2.861516
16538		84.961351	-15.522352	-2.826760
16539		84.905704	-15.562135	-2.798038
16540		84.871774	-15.583381	-2.791150
16541		84.860546	-15.589835	-2.808177
16542		84.854197	-15.582163	-2.843410
16543		84.843218	-15.566855	-2.892515
16544		84.818710	-15.561944	-2.944827
16545		84.795979	-15.578415	-2.999702
16546		84.767724	-15.629092	-3.051402
16547		84.735711	-15.713664	-3.097524
16548		84.694700	-15.817274	-3.135353
16549		84.638176	-15.926646	-3.167737
16550		84.578631	-16.032924	-3.194276
16551		84.525409	-16.137471	-3.221146
16552		84.476878	-16.244539	-3.251486
16553		84.443326	-16.348487	-3.284391
16554		84.435273	-16.450189	-3.319982
16555		84.468034	-16.546230	-3.355147
16556		84.548647	-16.632545	-3.385515
16557		84.650314	-16.708479	-3.415027
16558		84.744650	-16.772776	-3.444185
16559		84.830923	-16.837546	-3.474392
16560		84.904867	-16.906047	-3.507535
16561		84.969020	-16.983457	-3.541120
16562		85.022460	-17.064047	-3.568136
16563		85.073211	-17.144091	-3.588017
16564		85.125079	-17.220912	-3.603015
16565		85.200785	-17.295477	-3.615905
16566		85.289424	-17.367933	-3.620117
16567		85.377494	-17.438455	-3.613895
16568		85.441110	-17.507439	-3.592721
16569		85.484757	-17.577469	-3.565119
16570		85.509566	-17.660273	-3.535781
16571		85.537828	-17.753482	-3.505169
16572		85.575108	-17.862316	-3.477672
16573		85.616918	-17.983194	-3.453457
16574		85.652975	-18.108853	-3.429347
16575		85.673886	-18.232736	-3.396139
16576		85.670808	-18.352866	-3.352909
16577		85.652841	-18.461501	-3.299563
16578		85.614658	-18.555278	-3.240143
16579		85.557963	-18.631180	-3.184972
16580		85.509020	-18.695942	-3.140554
16581		85.490417	-18.762597	-3.115889
16582		85.498665	-18.833078	-3.109838
16583		85.529317	-18.902858	-3.123183
16584		85.567053	-18.972959	-3.146164
16585		85.614554	-19.036497	-3.169535
16586		85.663211	-19.096468	-3.192617
16587		85.714036	-19.155117	-3.209488
16588		85.768201	-19.212885	-3.217373
16589		85.833657	-19.274672	-3.223563
16590		85.912947	-19.347272	-3.234663
16591		86.008888	-19.444065	-3.252929
16592		86.109422	-19.568182	-3.271676
16593		86.200793	-19.713068	-3.286968
16594		86.263826	-19.874009	-3.283172
16595		86.308375	-20.046561	-3.262786
16596		86.339841	-20.226718	-3.218291
16597		86.371919	-20.416584	-3.168091
16598		86.417680	-20.625382	-3.120919
16599		86.505912	-20.867245	-3.085693
16600		86.643217	-21.157464	-3.065105
16601		86.818673	-21.499620	-3.055969
16602		86.991125	-21.869844	-3.047206
16603		87.142805	-22.251901	-3.031521
16604		87.277508	-22.640588	-3.005738
16605		87.412448	-23.038190	-2.968400
16606		87.547585	-23.437959	-2.916122
16607		87.673118	-23.837641	-2.855924
16608		87.800488	-24.244613	-2.790726
16609		87.943271	-24.674843	-2.719403
16610		88.098386	-25.124261	-2.638430
16611		88.258094	-25.592030	-2.546634
16612		88.402855	-26.062835	-2.444002
16613		88.528181	-26.519821	-2.334372
16614		88.629933	-26.953214	-2.219772
16615		88.707548	-27.367342	-2.110062
16616		88.768287	-27.762086	-2.012238
16617		88.829447	-28.145365	-1.930566
16618		88.925881	-28.536810	-1.863036
16619		89.079493	-28.951711	-1.792833
16620		89.261964	-29.379074	-1.707338
16621		89.449416	-29.821918	-1.611841
16622		89.618849	-30.275354	-1.484335
16623		89.753636	-30.731738	-1.333361
16624		89.843602	-31.189496	-1.157773
16625		89.895461	-31.650201	-0.987669
16626		89.903321	-32.096149	-0.802054
16627		89.844240	-32.509785	-0.619564
16628		89.745198	-32.901701	-0.430457
16629		89.649719	-33.284546	-0.252395
16630		89.588378	-33.667239	-0.089296
16631		89.589970	-34.055274	0.045341
16632		89.669173	-34.460916	0.163781
16633		89.827221	-34.884009	0.262654
16634		90.029587	-35.317218	0.347570
16635		90.248627	-35.741944	0.413759
16636		90.452563	-36.148100	0.485813
16637		90.634237	-36.540003	0.561120
16638		90.802602	-36.936035	0.647389
16639		90.968533	-37.344472	0.723735
16640		91.127730	-37.761715	0.797375
16641		91.274567	-38.186783	0.864966
16642		91.401963	-38.606443	0.929026
16643		91.519505	-39.023941	0.989185
16644		91.635543	-39.433015	1.064244
16645		91.738809	-39.831389	1.157845
16646		91.803973	-40.203286	1.316645
16647		91.839978	-40.553772	1.518009
16648		91.853744	-40.888099	1.785095
16649		91.844698	-41.203597	2.101679
16650		91.817268	-41.524339	2.464429
16651		91.776708	-41.873432	2.851820
16652		91.701180	-42.252497	3.277693
16653		91.571200	-42.645820	3.718335
16654		91.385903	-43.043122	4.156020
16655		91.177130	-43.451816	4.567358
16656		90.957393	-43.873230	4.947122
16657		90.733387	-44.293216	5.282252
16658		90.528287	-44.702132	5.596421
16659		90.360016	-45.068417	5.891643
16660		90.219006	-45.398067	6.186336
16661		90.126679	-45.703165	6.492604
16662		90.064697	-46.002700	6.829229
16663		90.022563	-46.313254	7.186808
16664		89.981169	-46.629329	7.568551
16665		89.925318	-46.931689	7.945199
16666		89.849957	-47.218636	8.298790
16667		89.763105	-47.489116	8.604479
16668		89.655975	-47.737415	8.852021
16669		89.539444	-47.975875	9.047881
16670		89.417434	-48.226371	9.222529
16671		89.288214	-48.502503	9.400863
16672		89.139470	-48.813067	9.619411
16673		88.974697	-49.147236	9.878583
16674		88.806021	-49.502443	10.173533
16675		88.632935	-49.861810	10.494047
16676		88.481826	-50.200441	10.808414
16677		88.365293	-50.514052	11.093977
16678		88.269611	-50.818711	11.361922
16679		88.184181	-51.127471	11.601729
16680		88.134704	-51.455526	11.809123
16681		88.119257	-51.818169	11.987319
16682		88.127703	-52.210549	12.139210
16683		88.172414	-52.621937	12.262988
16684		88.235796	-53.033945	12.370399
16685		88.311565	-53.446123	12.462889
16686		88.385050	-53.853806	12.553073
16687		88.405687	-54.257487	12.672562
16688		88.390008	-54.647528	12.814902
16689		88.362250	-55.021682	12.958104
16690		88.326586	-55.384483	13.090233
16691		88.297463	-55.751184	13.203736
16692		88.283550	-56.122704	13.300918
16693		88.276960	-56.497832	13.386495
16694		88.285650	-56.862616	13.461002
16695		88.323136	-57.202077	13.525744
16696		88.366303	-57.505188	13.602010
16697		88.403080	-57.759997	13.697190
16698		88.388248	-57.963027	13.834069
16699		88.300155	-58.115973	14.024019
16700		88.143311	-58.225093	14.268382
16701		87.925655	-58.292144	14.554781
16702		87.677473	-58.324557	14.866468
16703		87.447714	-58.332171	15.163307
16704		87.258154	-58.322757	15.424039
16705		87.141194	-58.318546	15.611388
16706		87.101081	-58.332400	15.731171
16707		87.122063	-58.376465	15.773767
16708		87.178042	-58.436682	15.756889
16709		87.241623	-58.503437	15.708468
16710		87.283758	-58.555834	15.650065
16711		87.303422	-58.598396	15.583722
16712		87.341146	-58.633344	15.490266
16713		87.411258	-58.677193	15.363060
16714		87.502464	-58.730369	15.221259
16715		87.601519	-58.803577	15.071377
16716		87.678272	-58.888644	14.944487
16717		87.721254	-58.981413	14.842088
16718		87.749695	-59.080817	14.751165
16719		87.779604	-59.195682	14.658879
16720		87.811563	-59.332933	14.556493
16721		87.843601	-59.499084	14.446234
16722		87.866992	-59.692435	14.330236
16723		87.867095	-59.910671	14.209969
16724		87.826635	-60.158669	14.104353
16725		87.766618	-60.453843	13.995406
16726		87.688460	-60.806217	13.880423
16727		87.608281	-61.241613	13.745124
16728		87.512612	-61.770137	13.609227
16729		87.392188	-62.397376	13.476487
16730		87.262124	-63.103438	13.341243
16731		87.153453	-63.835551	13.156636
16732		87.081959	-64.545482	12.890440
16733		87.085117	-65.209665	12.514161
16734		87.148570	-65.835449	12.049387
16735		87.255904	-66.452524	11.517960
16736		87.361534	-67.092274	10.990475
16737		87.423976	-67.757182	10.525756
16738		87.460099	-68.435400	10.132128
16739		87.546768	-69.112643	9.794195
16740		87.721588	-69.765671	9.529202
16741		88.021312	-70.404519	9.297839
16742		88.441546	-71.034526	9.048179
16743		88.975252	-71.653004	8.713004
16744		89.585401	-72.282384	8.236797
16745		90.232328	-72.949231	7.613228
16746		90.876698	-73.664017	6.851364
16747		91.536974	-74.442084	5.912551
16748		92.280690	-75.285376	4.790516
16749		93.092264	-76.192363	3.569133
16750		94.005716	-77.148028	2.240394
16751		95.094624	-78.130075	0.758864
16752		96.334139	-79.102041	-0.841162
16753		97.797688	-80.052404	-2.649668
16754		99.629746	-80.948473	-4.811223
16755		102.000600	-81.755733	-7.497901
16756		104.989231	-82.462839	-10.782376
16757		108.777215	-83.087101	-14.818812
16758		113.479957	-83.651602	-19.696945
16759		119.032508	-84.173319	-25.370417
16760		125.762643	-84.659680	-32.246819
16761		133.870224	-85.089130	-40.580166
16762		143.031490	-85.439335	-50.046201
16763		153.162808	-85.701242	-60.542110
16764		163.643608	-85.858276	-71.399110
16765		174.055642	-85.899311	-82.154104
16766		-175.921346	-85.821102	-92.415712
16767		-166.723192	-85.623132	-101.704668
16768		-158.700899	-85.321637	-109.638207
16769		-151.939042	-84.915283	-116.211407
16770		-146.316959	-84.433473	-121.544690
16771		-141.486755	-83.893692	-126.031304
16772		-137.285808	-83.300367	-129.865858
16773		-133.614749	-82.677704	-133.149519
16774		-130.559714	-82.054753	-135.861870
16775		-128.016389	-81.446241	-138.122260
16776		-125.956914	-80.826265	-140.002241
16777		-124.134166	-80.149083	-141.670245
16778		-122.347009	-79.396120	-143.332782
16779		-120.668882	-78.578114	-144.921462
16780		-119.109141	-77.742698	-146.418563
16781		-117.741221	-76.943477	-147.794796
16782		-116.602852	-76.240380	-149.022633
16783		-115.691697	-75.667630	-150.081854
16784		-114.958144	-75.233353	-150.980767
16785		-114.339687	-74.921769	-151.733392
16786		-113.705294	-74.711710	-152.409208
16787		-113.011450	-74.562715	-153.026218
16788		-112.274390	-74.459760	-153.579270
16789		-111.553466	-74.388026	-154.057694
16790		-110.954090	-74.338766	-154.409958
16791		-110.561081	-74.312499	-154.601695
16792		-110.406638	-74.311803	-154.629999
16793		-110.469946	-74.314190	-154.513673
16794		-110.684874	-74.323155	-154.313213
16795		-110.937441	-74.336008	-154.111991
16796		-111.089152	-74.360107	-154.000132
16797		-111.128336	-74.392028	-153.978296
16798		-111.026808	-74.438167	-154.047849
16799		-110.837536	-74.496664	-154.169491
16800		-110.647556	-74.564505	-154.273562
16801		-110.517781	-74.624655	-154.303371
16802		-110.499228	-74.669272	-154.231303
16803		-110.609220	-74.683616	-154.062094
16804		-110.756070	-74.681676	-153.887505
16805		-110.929478	-74.662890	-153.724896
16806		-111.067432	-74.638650	-153.605887
16807		-111.103484	-74.614014	-153.566236
16808		-111.053145	-74.594134	-153.591810
16809		-110.937282	-74.578174	-153.662817
16810		-110.776779	-74.572349	-153.782864
16811		-110.616995	-74.578388	-153.918218
16812		-110.505665	-74.594196	-154.023809
16813		-110.446866	-74.617942	-154.089105
16814		-110.415537	-74.654335	-154.132169
16815		-110.425310	-74.710177	-154.145721
16816		-110.478106	-74.789668	-154.147482
16817		-110.588226	-74.893511	-154.120341
16818		-110.717244	-75.019611	-154.087092
16819		-110.858849	-75.164401	-154.028701
16820		-111.006947	-75.332757	-153.938377
16821		-111.167806	-75.524764	-153.795636
16822		-111.378943	-75.746694	-153.576758
16823		-111.677357	-75.990106	-153.263148
16824		-112.064487	-76.259995	-152.867472
16825		-112.631353	-76.556122	-152.322581
16826		-113.435634	-76.901361	-151.567235
16827		-114.506208	-77.288636	-150.546744
16828		-115.855191	-77.720487	-149.219738
16829		-117.468200	-78.180539	-147.576353
16830		-119.352926	-78.664961	-145.609466
16831		-121.499113	-79.152615	-143.332984
16832		-123.886163	-79.636648	-140.770596
16833		-126.463789	-80.109031	-137.974104
16834		-129.297793	-80.568542	-134.925370
16835		-132.421445	-81.005240	-131.620485
16836		-135.812267	-81.424584	-128.086577
16837		-139.431016	-81.818811	-124.370193
16838		-143.268828	-82.191418	-120.469820
16839		-147.295089	-82.531477	-116.375224
16840		-151.582736	-82.826686	-112.022398
16841		-156.232178	-83.057852	-107.318881
16842		-161.280078	-83.217530	-102.201978
16843		-166.629809	-83.308661	-96.754773
16844		-172.193264	-83.336970	-91.075857
16845		-177.800650	-83.314690	-85.328843
16846		176.597842	-83.249918	-79.586945
16847		171.131673	-83.137440	-73.997821
16848		165.845541	-82.980860	-68.618256
16849		160.820955	-82.781209	-63.531366
16850		156.183053	-82.544200	-58.860576
16851		152.000364	-82.285870	-54.675037
16852		148.165122	-82.010707	-50.899257
16853		144.721064	-81.721142	-47.575968
16854		141.683752	-81.421992	-44.679447
16855		139.050520	-81.114320	-42.190522
16856		136.817448	-80.795830	-40.105632
16857		134.826062	-80.465397	-38.287901
16858		132.960574	-80.118039	-36.627682
16859		131.169369	-79.757062	-35.061782
16860		129.371205	-79.381044	-33.494430
16861		127.581994	-78.987718	-31.913237
16862		125.829992	-78.574706	-30.328195
16863		124.188637	-78.137612	-28.800257
16864		122.683784	-77.673783	-27.346904
16865		121.355532	-77.198798	-26.009095
16866		120.153977	-76.712865	-24.749329
16867		119.062423	-76.219996	-23.588510
16868		118.000429	-75.719975	-22.469928
16869		116.979901	-75.215600	-21.431886
16870		115.968604	-74.708038	-20.445117
16871		115.013189	-74.203488	-19.555589
16872		114.087222	-73.696981	-18.709543
16873		113.248008	-73.185786	-17.932475
16874		112.493084	-72.681664	-17.210641
16875		111.807373	-72.176663	-16.557831
16876		111.146544	-71.669558	-15.943830
16877		110.512618	-71.163755	-15.385290
16878		109.883510	-70.660271	-14.865437
16879		109.262116	-70.161596	-14.378223
16880		108.632093	-69.658843	-13.897637
16881		108.011961	-69.162739	-13.423004
16882		107.385023	-68.674415	-12.931329
16883		106.766359	-68.199021	-12.457448
16884		106.170832	-67.728452	-12.021491
16885		105.631460	-67.265406	-11.639736
16886		105.131154	-66.803619	-11.298586
16887		104.669629	-66.337046	-11.003140
16888		104.226546	-65.859091	-10.723919
16889		103.794801	-65.375255	-10.444121
16890		103.350575	-64.901367	-10.142843
16891		102.907650	-64.448408	-9.830289
16892		102.466035	-64.009522	-9.508894
16893		102.049602	-63.580391	-9.226637
16894		101.653342	-63.150442	-8.976586
16895		101.279555	-62.715586	-8.753395
16896		100.917279	-62.271290	-8.532329
16897		100.566318	-61.812993	-8.307852
16898		100.222880	-61.346421	-8.092447
16899		99.907699	-60.878513	-7.913934
16900		99.611931	-60.408553	-7.770447
16901		99.341926	-59.939680	-7.660984
16902		99.095276	-59.471739	-7.568724
16903		98.892617	-59.009191	-7.509705
16904		98.742591	-58.543406	-7.461664
16905		98.650124	-58.066241	-7.411504
16906		98.565503	-57.572638	-7.340511
16907		98.498309	-57.068942	-7.252110
16908		98.443854	-56.557968	-7.144862
16909		98.378703	-56.048299	-7.033551
16910		98.284771	-55.534450	-6.914825
16911		98.150665	-55.028514	-6.790020
16912		97.984710	-54.534071	-6.650278
16913		97.806583	-54.067534	-6.522301
16914		97.628244	-53.627584	-6.397814
16915		97.434760	-53.202719	-6.292795
16916		97.225008	-52.781530	-6.185898
16917		97.011489	-52.371189	-6.095139
16918		96.792074	-51.980125	-6.004716
16919		96.558473	-51.618596	-5.918153
16920		96.300258	-51.282698	-5.825475
16921		96.023014	-50.951486	-5.726832
16922		95.744770	-50.615963	-5.615280
16923		95.491556	-50.277418	-5.492665
16924		95.262428	-49.932211	-5.370490
16925		95.042819	-49.583176	-5.260924
16926		94.819328	-49.228383	-5.155991
16927		94.600459	-48.875165	-5.059769
16928		94.384788	-48.523151	-4.960161
16929		94.186793	-48.172551	-4.867252
16930		93.997885	-47.823109	-4.784872
16931		93.829696	-47.482092	-4.716038
16932		93.674626	-47.150548	-4.654066
16933		93.521153	-46.826699	-4.595425
16934		93.373543	-46.504460	-4.527102
16935		93.237060	-46.189562	-4.465028
16936		93.109693	-45.887642	-4.400138
16937		92.985181	-45.601262	-4.348430
16938		92.848452	-45.328311	-4.290551
16939		92.694186	-45.063065	-4.222189
16940		92.546201	-44.800721	-4.149086
16941		92.403121	-44.535082	-4.075692
16942		92.260591	-44.258770	-4.000808
16943		92.122298	-43.978953	-3.919989
16944		91.977564	-43.697964	-3.811611
16945		91.826953	-43.422140	-3.690084
16946		91.661715	-43.152136	-3.540044
16947		91.478474	-42.884395	-3.372712
16948		91.273900	-42.612982	-3.183415
16949		91.061117	-42.330806	-2.982606
16950		90.851769	-42.040781	-2.776270
16951		90.654213	-41.746591	-2.583844
16952		90.494471	-41.447915	-2.417568
16953		90.387832	-41.146472	-2.308833
16954		90.341515	-40.847538	-2.240642
16955		90.344690	-40.558744	-2.225766
16956		90.371160	-40.269164	-2.224918
16957		90.397477	-39.976065	-2.226073
16958		90.407849	-39.680726	-2.221039
16959		90.397320	-39.398367	-2.212400
16960		90.370932	-39.128591	-2.195338
16961		90.348366	-38.867661	-2.194567
16962		90.324223	-38.607822	-2.198802
16963		90.297998	-38.344148	-2.208456
16964		90.258117	-38.072690	-2.208876
16965		90.208947	-37.801398	-2.206253
16966		90.146015	-37.532864	-2.191081
16967		90.060922	-37.266262	-2.162523
16968		89.953154	-36.999736	-2.116733
16969		89.831833	-36.735844	-2.070266
16970		89.692104	-36.471142	-2.018402
16971		89.559230	-36.206313	-1.976161
16972		89.439942	-35.941240	-1.947415
16973		89.333807	-35.674829	-1.935213
16974		89.240327	-35.393728	-1.926376
16975		89.164835	-35.101498	-1.914656
16976		89.105981	-34.812270	-1.899783
16977		89.056484	-34.531657	-1.877335
16978		88.995713	-34.264373	-1.849953
16979		88.903635	-34.009277	-1.804692
16980		88.767739	-33.752604	-1.736071
16981		88.580839	-33.479673	-1.643129
16982		88.368098	-33.190246	-1.519349
16983		88.166980	-32.890072	-1.369901
16984		87.994211	-32.588397	-1.203135
16985		87.860848	-32.286044	-1.036296
16986		87.751927	-31.980165	-0.901007
16987		87.656778	-31.662014	-0.801114
16988		87.556939	-31.311554	-0.744933
16989		87.445680	-30.926382	-0.736534
16990		87.341336	-30.508780	-0.764451
16991		87.258306	-30.062643	-0.822037
16992		87.185848	-29.590181	-0.906741
16993		87.118018	-29.094127	-1.002865
16994		87.041515	-28.578570	-1.100172
16995		86.966815	-28.049054	-1.192829
16996		86.905918	-27.524171	-1.279839
16997		86.891715	-27.032158	-1.356317
16998		86.918186	-26.580903	-1.418609
16999		86.942962	-26.190705	-1.459216
17000		86.865607	-25.887118	-1.484592
17001		86.676232	-25.643958	-1.467350
17002		86.375410	-25.452719	-1.391382
17003		86.004641	-25.294387	-1.268760
17004		85.619490	-25.132199	-1.098320
17005		85.251829	-24.950555	-0.888671
17006		84.941161	-24.745911	-0.635971
17007		84.775468	-24.523407	-0.347686
17008		84.780677	-24.315446	-0.054143
17009		84.904815	-24.128874	0.229299
17010		85.080000	-23.944002	0.484259
17011		85.241950	-23.738394	0.707739
17012		85.305095	-23.524166	0.905984
17013		85.239496	-23.310938	1.087832
17014		85.071414	-23.108791	1.259323
17015		84.854964	-22.918615	1.416674
17016		84.631261	-22.729741	1.533452
17017		84.449099	-22.535071	1.627361
17018		84.324771	-22.339669	1.707981
17019		84.251603	-22.151785	1.790659
17020		84.218081	-21.994801	1.879613
17021		84.188524	-21.894824	1.974023
17022		84.108915	-21.853573	2.064434
17023		83.986174	-21.830190	2.152419
17024		83.833447	-21.789068	2.244450
17025		83.723783	-21.703421	2.351382
17026		83.702922	-21.560760	2.482793
17027		83.768960	-21.378672	2.609479
17028		83.902279	-21.160539	2.710948
17029		84.061490	-20.936316	2.773941
17030		84.206825	-20.720559	2.796272
17031		84.344022	-20.519723	2.781630
17032		84.479354	-20.339866	2.741838
17033		84.606021	-20.187543	2.690619
17034		84.709249	-20.061201	2.644932
17035		84.796765	-19.957827	2.612712
17036		84.873109	-19.870559	2.591308
17037		84.936535	-19.793961	2.585894
17038		84.972013	-19.729707	2.602620
17039		84.977780	-19.676253	2.645947
17040		84.971581	-19.619120	2.724760
17041		85.006459	-19.550492	2.820424
17042		85.059301	-19.466018	2.928435
17043		85.135431	-19.371720	3.026684
17044		85.221348	-19.271989	3.114630
17045		85.305825	-19.177173	3.180563
17046		85.379258	-19.091142	3.217379
17047		85.428775	-19.014307	3.210934
17048		85.452840	-18.946262	3.177559
17049		85.455396	-18.890799	3.120117
17050		85.453109	-18.843815	3.067973
17051		85.462831	-18.803207	3.037885
17052		85.480789	-18.769054	3.034149
17053		85.501192	-18.740214	3.054822
17054		85.512347	-18.714278	3.089262
17055		85.509790	-18.691293	3.122638
17056		85.493557	-18.663920	3.148748
17057		85.484667	-18.632032	3.167038
17058		85.489134	-18.600384	3.181883
17059		85.509952	-18.571552	3.179078
17060		85.535364	-18.549945	3.152223
17061		85.568082	-18.535026	3.107246
17062		85.608118	-18.527666	3.054046
17063		85.660880	-18.525426	3.000316
17064		85.710916	-18.522736	2.953600
17065		85.746939	-18.517643	2.911850
17066		85.752540	-18.508579	2.884579
17067		85.735727	-18.492052	2.870607
17068		85.695807	-18.466505	2.870097
17069		85.642415	-18.435492	2.885444
17070		85.590393	-18.397927	2.917114
17071		85.540488	-18.363961	2.960750
17072		85.490829	-18.331222	3.015526
17073		85.452388	-18.309164	3.067607
17074		85.417473	-18.290321	3.122695
17075		85.389297	-18.279178	3.170991
17076		85.364145	-18.268684	3.214127
17077		85.346950	-18.255870	3.248001
17078		85.345855	-18.230334	3.265451
17079		85.368016	-18.193742	3.274334
17080		85.406759	-18.147002	3.275010
17081		85.456940	-18.093200	3.266941
17082		85.515878	-18.027259	3.258233
17083		85.567845	-17.966366	3.242226
17084		85.612559	-17.910545	3.224959
17085		85.648265	-17.866346	3.215927
17086		85.685207	-17.828968	3.214083
17087		85.724372	-17.796823	3.217458
17088		85.755623	-17.767848	3.225818
17089		85.786736	-17.737030	3.238555
17090		85.802465	-17.714374	3.250771
17091		85.809200	-17.697363	3.262669
17092		85.802521	-17.683530	3.275129
17093		85.786267	-17.670303	3.290171
17094		85.761939	-17.645132	3.313425
17095		85.736379	-17.610055	3.349652
17096		85.717367	-17.557990	3.398494
17097		85.714242	-17.502335	3.452463
17098		85.713246	-17.453025	3.501194
17099		85.737950	-17.414457	3.553154
17100		85.793374	-17.384132	3.599966
17101		85.871454	-17.363262	3.632022
17102		85.978448	-17.355872	3.645526
17103		86.107309	-17.362280	3.638760
17104		86.238745	-17.381722	3.615352
17105		86.357938	-17.403453	3.569132
17106		86.453336	-17.416783	3.509475
17107		86.537127	-17.431307	3.440807
17108		86.610332	-17.446767	3.369548
17109		86.680547	-17.456601	3.302182
17110		86.741146	-17.459447	3.249904
17111		86.792209	-17.476679	3.208445
17112		86.831599	-17.535407	3.176908
17113		86.879424	-17.644776	3.149434
17114		86.926616	-17.797021	3.127506
17115		86.989240	-17.983397	3.105052
17116		87.064924	-18.187871	3.083686
17117		87.150029	-18.395570	3.066826
17118		87.231328	-18.602361	3.060870
17119		87.310697	-18.808616	3.068634
17120		87.380116	-19.014996	3.096012
17121		87.434906	-19.227567	3.133285
17122		87.491983	-19.462057	3.178431
17123		87.579212	-19.742580	3.223942
17124		87.681468	-20.068460	3.269964
17125		87.788750	-20.420020	3.308657
17126		87.888753	-20.778201	3.343016
17127		87.978533	-21.134187	3.367363
17128		88.044317	-21.483124	3.392952
17129		88.094792	-21.822957	3.417841
17130		88.135990	-22.150597	3.451511
17131		88.183064	-22.468675	3.496439
17132		88.237918	-22.784092	3.548585
17133		88.304521	-23.108495	3.605790
17134		88.380087	-23.443239	3.674524
17135		88.447510	-23.780068	3.762052
17136		88.523301	-24.109405	3.878888
17137		88.606331	-24.431875	4.028006
17138		88.691997	-24.751624	4.195712
17139		88.798299	-25.071557	4.370687
17140		88.897193	-25.389117	4.537961
17141		88.949495	-25.700211	4.678616
17142		88.957875	-26.008267	4.788412
17143		88.953698	-26.324133	4.866093
17144		88.952577	-26.669133	4.919437
17145		88.987821	-27.061529	4.948253
17146		89.029019	-27.488735	4.961587
17147		89.072405	-27.927760	4.957686
17148		89.134651	-28.369601	4.954854
17149		89.219501	-28.802097	4.955633
17150		89.313839	-29.216811	4.963052
17151		89.404490	-29.603053	4.969480
17152		89.470814	-29.949974	4.969419
17153		89.512606	-30.264286	4.961231
17154		89.535892	-30.557603	4.964651
17155		89.556463	-30.846728	4.978117
17156		89.577002	-31.143940	5.027638
17157		89.617978	-31.459049	5.104637
17158		89.678373	-31.788273	5.210687
17159		89.751934	-32.122987	5.319216
17160		89.819512	-32.459870	5.435754
17161		89.869410	-32.782583	5.548243
17162		89.871365	-33.079286	5.662228
17163		89.832836	-33.352742	5.776940
17164		89.775852	-33.627765	5.922407
17165		89.703057	-33.928313	6.096522
17166		89.619454	-34.250449	6.301164
17167		89.539780	-34.581491	6.510853
17168		89.455664	-34.900428	6.731183
17169		89.377050	-35.197867	6.939698
17170		89.302498	-35.470233	7.147462
17171		89.221089	-35.718997	7.338322
17172		89.135994	-35.956192	7.533744
17173		89.053119	-36.199869	7.727223
17174		88.988988	-36.469235	7.936443
17175		88.949145	-36.779029	8.141310
17176		88.917515	-37.108894	8.331341
17177		88.891094	-37.449118	8.481650
17178		88.867723	-37.790479	8.597715
17179		88.843764	-38.126954	8.673854
17180		88.819333	-38.448457	8.723930
17181		88.788312	-38.758412	8.742199
17182		88.749750	-39.075859	8.771938
17183		88.703125	-39.411386	8.815078
17184		88.640390	-39.762896	8.881710
17185		88.576650	-40.119335	8.954664
17186		88.502052	-40.468717	9.028224
17187		88.444716	-40.820810	9.094083
17188		88.426875	-41.169076	9.167252
17189		88.434094	-41.510615	9.233890
17190		88.463150	-41.838308	9.304499
17191		88.497621	-42.142699	9.365235
17192		88.511365	-42.429812	9.427246
17193		88.504355	-42.697486	9.470862
17194		88.478377	-42.953236	9.515379
17195		88.453184	-43.210817	9.541672
17196		88.448025	-43.491110	9.568710
17197		88.477037	-43.822979	9.621556
17198		88.537449	-44.237757	9.726953
17199		88.593290	-44.729978	9.865238
17200		88.637695	-45.281050	10.004333
17201		88.672758	-45.860480	10.122632
17202		88.694328	-46.439159	10.212543
17203		88.707910	-47.008662	10.255126
17204		88.727817	-47.557735	10.256556
17205		88.763525	-48.092731	10.217894
17206		88.805815	-48.601577	10.164331
17207		88.844052	-49.086773	10.098601
17208		88.890793	-49.560501	10.032283
17209		88.963994	-50.046782	9.995910
17210		89.020902	-50.549459	10.009603
17211		89.053088	-51.069868	10.073037
17212		89.042399	-51.582831	10.219475
17213		88.966507	-52.075542	10.421724
17214		88.831761	-52.553077	10.666627
17215		88.669461	-53.031730	10.926346
17216		88.504889	-53.514876	11.184963
17217		88.351648	-53.987317	11.423124
17218		88.214115	-54.446732	11.629677
17219		88.104460	-54.900265	11.818176
17220		88.009576	-55.350489	11.985041
17221		87.942843	-55.792846	12.123165
17222		87.885862	-56.230295	12.270006
17223		87.842213	-56.664130	12.424403
17224		87.826604	-57.090533	12.580983
17225		87.862302	-57.518357	12.743324
17226		87.933303	-57.937348	12.909571
17227		88.013059	-58.335819	13.065210
17228		88.091755	-58.718142	13.199253
17229		88.159918	-59.091931	13.319838
17230		88.213672	-59.472499	13.422104
17231		88.257383	-59.855992	13.509445
17232		88.290046	-60.244398	13.600632
17233		88.318139	-60.632836	13.698070
17234		88.334424	-61.024609	13.799909
17235		88.325643	-61.406495	13.919209
17236		88.301138	-61.769038	14.052655
17237		88.278337	-62.111062	14.185832
17238		88.264486	-62.414366	14.308156
17239		88.268791	-62.667876	14.403526
17240		88.264083	-62.875338	14.502899
17241		88.256907	-63.045256	14.590622
17242		88.231047	-63.190110	14.684337
17243		88.181007	-63.313119	14.787545
17244		88.119285	-63.409993	14.894839
17245		88.071029	-63.472857	14.981862
17246		88.040648	-63.499652	15.037825
17247		88.033165	-63.495236	15.069634
17248		88.031992	-63.471287	15.094875
17249		88.042816	-63.441811	15.096486
17250		88.059287	-63.400236	15.085803
17251		88.081250	-63.358286	15.058711
17252		88.103445	-63.315151	15.020675
17253		88.129575	-63.277904	14.964529
17254		88.151610	-63.243761	14.899465
17255		88.172016	-63.219121	14.826285
17256		88.185944	-63.198754	14.758952
17257		88.177581	-63.178346	14.710919
17258		88.152636	-63.162266	14.677573
17259		88.120910	-63.155772	14.654015
17260		88.080877	-63.159618	14.627307
17261		88.028792	-63.179740	14.596794
17262		87.974682	-63.232308	14.554005
17263		87.923582	-63.323465	14.490553
17264		87.865635	-63.449652	14.404813
17265		87.792118	-63.626912	14.298879
17266		87.680487	-63.855761	14.201452
17267		87.506121	-64.141778	14.117937
17268		87.277795	-64.485705	14.050623
17269		87.017531	-64.896127	13.996385
17270		86.729079	-65.377018	13.960486
17271		86.444787	-65.941410	13.924866
17272		86.152107	-66.593926	13.922255
17273		85.840380	-67.309223	13.933741
17274		85.472167	-68.051932	13.956321
17275		85.083746	-68.797454	13.957278
17276		84.709449	-69.523632	13.968667
17277		84.371422	-70.219176	13.972373
17278		84.101779	-70.882017	13.959192
17279		83.925130	-71.518788	13.929422
17280		83.879829	-72.128753	13.841543
17281		83.988132	-72.733818	13.661976
17282		84.206187	-73.353398	13.427420
17283		84.547632	-74.021782	13.103964
17284		85.055969	-74.746519	12.627222
17285		85.645689	-75.508720	12.051998
17286		86.305074	-76.287429	11.351190
17287		87.024184	-77.075779	10.552606
17288		87.732817	-77.849081	9.754813
17289		88.402695	-78.589803	8.961334
17290		89.007892	-79.271748	8.204145
17291		89.574330	-79.890951	7.459341
17292		90.131912	-80.467374	6.717999
17293		90.695618	-81.023615	5.986722
17294		91.209635	-81.572907	5.321175
17295		91.807484	-82.138244	4.583247
17296		92.680887	-82.739820	3.573089
17297		93.857418	-83.371437	2.256035
17298		95.445378	-84.010536	0.522966
17299		97.478900	-84.646045	-1.671568
17300		99.809824	-85.262951	-4.155024
17301		102.412162	-85.866653	-6.905468
17302		105.569866	-86.472439	-10.205166
17303		109.567985	-87.086997	-14.301952
17304		115.004785	-87.702778	-19.821485
17305		124.091845	-88.300764	-28.979386
17306		142.746399	-88.828711	-47.686513
17307		-179.967725	-89.093474	-84.991605
17308		-141.250392	-88.856994	-123.713085
17309		-121.633687	-88.296770	-143.325700
17310		-112.191771	-87.624003	-152.781520
17311		-106.847462	-86.914425	-158.195026
17312		-103.487059	-86.197127	-161.721746
17313		-101.168641	-85.487742	-164.290062
17314		-99.472817	-84.816157	-166.307033
17315		-98.359910	-84.175695	-167.772536
17316		-97.692131	-83.566445	-168.773471
17317		-97.311049	-82.986809	-169.412020
17318		-97.047942	-82.433974	-169.838320
17319		-96.842566	-81.905431	-170.121498
17320		-96.701365	-81.409239	-170.275153
17321		-96.645631	-80.939794	-170.307827
17322		-96.653123	-80.496970	-170.256940
17323		-96.778972	-80.081646	-170.086120
17324		-97.031370	-79.694220	-169.785110
17325		-97.359999	-79.322467	-169.384109
17326		-97.856733	-78.932685	-168.806074
17327		-98.397851	-78.519221	-168.166078
17328		-98.918112	-78.099845	-167.561140
17329		-99.397262	-77.691176	-167.033104
17330		-99.792135	-77.322375	-166.630028
17331		-100.127421	-77.009798	-166.325229
17332		-100.377906	-76.768734	-166.130659
17333		-100.546557	-76.593274	-166.021837
17334		-100.703051	-76.463548	-165.923089
17335		-100.819176	-76.374150	-165.845971
17336		-100.872735	-76.316048	-165.793758
17337		-100.888309	-76.275178	-165.741930
17338		-100.829830	-76.244333	-165.723867
17339		-100.771221	-76.207812	-165.688889
17340		-100.758177	-76.168879	-165.619969
17341		-100.800162	-76.125848	-165.518455
17342		-100.833959	-76.084856	-165.454789
17343		-100.866788	-76.044810	-165.431193
17344		-100.875036	-76.009475	-165.453289
17345		-100.842099	-75.978371	-165.542888
17346		-100.817612	-75.956029	-165.635064
17347		-100.830763	-75.939727	-165.669268
17348		-100.872100	-75.931643	-165.648276
17349		-100.960068	-75.927309	-165.554946
17350		-101.090054	-75.930531	-165.404474
17351		-101.238800	-75.939128	-165.231731
17352		-101.405651	-75.958054	-165.051203
17353		-101.562580	-75.981886	-164.892233
17354		-101.656770	-76.019192	-164.807873
17355		-101.703312	-76.066128	-164.775938
17356		-101.690143	-76.126923	-164.811377
17357		-101.615097	-76.200312	-164.910284
17358		-101.527091	-76.285465	-165.023127
17359		-101.446983	-76.377036	-165.130465
17360		-101.422562	-76.477657	-165.196881
17361		-101.480293	-76.576052	-165.190017
17362		-101.583556	-76.671266	-165.146381
17363		-101.716501	-76.756523	-165.072828
17364		-101.818271	-76.838526	-165.003907
17365		-101.878508	-76.920988	-164.950592
17366		-101.954663	-77.019224	-164.874864
17367		-102.079865	-77.141203	-164.746877
17368		-102.271481	-77.280892	-164.551017
17369		-102.523223	-77.438894	-164.279148
17370		-102.825248	-77.625048	-163.935908
17371		-103.170726	-77.841375	-163.527922
17372		-103.519124	-78.100639	-163.073732
17373		-103.858045	-78.398058	-162.599254
17374		-104.159390	-78.739090	-162.158548
17375		-104.389321	-79.126059	-161.799741
17376		-104.536100	-79.560011	-161.554812
17377		-104.644668	-80.024783	-161.363315
17378		-104.803905	-80.508349	-161.123759
17379		-105.129267	-80.996177	-160.709082
17380		-105.738961	-81.485696	-160.008805
17381		-106.742204	-81.958148	-158.936228
17382		-108.007586	-82.415361	-157.617456
17383		-109.502840	-82.854983	-156.087840
17384		-111.128562	-83.288757	-154.439568
17385		-112.972557	-83.719635	-152.588561
17386		-115.160695	-84.149358	-150.404507
17387		-117.930685	-84.582627	-147.633044
17388		-121.450486	-85.016671	-144.103841
17389		-126.023525	-85.440632	-139.493963
17390		-131.965482	-85.860413	-133.468963
17391		-139.665302	-86.246025	-125.651693
17392		-149.720261	-86.554923	-115.468215
17393		-162.121034	-86.739092	-102.946297
17394		-176.194790	-86.757895	-88.773688
17395		169.700256	-86.591976	-74.579292
17396		157.035747	-86.261665	-61.844271
17397		146.619879	-85.799716	-51.381880
17398		138.262903	-85.244464	-42.998957
17399		131.591777	-84.628542	-36.312551
17400		126.282160	-83.967378	-30.988668
17401		122.161030	-83.273602	-26.846795
17402		118.958057	-82.554836	-23.617298
17403		116.420155	-81.807279	-21.056490
17404		114.229530	-81.019911	-18.860989
17405		112.316399	-80.198618	-16.975650
17406		110.611100	-79.348311	-15.330585
17407		109.103166	-78.477113	-13.917680
17408		107.720243	-77.589681	-12.659853
17409		106.521150	-76.695442	-11.583797
17410		105.598991	-75.818807	-10.746014
17411		104.984930	-74.973829	-10.152081
17412		104.647702	-74.166806	-9.776492
17413		104.456274	-73.390584	-9.558944
17414		104.254573	-72.630712	-9.370035
17415		104.000686	-71.893272	-9.159009
17416		103.661717	-71.174811	-8.883832
17417		103.262156	-70.478193	-8.549075
17418		102.826821	-69.798790	-8.171945
17419		102.380081	-69.139597	-7.777245
17420		101.907105	-68.500905	-7.358614
17421		101.428397	-67.883750	-6.952090
17422		100.926678	-67.278378	-6.539902
17423		100.435738	-66.687800	-6.150808
17424		99.964290	-66.102471	-5.788827
17425		99.518240	-65.518813	-5.435610
17426		99.101944	-64.944434	-5.082518
17427		98.732352	-64.377621	-4.755470
17428		98.420153	-63.818831	-4.478581
17429		98.172975	-63.267766	-4.258173
17430		97.968192	-62.719750	-4.058724
17431		97.794055	-62.185924	-3.886065
17432		97.637472	-61.678624	-3.710340
17433		97.489820	-61.196324	-3.531390
17434		97.341865	-60.733995	-3.363167
17435		97.183853	-60.288873	-3.219075
17436		96.985334	-59.859961	-3.068369
17437		96.735198	-59.448913	-2.923081
17438		96.446999	-59.052846	-2.775933
17439		96.149972	-58.668751	-2.642626
17440		95.826711	-58.287513	-2.498819
17441		95.512528	-57.893679	-2.356834
17442		95.242414	-57.492449	-2.223748
17443		95.033821	-57.075899	-2.107106
17444		94.885846	-56.638505	-2.000538
17445		94.799252	-56.184313	-1.911352
17446		94.737511	-55.722854	-1.825340
17447		94.655932	-55.258499	-1.749597
17448		94.529164	-54.788901	-1.665100
17449		94.359118	-54.323874	-1.569392
17450		94.169035	-53.869907	-1.463823
17451		93.973551	-53.422125	-1.354031
17452		93.771102	-52.970458	-1.233360
17453		93.558302	-52.508450	-1.118801
17454		93.358215	-52.028825	-1.011967
17455		93.189189	-51.534538	-0.920398
17456		93.042397	-51.028057	-0.843019
17457		92.918222	-50.513095	-0.769204
17458		92.773938	-49.979336	-0.676496
17459		92.602349	-49.436341	-0.579591
17460		92.414404	-48.883916	-0.473259
17461		92.208871	-48.330261	-0.367852
17462		91.989795	-47.767625	-0.260641
17463		91.785312	-47.200484	-0.165462
17464		91.629115	-46.644556	-0.080118
17465		91.532152	-46.109779	-0.015924
17466		91.462514	-45.584541	0.049169
17467		91.388215	-45.057799	0.114355
17468		91.280553	-44.523369	0.205893
17469		91.133469	-43.982448	0.306442
17470		90.953041	-43.445155	0.409367
17471		90.751156	-42.924929	0.498804
17472		90.525024	-42.426694	0.589938
17473		90.274969	-41.953482	0.673099
17474		89.985717	-41.487938	0.772306
17475		89.661725	-41.028579	0.888190
17476		89.321206	-40.575009	1.039235
17477		88.987618	-40.129842	1.203100
17478		88.660782	-39.682981	1.376134
17479		88.362182	-39.243309	1.531286
17480		88.094430	-38.811485	1.652837
17481		87.860152	-38.384954	1.741222
17482		87.647982	-37.960622	1.796848
17483		87.464832	-37.539991	1.814251
17484		87.309528	-37.121755	1.820506
17485		87.175725	-36.709463	1.814680
17486		87.059660	-36.309506	1.808956
17487		86.968419	-35.931320	1.800985
17488		86.892371	-35.578297	1.799720
17489		86.837314	-35.252017	1.792071
17490		86.788336	-34.953551	1.779417
17491		86.751835	-34.674448	1.765479
17492		86.693448	-34.401986	1.763153
17493		86.599046	-34.136768	1.768970
17494		86.475758	-33.880142	1.783068
17495		86.345601	-33.636589	1.798938
17496		86.222064	-33.409624	1.824594
17497		86.130667	-33.196017	1.847076
17498		86.091580	-32.990440	1.866460
17499		86.123815	-32.787366	1.871263
17500		86.215462	-32.568936	1.871689
17501		86.327994	-32.337758	1.869664
17502		86.437462	-32.100173	1.867249
17503		86.528577	-31.865212	1.865316
17504		86.574647	-31.627487	1.861747
17505		86.585383	-31.396351	1.859831
17506		86.571933	-31.171899	1.857077
17507		86.548338	-30.952814	1.864184
17508		86.525351	-30.737164	1.885724
17509		86.503733	-30.530092	1.923815
17510		86.458005	-30.323285	1.975988
17511		86.388596	-30.120539	2.041403
17512		86.287953	-29.920298	2.112607
17513		86.156691	-29.724477	2.184097
17514		86.008430	-29.534644	2.247329
17515		85.869650	-29.351183	2.294168
17516		85.729507	-29.172953	2.316375
17517		85.597330	-28.993965	2.323141
17518		85.466902	-28.808684	2.335102
17519		85.340505	-28.617093	2.366446
17520		85.217910	-28.425620	2.403530
17521		85.100199	-28.245275	2.453197
17522		84.969659	-28.068907	2.521697
17523		84.831492	-27.902920	2.607269
17524		84.694015	-27.749011	2.691169
17525		84.579027	-27.595922	2.771767
17526		84.494526	-27.444279	2.839504
17527		84.451347	-27.295817	2.889906
17528		84.458362	-27.155766	2.914031
17529		84.512027	-27.010915	2.912420
17530		84.625989	-26.837691	2.885337
17531		84.777195	-26.653527	2.832029
17532		84.931643	-26.458347	2.775962
17533		85.084273	-26.241193	2.726953
17534		85.232382	-25.996230	2.706582
17535		85.387728	-25.711999	2.718023
17536		85.560393	-25.367423	2.766121
17537		85.725733	-24.955518	2.850680
17538		85.886870	-24.461429	2.976816
17539		86.029638	-23.902086	3.130750
17540		86.137084	-23.293677	3.290741
17541		86.218149	-22.648739	3.442878
17542		86.273236	-21.998570	3.552129
17543		86.370418	-21.410995	3.623352
17544		86.527291	-20.916198	3.681528
17545		86.728913	-20.530642	3.708819
17546		86.958017	-20.261877	3.699566
17547		87.167295	-20.108005	3.663663
17548		87.337745	-20.040576	3.606151
17549		87.471217	-20.022737	3.523329
17550		87.569833	-20.008779	3.427097
17551		87.633528	-19.961508	3.315276
17552		87.687010	-19.851376	3.183384
17553		87.763233	-19.680992	3.043472
17554		87.864570	-19.451787	2.910755
17555		87.972968	-19.178440	2.792405
17556		88.051774	-18.905047	2.704216
17557		88.085564	-18.679021	2.659361
17558		88.100954	-18.496575	2.650638
17559		88.086948	-18.372226	2.661885
17560		88.021445	-18.309288	2.679091
17561		87.904744	-18.272956	2.702472
17562		87.738729	-18.236620	2.750344
17563		87.530855	-18.194793	2.812492
17564		87.288819	-18.137345	2.885496
17565		87.050437	-18.058784	2.969140
17566		86.846623	-17.960932	3.076484
17567		86.681246	-17.876501	3.184968
17568		86.585161	-17.788376	3.294925
17569		86.534804	-17.730004	3.372530
17570		86.519858	-17.685114	3.420237
17571		86.514142	-17.659236	3.440977
17572		86.519089	-17.642273	3.443408
17573		86.529097	-17.625425	3.430542
17574		86.533833	-17.595870	3.411402
17575		86.517287	-17.550494	3.379536
17576		86.473510	-17.488122	3.343658
17577		86.404565	-17.422263	3.319119
17578		86.335768	-17.369061	3.326129
17579		86.286607	-17.335051	3.350268
17580		86.248110	-17.318378	3.384409
17581		86.211427	-17.317442	3.414069
17582		86.173667	-17.319655	3.441168
17583		86.142039	-17.327685	3.455372
17584		86.113745	-17.337641	3.460654
17585		86.091971	-17.350546	3.443737
17586		86.076205	-17.360042	3.423779
17587		86.069902	-17.365015	3.405036
17588		86.065215	-17.363501	3.397921
17589		86.065759	-17.356817	3.402002
17590		86.068367	-17.349147	3.405659
17591		86.069220	-17.341238	3.410717
17592		86.064452	-17.330427	3.422901
17593		86.051711	-17.318203	3.434304
17594		86.028483	-17.297643	3.451898
17595		86.012116	-17.280255	3.472448
17596		86.007031	-17.269183	3.490541
17597		86.018082	-17.260595	3.504828
17598		86.040632	-17.246381	3.512755
17599		86.070093	-17.233696	3.513386
17600		86.085584	-17.215717	3.509435
17601		86.088239	-17.184836	3.514166
17602		86.080293	-17.137995	3.523601
17603		86.070635	-17.074215	3.527648
17604		86.077325	-16.991996	3.526419
17605		86.113317	-16.901014	3.519770
17606		86.182393	-16.807352	3.510093
17607		86.283450	-16.716336	3.495625
17608		86.415922	-16.631525	3.472006
17609		86.571044	-16.554570	3.447011
17610		86.731728	-16.474818	3.425959
17611		86.880844	-16.398582	3.396466
17612		87.009204	-16.333886	3.352033
17613		87.132211	-16.281953	3.293498
17614		87.229673	-16.231891	3.227278
17615		87.306362	-16.184755	3.153455
17616		87.359681	-16.135630	3.087555
17617		87.382801	-16.082438	3.026665
17618		87.383257	-16.014008	2.984854
17619		87.370450	-15.933371	2.953469
17620		87.359721	-15.848557	2.930694
17621		87.373715	-15.780697	2.913976
17622		87.407028	-15.714273	2.896368
17623		87.435291	-15.649343	2.870387
17624		87.462000	-15.573687	2.844587
17625		87.496376	-15.490734	2.813631
17626		87.527940	-15.416674	2.770188
17627		87.564386	-15.342349	2.713490
17628		87.605462	-15.276273	2.641679
17629		87.660427	-15.234882	2.555104
17630		87.724197	-15.233417	2.454397
17631		87.794526	-15.273844	2.341277
17632		87.867872	-15.349741	2.240197
17633		87.940026	-15.457476	2.153399
17634		88.004118	-15.566395	2.092331
17635		88.048253	-15.667684	2.040544
17636		88.080387	-15.749684	1.992571
17637		88.119561	-15.810895	1.945507
17638		88.165941	-15.865331	1.897594
17639		88.222975	-15.929204	1.848874
17640		88.283829	-16.006579	1.817471
17641		88.349641	-16.107171	1.800221
17642		88.411898	-16.234683	1.803759
17643		88.478299	-16.385119	1.819426
17644		88.536578	-16.549497	1.843817
17645		88.574790	-16.712693	1.871950
17646		88.584010	-16.862051	1.901742
17647		88.577279	-17.006438	1.933930
17648		88.581868	-17.167248	1.983397
17649		88.598190	-17.353689	2.052311
17650		88.607767	-17.575674	2.144951
17651		88.591953	-17.833128	2.267604
17652		88.547885	-18.119825	2.419552
17653		88.481966	-18.431770	2.599308
17654		88.402237	-18.757746	2.793197
17655		88.332341	-19.074219	2.991451
17656		88.255623	-19.368966	3.188212
17657		88.182851	-19.643074	3.365162
17658		88.109079	-19.902983	3.517277
17659		88.050659	-20.172805	3.645884
17660		88.028721	-20.479234	3.766502
17661		88.063957	-20.844688	3.889961
17662		88.134715	-21.256048	4.020421
17663		88.212113	-21.691109	4.142884
17664		88.287869	-22.123544	4.248080
17665		88.362394	-22.553670	4.335968
17666		88.438614	-22.978140	4.400758
17667		88.506785	-23.397094	4.435889
17668		88.556942	-23.798203	4.449662
17669		88.614793	-24.193560	4.455180
17670		88.690345	-24.611575	4.462984
17671		88.776358	-25.057842	4.468605
17672		88.860656	-25.549165	4.478457
17673		88.946202	-26.082832	4.479992
17674		89.059770	-26.648215	4.492957
17675		89.219774	-27.240524	4.511456
17676		89.423118	-27.844059	4.538760
17677		89.649906	-28.438182	4.566996
17678		89.866307	-29.013797	4.605740
17679		90.053608	-29.564586	4.645063
17680		90.189620	-30.094016	4.693279
17681		90.281900	-30.616107	4.747087
17682		90.377797	-31.146239	4.828150
17683		90.496441	-31.693810	4.928378
17684		90.633322	-32.254158	5.048177
17685		90.788270	-32.818302	5.166785
17686		90.940588	-33.389655	5.292911
17687		91.077479	-33.956241	5.417292
17688		91.179573	-34.518165	5.543149
17689		91.243049	-35.088702	5.664798
17690		91.275652	-35.656588	5.799729
17691		91.284217	-36.221275	5.940256
17692		91.277221	-36.782073	6.085791
17693		91.269152	-37.346443	6.226376
17694		91.281294	-37.930263	6.366887
17695		91.317234	-38.539786	6.495797
17696		91.378429	-39.167127	6.618548
17697		91.450112	-39.801010	6.721427
17698		91.529546	-40.435399	6.819946
17699		91.636097	-41.067084	6.896405
17700		91.753559	-41.689845	6.962667
17701		91.859787	-42.296694	7.033249
17702		91.942382	-42.890591	7.131906
17703		91.998462	-43.481644	7.238169
17704		92.043738	-44.074171	7.358527
17705		92.091660	-44.670892	7.490552
17706		92.129845	-45.255089	7.624466
17707		92.158921	-45.829362	7.751386
17708		92.179717	-46.387951	7.870380
17709		92.179712	-46.928216	7.964813
17710		92.158334	-47.456329	8.044085
17711		92.116675	-47.990436	8.111632
17712		92.048576	-48.558209	8.199592
17713		91.966873	-49.161475	8.304349
17714		91.864928	-49.792243	8.436544
17715		91.759315	-50.436048	8.575440
17716		91.664498	-51.076051	8.719313
17717		91.588035	-51.698985	8.857425
17718		91.520599	-52.302903	8.997034
17719		91.454255	-52.890772	9.138000
17720		91.367640	-53.466856	9.292712
17721		91.288216	-54.044672	9.438227
17722		91.226092	-54.630141	9.579174
17723		91.190662	-55.211058	9.707134
17724		91.163677	-55.786489	9.817655
17725		91.138752	-56.360550	9.911045
17726		91.088465	-56.940443	10.010054
17727		91.007460	-57.528411	10.109728
17728		90.910188	-58.119802	10.212053
17729		90.870164	-58.711042	10.272942
17730		90.934335	-59.297263	10.265667
17731		91.101257	-59.868360	10.199561
17732		91.338048	-60.415527	10.093666
17733		91.605060	-60.940033	9.970058
17734		91.871949	-61.460192	9.848381
17735		92.121493	-61.986487	9.741552
17736		92.317506	-62.507885	9.674459
17737		92.470041	-63.012258	9.645215
17738		92.599014	-63.489491	9.642920
17739		92.702482	-63.922828	9.663973
17740		92.783962	-64.328293	9.709546
17741		92.858592	-64.723500	9.765214
17742		92.918123	-65.121860	9.832918
17743		92.959759	-65.520486	9.889682
17744		92.969332	-65.917928	9.959713
17745		92.976356	-66.301854	10.038838
17746		92.988465	-66.672714	10.140337
17747		93.004696	-67.036050	10.268792
17748		93.023187	-67.384766	10.423484
17749		93.050855	-67.699996	10.550680
17750		93.095401	-67.968847	10.626820
17751		93.193790	-68.191036	10.615393
17752		93.322967	-68.366709	10.548432
17753		93.482115	-68.509324	10.438585
17754		93.634067	-68.659092	10.379982
17755		93.757956	-68.829415	10.409200
17756		93.833384	-69.031740	10.538029
17757		93.843679	-69.240816	10.741208
17758		93.751611	-69.440957	11.006473
17759		93.542389	-69.638765	11.348675
17760		93.225177	-69.844395	11.778343
17761		92.881003	-70.075292	12.215317
17762		92.578761	-70.337566	12.598321
17763		92.416183	-70.625059	12.848989
17764		92.394167	-70.926713	12.979431
17765		92.482103	-71.237170	12.993538
17766		92.623441	-71.539752	12.944152
17767		92.744708	-71.829206	12.890284
17768		92.748428	-72.096628	12.925497
17769		92.627393	-72.335012	13.060399
17770		92.389959	-72.535751	13.282338
17771		92.113913	-72.703764	13.533622
17772		91.878531	-72.846420	13.756615
17773		91.750782	-72.984917	13.894000
17774		91.713294	-73.130785	13.955869
17775		91.741537	-73.277730	13.940621
17776		91.779985	-73.420857	13.902402
17777		91.797141	-73.547625	13.863344
17778		91.774808	-73.644435	13.847289
17779		91.705543	-73.714785	13.861795
17780		91.578195	-73.764246	13.937773
17781		91.426766	-73.802118	14.045074
17782		91.285210	-73.834168	14.136016
17783		91.198666	-73.879674	14.162340
17784		91.167749	-73.945312	14.129494
17785		91.149946	-74.025592	14.068773
17786		91.120029	-74.121985	13.985387
17787		91.049453	-74.240425	13.912447
17788		90.883265	-74.386383	13.891442
17789		90.639049	-74.572134	13.901342
17790		90.348219	-74.801145	13.920214
17791		90.050158	-75.067360	13.902940
17792		89.747730	-75.370651	13.840952
17793		89.458683	-75.738382	13.710346
17794		89.163089	-76.183578	13.547979
17795		88.881504	-76.736267	13.321994
17796		88.621585	-77.425525	13.036819
17797		88.381591	-78.257269	12.700311
17798		88.217226	-79.197535	12.252116
17799		88.188798	-80.237122	11.631848
17800		88.245142	-81.345165	10.908070
17801		88.285670	-82.492228	10.193160
17802		88.167256	-83.667249	9.636445
17803		87.554724	-84.862988	9.632809
17804		86.156718	-86.077748	10.486654
17805		83.561146	-87.297937	12.609688
17806		77.237867	-88.484075	18.550934
17807		42.901536	-89.545297	52.579920
17808		-70.297993	-89.132697	165.524026
17809		-83.526224	-88.098878	178.496140
17810		-87.682756	-87.100837	-177.616999
17811		-89.984616	-86.164580	-175.611515
17812		-91.492754	-85.293038	-174.420711
17813		-92.553178	-84.468488	-173.669327
17814		-93.394282	-83.679789	-173.082883
17815		-94.058842	-82.919711	-172.602027
17816		-94.544616	-82.194583	-172.246356
17817		-94.926789	-81.518583	-171.963957
17818		-95.234526	-80.894883	-171.742516
17819		-95.511417	-80.339803	-171.541862
17820		-95.767395	-79.845592	-171.346295
17821		-96.013979	-79.390005	-171.133381
17822		-96.317675	-78.948207	-170.822264
17823		-96.678487	-78.486138	-170.393075
17824		-97.095691	-77.990380	-169.860185
17825		-97.577785	-77.474916	-169.249186
17826		-98.087181	-76.954948	-168.644859
17827		-98.664466	-76.446122	-168.041606
17828		-99.236416	-75.963720	-167.519345
17829		-99.821193	-75.506447	-167.057609
17830		-100.355912	-75.074953	-166.682774
17831		-100.792958	-74.666151	-166.397342
17832		-101.112487	-74.291595	-166.214679
17833		-101.323427	-73.942898	-166.129911
17834		-101.419982	-73.647962	-166.137411
17835		-101.391889	-73.431869	-166.247585
17836		-101.285878	-73.314594	-166.432233
17837		-101.121964	-73.289382	-166.663978
17838		-100.911192	-73.337787	-166.914469
17839		-100.705283	-73.433689	-167.139688
17840		-100.512836	-73.563774	-167.343720
17841		-100.310243	-73.703926	-167.521856
17842		-100.073384	-73.830526	-167.710094
17843		-99.857336	-73.936076	-167.874250
17844		-99.691945	-74.024102	-168.013418
17845		-99.598388	-74.096171	-168.122591
17846		-99.566710	-74.165433	-168.200456
17847		-99.566689	-74.233000	-168.260163
17848		-99.593279	-74.314383	-168.296322
17849		-99.624474	-74.407281	-168.317897
17850		-99.670959	-74.520905	-168.309444
17851		-99.761293	-74.644488	-168.241347
17852		-99.899335	-74.781527	-168.121266
17853		-100.070970	-74.936385	-167.953839
17854		-100.253026	-75.122070	-167.748322
17855		-100.465624	-75.346070	-167.489347
17856		-100.696737	-75.637362	-167.198851
17857		-100.946030	-76.014051	-166.868195
17858		-101.201327	-76.483183	-166.506583
17859		-101.463981	-77.030457	-166.105981
17860		-101.745624	-77.639315	-165.665085
17861		-102.119052	-78.278604	-165.126210
17862		-102.565556	-78.938064	-164.509109
17863		-103.170523	-79.598858	-163.753563
17864		-104.030494	-80.252873	-162.771362
17865		-105.141612	-80.902161	-161.538506
17866		-106.509004	-81.548033	-160.052221
17867		-108.173206	-82.189101	-158.286598
17868		-110.174890	-82.834375	-156.206521
17869		-112.554853	-83.477765	-153.744204
17870		-115.385278	-84.107930	-150.828246
17871		-118.814231	-84.718311	-147.328325
17872		-123.020642	-85.323494	-143.086951
17873		-128.310967	-85.916011	-137.817833
17874		-135.257617	-86.483573	-130.949059
17875		-144.316271	-86.980031	-121.974772
17876		-155.922705	-87.369858	-110.431537
17877		-170.048347	-87.604073	-96.348892
17878		174.391742	-87.661034	-80.812707
17879		159.465208	-87.543579	-65.894844
17880		146.789087	-87.265661	-53.218083
17881		137.030513	-86.870971	-43.448612
17882		129.621587	-86.380518	-36.050438
17883		124.194969	-85.833898	-30.666877
17884		120.174992	-85.257217	-26.716545
17885		117.157573	-84.676229	-23.783795
17886		114.814898	-84.095820	-21.514605
17887		112.923738	-83.516476	-19.675243
17888		111.285229	-82.929838	-18.076493
17889		109.835752	-82.336958	-16.643744
17890		108.547079	-81.746715	-15.356081
17891		107.390442	-81.164541	-14.196569
17892		106.373023	-80.582327	-13.204195
17893		105.499853	-80.008118	-12.402033
17894		104.735298	-79.442382	-11.760023
17895		104.041621	-78.894552	-11.216117
17896		103.369964	-78.365639	-10.714146
17897		102.706586	-77.854403	-10.242297
17898		101.992796	-77.339857	-9.729820
17899		101.282444	-76.823267	-9.215412
17900		100.581111	-76.298960	-8.700468
17901		99.913802	-75.761064	-8.190212
17902		99.286246	-75.211521	-7.674327
17903		98.682465	-74.649457	-7.154746
17904		98.077601	-74.073030	-6.614045
17905		97.534575	-73.496761	-6.119414
17906		97.085439	-72.921823	-5.697700
17907		96.738800	-72.338235	-5.353431
17908		96.495513	-71.741388	-5.113420
17909		96.354489	-71.137477	-4.969056
17910		96.274529	-70.525983	-4.880243
17911		96.186835	-69.906681	-4.803147
17912		96.012592	-69.280844	-4.664663
17913		95.726631	-68.647747	-4.444529
17914		95.367091	-68.004204	-4.140886
17915		94.989993	-67.365612	-3.782024
17916		94.642448	-66.737446	-3.425553
17917		94.368327	-66.118735	-3.137847
17918		94.150375	-65.511510	-2.893150
17919		93.983434	-64.915473	-2.703468
17920		93.810087	-64.308746	-2.523033
17921		93.617860	-63.686000	-2.358549
17922		93.395221	-63.048045	-2.179771
17923		93.156917	-62.397888	-1.991422
17924		92.905589	-61.732981	-1.792285
17925		92.671815	-61.064332	-1.592368
17926		92.448887	-60.386426	-1.388304
17927		92.250859	-59.696265	-1.218239
17928		92.072363	-58.995674	-1.082328
17929		91.920276	-58.293181	-0.980401
17930		91.794240	-57.590564	-0.893568
17931		91.666791	-56.884782	-0.814439
17932		91.521523	-56.175155	-0.726525
17933		91.364729	-55.475936	-0.651915
17934		91.188810	-54.791534	-0.581288
17935		90.998960	-54.120357	-0.508234
17936		90.787094	-53.457757	-0.420066
17937		90.572762	-52.797648	-0.338808
17938		90.378260	-52.135001	-0.263524
17939		90.230199	-51.473551	-0.198533
17940		90.104232	-50.799054	-0.139568
17941		90.002587	-50.118939	-0.090948
17942		89.934326	-49.446658	-0.055378
17943		89.904689	-48.788902	-0.045236
17944		89.890176	-48.129025	-0.044949
17945		89.877050	-47.470121	-0.061038
17946		89.859791	-46.809876	-0.091331
17947		89.812469	-46.138351	-0.148435
17948		89.726747	-45.458053	-0.213122
17949		89.626346	-44.774453	-0.274550
17950		89.504450	-44.100588	-0.323772
17951		89.374072	-43.451717	-0.359067
17952		89.261610	-42.829617	-0.384425
17953		89.205411	-42.249303	-0.431763
17954		89.190160	-41.705025	-0.500251
17955		89.195271	-41.188281	-0.587264
17956		89.177928	-40.677142	-0.679753
17957		89.120235	-40.173366	-0.770437
17958		89.030349	-39.673573	-0.841744
17959		88.912649	-39.182049	-0.894333
17960		88.801765	-38.703855	-0.926092
17961		88.755382	-38.250363	-0.955780
17962		88.769284	-37.836363	-0.997765
17963		88.812515	-37.455297	-1.063068
17964		88.852735	-37.093466	-1.132073
17965		88.865180	-36.745063	-1.201880
17966		88.832935	-36.406251	-1.263896
17967		88.753885	-36.084909	-1.322288
17968		88.642087	-35.783255	-1.362780
17969		88.517669	-35.496201	-1.381580
17970		88.396565	-35.205244	-1.373968
17971		88.279731	-34.906200	-1.346444
17972		88.176462	-34.601085	-1.309670
17973		88.088819	-34.294735	-1.264530
17974		88.003020	-33.978611	-1.206503
17975		87.890049	-33.659385	-1.147438
17976		87.742988	-33.340592	-1.092184
17977		87.570419	-33.017107	-1.035245
17978		87.383044	-32.674224	-0.980395
17979		87.204624	-32.300297	-0.929760
17980		87.064996	-31.903869	-0.879851
17981		86.979744	-31.498931	-0.834579
17982		86.914240	-31.087908	-0.790418
17983		86.842787	-30.673226	-0.746284
17984		86.753698	-30.252551	-0.704770
17985		86.666538	-29.839985	-0.680115
17986		86.577093	-29.437805	-0.673841
17987		86.492259	-29.040665	-0.690140
17988		86.407173	-28.642696	-0.725050
17989		86.331786	-28.253390	-0.774416
17990		86.262930	-27.876761	-0.823965
17991		86.200341	-27.517625	-0.865464
17992		86.116067	-27.157126	-0.884247
17993		85.983627	-26.768856	-0.863317
17994		85.811733	-26.305305	-0.768093
17995		85.637027	-25.781848	-0.601604
17996		85.488318	-25.223275	-0.373358
17997		85.356161	-24.656716	-0.106970
17998		85.201133	-24.096702	0.165972
17999		85.033634	-23.527618	0.442552
18000		84.871361	-22.919147	0.722846
18001		84.725981	-22.306471	1.004772
18002		84.620617	-21.742904	1.263260
18003		84.563843	-21.286334	1.473472
18004		84.537834	-20.968080	1.619627
18005		84.493360	-20.751031	1.701239
18006		84.421912	-20.595414	1.732840
18007		84.330418	-20.495775	1.717336
18008		84.225032	-20.444918	1.682041
18009		84.087395	-20.388611	1.637006
18010		83.857567	-20.271154	1.577536
18011		83.548060	-20.071483	1.502421
18012		83.229151	-19.771233	1.447482
18013		82.950394	-19.363822	1.432817
18014		82.764773	-18.856948	1.477476
18015		82.713985	-18.266905	1.577190
18016		82.836252	-17.620711	1.713545
18017		83.068072	-16.939006	1.853126
18018		83.307155	-16.219284	1.986976
18019		83.457729	-15.464265	2.129380
18020		83.463086	-14.693482	2.290443
18021		83.031822	-14.165661	2.411788
18022		82.399634	-14.064130	2.466253
18023		82.074840	-14.109160	2.610920
18024		81.818911	-14.247006	2.725047
18025		81.616892	-14.368374	2.810891
18026		81.414656	-14.438974	2.868179
18027		81.135361	-14.498526	2.927813
18028		80.780508	-14.544556	3.037952
18029		80.397620	-14.589015	3.174671
18030		80.031124	-14.639320	3.314160
18031		79.702867	-14.697807	3.441536
18032		79.406959	-14.752302	3.562565
18033		79.127879	-14.804624	3.675012
18034		78.856810	-14.848924	3.779894
18035		78.609075	-14.889182	3.867914
18036		78.388276	-14.920473	3.945766
18037		78.204093	-14.938999	4.016800
18038		78.063646	-14.948864	4.073177
18039		77.969207	-14.954063	4.104798
18040		77.907278	-14.959208	4.115997
18041		77.873820	-14.960570	4.101766
18042		77.860101	-14.965594	4.071940
18043		77.865481	-14.969401	4.036347
18044		77.878744	-14.972628	4.005542
18045		77.897206	-14.978566	3.978320
18046		77.908080	-14.988005	3.950639
18047		77.906701	-14.993270	3.924166
18048		77.881238	-14.996213	3.899080
18049		77.836962	-15.002739	3.882285
18050		77.767708	-14.993265	3.877804
18051		77.675345	-14.979614	3.884125
18052		77.567843	-14.977202	3.898379
18053		77.459241	-14.978169	3.915708
18054		77.349318	-14.976400	3.937460
18055		77.238972	-14.972468	3.955772
18056		77.122009	-14.965391	3.976092
18057		77.008464	-14.958094	3.998949
18058		76.893544	-14.955575	4.028119
18059		76.784993	-14.960840	4.052329
18060		76.689944	-14.968945	4.075018
18061		76.619796	-14.974015	4.094400
18062		76.567736	-14.975506	4.108073
18063		76.538309	-14.970572	4.113570
18064		76.523765	-14.963493	4.116092
18065		76.525582	-14.945265	4.118824
18066		76.539328	-14.920410	4.119061
18067		76.561643	-14.897519	4.114327
18068		76.587199	-14.872981	4.111705
18069		76.622674	-14.845314	4.102811
18070		76.661169	-14.812205	4.085589
18071		76.703250	-14.773087	4.068626
18072		76.739909	-14.733526	4.057417
18073		76.773074	-14.691675	4.060168
18074		76.795930	-14.648779	4.072526
18075		76.822838	-14.610814	4.091052
18076		76.857669	-14.589398	4.099221
18077		76.914508	-14.586094	4.093694
18078		76.993870	-14.597819	4.076458
18079		77.098241	-14.617381	4.052456
18080		77.222619	-14.627680	4.024632
18081		77.371303	-14.616557	3.989303
18082		77.545487	-14.584805	3.946803
18083		77.742989	-14.538527	3.889063
18084		77.956206	-14.481851	3.821219
18085		78.184578	-14.425380	3.748032
18086		78.422900	-14.364696	3.679118
18087		78.663790	-14.304879	3.611082
18088		78.904801	-14.251302	3.539123
18089		79.133964	-14.208401	3.464956
18090		79.339669	-14.171619	3.391897
18091		79.511382	-14.135178	3.329422
18092		79.642444	-14.087244	3.290706
18093		79.726775	-14.030588	3.280055
18094		79.773171	-13.968060	3.301998
18095		79.804462	-13.906432	3.354383
18096		79.833316	-13.851558	3.421029
18097		79.875437	-13.809736	3.496486
18098		79.944828	-13.781034	3.570880
18099		80.043358	-13.754684	3.637643
18100		80.153339	-13.717241	3.706241
18101		80.273694	-13.668750	3.773960
18102		80.404718	-13.614278	3.837237
18103		80.546872	-13.559178	3.885045
18104		80.684338	-13.493148	3.917201
18105		80.794275	-13.430089	3.922106
18106		80.882797	-13.391122	3.911127
18107		80.974127	-13.383710	3.889647
18108		81.061550	-13.405284	3.865803
18109		81.143768	-13.452626	3.833454
18110		81.218603	-13.524106	3.798729
18111		81.281789	-13.626607	3.761815
18112		81.314547	-13.774146	3.721681
18113		81.306886	-13.980784	3.671385
18114		81.249562	-14.241313	3.610791
18115		81.147648	-14.539053	3.546174
18116		81.024838	-14.854306	3.484753
18117		80.910880	-15.164852	3.431789
18118		80.841772	-15.464762	3.391684
18119		80.843957	-15.756540	3.359245
18120		80.917311	-16.036574	3.325899
18121		81.056748	-16.302663	3.280777
18122		81.221700	-16.562632	3.224350
18123		81.395243	-16.828889	3.159600
18124		81.555611	-17.103718	3.096501
18125		81.700945	-17.395418	3.037316
18126		81.838270	-17.706390	2.999821
18127		81.970742	-18.035025	2.986828
18128		82.093501	-18.374378	3.005416
18129		82.216144	-18.723157	3.042537
18130		82.336941	-19.080905	3.088915
18131		82.452084	-19.440000	3.145015
18132		82.560612	-19.796509	3.202708
18133		82.651583	-20.151109	3.266460
18134		82.720916	-20.505184	3.339992
18135		82.773782	-20.874553	3.417777
18136		82.814478	-21.268008	3.504227
18137		82.856410	-21.680963	3.588101
18138		82.901920	-22.098308	3.674034
18139		82.968893	-22.508787	3.764846
18140		83.059855	-22.913886	3.853777
18141		83.182539	-23.317142	3.939887
18142		83.311228	-23.716304	4.028828
18143		83.422521	-24.110957	4.111603
18144		83.522271	-24.506660	4.190926
18145		83.630285	-24.911618	4.261040
18146		83.752604	-25.333293	4.320994
18147		83.883490	-25.759457	4.376389
18148		84.009660	-26.181425	4.423558
18149		84.126056	-26.607176	4.467027
18150		84.227676	-27.046147	4.518579
18151		84.322405	-27.505507	4.578149
18152		84.419944	-27.990280	4.648211
18153		84.555395	-28.479983	4.725162
18154		84.713269	-28.960066	4.804710
18155		84.882541	-29.416961	4.871334
18156		85.048782	-29.849061	4.941835
18157		85.201223	-30.260840	5.001196
18158		85.327042	-30.657827	5.049865
18159		85.432270	-31.047254	5.067278
18160		85.525668	-31.436686	5.072265
18161		85.618777	-31.819709	5.062138
18162		85.711088	-32.205970	5.062026
18163		85.806130	-32.601082	5.077005
18164		85.922557	-33.018368	5.128878
18165		86.061800	-33.462514	5.213409
18166		86.217317	-33.922268	5.320946
18167		86.378526	-34.375340	5.417862
18168		86.511116	-34.809691	5.507703
18169		86.615938	-35.228480	5.580627
18170		86.683021	-35.645656	5.637225
18171		86.724719	-36.066778	5.675681
18172		86.763842	-36.498642	5.709086
18173		86.814618	-36.939117	5.744042
18174		86.889191	-37.382749	5.795224
18175		86.997918	-37.814585	5.870645
18176		87.105633	-38.221299	5.978676
18177		87.210713	-38.596908	6.108177
18178		87.296538	-38.945373	6.251747
18179		87.355200	-39.289333	6.399780
18180		87.379601	-39.648722	6.555817
18181		87.371791	-40.036375	6.696692
18182		87.331872	-40.453934	6.823569
18183		87.257246	-40.894131	6.922542
18184		87.146319	-41.356079	7.007622
18185		87.019466	-41.852935	7.088237
18186		86.901848	-42.385991	7.189888
18187		86.794364	-42.954556	7.310872
18188		86.704718	-43.544913	7.442758
18189		86.645937	-44.153627	7.575094
18190		86.628040	-44.782275	7.707130
18191		86.659333	-45.424359	7.826741
18192		86.715711	-46.064000	7.929172
18193		86.765001	-46.683508	8.013890
18194		86.791769	-47.274372	8.080879
18195		86.832796	-47.857385	8.120318
18196		86.898928	-48.455357	8.142701
18197		86.995589	-49.095943	8.147389
18198		87.150339	-49.783342	8.155321
18199		87.376045	-50.502943	8.170120
18200		87.675000	-51.238714	8.207201
18201		88.033508	-51.958724	8.281931
18202		88.420668	-52.627922	8.397039
18203		88.814209	-53.241708	8.550747
18204		89.197783	-53.810677	8.735012
18205		89.584171	-54.363230	8.918450
18206		89.959142	-54.910814	9.089418
18207		90.261211	-55.455594	9.256938
18208		90.475062	-56.001253	9.401765
18209		90.574334	-56.551207	9.541769
18210		90.555769	-57.109449	9.697050
18211		90.425508	-57.674725	9.890947
18212		90.164788	-58.248752	10.137116
18213		89.827191	-58.848068	10.424393
18214		89.483025	-59.478877	10.735588
18215		89.186088	-60.127980	11.041461
18216		88.959613	-60.772450	11.317417
18217		88.818837	-61.399320	11.550750
18218		88.725706	-61.985399	11.759767
18219		88.658522	-62.527360	11.937944
18220		88.606201	-63.050232	12.112800
18221		88.542803	-63.556331	12.289271
18222		88.423031	-64.044484	12.502508
18223		88.247727	-64.520019	12.766024
18224		87.977058	-64.976140	13.125992
18225		87.602948	-65.412048	13.614161
18226		87.136405	-65.825567	14.234322
18227		86.652591	-66.235265	14.910627
18228		86.220983	-66.654173	15.567750
18229		85.870369	-67.089286	16.144564
18230		85.592142	-67.542734	16.615901
18231		85.369696	-68.008926	16.981757
18232		85.147498	-68.470266	17.281989
18233		84.887090	-68.909197	17.549660
18234		84.611062	-69.325726	17.793340
18235		84.300492	-69.699167	18.063269
18236		84.024859	-70.031255	18.305904
18237		83.818900	-70.314988	18.491344
18238		83.681192	-70.553095	18.623637
18239		83.579766	-70.752982	18.727891
18240		83.443113	-70.917296	18.858576
18241		83.262173	-71.043425	19.029238
18242		83.056966	-71.132118	19.226204
18243		82.876761	-71.184951	19.403187
18244		82.764845	-71.216774	19.539191
18245		82.710918	-71.241415	19.631684
18246		82.678002	-71.265433	19.706873
18247		82.636699	-71.298415	19.774116
18248		82.559232	-71.335976	19.862772
18249		82.436882	-71.381514	19.971269
18250		82.278765	-71.448815	20.103360
18251		82.115715	-71.551319	20.226055
18252		81.959549	-71.696858	20.340242
18253		81.778494	-71.901991	20.455920
18254		81.491078	-72.165428	20.634152
18255		81.031242	-72.483027	20.918154
18256		80.335188	-72.850762	21.359997
18257		79.411430	-73.279568	21.961579
18258		78.261271	-73.782196	22.747626
18259		76.902101	-74.363330	23.710255
18260		75.336912	-75.032513	24.848326
18261		73.608581	-75.810614	26.138677
18262		71.704797	-76.682178	27.621933
18263		69.608136	-77.610069	29.324503
18264		67.349863	-78.565699	31.216343
18265		64.914389	-79.533042	33.322842
18266		62.183397	-80.485251	35.797596
18267		59.106552	-81.419807	38.660439
18268		55.523129	-82.336012	42.062501
18269		51.159550	-83.241969	46.297256
18270		45.634958	-84.119094	51.788519
18271		38.375954	-84.924529	59.084306
18272		28.857509	-85.607290	68.670608
18273		16.955584	-86.095493	80.630275
18274		3.578279	-86.352489	94.019208
18275		-9.773565	-86.390879	107.322169
18276		-21.762015	-86.247856	119.193323
18277		-31.740413	-85.989313	128.976582
18278		-40.061469	-85.656180	137.036912
18279		-47.291489	-85.271593	143.975443
18280		-53.624098	-84.835955	150.027425
18281		-59.194345	-84.329966	155.344723
18282		-63.880306	-83.751998	159.789542
18283		-67.734949	-83.123708	163.400840
18284		-70.843566	-82.475017	166.247632
18285		-73.334598	-81.846129	168.442950
18286		-75.316210	-81.247046	170.117048
18287		-77.027988	-80.661809	171.552104
18288		-78.431092	-80.090075	172.760083
18289		-79.649908	-79.506725	173.898751
18290		-80.598473	-78.910480	174.869259
18291		-81.389298	-78.326316	175.735060
18292		-82.002564	-77.771172	176.412323
18293		-82.468263	-77.256248	176.893396
18294		-82.791782	-76.796695	177.143230
18295		-83.038998	-76.385784	177.215567
18296		-83.272103	-76.004469	177.189357
18297		-83.525905	-75.625996	177.158837
18298		-83.770700	-75.245132	177.163308
18299		-84.016606	-74.855019	177.234741
18300		-84.275687	-74.476218	177.407869
18301		-84.496924	-74.134682	177.637997
18302		-84.699761	-73.848416	177.906587
18303		-84.964061	-73.619658	178.258343
18304		-85.314177	-73.452819	178.690835
18305		-85.697301	-73.336231	179.148046
18306		-86.072086	-73.250434	179.585265
18307		-86.414013	-73.183130	179.974653
18308		-86.634158	-73.126636	-179.755641
18309		-86.749925	-73.073350	-179.604605
18310		-86.799815	-73.026767	-179.545752
18311		-86.800784	-72.991397	-179.546582
18312		-86.769166	-72.966272	-179.585444
18313		-86.757805	-72.942828	-179.603294
18314		-86.794640	-72.915117	-179.559752
18315		-86.916685	-72.885853	-179.419062
18316		-87.127716	-72.854793	-179.180705
18317		-87.384043	-72.826276	-178.885334
18318		-87.608510	-72.804587	-178.610616
18319		-87.787574	-72.784675	-178.375682
18320		-87.885570	-72.774615	-178.229542
18321		-87.932251	-72.770384	-178.146104
18322		-87.920573	-72.764784	-178.143692
18323		-87.873503	-72.752504	-178.200823
18324		-87.827095	-72.724249	-178.267357
18325		-87.788077	-72.682370	-178.331627
18326		-87.772742	-72.644187	-178.369790
18327		-87.806300	-72.617055	-178.361908
18328		-87.842280	-72.610656	-178.352695
18329		-87.846899	-72.621541	-178.375708
18330		-87.789516	-72.653939	-178.460990
18331		-87.694684	-72.700131	-178.584907
18332		-87.584234	-72.765858	-178.731459
18333		-87.499745	-72.845369	-178.861807
18334		-87.481554	-72.939728	-178.931241
18335		-87.534898	-73.042682	-178.928251
18336		-87.644883	-73.149386	-178.864272
18337		-87.778970	-73.268993	-178.755713
18338		-87.896286	-73.422864	-178.626624
18339		-88.006532	-73.610041	-178.456170
18340		-88.156148	-73.833517	-178.214150
18341		-88.340394	-74.092412	-177.909431
18342		-88.545105	-74.381114	-177.567251
18343		-88.764958	-74.692770	-177.204389
18344		-88.963544	-75.024259	-176.866585
18345		-89.143904	-75.358182	-176.558951
18346		-89.280158	-75.692500	-176.308668
18347		-89.368373	-76.024640	-176.123486
18348		-89.412911	-76.365730	-176.008459
18349		-89.412676	-76.719433	-175.976116
18350		-89.357637	-77.100386	-176.029302
18351		-89.262030	-77.522815	-176.135257
18352		-89.130838	-77.995166	-176.286026
18353		-88.971461	-78.516178	-176.475791
18354		-88.811326	-79.083095	-176.675090
18355		-88.616256	-79.686405	-176.913991
18356		-88.329794	-80.310762	-177.219996
18357		-87.889089	-80.932917	-177.646967
18358		-87.241491	-81.553105	-178.256434
18359		-86.343986	-82.172139	-179.110423
18360		-85.063692	-82.802882	179.628662
18361		-83.369212	-83.444813	177.926000
18362		-81.077201	-84.096644	175.615037
18363		-78.113199	-84.738429	172.617271
18364		-74.216126	-85.366067	168.667463
18365		-69.104505	-85.964433	163.467710
18366		-62.270653	-86.514551	156.521642
18367		-53.395240	-86.991094	147.515271
18368		-41.988584	-87.365531	135.974861
18369		-27.836571	-87.607191	121.701463
18370		-11.725682	-87.683819	105.476697
18371		4.267698	-87.584585	89.364554
18372		18.181798	-87.321111	75.319439
18373		29.161247	-86.929667	64.197283
18374		37.485425	-86.447724	55.721161
18375		43.710046	-85.906341	49.336480
18376		48.482361	-85.325298	44.421509
18377		52.241150	-84.728370	40.565379
18378		55.390312	-84.112634	37.365686
18379		58.103686	-83.494684	34.636698
18380		60.517297	-82.875920	32.216887
18381		62.583695	-82.251574	30.117717
18382		64.342042	-81.618214	28.261549
18383		65.861256	-80.993669	26.579613
18384		67.155241	-80.378706	25.098557
18385		68.269779	-79.789249	23.807967
18386		69.249920	-79.209068	22.711806
18387		70.156110	-78.629039	21.765824
18388		71.009982	-78.033781	20.933345
18389		71.822700	-77.424115	20.184385
18390		72.584068	-76.801346	19.504458
18391		73.289355	-76.166244	18.870182
18392		73.939199	-75.529764	18.276029
18393		74.553991	-74.900494	17.691814
18394		75.164438	-74.287956	17.092204
18395		75.753827	-73.698357	16.496164
18396		76.314357	-73.123271	15.918343
18397		76.840808	-72.556264	15.363812
18398		77.334352	-71.976326	14.847311
18399		77.854790	-71.373632	14.335634
18400		78.453597	-70.745831	13.802016
18401		79.174720	-70.098063	13.209613
18402		79.994308	-69.431822	12.550640
18403		80.887736	-68.760570	11.829006
18404		81.751003	-68.091640	11.149545
18405		82.515468	-67.430939	10.555996
18406		83.151812	-66.778200	10.072330
18407		83.654031	-66.124813	9.709522
18408		84.035539	-65.477091	9.453844
18409		84.368046	-64.833940	9.243295
18410		84.719764	-64.186350	9.070870
18411		85.104834	-63.538120	8.929582
18412		85.484355	-62.888289	8.846727
18413		85.800533	-62.246898	8.856850
18414		85.979705	-61.616162	9.012375
18415		85.977187	-61.001747	9.307701
18416		85.771523	-60.398025	9.765848
18417		85.405291	-59.807770	10.332574
18418		84.890454	-59.223857	10.986719
18419		84.279322	-58.649873	11.656440
18420		83.649303	-58.087288	12.282211
18421		83.095796	-57.521242	12.793500
18422		82.721969	-56.945819	13.139615
18423		82.584348	-56.359958	13.291065
18424		82.680419	-55.755794	13.250907
18425		82.953842	-55.129946	13.068922
18426		83.347812	-54.483716	12.808190
18427		83.797981	-53.815144	12.533202
18428		84.207661	-53.129417	12.320235
18429		84.525024	-52.446232	12.193876
18430		84.725200	-51.774635	12.159962
18431		84.819795	-51.126784	12.157047
18432		84.854348	-50.502987	12.165716
18433		84.879600	-49.903623	12.137061
18434		84.885666	-49.330682	12.062315
18435		84.882940	-48.776446	11.942439
18436		84.888326	-48.232761	11.812898
18437		84.911947	-47.698783	11.663833
18438		84.955647	-47.165583	11.504154
18439		85.017750	-46.626981	11.326956
18440		85.088971	-46.077437	11.140640
18441		85.178096	-45.527050	10.946226
18442		85.267677	-44.975092	10.747762
18443		85.384958	-44.422187	10.523030
18444		85.554725	-43.855980	10.265848
18445		85.796814	-43.264939	9.973944
18446		86.091753	-42.639615	9.671762
18447		86.394206	-41.974501	9.381576
18448		86.661738	-41.271969	9.159058
18449		86.857683	-40.536147	9.016643
18450		86.951093	-39.787429	8.962249
18451		86.956454	-39.044967	8.988290
18452		86.948007	-38.326348	9.064574
18453		86.953360	-37.648839	9.154462
18454		86.981017	-36.997003	9.252546
18455		86.988791	-36.354568	9.331309
18456		86.941852	-35.710254	9.396693
18457		86.836426	-35.067027	9.441040
18458		86.669854	-34.445666	9.471271
18459		86.470709	-33.863968	9.476746
18460		86.261426	-33.305598	9.467485
18461		86.080170	-32.754980	9.439850
18462		85.941496	-32.189926	9.377092
18463		85.865301	-31.603186	9.277572
18464		85.865480	-31.002772	9.138721
18465		85.934596	-30.392477	8.964469
18466		86.045823	-29.770785	8.772873
18467		86.176205	-29.167045	8.571979
18468		86.293452	-28.575927	8.373232
18469		86.381894	-27.992838	8.175835
18470		86.453832	-27.421546	7.992575
18471		86.537766	-26.866706	7.830854
18472		86.641463	-26.339952	7.682462
18473		86.762908	-25.858129	7.532596
18474		86.890719	-25.416184	7.383400
18475		87.019504	-25.017081	7.231644
18476		87.140102	-24.656928	7.095943
18477		87.257268	-24.326926	6.979983
18478		87.364745	-24.005867	6.887886
18479		87.466013	-23.687746	6.822039
18480		87.568104	-23.375786	6.781542
18481		87.668225	-23.079715	6.764101
18482		87.718933	-22.803087	6.762652
18483		87.710915	-22.544418	6.791715
18484		87.639249	-22.307817	6.842448
18485		87.538065	-22.093677	6.900326
18486		87.440017	-21.909215	6.957176
18487		87.365844	-21.737141	6.996093
18488		87.315577	-21.567583	7.014804
18489		87.290824	-21.386935	7.018684
18490		87.294774	-21.200938	7.030335
18491		87.346010	-21.018888	7.033924
18492		87.449881	-20.832665	7.037467
18493		87.588149	-20.629561	7.048432
18494		87.714444	-20.418783	7.055689
18495		87.828460	-20.212159	7.057626
18496		87.932607	-20.020985	7.061844
18497		88.007165	-19.853103	7.055334
18498		88.066893	-19.700357	7.041711
18499		88.111053	-19.555005	7.009827
18500		88.115573	-19.389672	6.966083
18501		88.047503	-19.173466	6.899344
18502		87.942778	-18.881677	6.795347
18503		87.902987	-18.511740	6.652255
18504		87.987466	-18.084263	6.493521
18505		88.200224	-17.610873	6.341498
18506		88.511475	-17.111838	6.206416
18507		88.823238	-16.583562	6.099452
18508		89.049033	-16.025733	6.026591
18509		89.160871	-15.437927	5.982202
18510		88.908928	-14.948004	5.976103
18511		88.280039	-14.765037	5.901261
18512		87.883765	-14.734874	5.879916
18513		87.622130	-14.799057	5.848583
18514		87.451113	-14.870474	5.800902
18515		87.313463	-14.896651	5.717494
18516		87.193468	-14.867110	5.610181
18517		87.057984	-14.826601	5.504567
18518		86.913733	-14.792549	5.428097
18519		86.832429	-14.760275	5.395422
18520		86.826238	-14.714912	5.399968
18521		86.899791	-14.653284	5.400108
18522		87.037140	-14.576228	5.377855
18523		87.209462	-14.492596	5.315175
18524		87.392993	-14.412135	5.225692
18525		87.585178	-14.343721	5.124674
18526		87.754936	-14.294403	5.036673
18527		87.863667	-14.268401	4.971782
18528		87.894855	-14.261194	4.927506
18529		87.865251	-14.266564	4.909085
18530		87.778266	-14.274310	4.922575
18531		87.629038	-14.289186	4.967598
18532		87.440963	-14.311050	5.041314
18533		87.243371	-14.342751	5.129686
18534		87.051896	-14.374055	5.220384
18535		86.892570	-14.394465	5.305017
18536		86.767503	-14.403227	5.378752
18537		86.690708	-14.409753	5.424691
18538		86.659769	-14.409908	5.434024
18539		86.669104	-14.399632	5.419236
18540		86.704129	-14.385573	5.382699
18541		86.759296	-14.370144	5.337680
18542		86.818209	-14.350770	5.295744
18543		86.869709	-14.332297	5.265769
18544		86.908922	-14.315125	5.247963
18545		86.926476	-14.302326	5.243367
