// General information: 
//  MT Manager version: 2022.2.0 
//  XDA version: 2022.2.0 build 7381 rev 124627 built on 2023-07-19
// Device information: 
//  DeviceId: 00B447F1
//  ProductCode: MTW2-3A7G6
//  Firmware Version: 4.3.5
//  Hardware Version: 2.0.0
// Device settings: 
//  Filter Profile: human(46.1)
//  Option Flags: Orientation Smoother Disabled, Position/Velocity Smoother Disabled, Continuous Zero Rotation Update Disabled, AHS Disabled, ICC Disabled
// Coordinate system: ENU
PacketCounter	SampleTimeFine	Roll	Pitch	Yaw
15440		43.408179	65.495098	3.762294
15441		43.408122	65.494571	3.745458
15442		43.413443	65.493469	3.732763
15443		43.420513	65.494087	3.727330
15444		43.427336	65.495250	3.723959
15445		43.437918	65.498126	3.727313
15446		43.438886	65.497746	3.724270
15447		43.431078	65.499770	3.716116
15448		43.428309	65.505196	3.716001
15449		43.434117	65.516882	3.730659
15450		43.443386	65.528125	3.746542
15451		43.447880	65.536833	3.753233
15452		43.433766	65.539327	3.739896
15453		43.408486	65.534806	3.714851
15454		43.380958	65.525911	3.690454
15455		43.360418	65.517928	3.676869
15456		43.342450	65.507148	3.669274
15457		43.323843	65.492817	3.656628
15458		43.295194	65.473538	3.635314
15459		43.260342	65.450727	3.601184
15460		43.225905	65.431212	3.566999
15461		43.194398	65.421396	3.536246
15462		43.168338	65.419334	3.512773
15463		43.148681	65.422453	3.495117
15464		43.133080	65.423954	3.478238
15465		43.111965	65.421124	3.450236
15466		43.087103	65.410565	3.418134
15467		43.057300	65.384653	3.379012
15468		43.035542	65.343561	3.346911
15469		43.027749	65.288988	3.327820
15470		43.030428	65.221597	3.319706
15471		43.025202	65.148610	3.305587
15472		43.009555	65.089550	3.293482
15473		42.975719	65.045306	3.272851
15474		42.913021	65.013444	3.236380
15475		42.831579	64.981182	3.173660
15476		42.695445	64.930845	3.061473
15477		42.499279	64.821725	2.868064
15478		42.263006	64.636226	2.589669
15479		42.045142	64.409991	2.290421
15480		41.884807	64.203392	2.035684
15481		41.793844	64.057629	1.870239
15482		41.752415	63.981849	1.803672
15483		41.722997	63.954393	1.791483
15484		41.669598	63.943018	1.777321
15485		41.587865	63.924866	1.731196
15486		41.493767	63.887402	1.653906
15487		41.406939	63.829096	1.559337
15488		41.334511	63.754768	1.466178
15489		41.253871	63.672002	1.375928
15490		41.154343	63.592209	1.305980
15491		41.038217	63.525830	1.261730
15492		40.932835	63.465861	1.250627
15493		40.855189	63.395836	1.267777
15494		40.798432	63.308253	1.299032
15495		40.753133	63.216634	1.331501
15496		40.725987	63.137194	1.372072
15497		40.719524	63.076231	1.409369
15498		40.736449	63.032486	1.445375
15499		40.772914	63.007476	1.475308
15500		40.813784	62.995441	1.505003
15501		40.851968	62.987252	1.529734
15502		40.877086	62.975442	1.541530
15503		40.889672	62.955645	1.537528
15504		40.902250	62.933791	1.529594
15505		40.930099	62.910443	1.531147
15506		40.966218	62.885805	1.532099
15507		41.002798	62.864049	1.540060
15508		41.037179	62.852732	1.558020
15509		41.072906	62.857495	1.589663
15510		41.109628	62.876961	1.633680
15511		41.156925	62.906660	1.691159
15512		41.214152	62.939345	1.751142
15513		41.263452	62.964594	1.791133
15514		41.303725	62.983396	1.810125
15515		41.356112	62.987586	1.828945
15516		41.402197	62.977730	1.843264
15517		41.429089	62.958286	1.855433
15518		41.433028	62.935772	1.869871
15519		41.424032	62.914067	1.893995
15520		41.397842	62.889121	1.912376
15521		41.370692	62.856091	1.934859
15522		41.343012	62.816919	1.951000
15523		41.319345	62.768518	1.964918
15524		41.287135	62.709590	1.976263
15525		41.238691	62.650613	1.991035
15526		41.169889	62.593526	2.004418
15527		41.086633	62.539017	2.013679
15528		40.975277	62.476721	2.001214
15529		40.849070	62.408830	1.971431
15530		40.709885	62.332130	1.931256
15531		40.568815	62.245956	1.887459
15532		40.423598	62.141668	1.837674
15533		40.269531	62.022579	1.785375
15534		40.110574	61.892436	1.737049
15535		39.937372	61.749281	1.683410
15536		39.748865	61.596895	1.629350
15537		39.557320	61.442999	1.573905
15538		39.373568	61.282061	1.540256
15539		39.187260	61.121970	1.521326
15540		38.994352	60.964848	1.516955
15541		38.802427	60.807418	1.521455
15542		38.604170	60.642605	1.516170
15543		38.397093	60.466585	1.495181
15544		38.182370	60.274906	1.457685
15545		37.968397	60.078157	1.417853
15546		37.752121	59.873868	1.371679
15547		37.539554	59.658721	1.326366
15548		37.333436	59.437138	1.274279
15549		37.126764	59.213042	1.233505
15550		36.911862	58.987119	1.196540
15551		36.709369	58.758472	1.174444
15552		36.523416	58.525435	1.165264
15553		36.361058	58.284668	1.171033
15554		36.216416	58.030287	1.181079
15555		36.089094	57.764463	1.193188
15556		35.954925	57.491362	1.208705
15557		35.819764	57.209186	1.224223
15558		35.663971	56.912949	1.223939
15559		35.497537	56.597444	1.210576
15560		35.327708	56.260725	1.187458
15561		35.151972	55.911707	1.169533
15562		34.987042	55.561613	1.166177
15563		34.808305	55.216432	1.174018
15564		34.594332	54.879356	1.195108
15565		34.370464	54.540055	1.225623
15566		34.141971	54.193713	1.257958
15567		33.937872	53.839155	1.294345
15568		33.716668	53.476085	1.325842
15569		33.473101	53.101549	1.336920
15570		33.211040	52.711742	1.328419
15571		32.943181	52.326728	1.300903
15572		32.656512	51.946900	1.264924
15573		32.372205	51.566952	1.212650
15574		32.086289	51.181239	1.158559
15575		31.793234	50.782237	1.097791
15576		31.530103	50.374287	1.031343
15577		31.298356	49.957625	0.979572
15578		31.088717	49.540876	0.937054
15579		30.894435	49.126408	0.913107
15580		30.712628	48.719524	0.888756
15581		30.488190	48.317973	0.860678
15582		30.278629	47.908839	0.822339
15583		30.050974	47.498529	0.772438
15584		29.853264	47.084894	0.718631
15585		29.651261	46.676330	0.669738
15586		29.457635	46.270719	0.631373
15587		29.257872	45.878298	0.612729
15588		29.055169	45.504134	0.618283
15589		28.838263	45.139327	0.636816
15590		28.634039	44.785343	0.672042
15591		28.419043	44.444639	0.725317
15592		28.217518	44.107859	0.782511
15593		27.996652	43.783189	0.844972
15594		27.789250	43.475172	0.913270
15595		27.590674	43.178598	0.985588
15596		27.401796	42.890225	1.063747
15597		27.227713	42.607967	1.146236
15598		27.056751	42.340870	1.226819
15599		26.887285	42.094826	1.301456
15600		26.696191	41.865902	1.366295
15601		26.530016	41.649867	1.426938
15602		26.369064	41.448081	1.480061
15603		26.223474	41.255225	1.534233
15604		26.101679	41.066279	1.600066
15605		26.014821	40.875043	1.676464
15606		25.949322	40.684527	1.759580
15607		25.923117	40.487670	1.847345
15608		25.919356	40.293403	1.944023
15609		25.922835	40.105644	2.040969
15610		25.904846	39.935611	2.130991
15611		25.882294	39.785647	2.218112
15612		25.874987	39.647910	2.300912
15613		25.871243	39.524234	2.383644
15614		25.854617	39.421381	2.462364
15615		25.828445	39.336208	2.525679
15616		25.788821	39.259399	2.572618
15617		25.742322	39.191402	2.605320
15618		25.703086	39.119939	2.627144
15619		25.670604	39.030961	2.637190
15620		25.653998	38.939260	2.648431
15621		25.648342	38.847908	2.660741
15622		25.641813	38.763027	2.677814
15623		25.634163	38.682893	2.697375
15624		25.632055	38.588604	2.713427
15625		25.624593	38.491070	2.731937
15626		25.635577	38.392824	2.753380
15627		25.636539	38.287383	2.770983
15628		25.645677	38.177942	2.794322
15629		25.663820	38.057538	2.824865
15630		25.658475	37.929344	2.860521
15631		25.627895	37.800148	2.892392
15632		25.563159	37.671971	2.917785
15633		25.485465	37.553015	2.945283
15634		25.394943	37.441839	2.976119
15635		25.294912	37.335102	3.003245
15636		25.179523	37.233571	3.028704
15637		25.062533	37.131739	3.050907
15638		24.924869	37.032240	3.069980
15639		24.776972	36.935718	3.088010
15640		24.631225	36.841649	3.100090
15641		24.481377	36.749691	3.108130
15642		24.322980	36.659482	3.111378
15643		24.167648	36.571045	3.114395
15644		24.028542	36.470193	3.117384
15645		23.905436	36.358907	3.122344
15646		23.802018	36.241922	3.127421
15647		23.710748	36.129154	3.136916
15648		23.629796	36.026866	3.152671
15649		23.564435	35.932990	3.170808
15650		23.506969	35.826145	3.192839
15651		23.449418	35.702758	3.214429
15652		23.382107	35.575702	3.238158
15653		23.320880	35.454485	3.265927
15654		23.254204	35.344191	3.295241
15655		23.184799	35.246454	3.323511
15656		23.124638	35.155446	3.350112
15657		23.073140	35.066124	3.370218
15658		23.044641	34.966069	3.394511
15659		23.042822	34.854300	3.423998
15660		23.045170	34.744775	3.464562
15661		23.051047	34.652677	3.509737
15662		23.046972	34.581002	3.557251
15663		23.021011	34.526550	3.606135
15664		22.981102	34.478036	3.653837
15665		22.929315	34.425872	3.703631
15666		22.872226	34.373084	3.749073
15667		22.813322	34.328481	3.790091
15668		22.768731	34.288306	3.830783
15669		22.747710	34.255862	3.871307
15670		22.738626	34.239406	3.912318
15671		22.737264	34.231633	3.954140
15672		22.722974	34.220064	3.995618
15673		22.694340	34.202163	4.036504
15674		22.667106	34.177419	4.077906
15675		22.642974	34.153958	4.117654
15676		22.633062	34.139389	4.159981
15677		22.640079	34.130161	4.202561
15678		22.648131	34.128509	4.239313
15679		22.665820	34.134480	4.269865
15680		22.686874	34.147587	4.290387
15681		22.711525	34.169879	4.306773
15682		22.745178	34.200210	4.317349
15683		22.790965	34.244744	4.326417
15684		22.847499	34.297178	4.341050
15685		22.907422	34.354015	4.361034
15686		22.966127	34.404429	4.381925
15687		23.015152	34.452708	4.403826
15688		23.048519	34.500224	4.427731
15689		23.079723	34.548703	4.450745
15690		23.107211	34.600353	4.476678
15691		23.151278	34.659053	4.510431
15692		23.209252	34.716663	4.548464
15693		23.278682	34.767510	4.586038
15694		23.351634	34.805147	4.619083
15695		23.424765	34.831551	4.649238
15696		23.499460	34.852384	4.677702
15697		23.578875	34.869282	4.707973
15698		23.653266	34.884120	4.737776
15699		23.719094	34.903505	4.765802
15700		23.772948	34.920595	4.788691
15701		23.813823	34.938901	4.804901
15702		23.840861	34.956175	4.814830
15703		23.863127	34.972412	4.822108
15704		23.876897	34.987933	4.822414
15705		23.891989	35.000627	4.826200
15706		23.903602	35.007406	4.832783
15707		23.910864	35.004137	4.834491
15708		23.916681	34.991243	4.835921
15709		23.921170	34.967715	4.836064
15710		23.918893	34.941553	4.831423
15711		23.909775	34.920621	4.829247
15712		23.888927	34.908426	4.824754
15713		23.866613	34.903686	4.823067
15714		23.843164	34.899684	4.822926
15715		23.824256	34.895793	4.820543
15716		23.812778	34.889878	4.818436
15717		23.814050	34.891647	4.814990
15718		23.831863	34.900373	4.810203
15719		23.864555	34.918231	4.802997
15720		23.905844	34.946064	4.787226
15721		23.966244	34.984002	4.765886
15722		24.041888	35.033928	4.745980
15723		24.130586	35.099984	4.725682
15724		24.239620	35.173701	4.707481
15725		24.368513	35.257918	4.692820
15726		24.511203	35.353865	4.682740
15727		24.668779	35.463618	4.685161
15728		24.826279	35.586164	4.694288
15729		24.993717	35.722883	4.713592
15730		25.168192	35.875986	4.737409
15731		25.366495	36.034593	4.757529
15732		25.600828	36.195574	4.776176
15733		25.868834	36.356685	4.789622
15734		26.168713	36.516520	4.803004
15735		26.498824	36.681655	4.820745
15736		26.844211	36.848250	4.842946
15737		27.193339	37.018244	4.867199
15738		27.539131	37.188160	4.895817
15739		27.883654	37.352415	4.922311
15740		28.229435	37.513715	4.949622
15741		28.580202	37.674111	4.975043
15742		28.936576	37.834563	4.997227
15743		29.295700	37.999285	5.016929
15744		29.644725	38.170258	5.038311
15745		29.977189	38.347664	5.063632
15746		30.289239	38.524946	5.084404
15747		30.584760	38.698016	5.095071
15748		30.860820	38.858430	5.089459
15749		31.117702	39.010430	5.070771
15750		31.358933	39.160341	5.046272
15751		31.599144	39.321988	5.025511
15752		31.838488	39.498220	5.016475
15753		32.082058	39.690137	5.021529
15754		32.328648	39.884934	5.030071
15755		32.587218	40.075584	5.035013
15756		32.843778	40.251903	5.022942
15757		33.090872	40.420193	5.001231
15758		33.341172	40.587944	4.977910
15759		33.608645	40.756830	4.961215
15760		33.891749	40.932906	4.954958
15761		34.195327	41.113644	4.959130
15762		34.506519	41.299593	4.970017
15763		34.826576	41.483386	4.976043
15764		35.142441	41.665472	4.975367
15765		35.461531	41.854291	4.977203
15766		35.782506	42.054876	4.988769
15767		36.107579	42.271818	5.009067
15768		36.445621	42.499647	5.036867
15769		36.794004	42.737481	5.066816
15770		37.161045	42.987299	5.099175
15771		37.531737	43.243169	5.126223
15772		37.916155	43.498353	5.139731
15773		38.292096	43.753503	5.142749
15774		38.677235	44.010439	5.146279
15775		39.053396	44.274789	5.149303
15776		39.436597	44.544696	5.152499
15777		39.810932	44.825266	5.148992
15778		40.188771	45.118675	5.137485
15779		40.593512	45.423741	5.134034
15780		41.023240	45.741781	5.135804
15781		41.461335	46.073110	5.144576
15782		41.911153	46.411994	5.153025
15783		42.390521	46.758119	5.162521
15784		42.860461	47.111675	5.159275
15785		43.332994	47.468994	5.156649
15786		43.838451	47.829778	5.163581
15787		44.323982	48.182232	5.168144
15788		44.800341	48.525618	5.165238
15789		45.260527	48.860092	5.160895
15790		45.733692	49.190450	5.167898
15791		46.205207	49.517790	5.183647
15792		46.674686	49.844362	5.202881
15793		47.124136	50.176302	5.219303
15794		47.579160	50.520560	5.242883
15795		48.027149	50.879857	5.260225
15796		48.430812	51.246521	5.247749
15797		48.779871	51.617053	5.187543
15798		49.063194	51.991700	5.092644
15799		49.336835	52.368093	4.996373
15800		49.608818	52.730464	4.903508
15801		49.886787	53.066498	4.836763
15802		50.144609	53.365406	4.771681
15803		50.391113	53.638228	4.711031
15804		50.610125	53.889816	4.643058
15805		50.778119	54.125363	4.545367
15806		50.909830	54.354341	4.434910
15807		51.029291	54.585978	4.328550
15808		51.135435	54.814566	4.218192
15809		51.251382	55.039205	4.102557
15810		51.330758	55.254546	3.978561
15811		51.418381	55.470313	3.867420
15812		51.493402	55.694688	3.773121
15813		51.603845	55.927589	3.706285
15814		51.715840	56.159965	3.642029
15815		51.799423	56.389072	3.557679
15816		51.863472	56.616286	3.459422
15817		51.930221	56.855792	3.366337
15818		51.981402	57.102020	3.279749
15819		52.075018	57.359100	3.202040
15820		52.192217	57.615860	3.124865
15821		52.269462	57.852864	3.010358
15822		52.310770	58.066775	2.856212
15823		52.345632	58.264726	2.693017
15824		52.433704	58.453232	2.555719
15825		52.575990	58.648645	2.491515
15826		52.792545	58.844436	2.506667
15827		53.097420	59.041750	2.581442
15828		53.434974	59.230787	2.687449
15829		53.757949	59.405556	2.797515
15830		54.059955	59.561074	2.888169
15831		54.350560	59.702838	2.967058
15832		54.665564	59.836923	3.069999
15833		55.005109	59.972593	3.210865
15834		55.357541	60.098063	3.371688
15835		55.689608	60.206653	3.530022
15836		55.979574	60.293817	3.649583
15837		56.225293	60.367178	3.734953
15838		56.426204	60.429301	3.779117
15839		56.613640	60.494685	3.826435
15840		56.789387	60.567179	3.882116
15841		56.966398	60.637125	3.955788
15842		57.123466	60.700064	4.031943
15843		57.290554	60.744894	4.119514
15844		57.435486	60.770977	4.185447
15845		57.560550	60.785917	4.234361
15846		57.658762	60.793457	4.258978
15847		57.722172	60.796038	4.258253
15848		57.733657	60.784279	4.224728
15849		57.711194	60.764744	4.187785
15850		57.675595	60.749469	4.165118
15851		57.641921	60.734058	4.161283
15852		57.607850	60.716797	4.159405
15853		57.576397	60.700934	4.162784
15854		57.545085	60.685340	4.163040
15855		57.527723	60.674823	4.171495
15856		57.510942	60.672379	4.180563
15857		57.511270	60.678578	4.204329
15858		57.517195	60.694291	4.228487
15859		57.533129	60.711379	4.259234
15860		57.539678	60.729309	4.273603
15861		57.537364	60.741935	4.268830
15862		57.515250	60.744460	4.237717
15863		57.483485	60.741525	4.192357
15864		57.440424	60.730023	4.140586
15865		57.398388	60.714638	4.098788
15866		57.354478	60.697170	4.064057
15867		57.318334	60.680865	4.041137
15868		57.288022	60.665158	4.029988
15869		57.264463	60.652539	4.030599
15870		57.249277	60.642447	4.051622
15871		57.248765	60.641057	4.099093
15872		57.248229	60.644137	4.165586
15873		57.263581	60.652374	4.260643
15874		57.273469	60.664108	4.351425
15875		57.264010	60.674278	4.406003
15876		57.234038	60.682130	4.417491
15877		57.213806	60.695733	4.416230
15878		57.215605	60.717758	4.412127
15879		57.237655	60.743059	4.408558
15880		57.278691	60.765462	4.407920
15881		57.323681	60.786718	4.392695
15882		57.362912	60.803030	4.360988
15883		57.394331	60.811400	4.311134
15884		57.423812	60.818202	4.260664
15885		57.466632	60.828784	4.227218
15886		57.521493	60.842699	4.217293
15887		57.580226	60.859021	4.227440
15888		57.622265	60.872931	4.240022
15889		57.653343	60.883963	4.262953
15890		57.660405	60.892514	4.275513
15891		57.652713	60.899930	4.282840
15892		57.631714	60.908149	4.281076
15893		57.614521	60.920703	4.283075
15894		57.601170	60.932726	4.286957
15895		57.593022	60.944174	4.289172
15896		57.578129	60.951794	4.275801
15897		57.562837	60.956884	4.247832
15898		57.545897	60.958661	4.209869
15899		57.517767	60.954977	4.157871
15900		57.482935	60.946858	4.097990
15901		57.453021	60.939915	4.045807
15902		57.438580	60.933351	4.015934
15903		57.450158	60.929719	4.018796
15904		57.479081	60.929470	4.037518
15905		57.518025	60.936402	4.071714
15906		57.558493	60.949248	4.111342
15907		57.592868	60.969348	4.143091
15908		57.623003	60.994894	4.170118
15909		57.642578	61.022117	4.183164
15910		57.642908	61.044635	4.171758
15911		57.641617	61.068086	4.148416
15912		57.646169	61.087230	4.122269
15913		57.672230	61.106105	4.103608
15914		57.700976	61.121890	4.090272
15915		57.742957	61.138096	4.086941
15916		57.778613	61.152079	4.082023
15917		57.802811	61.167389	4.077485
15918		57.808388	61.183489	4.066721
15919		57.798851	61.200476	4.050408
15920		57.766431	61.216144	4.024081
15921		57.718252	61.231490	3.991445
15922		57.656925	61.239326	3.948567
15923		57.609837	61.245551	3.920526
15924		57.582957	61.251672	3.910340
15925		57.577682	61.257326	3.917320
15926		57.590650	61.260907	3.938000
15927		57.623363	61.267152	3.972046
15928		57.659222	61.272853	4.003405
15929		57.692410	61.281761	4.024665
15930		57.714432	61.291159	4.034398
15931		57.728927	61.300836	4.031472
15932		57.736534	61.306494	4.017636
15933		57.741215	61.311216	4.003767
15934		57.751149	61.316084	3.995308
15935		57.763132	61.321822	3.988490
15936		57.769149	61.328091	3.978704
15937		57.755248	61.331760	3.952194
15938		57.724447	61.333698	3.910686
15939		57.692638	61.337019	3.875180
15940		57.668073	61.342447	3.849271
15941		57.658289	61.348680	3.839839
15942		57.661961	61.355189	3.848604
15943		57.678977	61.362069	3.872258
15944		57.688632	61.362783	3.890143
15945		57.699196	61.361642	3.906369
15946		57.705227	61.355756	3.912315
15947		57.712491	61.339917	3.910813
15948		57.725573	61.314241	3.904320
15949		57.754517	61.280855	3.911229
15950		57.795470	61.240677	3.931559
15951		57.831357	61.198301	3.951370
15952		57.835743	61.157418	3.953846
15953		57.803817	61.126936	3.936700
15954		57.731802	61.103313	3.887339
15955		57.632548	61.084382	3.810707
15956		57.531662	61.068199	3.725395
15957		57.462197	61.060997	3.664555
15958		57.430855	61.062843	3.639691
15959		57.422925	61.071777	3.638147
15960		57.426023	61.076300	3.647156
15961		57.414646	61.072480	3.644104
15962		57.368098	61.060195	3.616356
15963		57.301242	61.044001	3.576158
15964		57.234958	61.024466	3.541873
15965		57.180474	61.005286	3.522702
15966		57.138117	60.983999	3.520205
15967		57.109793	60.962417	3.533323
15968		57.088077	60.941394	3.553375
15969		57.062358	60.922669	3.569470
15970		57.007890	60.904098	3.555817
15971		56.929140	60.885661	3.511156
15972		56.849374	60.870799	3.456616
15973		56.804516	60.864977	3.423621
15974		56.788400	60.859883	3.408307
15975		56.775514	60.848474	3.387851
15976		56.765754	60.831190	3.369272
15977		56.760271	60.819114	3.362623
15978		56.766046	60.814676	3.376047
15979		56.779235	60.823798	3.406204
15980		56.777790	60.832211	3.426782
15981		56.765151	60.841546	3.434506
15982		56.746371	60.848762	3.426489
15983		56.731327	60.855960	3.414192
15984		56.703311	60.861906	3.383541
15985		56.670649	60.863882	3.347914
15986		56.639338	60.862706	3.308519
15987		56.617172	60.859162	3.281185
15988		56.602738	60.857643	3.267884
15989		56.596499	60.854893	3.267589
15990		56.584065	60.849375	3.263961
15991		56.571906	60.841596	3.261774
15992		56.556352	60.832391	3.256479
15993		56.541661	60.821709	3.256169
15994		56.515818	60.811981	3.248261
15995		56.483364	60.797326	3.237038
15996		56.441538	60.777110	3.215006
15997		56.411332	60.758370	3.197346
15998		56.375008	60.736405	3.179312
15999		56.318779	60.706269	3.143237
16000		56.242957	60.670869	3.088124
16001		56.181643	60.642223	3.036964
16002		56.130514	60.619836	2.989264
16003		56.108949	60.600906	2.961797
16004		56.088285	60.581038	2.936920
16005		56.063582	60.558769	2.909706
16006		56.033289	60.530920	2.880636
16007		55.999220	60.499050	2.851356
16008		55.939833	60.465750	2.810414
16009		55.877002	60.438927	2.780692
16010		55.826187	60.420853	2.780668
16011		55.781511	60.409029	2.790826
16012		55.738239	60.393185	2.803016
16013		55.684350	60.371950	2.801661
16014		55.610459	60.340998	2.780598
16015		55.527586	60.299970	2.747578
16016		55.424966	60.248741	2.697946
16017		55.332090	60.195584	2.666845
16018		55.236461	60.137662	2.641862
16019		55.141923	60.082195	2.621367
16020		55.038389	60.021358	2.597242
16021		54.921302	59.956779	2.565124
16022		54.783682	59.884180	2.518552
16023		54.638612	59.810354	2.473676
16024		54.486837	59.734291	2.434607
16025		54.338412	59.659129	2.411129
16026		54.177315	59.579847	2.387800
16027		54.016560	59.500899	2.383558
16028		53.842940	59.419836	2.374517
16029		53.655621	59.334884	2.353536
16030		53.453072	59.242131	2.313268
16031		53.244762	59.149810	2.267974
16032		53.041230	59.055130	2.222736
16033		52.849331	58.959162	2.183721
16034		52.669222	58.859725	2.154337
16035		52.505315	58.761721	2.140239
16036		52.351429	58.657446	2.137564
16037		52.195143	58.543167	2.137027
16038		52.025282	58.417116	2.127540
16039		51.841383	58.284214	2.113349
16040		51.656020	58.144652	2.101889
16041		51.465171	58.001610	2.100220
16042		51.263139	57.852423	2.095476
16043		51.057937	57.701392	2.093431
16044		50.846751	57.545808	2.092210
16045		50.631518	57.387506	2.090723
16046		50.412654	57.228777	2.092903
16047		50.199156	57.074465	2.105618
16048		49.978768	56.917068	2.117263
16049		49.754347	56.760440	2.125970
16050		49.528393	56.603598	2.137733
16051		49.311394	56.453401	2.158232
16052		49.094054	56.304976	2.176326
16053		48.869417	56.154970	2.179952
16054		48.624490	56.005634	2.159994
16055		48.369511	55.862903	2.134539
16056		48.109534	55.721721	2.101523
16057		47.862903	55.587011	2.074141
16058		47.614786	55.448680	2.045796
16059		47.370160	55.308323	2.012790
16060		47.127821	55.169837	1.981258
16061		46.892364	55.035077	1.955980
16062		46.663998	54.905073	1.935615
16063		46.440949	54.777087	1.919666
16064		46.226071	54.647782	1.901706
16065		46.014754	54.518472	1.878167
16066		45.801144	54.384557	1.850797
16067		45.589045	54.249569	1.815522
16068		45.378082	54.111667	1.784243
16069		45.176859	53.977476	1.760349
16070		44.985729	53.847288	1.743698
16071		44.808565	53.723316	1.736219
16072		44.635855	53.595080	1.729428
16073		44.463703	53.466328	1.709638
16074		44.284697	53.335657	1.683011
16075		44.107603	53.213003	1.663150
16076		43.931964	53.099308	1.649064
16077		43.768072	52.993215	1.648692
16078		43.599615	52.884226	1.651007
16079		43.415061	52.773523	1.645701
16080		43.212067	52.660723	1.625650
16081		43.005224	52.548577	1.602712
16082		42.787883	52.434431	1.571886
16083		42.577471	52.322528	1.544223
16084		42.381885	52.208186	1.520867
16085		42.198066	52.087328	1.501781
16086		42.017283	51.954510	1.471516
16087		41.830361	51.825137	1.434847
16088		41.635634	51.704188	1.393595
16089		41.454375	51.595305	1.367105
16090		41.284197	51.494649	1.351088
16091		41.128709	51.392962	1.336685
16092		40.994294	51.283712	1.330349
16093		40.870591	51.169243	1.322045
16094		40.744797	51.048347	1.301952
16095		40.598911	50.923985	1.269706
16096		40.433085	50.798752	1.226076
16097		40.250255	50.687250	1.182328
16098		40.067235	50.586436	1.145601
16099		39.895452	50.488568	1.113769
16100		39.739786	50.388269	1.087611
16101		39.597178	50.287161	1.067261
16102		39.464946	50.177788	1.052101
16103		39.345093	50.065656	1.050095
16104		39.228508	49.943552	1.055471
16105		39.110487	49.817398	1.068686
16106		38.972092	49.682579	1.071974
16107		38.807651	49.545390	1.067771
16108		38.626892	49.411223	1.058501
16109		38.453414	49.280756	1.051778
16110		38.284246	49.145574	1.050773
16111		38.122214	49.001213	1.054983
16112		37.956944	48.842584	1.062424
16113		37.793523	48.674907	1.078438
16114		37.630730	48.496363	1.104261
16115		37.448787	48.309534	1.134657
16116		37.261854	48.121021	1.168796
16117		37.055539	47.933333	1.204416
16118		36.835116	47.740025	1.233501
16119		36.598084	47.551240	1.266316
16120		36.348414	47.369224	1.296552
16121		36.103611	47.199832	1.335250
16122		35.857742	47.032645	1.379237
16123		35.640049	46.864599	1.422559
16124		35.447077	46.685763	1.464824
16125		35.263982	46.494363	1.508457
16126		35.069639	46.300893	1.549967
16127		34.853044	46.123221	1.585820
16128		34.621168	45.959489	1.615040
16129		34.398429	45.807561	1.650108
16130		34.181040	45.655843	1.687228
16131		33.982285	45.503017	1.730428
16132		33.806130	45.343123	1.781608
16133		33.648561	45.182016	1.840887
16134		33.496727	45.017823	1.904756
16135		33.334320	44.853785	1.966746
16136		33.166845	44.689380	2.024196
16137		33.010355	44.520637	2.084272
16138		32.841813	44.340506	2.138308
16139		32.670040	44.163217	2.192518
16140		32.480191	43.993956	2.231510
16141		32.283815	43.845745	2.262374
16142		32.088683	43.712140	2.296753
16143		31.905713	43.584695	2.329513
16144		31.730777	43.453628	2.356619
16145		31.558221	43.321276	2.371995
16146		31.376606	43.189254	2.377022
16147		31.190347	43.060334	2.376104
16148		31.002336	42.932086	2.374271
16149		30.840096	42.801824	2.378856
16150		30.678971	42.661462	2.383862
16151		30.514711	42.521814	2.392237
16152		30.344822	42.387677	2.401628
16153		30.172391	42.267852	2.411522
16154		29.992887	42.155776	2.415284
16155		29.811974	42.055786	2.414348
16156		29.631329	41.958698	2.408201
16157		29.471261	41.857050	2.405652
16158		29.332275	41.746123	2.405826
16159		29.206384	41.632830	2.410675
16160		29.091043	41.522859	2.412255
16161		28.988166	41.430671	2.411691
16162		28.888684	41.351747	2.406867
16163		28.800106	41.287284	2.401384
16164		28.706436	41.230807	2.386326
16165		28.631441	41.178930	2.371080
16166		28.573600	41.126147	2.354658
16167		28.536531	41.079707	2.344751
16168		28.511790	41.032143	2.333553
16169		28.487971	40.991627	2.320155
16170		28.476205	40.960588	2.311365
16171		28.467300	40.933784	2.308174
16172		28.448265	40.908415	2.307248
16173		28.439442	40.883073	2.313973
16174		28.432340	40.848305	2.321662
16175		28.424357	40.809338	2.333106
16176		28.415427	40.762926	2.341283
16177		28.410241	40.708306	2.347727
16178		28.402707	40.645844	2.358086
16179		28.380119	40.582496	2.367809
16180		28.331005	40.519349	2.375220
16181		28.262415	40.462759	2.382154
16182		28.186480	40.408609	2.386924
16183		28.116842	40.357909	2.389243
16184		28.050095	40.310178	2.389102
16185		27.989557	40.265514	2.395212
16186		27.948530	40.215379	2.406267
16187		27.936913	40.153435	2.424513
16188		27.925384	40.077935	2.448676
16189		27.904112	39.996166	2.468701
16190		27.850872	39.909634	2.475991
16191		27.787334	39.835402	2.478910
16192		27.722144	39.770831	2.482675
16193		27.666965	39.704282	2.495101
16194		27.598678	39.629701	2.503542
16195		27.531798	39.553251	2.507360
16196		27.456159	39.474785	2.506470
16197		27.385489	39.400843	2.505922
16198		27.315577	39.327763	2.504932
16199		27.245741	39.255105	2.504312
16200		27.179836	39.181309	2.509242
16201		27.121420	39.110697	2.519696
16202		27.072707	39.052054	2.537381
16203		27.021474	38.998807	2.556639
16204		26.968960	38.948881	2.576302
16205		26.927278	38.899905	2.597657
16206		26.900734	38.839135	2.616897
16207		26.882149	38.772853	2.634773
16208		26.856847	38.709586	2.653426
16209		26.821226	38.652956	2.664499
16210		26.777002	38.602459	2.676243
16211		26.736664	38.568562	2.691977
16212		26.690525	38.544778	2.709212
16213		26.653479	38.530853	2.728970
16214		26.618659	38.526163	2.750662
16215		26.598213	38.528371	2.775554
16216		26.589425	38.522217	2.804151
16217		26.583226	38.510278	2.831792
16218		26.580239	38.493631	2.856491
16219		26.582346	38.485445	2.881319
16220		26.591989	38.484789	2.908743
16221		26.612077	38.493406	2.939121
16222		26.636900	38.501863	2.966974
16223		26.665850	38.511590	2.996421
16224		26.689638	38.526463	3.022746
16225		26.712163	38.545415	3.054315
16226		26.733926	38.559524	3.080557
16227		26.761679	38.570486	3.108540
16228		26.788513	38.571542	3.129038
16229		26.818267	38.568466	3.139919
16230		26.859632	38.568773	3.148287
16231		26.911305	38.576273	3.162908
16232		26.957785	38.591311	3.178740
16233		27.005540	38.605446	3.198549
16234		27.040675	38.608888	3.216301
16235		27.052354	38.606340	3.222892
16236		27.047916	38.605219	3.226095
16237		27.037247	38.613329	3.228487
16238		27.022584	38.625227	3.231430
16239		27.011463	38.637240	3.231985
16240		27.005976	38.638875	3.229353
16241		27.007801	38.634971	3.225651
16242		27.006211	38.626245	3.213538
16243		27.012240	38.622121	3.204676
16244		27.020740	38.619905	3.202872
16245		27.026477	38.617211	3.205898
16246		27.031979	38.611450	3.208610
16247		27.048164	38.604571	3.216197
16248		27.059405	38.593796	3.222490
16249		27.071963	38.580911	3.230618
16250		27.073187	38.569204	3.232001
16251		27.072892	38.565070	3.231433
16252		27.070055	38.563718	3.226443
16253		27.077029	38.569068	3.222676
16254		27.094740	38.579980	3.225351
16255		27.123445	38.595618	3.231853
16256		27.156904	38.612979	3.236903
16257		27.195418	38.634918	3.242223
16258		27.239521	38.663685	3.247942
16259		27.290885	38.704606	3.259496
16260		27.351983	38.755011	3.273930
16261		27.426353	38.811638	3.289222
16262		27.511501	38.871251	3.308958
16263		27.618573	38.935944	3.334139
16264		27.738360	38.999875	3.362884
16265		27.864852	39.069798	3.389375
16266		28.001072	39.144107	3.414648
16267		28.154315	39.229084	3.442836
16268		28.314759	39.321995	3.473444
16269		28.492887	39.425383	3.511182
16270		28.686763	39.529234	3.551654
16271		28.889481	39.637678	3.591496
16272		29.100564	39.746393	3.631128
16273		29.313793	39.859590	3.666833
16274		29.532194	39.976528	3.706266
16275		29.763992	40.094118	3.749521
16276		29.994374	40.206501	3.790332
16277		30.220761	40.322411	3.828990
16278		30.450138	40.447882	3.867578
16279		30.692269	40.591425	3.906475
16280		30.952110	40.747578	3.945895
16281		31.225790	40.915133	3.979619
16282		31.514207	41.090038	4.003134
16283		31.816433	41.266540	4.023613
16284		32.123581	41.439213	4.034014
16285		32.429936	41.611829	4.041038
16286		32.727461	41.779921	4.041679
16287		33.017755	41.946135	4.035867
16288		33.293221	42.112562	4.018757
16289		33.564860	42.284497	4.001067
16290		33.838420	42.459189	3.980596
16291		34.113100	42.644829	3.966171
16292		34.388046	42.837575	3.949243
16293		34.662959	43.035605	3.921217
16294		34.933401	43.239550	3.872315
16295		35.202932	43.449950	3.791046
16296		35.450738	43.657924	3.670587
16297		35.676961	43.868103	3.526343
16298		35.894114	44.085165	3.388478
16299		36.103931	44.306578	3.266614
16300		36.309265	44.524640	3.174328
16301		36.499991	44.730700	3.091668
16302		36.668413	44.920181	3.000900
16303		36.822321	45.099728	2.896357
16304		36.970968	45.270489	2.780926
16305		37.114989	45.438568	2.646097
16306		37.258432	45.607899	2.496383
16307		37.415270	45.789804	2.348071
16308		37.585136	45.985339	2.201634
16309		37.772929	46.194079	2.058804
16310		37.949982	46.408006	1.910731
16311		38.127886	46.627086	1.764652
16312		38.308268	46.848980	1.623102
16313		38.495107	47.076864	1.497212
16314		38.686708	47.315164	1.397192
16315		38.894025	47.560817	1.314973
16316		39.119083	47.805691	1.253394
16317		39.364867	48.048171	1.206754
16318		39.617416	48.287345	1.175428
16319		39.890200	48.520631	1.154249
16320		40.171406	48.747864	1.131580
16321		40.459741	48.976830	1.113642
16322		40.736035	49.206429	1.083551
16323		41.026214	49.446949	1.064009
16324		41.335105	49.691531	1.046733
16325		41.656793	49.938975	1.025387
16326		41.981723	50.178976	0.995767
16327		42.303585	50.410454	0.951072
16328		42.611395	50.625990	0.901742
16329		42.909019	50.836454	0.856753
16330		43.206544	51.036495	0.824863
16331		43.493315	51.232269	0.806653
16332		43.777787	51.425521	0.803196
16333		44.067466	51.622178	0.811288
16334		44.327265	51.820614	0.815311
16335		44.577706	52.023179	0.803459
16336		44.800087	52.230021	0.772566
16337		45.029345	52.439489	0.738965
16338		45.256436	52.648096	0.711128
16339		45.480151	52.851880	0.697848
16340		45.717223	53.050074	0.702400
16341		45.966227	53.248693	0.723730
16342		46.211387	53.442533	0.750607
16343		46.449215	53.628783	0.760414
16344		46.671011	53.805636	0.748021
16345		46.870595	53.979869	0.716147
16346		47.064965	54.145890	0.666268
16347		47.235292	54.303068	0.616458
16348		47.382365	54.441902	0.548915
16349		47.509424	54.569134	0.468881
16350		47.634028	54.689859	0.388798
16351		47.777855	54.814173	0.327662
16352		47.905701	54.937938	0.260588
16353		48.020558	55.060442	0.186300
16354		48.121487	55.190137	0.120560
16355		48.221432	55.323771	0.074988
16356		48.314814	55.460557	0.046862
16357		48.432796	55.605232	0.039820
16358		48.545634	55.756819	0.055853
16359		48.669586	55.911988	0.077763
16360		48.773729	56.059908	0.075252
16361		48.875587	56.201601	0.057413
16362		48.958872	56.339065	0.016727
16363		49.056141	56.480485	-0.014838
16364		49.175813	56.625137	-0.031369
16365		49.317090	56.770071	-0.027614
16366		49.466904	56.904814	-0.026829
16367		49.607935	57.028267	-0.033102
16368		49.753746	57.136767	-0.050655
16369		49.897868	57.232382	-0.090000
16370		50.027899	57.319806	-0.129818
16371		50.166647	57.403316	-0.150165
16372		50.315535	57.482620	-0.155796
16373		50.463898	57.559561	-0.147225
16374		50.602715	57.629444	-0.137060
16375		50.733210	57.699410	-0.124107
16376		50.853160	57.764205	-0.114481
16377		50.962316	57.823217	-0.115839
16378		51.053817	57.887657	-0.125840
16379		51.135801	57.959723	-0.128120
16380		51.222808	58.041835	-0.119655
16381		51.311293	58.128771	-0.103203
16382		51.388448	58.215684	-0.090691
16383		51.452615	58.298689	-0.089522
16384		51.499315	58.376044	-0.099356
16385		51.543578	58.450362	-0.109839
16386		51.591592	58.518265	-0.119682
16387		51.644748	58.585323	-0.120750
16388		51.712305	58.649123	-0.118036
16389		51.796624	58.710108	-0.107475
16390		51.881594	58.768402	-0.096574
16391		51.969275	58.824395	-0.090329
16392		52.047414	58.870160	-0.101188
16393		52.118012	58.910941	-0.118415
16394		52.186006	58.948788	-0.143737
16395		52.261575	58.989976	-0.143811
16396		52.350138	59.035365	-0.120884
16397		52.457023	59.085956	-0.074379
16398		52.550560	59.135212	-0.032203
16399		52.622153	59.182397	-0.003336
16400		52.686645	59.227139	0.017344
16401		52.744738	59.273318	0.031335
16402		52.798405	59.317655	0.038179
16403		52.849543	59.368869	0.050634
16404		52.907489	59.418229	0.068272
16405		52.969051	59.470914	0.091287
16406		53.038439	59.523384	0.121655
16407		53.110553	59.577916	0.152482
16408		53.185205	59.625529	0.182548
16409		53.255334	59.667608	0.201799
16410		53.315113	59.707460	0.215120
16411		53.373615	59.746739	0.233066
16412		53.440447	59.792538	0.260255
16413		53.520935	59.842288	0.299996
16414		53.609839	59.893395	0.344912
16415		53.700803	59.946090	0.393394
16416		53.796276	60.001039	0.448609
16417		53.885010	60.058606	0.497802
16418		53.963717	60.113198	0.537506
16419		54.032953	60.166328	0.567977
16420		54.104326	60.217270	0.595579
16421		54.181565	60.269271	0.627035
16422		54.264696	60.317674	0.666407
16423		54.357546	60.360249	0.709612
16424		54.452197	60.388737	0.752781
16425		54.542432	60.409419	0.783246
16426		54.611873	60.421870	0.794080
16427		54.670535	60.433178	0.802002
16428		54.734799	60.447554	0.824624
16429		54.822910	60.478391	0.885139
16430		54.899210	60.512050	0.948967
16431		54.902744	60.530533	0.950901
16432		54.829564	60.526676	0.894332
16433		54.751557	60.526613	0.850314
16434		54.727298	60.542048	0.879175
16435		54.756683	60.571163	0.981264
16436		54.804457	60.599322	1.106971
16437		54.852745	60.616751	1.223307
16438		54.890677	60.620166	1.301260
16439		54.912129	60.614966	1.334038
16440		54.918316	60.611680	1.327771
16441		54.945733	60.625397	1.319915
16442		54.986607	60.655263	1.326406
16443		55.030691	60.698675	1.333552
16444		55.065415	60.745219	1.329392
16445		55.088300	60.795885	1.312776
16446		55.088382	60.840400	1.261972
16447		55.065241	60.876346	1.177900
16448		55.027915	60.902536	1.072743
16449		54.990905	60.922780	0.969823
16450		54.966102	60.943095	0.894430
16451		54.962348	60.959990	0.857535
16452		54.972612	60.971906	0.857536
16453		54.999484	60.980935	0.891204
16454		55.019384	60.983594	0.931038
16455		55.028425	60.984352	0.968801
16456		55.018419	60.983730	0.993076
16457		54.999662	60.985727	1.011098
16458		54.974739	60.992625	1.019476
16459		54.965694	61.001934	1.037930
16460		54.971100	61.014149	1.056667
16461		54.991794	61.028838	1.076181
16462		55.013232	61.040927	1.086471
16463		55.038216	61.050901	1.091185
16464		55.061754	61.057706	1.090023
16465		55.081544	61.064719	1.083131
16466		55.087015	61.072552	1.066126
16467		55.101821	61.081176	1.064455
16468		55.119025	61.089135	1.067011
16469		55.144946	61.097467	1.083242
16470		55.163647	61.101044	1.098732
16471		55.172226	61.102869	1.107195
16472		55.159635	61.102370	1.103648
16473		55.145557	61.104887	1.101809
16474		55.130371	61.108880	1.106243
16475		55.120390	61.115839	1.118737
16476		55.106297	61.117879	1.128105
16477		55.087981	61.122081	1.131340
16478		55.059066	61.120652	1.121440
16479		55.032056	61.124058	1.110326
16480		55.018508	61.127356	1.115551
16481		55.009459	61.133637	1.124220
16482		55.007119	61.140275	1.139950
16483		54.998554	61.144651	1.144240
16484		54.991065	61.144377	1.149165
16485		54.988484	61.145149	1.157875
16486		54.994607	61.147564	1.173974
16487		55.006364	61.147488	1.196385
16488		55.020667	61.146365	1.221233
16489		55.040278	61.144331	1.250203
16490		55.053657	61.140839	1.269111
16491		55.065033	61.142744	1.286407
16492		55.071869	61.145617	1.299464
16493		55.072937	61.150554	1.306619
16494		55.058195	61.153551	1.296101
16495		55.042675	61.156120	1.284998
16496		55.030754	61.159619	1.280472
16497		55.033716	61.165815	1.292651
16498		55.033627	61.169483	1.302988
16499		55.029774	61.169012	1.311207
16500		55.015734	61.164480	1.308749
16501		55.003893	61.159260	1.307999
16502		54.993218	61.149386	1.307974
16503		54.987351	61.136998	1.314326
16504		54.964459	61.120912	1.310236
16505		54.947847	61.105900	1.314328
16506		54.934544	61.092955	1.330502
16507		54.921955	61.086762	1.345223
16508		54.904170	61.081533	1.351137
16509		54.878023	61.079823	1.349351
16510		54.841454	61.076047	1.331923
16511		54.803163	61.073039	1.305266
16512		54.769711	61.065951	1.280492
16513		54.745542	61.059700	1.266206
16514		54.724422	61.050468	1.254800
16515		54.698734	61.040595	1.243473
16516		54.668789	61.026442	1.237549
16517		54.624428	61.005996	1.219687
16518		54.563266	60.975185	1.184528
16519		54.500460	60.944258	1.150760
16520		54.446413	60.908641	1.124083
16521		54.377073	60.871368	1.083787
16522		54.284672	60.829625	1.023491
16523		54.201303	60.799328	0.979768
16524		54.138664	60.784665	0.973678
16525		54.106575	60.779519	1.007605
16526		54.081042	60.774724	1.058045
16527		54.043982	60.767723	1.095141
16528		53.997889	60.753959	1.113959
16529		53.946301	60.735642	1.115283
16530		53.898896	60.717599	1.105479
16531		53.874090	60.701307	1.098656
16532		53.861841	60.678745	1.079879
16533		53.863601	60.653506	1.057328
16534		53.869489	60.628551	1.028398
16535		53.893546	60.613334	1.012459
16536		53.922157	60.604693	1.004433
16537		53.948037	60.597126	0.993793
16538		53.948919	60.587676	0.962117
16539		53.936795	60.578266	0.928088
16540		53.914642	60.570926	0.898291
16541		53.898710	60.566285	0.883452
16542		53.876821	60.556118	0.869213
16543		53.848977	60.538892	0.850315
16544		53.817421	60.519441	0.831746
16545		53.799666	60.505102	0.830798
16546		53.786562	60.493814	0.835757
16547		53.779729	60.491976	0.848389
16548		53.783631	60.493164	0.863952
16549		53.787747	60.495972	0.873402
16550		53.786054	60.497673	0.870332
16551		53.789004	60.497306	0.865829
16552		53.790266	60.496441	0.859111
16553		53.798068	60.494863	0.855976
16554		53.798879	60.489629	0.848533
16555		53.790837	60.486265	0.835675
16556		53.760654	60.477569	0.813392
16557		53.721726	60.469915	0.786762
16558		53.682363	60.461804	0.766994
16559		53.645447	60.456963	0.752354
16560		53.618774	60.453944	0.744824
16561		53.592642	60.449401	0.744872
16562		53.563193	60.439088	0.738737
16563		53.523305	60.430860	0.724543
16564		53.480647	60.417356	0.710526
16565		53.440362	60.404806	0.695678
16566		53.403246	60.392814	0.685881
16567		53.374321	60.380922	0.687350
16568		53.350224	60.365763	0.694540
16569		53.321785	60.351586	0.699347
16570		53.281262	60.331050	0.699843
16571		53.225647	60.308319	0.689721
16572		53.152922	60.279035	0.667030
16573		53.077909	60.251545	0.645174
16574		52.999534	60.224226	0.625088
16575		52.929557	60.196599	0.614541
16576		52.845203	60.164110	0.593431
16577		52.756446	60.127715	0.567616
16578		52.655643	60.081427	0.526791
16579		52.553679	60.034968	0.491832
16580		52.456538	59.986453	0.458771
16581		52.369432	59.942511	0.437346
16582		52.297595	59.902382	0.433447
16583		52.233846	59.868322	0.439139
16584		52.182481	59.837904	0.458222
16585		52.136935	59.814162	0.481569
16586		52.102568	59.792004	0.505239
16587		52.077251	59.767998	0.526541
16588		52.057723	59.743636	0.547042
16589		52.040153	59.715774	0.566043
16590		52.018171	59.682120	0.579512
16591		51.984728	59.643704	0.583501
16592		51.941891	59.595955	0.583047
16593		51.914932	59.547634	0.605155
16594		51.893564	59.495542	0.647444
16595		51.870892	59.434639	0.694054
16596		51.842034	59.362282	0.738775
16597		51.795402	59.278356	0.775519
16598		51.731517	59.184639	0.804997
16599		51.660603	59.095608	0.840957
16600		51.596187	59.013107	0.895751
16601		51.517529	58.932355	0.939314
16602		51.431445	58.847537	0.973188
16603		51.329352	58.759471	0.989744
16604		51.210951	58.663957	0.991515
16605		51.091753	58.563099	0.990674
16606		50.972232	58.456269	0.986862
16607		50.837457	58.339781	0.966179
16608		50.682384	58.215001	0.926300
16609		50.510858	58.091249	0.879716
16610		50.338805	57.970570	0.837949
16611		50.162532	57.854088	0.792139
16612		49.981980	57.730758	0.738983
16613		49.793087	57.599142	0.668914
16614		49.589515	57.461063	0.590662
16615		49.379689	57.319794	0.510746
16616		49.160008	57.178758	0.430253
16617		48.932620	57.045276	0.361749
16618		48.701028	56.914867	0.307877
16619		48.463374	56.787572	0.252043
16620		48.213753	56.651976	0.192845
16621		47.945735	56.505472	0.123095
16622		47.660696	56.350355	0.040642
16623		47.368314	56.192717	-0.034765
16624		47.072707	56.031464	-0.103411
16625		46.780633	55.867558	-0.166720
16626		46.511301	55.704687	-0.209964
16627		46.261227	55.536870	-0.238394
16628		46.017593	55.359088	-0.254436
16629		45.781116	55.177929	-0.266990
16630		45.537612	54.994421	-0.271843
16631		45.294998	54.815858	-0.275729
16632		45.054753	54.641337	-0.281070
16633		44.826987	54.475806	-0.278463
16634		44.605871	54.319070	-0.261305
16635		44.393943	54.165518	-0.236089
16636		44.195971	54.010862	-0.200547
16637		43.997325	53.854137	-0.158193
16638		43.785090	53.692046	-0.122387
16639		43.564222	53.533156	-0.090410
16640		43.345243	53.383338	-0.059119
16641		43.141605	53.236473	-0.020913
16642		42.943087	53.089127	0.012823
16643		42.753788	52.938331	0.040350
16644		42.588624	52.780381	0.067338
16645		42.438499	52.609932	0.098295
16646		42.278571	52.421680	0.121501
16647		42.106732	52.230152	0.147021
16648		41.913579	52.042162	0.167769
16649		41.715206	51.863873	0.195797
16650		41.489010	51.689424	0.213807
16651		41.243032	51.532540	0.224029
16652		40.987524	51.391569	0.229961
16653		40.731725	51.262343	0.236635
16654		40.468335	51.137548	0.240817
16655		40.205097	51.010668	0.238717
16656		39.941771	50.877040	0.228028
16657		39.670783	50.736229	0.214323
16658		39.383203	50.590151	0.195903
16659		39.093801	50.440329	0.187315
16660		38.787886	50.293748	0.184604
16661		38.495762	50.150284	0.186075
16662		38.207667	50.009145	0.192061
16663		37.928572	49.869713	0.194711
16664		37.676445	49.735631	0.200113
16665		37.456996	49.599943	0.216432
16666		37.257676	49.451244	0.233481
16667		37.078405	49.296219	0.243950
16668		36.905623	49.140860	0.247127
16669		36.739523	48.998716	0.252577
16670		36.588573	48.866215	0.264767
16671		36.447267	48.740913	0.285528
16672		36.317574	48.614875	0.315026
16673		36.206142	48.480784	0.351240
16674		36.072512	48.328296	0.385607
16675		35.929458	48.173536	0.409950
16676		35.766640	48.025174	0.431471
16677		35.584886	47.885959	0.453105
16678		35.418901	47.761032	0.488452
16679		35.248867	47.642584	0.526225
16680		35.062071	47.518390	0.547825
16681		34.881666	47.398704	0.570136
16682		34.706580	47.282350	0.585774
16683		34.552004	47.171177	0.601407
16684		34.429453	47.060121	0.618675
16685		34.304102	46.945009	0.627059
16686		34.183301	46.829228	0.630874
16687		34.053763	46.720085	0.631660
16688		33.909395	46.615659	0.628890
16689		33.761093	46.520224	0.628579
16690		33.605532	46.435372	0.617599
16691		33.459003	46.361840	0.601753
16692		33.318506	46.296271	0.575589
16693		33.172841	46.236737	0.537767
16694		33.020116	46.176925	0.489375
16695		32.864724	46.125492	0.433219
16696		32.721837	46.078152	0.381416
16697		32.603511	46.040696	0.339179
16698		32.505197	46.001368	0.302431
16699		32.420628	45.962408	0.268150
16700		32.347499	45.921283	0.238000
16701		32.274080	45.875186	0.203792
16702		32.204437	45.827781	0.174472
16703		32.159303	45.780462	0.151433
16704		32.131851	45.730080	0.132237
16705		32.119476	45.678852	0.127571
16706		32.115880	45.637550	0.135626
16707		32.126789	45.607004	0.154396
16708		32.156636	45.580679	0.183736
16709		32.195416	45.553584	0.220603
16710		32.242283	45.517966	0.259881
16711		32.286490	45.474106	0.294509
16712		32.313281	45.425901	0.325702
16713		32.322560	45.386625	0.350085
16714		32.323598	45.357304	0.373033
16715		32.324605	45.333836	0.401738
16716		32.323883	45.296808	0.424827
16717		32.316428	45.243387	0.438632
16718		32.302319	45.176188	0.446498
16719		32.292447	45.104467	0.456557
16720		32.279662	45.032718	0.467060
16721		32.263826	44.962234	0.483087
16722		32.242963	44.883144	0.492919
16723		32.205526	44.796449	0.497085
16724		32.149801	44.702562	0.492633
16725		32.090641	44.609156	0.484792
16726		32.033824	44.520320	0.479164
16727		31.979642	44.438319	0.474942
16728		31.926439	44.351648	0.467140
16729		31.872693	44.264117	0.459267
16730		31.799689	44.170981	0.447008
16731		31.717029	44.089092	0.436974
16732		31.641349	44.016691	0.436576
16733		31.576489	43.953338	0.450182
16734		31.517327	43.885363	0.475265
16735		31.455174	43.806079	0.502937
16736		31.400151	43.717158	0.530962
16737		31.351811	43.622937	0.553381
16738		31.300673	43.529898	0.578580
16739		31.246847	43.448949	0.608675
16740		31.185376	43.372338	0.638090
16741		31.116668	43.300134	0.669396
16742		31.050274	43.221321	0.699795
16743		30.995569	43.135778	0.731435
16744		30.944273	43.038045	0.760276
16745		30.891762	42.928289	0.782032
16746		30.839185	42.818548	0.807610
16747		30.782503	42.706492	0.832356
16748		30.709798	42.594485	0.857659
16749		30.625704	42.486094	0.883391
16750		30.515348	42.379935	0.907607
16751		30.402060	42.278783	0.937712
16752		30.274056	42.174669	0.966788
16753		30.132333	42.065075	0.997124
16754		29.975958	41.955487	1.017831
16755		29.822626	41.845036	1.039578
16756		29.661008	41.736448	1.059032
16757		29.508852	41.633607	1.081359
16758		29.368990	41.531697	1.102321
16759		29.245866	41.429705	1.122658
16760		29.137828	41.330410	1.148031
16761		29.032862	41.234229	1.172112
16762		28.935141	41.133443	1.198865
16763		28.854119	41.034769	1.233567
16764		28.792761	40.936996	1.276416
16765		28.746497	40.836423	1.321070
16766		28.691752	40.735170	1.363187
16767		28.648417	40.642642	1.402460
16768		28.612002	40.560245	1.443534
16769		28.581607	40.488857	1.481969
16770		28.546991	40.419051	1.514982
16771		28.531126	40.355444	1.552564
16772		28.523177	40.290639	1.588985
16773		28.529909	40.234308	1.631756
16774		28.536807	40.189710	1.676032
16775		28.530641	40.155186	1.717466
16776		28.515116	40.127904	1.750557
16777		28.487175	40.104741	1.771806
16778		28.452342	40.084178	1.791055
16779		28.423593	40.059000	1.813683
16780		28.395999	40.033534	1.836047
16781		28.377764	40.017648	1.862881
16782		28.359538	40.006609	1.887922
16783		28.330870	39.999536	1.906728
16784		28.291216	39.992515	1.918846
16785		28.243575	39.983139	1.925611
16786		28.198872	39.967694	1.934398
16787		28.156352	39.949607	1.940838
16788		28.125890	39.931093	1.947531
16789		28.106546	39.912233	1.953331
16790		28.095204	39.892258	1.955780
16791		28.096945	39.871294	1.959645
16792		28.099251	39.852555	1.963551
16793		28.101243	39.842770	1.976155
16794		28.106026	39.842161	1.993349
16795		28.110462	39.847421	2.015988
16796		28.118059	39.850653	2.036317
16797		28.127861	39.850646	2.053217
16798		28.138749	39.848470	2.068719
16799		28.153282	39.848579	2.087807
16800		28.165448	39.846298	2.107024
16801		28.174440	39.841880	2.120939
16802		28.178347	39.830235	2.125341
16803		28.190122	39.819550	2.123887
16804		28.205751	39.807495	2.120898
16805		28.223357	39.805480	2.118143
16806		28.244464	39.811515	2.117512
16807		28.266711	39.824873	2.119576
16808		28.289378	39.838997	2.126003
16809		28.313023	39.856003	2.134003
16810		28.326932	39.870508	2.136859
16811		28.341890	39.888568	2.140228
16812		28.364099	39.905988	2.143787
16813		28.399624	39.928676	2.151029
16814		28.444679	39.956472	2.160900
16815		28.502378	39.987719	2.171531
16816		28.562891	40.022801	2.177027
16817		28.625890	40.061034	2.179220
16818		28.691707	40.103708	2.177390
16819		28.771181	40.159199	2.181639
16820		28.856880	40.217974	2.182582
16821		28.954182	40.286472	2.185147
16822		29.063321	40.362706	2.189732
16823		29.183415	40.446822	2.193086
16824		29.319460	40.537633	2.196746
16825		29.473290	40.635858	2.201721
16826		29.642433	40.739964	2.208573
16827		29.829449	40.853125	2.222402
16828		30.029990	40.974215	2.243728
16829		30.246106	41.107723	2.275895
16830		30.478574	41.247877	2.316782
16831		30.721772	41.394809	2.360907
16832		30.975704	41.543160	2.409628
16833		31.253217	41.693286	2.466900
16834		31.555223	41.840815	2.538342
16835		31.874292	41.990457	2.616238
16836		32.200992	42.142517	2.696319
16837		32.527911	42.301753	2.773043
16838		32.858035	42.475620	2.847673
16839		33.199615	42.663449	2.927559
16840		33.559757	42.861868	3.014707
16841		33.934927	43.071385	3.110406
16842		34.324029	43.282267	3.204992
16843		34.733549	43.496480	3.294161
16844		35.146258	43.704266	3.371153
16845		35.552607	43.904578	3.440994
16846		35.953890	44.098578	3.512766
16847		36.329718	44.285115	3.575554
16848		36.686011	44.456597	3.640607
16849		37.017503	44.626039	3.694068
16850		37.329855	44.790971	3.734977
16851		37.638968	44.959342	3.767713
16852		37.947255	45.129401	3.795217
16853		38.251673	45.301715	3.820252
16854		38.547013	45.473534	3.835869
16855		38.825345	45.646564	3.844478
16856		39.099904	45.826910	3.857107
16857		39.393069	46.020315	3.885606
16858		39.705079	46.218564	3.932623
16859		40.038194	46.416268	3.983810
16860		40.383753	46.608763	4.037691
16861		40.741481	46.799620	4.098069
16862		41.096788	46.982125	4.157753
16863		41.440047	47.158021	4.213907
16864		41.765824	47.326335	4.260390
16865		42.080267	47.493206	4.297852
16866		42.379301	47.664413	4.329059
16867		42.668886	47.836689	4.347215
16868		42.951238	48.007230	4.352815
16869		43.225801	48.182970	4.349383
16870		43.501057	48.360289	4.344612
16871		43.767951	48.535623	4.332205
16872		44.018873	48.707488	4.311784
16873		44.262200	48.878635	4.289740
16874		44.501273	49.046611	4.263743
16875		44.749981	49.214466	4.248538
16876		44.995522	49.381688	4.239863
16877		45.243462	49.548911	4.239859
16878		45.486445	49.715217	4.243250
16879		45.744258	49.880760	4.257084
16880		46.017160	50.041819	4.283702
16881		46.311782	50.202625	4.326533
16882		46.618284	50.356358	4.376383
16883		46.915813	50.504005	4.415645
16884		47.192903	50.644782	4.443593
16885		47.448679	50.786271	4.453185
16886		47.685863	50.931294	4.455760
16887		47.910883	51.087451	4.458687
16888		48.144972	51.247304	4.469667
16889		48.392586	51.410423	4.488621
16890		48.630296	51.571732	4.503154
16891		48.850924	51.729662	4.507090
16892		49.051011	51.883506	4.499570
16893		49.238861	52.034844	4.484915
16894		49.417625	52.180702	4.469672
16895		49.609713	52.324467	4.473110
16896		49.815143	52.461850	4.488090
16897		50.021131	52.591648	4.505154
16898		50.206855	52.719142	4.512027
16899		50.400132	52.843463	4.521921
16900		50.587874	52.968811	4.526243
16901		50.771106	53.101160	4.542336
16902		50.962496	53.237195	4.579356
16903		51.167643	53.376765	4.630522
16904		51.375326	53.516226	4.684120
16905		51.597339	53.651165	4.745272
16906		51.818218	53.778105	4.792517
16907		52.020526	53.902985	4.816427
16908		52.199801	54.027163	4.820045
16909		52.360926	54.155480	4.810990
16910		52.510928	54.282255	4.788038
16911		52.652376	54.412572	4.761195
16912		52.804113	54.542561	4.747501
16913		52.972738	54.672641	4.745393
16914		53.142687	54.803839	4.746397
16915		53.313999	54.935486	4.751536
16916		53.471589	55.064338	4.746780
16917		53.609006	55.192225	4.724985
16918		53.723477	55.319318	4.684047
16919		53.831137	55.451284	4.643203
16920		53.949013	55.588377	4.617513
16921		54.087033	55.728415	4.610087
16922		54.242249	55.862416	4.611368
16923		54.390530	55.988611	4.607225
16924		54.530177	56.103278	4.591658
16925		54.650615	56.209276	4.558922
16926		54.751516	56.309608	4.513650
16927		54.836988	56.410124	4.460658
16928		54.931746	56.510588	4.414631
16929		55.033360	56.611747	4.383756
16930		55.144209	56.711617	4.363656
16931		55.272787	56.811463	4.359937
16932		55.394140	56.906163	4.353429
16933		55.502376	56.998832	4.332826
16934		55.581090	57.082343	4.292348
16935		55.651300	57.162884	4.239942
16936		55.725473	57.248164	4.200487
16937		55.811029	57.339329	4.184284
16938		55.922065	57.436594	4.182409
16939		56.025909	57.531304	4.170082
16940		56.097721	57.617692	4.128256
16941		56.147972	57.695524	4.063744
16942		56.188302	57.769748	3.994468
16943		56.236629	57.843571	3.930731
16944		56.279731	57.916263	3.871434
16945		56.283450	57.982313	3.787380
16946		56.237083	58.036563	3.660528
16947		56.126757	58.082967	3.496310
16948		56.023301	58.126087	3.321508
16949		55.937137	58.179896	3.175719
16950		55.860515	58.236226	3.048902
16951		55.784013	58.290100	2.926638
16952		55.681144	58.336627	2.799732
16953		55.551479	58.380829	2.676844
16954		55.422301	58.431878	2.568906
16955		55.330625	58.492917	2.485955
16956		55.266048	58.562307	2.421120
16957		55.219326	58.639658	2.367241
16958		55.181650	58.719443	2.313198
16959		55.151494	58.804702	2.268309
16960		55.144164	58.889920	2.233505
16961		55.162167	58.982740	2.213989
16962		55.217233	59.076197	2.215435
16963		55.288660	59.168182	2.218919
16964		55.356761	59.248622	2.206981
16965		55.422803	59.322372	2.186247
16966		55.498430	59.394527	2.175485
16967		55.609466	59.471533	2.191943
16968		55.743093	59.550199	2.232842
16969		55.895714	59.627319	2.289340
16970		56.051355	59.697694	2.350240
16971		56.190320	59.764454	2.404786
16972		56.316806	59.825359	2.455425
16973		56.439017	59.888676	2.512674
16974		56.555801	59.951173	2.572064
16975		56.664688	60.012428	2.631967
16976		56.761853	60.073110	2.683210
16977		56.860180	60.134083	2.743072
16978		56.951117	60.197742	2.803055
16979		57.037417	60.263926	2.860532
16980		57.131073	60.330437	2.914896
16981		57.226854	60.395170	2.962400
16982		57.317219	60.454408	2.988631
16983		57.405777	60.508290	3.001606
16984		57.527741	60.563376	3.034375
16985		57.706075	60.624671	3.111592
16986		57.922423	60.683618	3.210597
16987		58.143638	60.732679	3.296731
16988		58.335148	60.762974	3.319878
16989		58.499403	60.779289	3.295672
16990		58.692036	60.802354	3.271516
16991		58.927584	60.849457	3.282663
16992		59.190802	60.918010	3.330415
16993		59.436026	60.997771	3.396141
16994		59.615895	61.080712	3.443668
16995		59.729137	61.161108	3.472486
16996		59.783653	61.239666	3.483403
16997		59.813848	61.322873	3.500206
16998		59.829367	61.416555	3.540259
16999		59.840079	61.523514	3.603132
17000		59.821159	61.635918	3.662947
17001		59.775437	61.742885	3.690817
17002		59.703942	61.838027	3.678758
17003		59.605917	61.912174	3.614267
17004		59.492218	61.967590	3.516836
17005		59.411020	62.012337	3.431115
17006		59.388677	62.042100	3.388428
17007		59.421863	62.055316	3.386198
17008		59.478915	62.046467	3.397972
17009		59.516109	62.016976	3.400165
17010		59.524558	61.971010	3.382067
17011		59.514798	61.920533	3.354978
17012		59.484758	61.876504	3.331320
17013		59.452770	61.847675	3.323127
17014		59.413738	61.831387	3.318721
17015		59.365681	61.827097	3.304591
17016		59.309186	61.835152	3.283101
17017		59.233232	61.853531	3.236541
17018		59.149786	61.874202	3.176497
17019		59.093048	61.904143	3.140936
17020		59.080832	61.940380	3.139416
17021		59.110103	61.977747	3.171453
17022		59.161223	62.007530	3.215915
17023		59.198229	62.025121	3.235355
17024		59.218923	62.028166	3.224188
17025		59.242888	62.026265	3.214078
17026		59.280612	62.027490	3.212826
17027		59.345034	62.039709	3.245707
17028		59.434277	62.057964	3.315047
17029		59.538060	62.080974	3.406847
17030		59.648846	62.106545	3.513516
17031		59.761521	62.134577	3.630608
17032		59.868530	62.162141	3.751444
17033		59.960035	62.190025	3.861653
17034		60.029584	62.210797	3.950778
17035		60.074715	62.225932	4.021206
17036		60.091630	62.233545	4.064652
17037		60.093751	62.239004	4.093368
17038		60.081150	62.241585	4.104306
17039		60.052271	62.240949	4.095009
17040		59.993595	62.234464	4.052276
17041		59.922020	62.231120	3.990389
17042		59.855547	62.227851	3.930618
17043		59.798011	62.231868	3.876727
17044		59.749484	62.235355	3.825361
17045		59.712641	62.240262	3.784553
17046		59.691500	62.246090	3.762294
17047		59.688940	62.253453	3.759099
17048		59.690969	62.256717	3.767840
17049		59.691163	62.258041	3.774124
17050		59.687372	62.257231	3.779206
17051		59.683415	62.252939	3.783591
17052		59.681970	62.251303	3.794084
17053		59.687464	62.252487	3.813844
17054		59.703145	62.256915	3.845249
17055		59.728680	62.267076	3.884432
17056		59.762438	62.276560	3.931024
17057		59.788098	62.286148	3.961677
17058		59.825120	62.294730	4.002201
17059		59.866910	62.305796	4.045758
17060		59.916904	62.326073	4.107669
17061		59.986498	62.356880	4.200677
17062		60.067368	62.389731	4.304528
17063		60.149474	62.423817	4.406518
17064		60.236560	62.450894	4.510184
17065		60.304912	62.475763	4.594817
17066		60.358904	62.491893	4.661834
17067		60.395635	62.504665	4.713315
17068		60.411490	62.512183	4.741160
17069		60.417707	62.516556	4.757027
17070		60.407544	62.518862	4.754298
17071		60.386111	62.518768	4.738797
17072		60.352744	62.520434	4.713546
17073		60.323279	62.525227	4.695205
17074		60.291328	62.529377	4.666805
17075		60.255642	62.534307	4.634957
17076		60.215901	62.538715	4.599970
17077		60.186333	62.544744	4.577737
17078		60.158750	62.552103	4.565753
17079		60.133592	62.560556	4.560913
17080		60.103014	62.565216	4.557058
17081		60.067175	62.569904	4.546142
17082		60.024387	62.571446	4.524022
17083		59.975925	62.568395	4.491325
17084		59.917449	62.561354	4.444044
17085		59.872197	62.556905	4.408092
17086		59.848412	62.553433	4.395044
17087		59.850908	62.553774	4.411488
17088		59.857936	62.552799	4.438939
17089		59.864512	62.549962	4.463555
17090		59.856197	62.546400	4.477007
17091		59.833753	62.537664	4.474454
17092		59.797440	62.525031	4.448305
17093		59.762893	62.512424	4.423742
17094		59.730655	62.497988	4.397178
17095		59.704837	62.483811	4.371538
17096		59.683695	62.466948	4.349333
17097		59.665809	62.440482	4.324208
17098		59.650834	62.404839	4.294564
17099		59.639659	62.361715	4.273230
17100		59.613543	62.311728	4.234650
17101		59.570276	62.267088	4.190600
17102		59.525398	62.231941	4.154144
17103		59.491286	62.209320	4.135383
17104		59.458235	62.189788	4.120173
17105		59.417142	62.168962	4.097675
17106		59.357224	62.142327	4.054685
17107		59.305247	62.115534	4.015234
17108		59.261888	62.086250	3.978727
17109		59.240722	62.060823	3.950952
17110		59.240827	62.036383	3.934360
17111		59.245125	62.018740	3.922278
17112		59.233281	62.008427	3.900857
17113		59.219067	62.016706	3.885910
17114		59.196487	62.039989	3.867557
17115		59.164256	62.069414	3.839517
17116		59.128741	62.100861	3.800619
17117		59.091860	62.130830	3.755999
17118		59.050223	62.152834	3.706187
17119		59.010202	62.165992	3.652657
17120		58.968217	62.167819	3.591074
17121		58.920020	62.162003	3.529727
17122		58.855943	62.153597	3.459864
17123		58.790157	62.147354	3.393659
17124		58.714298	62.141088	3.324435
17125		58.626389	62.133955	3.252197
17126		58.518780	62.122446	3.173931
17127		58.405974	62.109720	3.103999
17128		58.293105	62.095376	3.050592
17129		58.167809	62.075688	2.997457
17130		58.012799	62.042735	2.927858
17131		57.832066	61.997331	2.843664
17132		57.643231	61.946430	2.754498
17133		57.473996	61.894819	2.682604
17134		57.334447	61.840643	2.630904
17135		57.196941	61.775896	2.573931
17136		57.043251	61.695302	2.498820
17137		56.882542	61.601443	2.409334
17138		56.720216	61.506897	2.326974
17139		56.571482	61.416212	2.261282
17140		56.425635	61.325986	2.191360
17141		56.270291	61.235288	2.106809
17142		56.110020	61.147902	2.010537
17143		55.945152	61.063317	1.899366
17144		55.764431	60.977200	1.768085
17145		55.587881	60.893000	1.643035
17146		55.414756	60.812982	1.527045
17147		55.243049	60.735554	1.421077
17148		55.075557	60.660402	1.328826
17149		54.907773	60.591356	1.248773
17150		54.726701	60.520616	1.162071
17151		54.529916	60.444095	1.059468
17152		54.328723	60.365209	0.948289
17153		54.128953	60.279454	0.841860
17154		53.937977	60.193547	0.740562
17155		53.754460	60.103889	0.645965
17156		53.575676	60.006409	0.551660
17157		53.399307	59.900500	0.450582
17158		53.229264	59.788855	0.344786
17159		53.064520	59.676881	0.243513
17160		52.916113	59.569325	0.153909
17161		52.778235	59.473370	0.067368
17162		52.653710	59.385229	-0.005689
17163		52.527283	59.300251	-0.087830
17164		52.396329	59.213315	-0.176709
17165		52.255981	59.135888	-0.266989
17166		52.096827	59.062256	-0.359130
17167		51.912253	58.983085	-0.463337
17168		51.696555	58.894388	-0.582682
17169		51.445649	58.786959	-0.713927
17170		51.169717	58.661958	-0.851049
17171		50.883501	58.528317	-0.973956
17172		50.595907	58.388607	-1.072096
17173		50.308519	58.249922	-1.148682
17174		50.020155	58.108901	-1.203714
17175		49.733595	57.964517	-1.251236
17176		49.454142	57.815096	-1.287844
17177		49.178208	57.666968	-1.312796
17178		48.919128	57.518277	-1.323612
17179		48.682080	57.379558	-1.320420
17180		48.459012	57.245405	-1.304027
17181		48.235276	57.114093	-1.289347
17182		48.015328	56.980432	-1.270142
17183		47.807872	56.843560	-1.234392
17184		47.601583	56.696610	-1.193435
17185		47.405526	56.543214	-1.146429
17186		47.212353	56.380509	-1.100091
17187		47.019560	56.213029	-1.048686
17188		46.834027	56.040139	-0.997802
17189		46.659317	55.864383	-0.933076
17190		46.488172	55.674937	-0.869360
17191		46.317658	55.469669	-0.819515
17192		46.128883	55.248529	-0.792126
17193		45.945133	55.021165	-0.773328
17194		45.757959	54.793656	-0.749841
17195		45.552766	54.565368	-0.723652
17196		45.345224	54.331617	-0.706679
17197		45.132317	54.094498	-0.693851
17198		44.907500	53.853188	-0.687924
17199		44.680789	53.615204	-0.676969
17200		44.427194	53.386842	-0.660103
17201		44.164971	53.161061	-0.633679
17202		43.893770	52.938469	-0.599433
17203		43.602475	52.721524	-0.564274
17204		43.299843	52.502114	-0.540173
17205		43.005554	52.280220	-0.506569
17206		42.703387	52.046666	-0.479403
17207		42.398131	51.807458	-0.452618
17208		42.079335	51.568441	-0.427078
17209		41.756473	51.337218	-0.404584
17210		41.434903	51.110117	-0.379640
17211		41.107490	50.885208	-0.366039
17212		40.803921	50.662499	-0.348005
17213		40.509477	50.440377	-0.325505
17214		40.217865	50.216545	-0.305147
17215		39.924858	49.999938	-0.288001
17216		39.649066	49.787232	-0.259651
17217		39.401762	49.574470	-0.218254
17218		39.156704	49.339721	-0.178069
17219		38.909746	49.081464	-0.157771
17220		38.656841	48.808938	-0.137455
17221		38.377395	48.530377	-0.131643
17222		38.111041	48.256533	-0.133738
17223		37.869445	48.003584	-0.132945
17224		37.637021	47.782536	-0.126656
17225		37.431110	47.606218	-0.113280
17226		37.253524	47.466994	-0.101856
17227		37.101581	47.357997	-0.091066
17228		36.972088	47.266144	-0.088392
17229		36.859266	47.186122	-0.089684
17230		36.749364	47.111233	-0.100792
17231		36.644188	47.046136	-0.111848
17232		36.522082	46.994125	-0.131335
17233		36.400522	46.959673	-0.147118
17234		36.280406	46.938283	-0.161830
17235		36.160660	46.921746	-0.180510
17236		36.037974	46.902040	-0.203316
17237		35.915322	46.881429	-0.229490
17238		35.801152	46.858053	-0.259285
17239		35.702438	46.828578	-0.290576
17240		35.609990	46.786324	-0.328130
17241		35.526786	46.735594	-0.363848
17242		35.454288	46.694132	-0.393208
17243		35.406992	46.658491	-0.407580
17244		35.382869	46.624831	-0.411881
17245		35.379410	46.597049	-0.404298
17246		35.388292	46.575660	-0.392721
17247		35.425386	46.561960	-0.363748
17248		35.462206	46.543315	-0.339030
17249		35.507719	46.519961	-0.312038
17250		35.553250	46.490630	-0.283716
17251		35.588444	46.459139	-0.264403
17252		35.610165	46.425921	-0.248688
17253		35.620216	46.400504	-0.240281
17254		35.628336	46.387789	-0.235791
17255		35.648461	46.388148	-0.228237
17256		35.679954	46.387666	-0.213662
17257		35.714713	46.378653	-0.199905
17258		35.729675	46.367822	-0.200165
17259		35.733750	46.363408	-0.205796
17260		35.736180	46.368723	-0.208741
17261		35.744802	46.379531	-0.203778
17262		35.747610	46.385786	-0.202077
17263		35.746776	46.386419	-0.201732
17264		35.741401	46.377947	-0.202177
17265		35.723633	46.357114	-0.211963
17266		35.692866	46.324233	-0.230161
17267		35.647901	46.283891	-0.248162
17268		35.588500	46.240758	-0.263523
17269		35.522147	46.200337	-0.275533
17270		35.456104	46.165877	-0.283688
17271		35.388484	46.137211	-0.284395
17272		35.331232	46.104674	-0.279249
17273		35.282669	46.061376	-0.277092
17274		35.232294	46.006784	-0.287332
17275		35.168591	45.953464	-0.304697
17276		35.092404	45.911806	-0.325491
17277		35.012861	45.884930	-0.341870
17278		34.934213	45.865510	-0.356887
17279		34.856267	45.849853	-0.370280
17280		34.798061	45.833190	-0.376544
17281		34.746464	45.815682	-0.383932
17282		34.708772	45.791048	-0.381430
17283		34.672703	45.754774	-0.382671
17284		34.639169	45.708478	-0.384983
17285		34.610451	45.660191	-0.382034
17286		34.576128	45.614462	-0.374650
17287		34.535174	45.574371	-0.360320
17288		34.485305	45.542522	-0.343213
17289		34.426044	45.508877	-0.323410
17290		34.361459	45.471545	-0.299903
17291		34.283509	45.431490	-0.281427
17292		34.195078	45.381309	-0.270472
17293		34.103179	45.327496	-0.263743
17294		34.012043	45.268580	-0.256867
17295		33.923085	45.212110	-0.246641
17296		33.835084	45.155038	-0.237095
17297		33.756676	45.099800	-0.229469
17298		33.693028	45.045295	-0.214076
17299		33.641632	44.987483	-0.197559
17300		33.601564	44.922909	-0.177230
17301		33.547078	44.846660	-0.162043
17302		33.484570	44.759971	-0.148295
17303		33.404706	44.673020	-0.141993
17304		33.315065	44.593155	-0.134898
17305		33.226675	44.524517	-0.123396
17306		33.143163	44.462977	-0.111267
17307		33.071337	44.399906	-0.096542
17308		33.000381	44.334986	-0.082599
17309		32.943030	44.267546	-0.069196
17310		32.880238	44.199364	-0.058529
17311		32.813260	44.133358	-0.044381
17312		32.739040	44.068737	-0.027557
17313		32.669111	44.007855	-0.006014
17314		32.587526	43.943025	0.019582
17315		32.497985	43.877281	0.044359
17316		32.417815	43.810442	0.072849
17317		32.341048	43.747675	0.099672
17318		32.269629	43.690968	0.124398
17319		32.200409	43.644142	0.144907
17320		32.131843	43.607681	0.162108
17321		32.066281	43.581587	0.178136
17322		31.999944	43.562294	0.196743
17323		31.939808	43.546455	0.215778
17324		31.880021	43.531719	0.237669
17325		31.825722	43.518286	0.263488
17326		31.775660	43.504079	0.283756
17327		31.739950	43.488548	0.305312
17328		31.700048	43.467054	0.327772
17329		31.670490	43.442895	0.360905
17330		31.643893	43.416811	0.396727
17331		31.614971	43.389916	0.433916
17332		31.584397	43.367259	0.473769
17333		31.554464	43.349178	0.511879
17334		31.532310	43.331003	0.546362
17335		31.519654	43.313366	0.578616
17336		31.513971	43.293036	0.607414
17337		31.519972	43.274535	0.635405
17338		31.531612	43.254504	0.660532
17339		31.547139	43.234896	0.681228
17340		31.560684	43.215469	0.696674
17341		31.568515	43.199886	0.707309
17342		31.579022	43.189124	0.724510
17343		31.589235	43.177115	0.741100
17344		31.593278	43.162953	0.757346
17345		31.602469	43.145259	0.772844
17346		31.598962	43.123057	0.779378
17347		31.594850	43.106481	0.786995
17348		31.582508	43.103897	0.788376
17349		31.574888	43.115365	0.792557
17350		31.577650	43.136295	0.793782
17351		31.594394	43.162164	0.796805
17352		31.626846	43.191967	0.797740
17353		31.675022	43.218274	0.804805
17354		31.725982	43.240329	0.810060
17355		31.777338	43.261882	0.813346
17356		31.829245	43.286953	0.821840
17357		31.878373	43.315706	0.831097
17358		31.928497	43.346523	0.837462
17359		31.989165	43.382158	0.844911
17360		32.050490	43.414227	0.848087
17361		32.112685	43.441319	0.849920
17362		32.175201	43.470471	0.849165
17363		32.232855	43.505403	0.844584
17364		32.294751	43.547139	0.845147
17365		32.367321	43.593315	0.853461
17366		32.449285	43.638315	0.865454
17367		32.538641	43.681002	0.878249
17368		32.634708	43.725020	0.893748
17369		32.729370	43.772898	0.907327
17370		32.823583	43.818679	0.922887
17371		32.916346	43.867057	0.936478
17372		33.011160	43.918965	0.954892
17373		33.110756	43.977354	0.983889
17374		33.218684	44.038930	1.016394
17375		33.351099	44.099192	1.053398
17376		33.488314	44.159047	1.078081
17377		33.632002	44.223052	1.100326
17378		33.778438	44.294387	1.117504
17379		33.929193	44.376456	1.137240
17380		34.083220	44.459811	1.156880
17381		34.236498	44.544477	1.174410
17382		34.391571	44.629262	1.190128
17383		34.551891	44.719917	1.205312
17384		34.725997	44.817758	1.222923
17385		34.908354	44.929744	1.241297
17386		35.095688	45.058335	1.266891
17387		35.284538	45.203273	1.294080
17388		35.482582	45.361938	1.325928
17389		35.700920	45.534500	1.366207
17390		35.952900	45.710653	1.419340
17391		36.241450	45.882107	1.479700
17392		36.569891	46.046728	1.548580
17393		36.919075	46.214245	1.616074
17394		37.272209	46.383878	1.677228
17395		37.636474	46.566929	1.745036
17396		37.990495	46.763708	1.806039
17397		38.340825	46.970442	1.865078
17398		38.692946	47.185669	1.923857
17399		39.053592	47.406951	1.985276
17400		39.418860	47.632837	2.041375
17401		39.804445	47.864794	2.103308
17402		40.209135	48.100905	2.167206
17403		40.634503	48.350225	2.241671
17404		41.085108	48.606476	2.327340
17405		41.551823	48.865635	2.427652
17406		42.021957	49.129833	2.533894
17407		42.494210	49.400666	2.641867
17408		42.969488	49.680712	2.750225
17409		43.457394	49.976861	2.861174
17410		43.965815	50.275862	2.982097
17411		44.494225	50.571413	3.110691
17412		45.038008	50.845089	3.241013
17413		45.602659	51.093658	3.382688
17414		46.150150	51.309493	3.522544
17415		46.665421	51.494187	3.645791
17416		47.137887	51.654462	3.750245
17417		47.569824	51.804745	3.848120
17418		47.960462	51.950098	3.923043
17419		48.323078	52.104073	3.988581
17420		48.656408	52.262624	4.048928
17421		48.964725	52.423143	4.093037
17422		49.235539	52.578664	4.119345
17423		49.476489	52.732405	4.138971
17424		49.688898	52.887988	4.148002
17425		49.882040	53.049603	4.168501
17426		50.049286	53.213434	4.185366
17427		50.203316	53.383757	4.201360
17428		50.348760	53.555393	4.221142
17429		50.479631	53.725843	4.235318
17430		50.600374	53.888054	4.230235
17431		50.698231	54.038573	4.202939
17432		50.770933	54.179286	4.148475
17433		50.842089	54.312769	4.081963
17434		50.919708	54.442875	4.017061
17435		51.010011	54.573145	3.961312
17436		51.130909	54.703460	3.925397
17437		51.273483	54.833528	3.897740
17438		51.414881	54.959775	3.870053
17439		51.560219	55.080787	3.839535
17440		51.708182	55.203714	3.809422
17441		51.851826	55.328251	3.786303
17442		51.984326	55.455612	3.765063
17443		52.123882	55.585490	3.749657
17444		52.260173	55.719001	3.740000
17445		52.389596	55.857450	3.731554
17446		52.520455	55.996507	3.719141
17447		52.646686	56.135010	3.697409
17448		52.757488	56.270124	3.662643
17449		52.843322	56.404100	3.607696
17450		52.914586	56.539540	3.545794
17451		52.987643	56.682425	3.494887
17452		53.085543	56.830721	3.457461
17453		53.200254	56.978471	3.434689
17454		53.312091	57.118332	3.399947
17455		53.412129	57.252242	3.352699
17456		53.500029	57.383001	3.295145
17457		53.590983	57.515265	3.228128
17458		53.695134	57.651565	3.174365
17459		53.827184	57.790595	3.131971
17460		53.982314	57.934870	3.108944
17461		54.167225	58.090168	3.115343
17462		54.368180	58.250243	3.139106
17463		54.553230	58.408886	3.149872
17464		54.723376	58.561454	3.148131
17465		54.871289	58.710074	3.119467
17466		55.007578	58.859153	3.082207
17467		55.125179	59.006829	3.035764
17468		55.233960	59.150760	2.987589
17469		55.338119	59.291928	2.940881
17470		55.450223	59.429251	2.908046
17471		55.564825	59.564477	2.881631
17472		55.669293	59.688086	2.845837
17473		55.765449	59.797401	2.802081
17474		55.861444	59.893159	2.758908
17475		55.955940	59.975688	2.714354
17476		56.054300	60.047096	2.684606
17477		56.167821	60.115237	2.679036
17478		56.292251	60.181058	2.703147
17479		56.419227	60.245482	2.732698
17480		56.518309	60.307062	2.743238
17481		56.590788	60.361222	2.722939
17482		56.650676	60.409763	2.682966
17483		56.725885	60.461870	2.647226
17484		56.828935	60.517957	2.635825
17485		56.949580	60.580922	2.653582
17486		57.080443	60.646647	2.692639
17487		57.197344	60.716109	2.734628
17488		57.279826	60.783333	2.757215
17489		57.328641	60.842782	2.758626
17490		57.353193	60.899248	2.746966
17491		57.389107	60.958083	2.750605
17492		57.458563	61.019778	2.786678
17493		57.548685	61.076210	2.846997
17494		57.623879	61.118356	2.889547
17495		57.675984	61.145825	2.906842
17496		57.706697	61.165041	2.908208
17497		57.743055	61.180993	2.914478
17498		57.786179	61.197493	2.922632
17499		57.844210	61.214125	2.944087
17500		57.905959	61.231160	2.967928
17501		57.968638	61.246293	2.995404
17502		58.020696	61.257116	3.012198
17503		58.063697	61.267268	3.027485
17504		58.092030	61.277893	3.042313
17505		58.110138	61.290931	3.056405
17506		58.123198	61.302987	3.064145
17507		58.144483	61.320375	3.083834
17508		58.174242	61.341805	3.112243
17509		58.208342	61.365408	3.143373
17510		58.241574	61.390461	3.173807
17511		58.275255	61.418316	3.206565
17512		58.295772	61.445437	3.222122
17513		58.302552	61.469625	3.221282
17514		58.286964	61.485701	3.199598
17515		58.268554	61.500245	3.174546
17516		58.260929	61.512656	3.156653
17517		58.285695	61.524888	3.164511
17518		58.346123	61.536105	3.196307
17519		58.419650	61.541300	3.226623
17520		58.491563	61.537152	3.242464
17521		58.551867	61.523939	3.240154
17522		58.593088	61.513675	3.221045
17523		58.624418	61.501954	3.201407
17524		58.650015	61.493428	3.181589
17525		58.665727	61.484702	3.157435
17526		58.662241	61.473014	3.117085
17527		58.659854	61.460442	3.069974
17528		58.659330	61.447973	3.014506
17529		58.682441	61.434038	2.971247
17530		58.716997	61.420380	2.932110
17531		58.750609	61.408000	2.892738
17532		58.760326	61.392343	2.842598
17533		58.748140	61.373607	2.788299
17534		58.708794	61.351695	2.730254
17535		58.642791	61.329654	2.664869
17536		58.559682	61.301921	2.604765
17537		58.464848	61.276490	2.544200
17538		58.374660	61.252752	2.502534
17539		58.282325	61.232399	2.467142
17540		58.188018	61.209850	2.433549
17541		58.101105	61.188814	2.403129
17542		58.023291	61.170029	2.372387
17543		57.963417	61.157417	2.353725
17544		57.907947	61.149330	2.327734
17545		57.857207	61.147096	2.297333
17546		57.815134	61.154109	2.271262
17547		57.788760	61.171978	2.255970
17548		57.771986	61.197969	2.244055
17549		57.765458	61.232381	2.232946
17550		57.771511	61.270743	2.223494
17551		57.783263	61.318982	2.208946
17552		57.813720	61.375254	2.203933
17553		57.857557	61.438440	2.206010
17554		57.905770	61.500129	2.206287
17555		57.925627	61.549802	2.175647
17556		57.921180	61.583566	2.127485
17557		57.897508	61.601106	2.064062
17558		57.856693	61.603620	1.999686
17559		57.814732	61.594652	1.946861
17560		57.762109	61.577858	1.901464
17561		57.713113	61.558310	1.874208
17562		57.650200	61.533226	1.851861
17563		57.564770	61.511723	1.814374
17564		57.469917	61.494461	1.768833
17565		57.367580	61.487262	1.714346
17566		57.266310	61.490615	1.653970
17567		57.156626	61.500062	1.580570
17568		57.037731	61.511370	1.497328
17569		56.932637	61.526076	1.418613
17570		56.858660	61.540293	1.361734
17571		56.820103	61.554065	1.331030
17572		56.814719	61.566819	1.313781
17573		56.824596	61.575770	1.294605
17574		56.824077	61.578414	1.251382
17575		56.799872	61.575266	1.177820
17576		56.761947	61.573766	1.090417
17577		56.725257	61.576305	1.010152
17578		56.682309	61.575200	0.931720
17579		56.628649	61.565100	0.846690
17580		56.585455	61.543430	0.772810
17581		56.564245	61.520444	0.720891
17582		56.578503	61.498451	0.695642
17583		56.621999	61.481927	0.687141
17584		56.677849	61.468884	0.687761
17585		56.723683	61.458869	0.665734
17586		56.765001	61.448659	0.622535
17587		56.820048	61.453386	0.593966
17588		56.882061	61.472659	0.580712
17589		56.931005	61.501548	0.577475
17590		56.941088	61.525662	0.564301
17591		56.919816	61.539427	0.545869
17592		56.860552	61.542045	0.521050
17593		56.773705	61.537438	0.495292
17594		56.669151	61.525120	0.471111
17595		56.598015	61.516080	0.496173
17596		56.581216	61.518983	0.591345
17597		56.579385	61.519603	0.687234
17598		56.582533	61.512386	0.750801
17599		56.592732	61.508385	0.815330
17600		56.623295	61.502055	0.886889
17601		56.665940	61.488005	0.934519
17602		56.702853	61.469697	0.971027
17603		56.717338	61.444253	0.994909
17604		56.702172	61.406569	0.979072
17605		56.660645	61.358389	0.950941
17606		56.614300	61.308887	0.939849
17607		56.578233	61.263024	0.944867
17608		56.570163	61.228002	0.977518
17609		56.574495	61.205996	1.045484
17610		56.563819	61.188330	1.103130
17611		56.524079	61.170786	1.132481
17612		56.424895	61.161657	1.111485
17613		56.305190	61.167068	1.074175
17614		56.200940	61.176623	1.037823
17615		56.126638	61.186866	1.014941
17616		56.085496	61.189435	1.011969
17617		56.054504	61.182027	1.008900
17618		56.029885	61.163826	0.998048
17619		56.007925	61.136932	0.976973
17620		55.983265	61.108252	0.941436
17621		55.947066	61.081940	0.891183
17622		55.903375	61.061449	0.835057
17623		55.871799	61.049849	0.794413
17624		55.856907	61.047477	0.777574
17625		55.851657	61.051156	0.773372
17626		55.857729	61.053619	0.784666
17627		55.861054	61.055342	0.805275
17628		55.851839	61.055822	0.822854
17629		55.826154	61.054913	0.828824
17630		55.787995	61.050921	0.823043
17631		55.745121	61.049227	0.804257
17632		55.719232	61.047461	0.789845
17633		55.708743	61.052868	0.790591
17634		55.709001	61.061740	0.800611
17635		55.717686	61.069190	0.812897
17636		55.714182	61.069697	0.804858
17637		55.700899	61.062844	0.783603
17638		55.683409	61.052105	0.757724
17639		55.658207	61.035599	0.734517
17640		55.616600	61.014578	0.708692
17641		55.566095	60.985767	0.690895
17642		55.500828	60.950490	0.675118
17643		55.425085	60.912888	0.660086
17644		55.335431	60.869290	0.630620
17645		55.223710	60.813315	0.566439
17646		55.105119	60.746986	0.479836
17647		54.995273	60.674863	0.385925
17648		54.908853	60.594634	0.300171
17649		54.833892	60.513875	0.220032
17650		54.752076	60.421890	0.141633
17651		54.640161	60.319968	0.044878
17652		54.495748	60.208554	-0.067714
17653		54.316360	60.093503	-0.195033
17654		54.104993	59.976224	-0.336332
17655		53.882681	59.863653	-0.474180
17656		53.653776	59.753798	-0.601582
17657		53.406692	59.646078	-0.732652
17658		53.148080	59.542472	-0.854736
17659		52.872389	59.437198	-0.970673
17660		52.577075	59.329438	-1.087836
17661		52.272053	59.219948	-1.206244
17662		51.971060	59.107104	-1.313381
17663		51.664345	58.990739	-1.417398
17664		51.361850	58.874439	-1.505854
17665		51.088513	58.772505	-1.562365
17666		50.851764	58.676380	-1.588603
17667		50.650643	58.585237	-1.590818
17668		50.476885	58.494815	-1.583967
17669		50.326455	58.400603	-1.570141
17670		50.176918	58.292774	-1.573362
17671		50.027908	58.172340	-1.592386
17672		49.869203	58.048771	-1.624086
17673		49.721013	57.922059	-1.648325
17674		49.577049	57.794355	-1.667704
17675		49.431467	57.660295	-1.682441
17676		49.291091	57.517733	-1.692561
17677		49.156875	57.369469	-1.691261
17678		49.031981	57.216594	-1.673688
17679		48.900423	57.061302	-1.658800
17680		48.752490	56.903150	-1.640334
17681		48.562942	56.747929	-1.638557
17682		48.345131	56.596826	-1.641193
17683		48.101765	56.447431	-1.640665
17684		47.842677	56.292898	-1.636848
17685		47.578184	56.136134	-1.622313
17686		47.313333	55.974302	-1.600102
17687		47.056067	55.803116	-1.571719
17688		46.787119	55.626400	-1.546297
17689		46.500981	55.441097	-1.529420
17690		46.206952	55.254676	-1.519985
17691		45.906095	55.069235	-1.506079
17692		45.605520	54.885523	-1.494289
17693		45.311845	54.704907	-1.481441
17694		45.030168	54.524408	-1.463655
17695		44.758747	54.342589	-1.443240
17696		44.519657	54.156700	-1.413214
17697		44.288758	53.961070	-1.385218
17698		44.047981	53.757773	-1.363134
17699		43.803469	53.548653	-1.342286
17700		43.553185	53.350631	-1.312959
17701		43.294686	53.160963	-1.277296
17702		43.032664	52.976014	-1.249953
17703		42.769764	52.793774	-1.226335
17704		42.504657	52.614046	-1.201587
17705		42.246480	52.432076	-1.179003
17706		41.992608	52.244200	-1.150209
17707		41.736952	52.050785	-1.125415
17708		41.480014	51.856273	-1.100546
17709		41.223932	51.670029	-1.071191
17710		40.978029	51.487627	-1.036767
17711		40.737987	51.301640	-1.010868
17712		40.494503	51.109380	-0.991570
17713		40.254135	50.914831	-0.975744
17714		40.017541	50.724900	-0.959080
17715		39.791010	50.535472	-0.938973
17716		39.571757	50.353054	-0.907850
17717		39.364429	50.177603	-0.866910
17718		39.165544	50.000233	-0.827186
17719		38.958466	49.814843	-0.794715
17720		38.730896	49.620743	-0.778029
17721		38.506583	49.427658	-0.759465
17722		38.282706	49.248106	-0.742721
17723		38.066041	49.081564	-0.722513
17724		37.859624	48.929837	-0.691928
17725		37.660064	48.786540	-0.655297
17726		37.465393	48.638969	-0.624087
17727		37.271777	48.490081	-0.601965
17728		37.075233	48.342631	-0.590015
17729		36.879635	48.204149	-0.581994
17730		36.695442	48.075109	-0.566636
17731		36.524634	47.950507	-0.547314
17732		36.373327	47.820572	-0.520971
17733		36.225113	47.689452	-0.496279
17734		36.069658	47.558220	-0.480572
17735		35.905876	47.434126	-0.474340
17736		35.746356	47.325097	-0.472188
17737		35.604346	47.228715	-0.463492
17738		35.479787	47.134755	-0.451230
17739		35.381142	47.036392	-0.427123
17740		35.288010	46.921041	-0.408052
17741		35.170206	46.799996	-0.395331
17742		35.033929	46.688248	-0.388754
17743		34.896015	46.596889	-0.378746
17744		34.773121	46.519218	-0.355302
17745		34.685702	46.447648	-0.310038
17746		34.622461	46.368058	-0.251431
17747		34.567769	46.272166	-0.191514
17748		34.512406	46.171292	-0.130996
17749		34.443232	46.074276	-0.071623
17750		34.374551	45.992409	0.000314
17751		34.327731	45.935102	0.103785
17752		34.337430	45.899704	0.253711
17753		34.385771	45.870683	0.439680
17754		34.456644	45.843232	0.660530
17755		34.534043	45.824099	0.896243
17756		34.620872	45.818316	1.142063
17757		34.730178	45.820799	1.390265
17758		34.832538	45.813686	1.624434
17759		34.919488	45.785808	1.835513
17760		34.982405	45.736006	2.015082
17761		35.023846	45.671789	2.172002
17762		35.035012	45.603582	2.295311
17763		35.014497	45.532977	2.377558
17764		34.975184	45.467728	2.433952
17765		34.919730	45.401265	2.473659
17766		34.831932	45.327326	2.494422
17767		34.711286	45.241350	2.493217
17768		34.554831	45.151945	2.476514
17769		34.377560	45.072584	2.450421
17770		34.176609	45.006183	2.403336
17771		33.958441	44.954247	2.336992
17772		33.747983	44.916166	2.254900
17773		33.553958	44.885541	2.165847
17774		33.396590	44.861227	2.081838
17775		33.279725	44.838990	2.008115
17776		33.191805	44.807178	1.939321
17777		33.127502	44.762874	1.875403
17778		33.092802	44.714286	1.824600
17779		33.076831	44.661679	1.783600
17780		33.081430	44.606891	1.759182
17781		33.102241	44.550772	1.751299
17782		33.111303	44.486004	1.736552
17783		33.084319	44.420034	1.710974
17784		33.027180	44.362730	1.676226
17785		32.953696	44.315864	1.645831
17786		32.872466	44.263329	1.613197
17787		32.775299	44.200906	1.574991
17788		32.670043	44.129519	1.525573
17789		32.533404	44.040943	1.455991
17790		32.373803	43.939184	1.372021
17791		32.209661	43.833386	1.282701
17792		32.043109	43.730431	1.197237
17793		31.892191	43.626973	1.123380
17794		31.759933	43.526884	1.058420
17795		31.653499	43.422840	1.007246
17796		31.562469	43.317857	0.962328
17797		31.488026	43.211148	0.920357
17798		31.420470	43.104102	0.880109
17799		31.363557	43.002614	0.845487
17800		31.291641	42.910489	0.818391
17801		31.210819	42.824882	0.801306
17802		31.135919	42.736294	0.788173
17803		31.063952	42.654697	0.784730
17804		30.972358	42.576574	0.777056
17805		30.880515	42.498095	0.771162
17806		30.784750	42.416317	0.768672
17807		30.688396	42.326873	0.761191
17808		30.598666	42.236274	0.760675
17809		30.530328	42.147324	0.764258
17810		30.479126	42.059810	0.769502
17811		30.436102	41.976902	0.786282
17812		30.391590	41.899279	0.802523
17813		30.332323	41.824702	0.817726
17814		30.270645	41.750278	0.832547
17815		30.201219	41.679198	0.845758
17816		30.133032	41.612777	0.860552
17817		30.071105	41.553824	0.879047
17818		30.000064	41.500508	0.896843
17819		29.942866	41.453742	0.917337
17820		29.882973	41.416698	0.936820
17821		29.833539	41.390817	0.966986
17822		29.789640	41.373669	0.997001
17823		29.750426	41.359049	1.026740
17824		29.720681	41.349376	1.058845
17825		29.699225	41.346056	1.093670
17826		29.686539	41.347636	1.131133
17827		29.680672	41.353035	1.169655
17828		29.674332	41.355656	1.203507
17829		29.676290	41.364035	1.238982
17830		29.680918	41.377920	1.272100
17831		29.689686	41.396248	1.304198
17832		29.700881	41.414981	1.333820
17833		29.712033	41.436258	1.358670
17834		29.731104	41.458538	1.386379
17835		29.759967	41.473362	1.413481
17836		29.797056	41.479322	1.436403
17837		29.841391	41.481689	1.455600
17838		29.880509	41.484221	1.471084
17839		29.921696	41.490603	1.483138
17840		29.962568	41.498489	1.493885
17841		30.004572	41.506252	1.503547
17842		30.040610	41.513474	1.510849
17843		30.074965	41.519847	1.517093
17844		30.103286	41.523335	1.516557
17845		30.132446	41.533730	1.514358
17846		30.167406	41.556032	1.511083
17847		30.208920	41.589629	1.511634
17848		30.252518	41.629953	1.510234
17849		30.297995	41.670303	1.505335
17850		30.344721	41.713259	1.491037
17851		30.394827	41.759829	1.479316
17852		30.452175	41.806266	1.466446
17853		30.514820	41.852722	1.453022
17854		30.586337	41.903407	1.441345
17855		30.671250	41.961831	1.432910
17856		30.767223	42.025856	1.425487
17857		30.871228	42.100167	1.417184
17858		30.982856	42.179400	1.408119
17859		31.097068	42.270105	1.396192
17860		31.226835	42.369717	1.385081
17861		31.382186	42.480092	1.375177
17862		31.569187	42.598004	1.365419
17863		31.793299	42.719190	1.360900
17864		32.034127	42.841381	1.349201
17865		32.294889	42.968713	1.343460
17866		32.556146	43.104405	1.336576
17867		32.817014	43.243471	1.332648
17868		33.055343	43.382544	1.317112
17869		33.271974	43.524630	1.289375
17870		33.477930	43.667561	1.255169
17871		33.687101	43.808681	1.218452
17872		33.913870	43.951338	1.187742
17873		34.163094	44.094140	1.161888
17874		34.420889	44.233687	1.124105
17875		34.670744	44.376900	1.073021
17876		34.912767	44.529688	1.019873
17877		35.140168	44.691789	0.971357
17878		35.361510	44.855546	0.933624
17879		35.591756	45.018937	0.911841
17880		35.821959	45.179544	0.893846
17881		36.078493	45.348168	0.894862
17882		36.351361	45.521340	0.900545
17883		36.632048	45.708600	0.903819
17884		36.928845	45.907437	0.902025
17885		37.249604	46.120482	0.901834
17886		37.583618	46.339326	0.904100
17887		37.936319	46.557909	0.912614
17888		38.299941	46.767897	0.927208
17889		38.653634	46.970468	0.933890
17890		39.008537	47.170938	0.941731
17891		39.363372	47.378804	0.956193
17892		39.729642	47.598464	0.981633
17893		40.108631	47.831736	1.009706
17894		40.500270	48.074557	1.032409
17895		40.905233	48.331284	1.050224
17896		41.323407	48.587535	1.066555
17897		41.738830	48.830992	1.081145
17898		42.128780	49.056968	1.093110
17899		42.514612	49.266509	1.120164
17900		42.898344	49.461899	1.166012
17901		43.274885	49.651015	1.225398
17902		43.630333	49.835963	1.287940
17903		43.973636	50.021792	1.349040
17904		44.288358	50.208071	1.394416
17905		44.583616	50.396631	1.425855
17906		44.869979	50.589492	1.445688
17907		45.154895	50.782740	1.466019
17908		45.436315	50.974879	1.484911
17909		45.711414	51.164102	1.499680
17910		45.978345	51.351531	1.512747
17911		46.233874	51.535689	1.529120
17912		46.472989	51.720337	1.550671
17913		46.712470	51.901120	1.571542
17914		46.931861	52.076861	1.585087
17915		47.134729	52.249599	1.583820
17916		47.310953	52.424197	1.564896
17917		47.466066	52.606140	1.534344
17918		47.620412	52.794238	1.501482
17919		47.783584	52.983163	1.467576
17920		47.968198	53.170680	1.439204
17921		48.162174	53.351025	1.408182
17922		48.357160	53.523643	1.374508
17923		48.570613	53.692656	1.356631
17924		48.802874	53.863074	1.366512
17925		49.048070	54.038213	1.395144
17926		49.295080	54.219605	1.440411
17927		49.558551	54.402534	1.504232
17928		49.821561	54.571761	1.561422
17929		50.067496	54.726205	1.601814
17930		50.286323	54.869018	1.626594
17931		50.481999	55.005565	1.646964
17932		50.667994	55.136032	1.674494
17933		50.872066	55.261224	1.714103
17934		51.072531	55.384037	1.752831
17935		51.265861	55.506341	1.793336
17936		51.467838	55.622005	1.823702
17937		51.656728	55.726207	1.832897
17938		51.824557	55.817892	1.825249
17939		51.961361	55.905346	1.802357
17940		52.091574	55.994654	1.794234
17941		52.222577	56.090685	1.814870
17942		52.368581	56.188506	1.857584
17943		52.520140	56.287378	1.910357
17944		52.657020	56.380982	1.954614
17945		52.758028	56.467273	1.973076
17946		52.833804	56.542540	1.964079
17947		52.901368	56.613345	1.948535
17948		52.965767	56.682939	1.942486
17949		53.037669	56.749011	1.947519
17950		53.115668	56.806816	1.963265
17951		53.199007	56.860958	1.990619
17952		53.284880	56.905430	2.024628
17953		53.365972	56.948018	2.060938
17954		53.442096	56.984055	2.094613
17955		53.522312	57.013455	2.124560
17956		53.600352	57.040349	2.146245
17957		53.681345	57.072505	2.179132
17958		53.764476	57.109947	2.216746
17959		53.855178	57.150474	2.267687
17960		53.933672	57.191237	2.316995
17961		54.013937	57.233945	2.369148
17962		54.097635	57.275668	2.425281
17963		54.175679	57.319003	2.485800
17964		54.236116	57.361505	2.529727
17965		54.287280	57.401093	2.564972
17966		54.342565	57.440526	2.603022
17967		54.401128	57.480411	2.645552
17968		54.473016	57.521735	2.698271
17969		54.541334	57.558446	2.745675
17970		54.597635	57.594238	2.777820
17971		54.643345	57.622376	2.798687
17972		54.684921	57.650763	2.810193
17973		54.725178	57.681381	2.818151
17974		54.759527	57.713768	2.823680
17975		54.791288	57.749133	2.829192
17976		54.815886	57.785820	2.830861
17977		54.852449	57.822955	2.837861
17978		54.887632	57.861664	2.848470
17979		54.920618	57.895896	2.866143
17980		54.952496	57.929740	2.887662
17981		54.983411	57.963874	2.918752
17982		55.001665	57.997933	2.950630
17983		55.015394	58.032910	2.983201
17984		55.036018	58.066261	3.015722
17985		55.072005	58.104496	3.058472
17986		55.120262	58.148780	3.110358
17987		55.167501	58.188605	3.151935
17988		55.213569	58.222915	3.184343
17989		55.259323	58.255569	3.209288
17990		55.322174	58.287358	3.242648
17991		55.403568	58.323329	3.286814
17992		55.487188	58.359394	3.331675
17993		55.570586	58.394184	3.375085
17994		55.641885	58.422247	3.407919
17995		55.706074	58.451943	3.436623
17996		55.761562	58.481336	3.463645
17997		55.794308	58.508664	3.475869
17998		55.804348	58.529725	3.469638
17999		55.802482	58.545204	3.455683
18000		55.784880	58.553852	3.435932
18001		55.754812	58.557283	3.405883
18002		55.718725	58.556596	3.374078
18003		55.682244	58.553079	3.342562
18004		55.649768	58.548959	3.316640
18005		55.614878	58.546653	3.289878
18006		55.567887	58.546294	3.254761
18007		55.513907	58.549130	3.217676
18008		55.462978	58.556048	3.189192
18009		55.411863	58.560544	3.158296
18010		55.363885	58.559688	3.125994
18011		55.312341	58.554305	3.083523
18012		55.251249	58.543067	3.033337
18013		55.191072	58.531000	2.982996
18014		55.136982	58.518806	2.939598
18015		55.099104	58.513501	2.910395
18016		55.071237	58.520838	2.888993
18017		55.048236	58.537777	2.871191
18018		55.012983	58.559749	2.841048
18019		54.967696	58.589128	2.801762
18020		54.930033	58.628289	2.767540
18021		54.913481	58.680118	2.748258
18022		54.912845	58.738527	2.739251
18023		54.909847	58.793663	2.720488
18024		54.896402	58.838922	2.686030
18025		54.872586	58.877040	2.636702
18026		54.832767	58.899113	2.569219
18027		54.773701	58.910480	2.483725
18028		54.700147	58.912133	2.393711
18029		54.616084	58.911687	2.306469
18030		54.533446	58.913265	2.232799
18031		54.468525	58.922311	2.187761
18032		54.427533	58.938801	2.170748
18033		54.393443	58.955973	2.166177
18034		54.346321	58.976942	2.157192
18035		54.293391	58.993703	2.153195
18036		54.240524	59.010138	2.157252
18037		54.207972	59.029056	2.180893
18038		54.189376	59.045141	2.214240
18039		54.175865	59.063350	2.245317
18040		54.184835	59.083009	2.283978
18041		54.204523	59.106612	2.321800
18042		54.232829	59.137702	2.358840
18043		54.279080	59.175824	2.401214
18044		54.347468	59.223200	2.458874
18045		54.443633	59.276415	2.535689
18046		54.550319	59.329257	2.617472
18047		54.665890	59.379951	2.700067
18048		54.771018	59.426627	2.774990
18049		54.873385	59.469529	2.847521
18050		54.957132	59.508110	2.909156
18051		55.030268	59.545806	2.974439
18052		55.090709	59.581015	3.043284
18053		55.133074	59.613064	3.108390
18054		55.151538	59.636377	3.157582
18055		55.145329	59.647314	3.177849
18056		55.124766	59.649100	3.177170
18057		55.101346	59.640906	3.164058
18058		55.086847	59.629952	3.150179
18059		55.080622	59.620449	3.134628
18060		55.078303	59.612317	3.115797
18061		55.068050	59.610134	3.089155
18062		55.043911	59.612552	3.048372
18063		55.006797	59.616397	2.995027
18064		54.953202	59.622340	2.926534
18065		54.893639	59.631934	2.857238
18066		54.835875	59.643154	2.791136
18067		54.786112	59.649140	2.738487
18068		54.745562	59.651196	2.693164
18069		54.720278	59.649138	2.663524
18070		54.707737	59.643306	2.645135
18071		54.692653	59.631418	2.622593
18072		54.667522	59.617193	2.598741
18073		54.636386	59.604657	2.578868
18074		54.602550	59.595578	2.558216
18075		54.583197	59.592200	2.551734
18076		54.558645	59.585441	2.524856
18077		54.515956	59.573092	2.470656
18078		54.470640	59.563409	2.416711
18079		54.441967	59.562735	2.390187
18080		54.437905	59.573405	2.391528
18081		54.447300	59.590972	2.407885
18082		54.449897	59.605860	2.411876
18083		54.444271	59.612843	2.392636
18084		54.451107	59.618033	2.384401
18085		54.486636	59.624850	2.403040
18086		54.554442	59.635063	2.448016
18087		54.641410	59.648424	2.521054
18088		54.719648	59.667702	2.597443
18089		54.781135	59.689753	2.660046
18090		54.816206	59.711096	2.703212
18091		54.812636	59.733122	2.713108
18092		54.801915	59.756128	2.725997
18093		54.793862	59.785120	2.758483
18094		54.769671	59.809190	2.784766
18095		54.716358	59.819444	2.782044
18096		54.633611	59.814358	2.750222
18097		54.537441	59.799201	2.704992
18098		54.443839	59.788887	2.667795
18099		54.363833	59.788888	2.647838
18100		54.294013	59.792547	2.636515
18101		54.218779	59.794282	2.609212
18102		54.136105	59.793688	2.558098
18103		54.058811	59.793551	2.493290
18104		53.980428	59.793318	2.416679
18105		53.929193	59.800127	2.355641
18106		53.904849	59.812506	2.318909
18107		53.896258	59.831136	2.297771
18108		53.896091	59.851719	2.283262
18109		53.897105	59.870769	2.264976
18110		53.889721	59.879497	2.224498
18111		53.883968	59.883123	2.173795
18112		53.894097	59.890249	2.138056
18113		53.927191	59.905217	2.130841
18114		53.971197	59.919882	2.132943
18115		54.019030	59.927222	2.132061
18116		54.053482	59.920517	2.112108
18117		54.062977	59.901302	2.067791
18118		54.053926	59.871737	2.013431
18119		54.038656	59.845505	1.969696
18120		54.024952	59.827305	1.947646
18121		54.017515	59.811456	1.945165
18122		53.996057	59.789823	1.932937
18123		53.967395	59.767081	1.917419
18124		53.921297	59.742310	1.887499
18125		53.857819	59.715572	1.849786
18126		53.791526	59.687106	1.815873
18127		53.726916	59.659066	1.786617
18128		53.664872	59.630451	1.768160
18129		53.601689	59.595049	1.750984
18130		53.525376	59.557454	1.726143
18131		53.441620	59.516714	1.698650
18132		53.343105	59.472436	1.658694
18133		53.250821	59.427209	1.620590
18134		53.167159	59.385572	1.591356
18135		53.096465	59.348524	1.575576
18136		53.025486	59.312315	1.564544
18137		52.953539	59.277221	1.553321
18138		52.877687	59.232400	1.534623
18139		52.784815	59.181462	1.500568
18140		52.680108	59.123947	1.458158
18141		52.584063	59.073682	1.437241
18142		52.505081	59.030902	1.445526
18143		52.438610	58.988119	1.473477
18144		52.375783	58.941261	1.505519
18145		52.303144	58.891419	1.528378
18146		52.216801	58.832887	1.534877
18147		52.122540	58.771506	1.536260
18148		52.016402	58.706354	1.532317
18149		51.899549	58.641803	1.530085
18150		51.784223	58.576272	1.532644
18151		51.668050	58.511016	1.536114
18152		51.555230	58.441274	1.542373
18153		51.448672	58.364871	1.540513
18154		51.338385	58.286260	1.532642
18155		51.229765	58.208888	1.528536
18156		51.133555	58.137404	1.531733
18157		51.037687	58.071150	1.542255
18158		50.938917	58.006706	1.549780
18159		50.823901	57.945464	1.543109
18160		50.701748	57.884042	1.523688
18161		50.583487	57.819415	1.498514
18162		50.459308	57.750002	1.466738
18163		50.339765	57.674577	1.441789
18164		50.222408	57.597248	1.418403
18165		50.103238	57.520341	1.404724
18166		49.979201	57.444356	1.389771
18167		49.854125	57.368445	1.367599
18168		49.732998	57.294355	1.348098
18169		49.621083	57.219646	1.322901
18170		49.511459	57.142584	1.293447
18171		49.397240	57.067953	1.262753
18172		49.286054	56.991881	1.219709
18173		49.179266	56.912829	1.179340
18174		49.070127	56.826760	1.135308
18175		48.966373	56.734706	1.097997
18176		48.851057	56.636409	1.059572
18177		48.729748	56.531380	1.022054
18178		48.603530	56.423481	0.992992
18179		48.457844	56.317106	0.961904
18180		48.293326	56.208218	0.923695
18181		48.115644	56.102110	0.878638
18182		47.934825	55.994193	0.834172
18183		47.766027	55.874348	0.799777
18184		47.603854	55.740743	0.772606
18185		47.443233	55.596986	0.754791
18186		47.281310	55.434304	0.744173
18187		47.106556	55.251536	0.733516
18188		46.914394	55.050967	0.723013
18189		46.696507	54.842852	0.710393
18190		46.462406	54.637180	0.703958
18191		46.216476	54.438875	0.706594
18192		45.964830	54.244849	0.717349
18193		45.712618	54.049271	0.728588
18194		45.443321	53.844729	0.734817
18195		45.165889	53.631096	0.738865
18196		44.871155	53.411943	0.735793
18197		44.546638	53.191131	0.726473
18198		44.219088	52.958493	0.719063
18199		43.884018	52.691367	0.710795
18200		43.517632	52.377369	0.676772
18201		43.145723	52.035494	0.625121
18202		42.770431	51.695623	0.574455
18203		42.385398	51.385060	0.525981
18204		42.003387	51.115637	0.484441
18205		41.631526	50.892111	0.446447
18206		41.288207	50.691366	0.403973
18207		40.965923	50.492467	0.354937
18208		40.664617	50.284120	0.299282
18209		40.379190	50.070319	0.246402
18210		40.103351	49.847313	0.195511
18211		39.844914	49.616175	0.151158
18212		39.573977	49.377935	0.120851
18213		39.281093	49.137332	0.091505
18214		38.951865	48.911843	0.059647
18215		38.618055	48.711553	0.035590
18216		38.301601	48.533160	0.020875
18217		38.005981	48.360265	0.017932
18218		37.738996	48.177340	0.019208
18219		37.468091	47.970644	0.011856
18220		37.180334	47.746240	-0.023905
18221		36.861609	47.519986	-0.079431
18222		36.525137	47.294719	-0.147499
18223		36.183459	47.067639	-0.210770
18224		35.845242	46.830804	-0.269411
18225		35.504788	46.588658	-0.316534
18226		35.168849	46.343273	-0.360870
18227		34.835741	46.104392	-0.406832
18228		34.496277	45.879676	-0.461612
18229		34.168953	45.677026	-0.520128
18230		33.852802	45.495681	-0.581145
18231		33.553948	45.333317	-0.643297
18232		33.292226	45.175920	-0.702476
18233		33.053315	45.012570	-0.762846
18234		32.836444	44.840535	-0.821794
18235		32.637792	44.667740	-0.874506
18236		32.461988	44.505067	-0.920738
18237		32.303885	44.364665	-0.951875
18238		32.169439	44.245139	-0.973588
18239		32.065389	44.141805	-0.984826
18240		31.971411	44.033143	-1.003438
18241		31.888230	43.918632	-1.028937
18242		31.834187	43.812042	-1.045103
18243		31.805745	43.715978	-1.053215
18244		31.797503	43.638828	-1.050684
18245		31.811526	43.580201	-1.037619
18246		31.821871	43.527190	-1.021142
18247		31.821177	43.471789	-1.009052
18248		31.814886	43.409573	-0.999993
18249		31.805256	43.343258	-0.992786
18250		31.787532	43.277774	-0.991620
18251		31.762232	43.224478	-0.992042
18252		31.735543	43.180942	-0.994019
18253		31.709326	43.140854	-1.006525
18254		31.684205	43.084639	-1.033671
18255		31.655252	42.992050	-1.091139
18256		31.597826	42.853936	-1.185668
18257		31.516434	42.688430	-1.294053
18258		31.406997	42.510112	-1.411134
18259		31.306152	42.329951	-1.518293
18260		31.199311	42.149102	-1.614893
18261		31.078002	41.962818	-1.715479
18262		30.965413	41.774509	-1.817664
18263		30.838517	41.583151	-1.921474
18264		30.702281	41.384448	-2.027262
18265		30.553404	41.184737	-2.138189
18266		30.393807	40.980896	-2.239531
18267		30.241365	40.771451	-2.334626
18268		30.059583	40.565728	-2.416784
18269		29.870100	40.364057	-2.499276
18270		29.673354	40.169294	-2.572442
18271		29.487609	39.976587	-2.632578
18272		29.322977	39.780861	-2.680567
18273		29.177861	39.585171	-2.713144
18274		29.057873	39.380023	-2.740903
18275		28.952052	39.185204	-2.762042
18276		28.860817	38.993739	-2.775585
18277		28.781341	38.808630	-2.779748
18278		28.705156	38.633840	-2.772025
18279		28.631283	38.468895	-2.759532
18280		28.563024	38.314039	-2.743573
18281		28.490669	38.169852	-2.718191
18282		28.411126	38.033848	-2.692212
18283		28.333051	37.903182	-2.660140
18284		28.255903	37.779271	-2.627872
18285		28.180192	37.659436	-2.589526
18286		28.088488	37.548603	-2.550966
18287		27.986529	37.454825	-2.512785
18288		27.888453	37.379632	-2.478050
18289		27.802516	37.322840	-2.445302
18290		27.727333	37.284205	-2.407875
18291		27.680678	37.252598	-2.366137
18292		27.650813	37.224320	-2.330199
18293		27.646587	37.194741	-2.297717
18294		27.653220	37.162396	-2.273434
18295		27.654717	37.127729	-2.256570
18296		27.654206	37.095938	-2.246509
18297		27.655648	37.073020	-2.238036
18298		27.672970	37.064549	-2.221020
18299		27.704983	37.068852	-2.204089
18300		27.755224	37.081400	-2.183525
18301		27.816011	37.098106	-2.162035
18302		27.871047	37.116017	-2.141568
18303		27.915188	37.137576	-2.122027
18304		27.944028	37.161308	-2.111587
18305		27.964978	37.191936	-2.096323
18306		27.978886	37.226940	-2.082612
18307		27.998412	37.263827	-2.064735
18308		28.035614	37.299056	-2.035592
18309		28.075929	37.326489	-2.006095
18310		28.106375	37.349787	-1.977841
18311		28.125938	37.375474	-1.950489
18312		28.151189	37.402360	-1.924052
18313		28.178218	37.426774	-1.906967
18314		28.209923	37.449918	-1.896445
18315		28.248801	37.479547	-1.883446
18316		28.287875	37.519881	-1.878243
18317		28.326438	37.569650	-1.876445
18318		28.359573	37.616999	-1.881936
18319		28.380654	37.657879	-1.893938
18320		28.387190	37.697651	-1.908367
18321		28.379385	37.732647	-1.925334
18322		28.363320	37.757738	-1.939197
18323		28.334054	37.758888	-1.955896
18324		28.297524	37.741391	-1.975931
18325		28.255356	37.725235	-1.995082
18326		28.214043	37.718269	-2.012133
18327		28.178067	37.722219	-2.029037
18328		28.167622	37.725074	-2.039980
18329		28.169196	37.720681	-2.052370
18330		28.172229	37.701896	-2.065706
18331		28.180118	37.681692	-2.073430
18332		28.191415	37.664407	-2.078059
18333		28.202372	37.660200	-2.078107
18334		28.215510	37.668467	-2.075700
18335		28.241599	37.684329	-2.076358
18336		28.280874	37.706297	-2.078129
18337		28.336190	37.740345	-2.077132
18338		28.399253	37.784646	-2.075946
18339		28.467444	37.835298	-2.071292
18340		28.540837	37.896723	-2.068351
18341		28.621433	37.969675	-2.060720
18342		28.710706	38.054529	-2.043885
18343		28.814305	38.151013	-2.014953
18344		28.936252	38.256651	-1.977539
18345		29.061118	38.373593	-1.939361
18346		29.178023	38.493651	-1.908178
18347		29.285701	38.614337	-1.881432
18348		29.378527	38.730889	-1.864101
18349		29.456817	38.839204	-1.859554
18350		29.518170	38.944059	-1.866934
18351		29.582416	39.055334	-1.877893
18352		29.654173	39.175055	-1.895388
18353		29.734412	39.304128	-1.918730
18354		29.828406	39.438872	-1.952167
18355		29.931076	39.581958	-1.997745
18356		30.053448	39.727714	-2.050578
18357		30.186903	39.876057	-2.111297
18358		30.335639	40.024687	-2.172120
18359		30.513306	40.172298	-2.222795
18360		30.714919	40.309507	-2.267481
18361		30.921132	40.440497	-2.314156
18362		31.127178	40.568755	-2.369164
18363		31.334185	40.707486	-2.432855
18364		31.535963	40.860700	-2.509872
18365		31.717458	41.034176	-2.594258
18366		31.874109	41.220923	-2.686470
18367		32.006450	41.414954	-2.785173
18368		32.131943	41.609394	-2.883518
18369		32.267075	41.796285	-2.975600
18370		32.420108	41.976753	-3.057805
18371		32.588181	42.161251	-3.130740
18372		32.777515	42.357929	-3.195253
18373		32.980254	42.569010	-3.257734
18374		33.182254	42.790644	-3.314777
18375		33.396120	43.015061	-3.367187
18376		33.608296	43.234334	-3.419684
18377		33.823005	43.441877	-3.466759
18378		34.040345	43.644847	-3.507856
18379		34.252841	43.844793	-3.546839
18380		34.461127	44.048164	-3.582469
18381		34.675180	44.252056	-3.614287
18382		34.883994	44.452958	-3.652626
18383		35.077334	44.657740	-3.696988
18384		35.276368	44.870457	-3.741323
18385		35.478414	45.095001	-3.792308
18386		35.683925	45.321536	-3.841624
18387		35.888604	45.553023	-3.881957
18388		36.089113	45.786085	-3.920000
18389		36.284169	46.019272	-3.956721
18390		36.472556	46.249710	-3.994172
18391		36.660803	46.476445	-4.033728
18392		36.845107	46.700557	-4.075124
18393		37.026638	46.925756	-4.117402
18394		37.201855	47.149113	-4.164233
18395		37.369848	47.377228	-4.204424
18396		37.540108	47.610331	-4.232853
18397		37.716513	47.851081	-4.243403
18398		37.899583	48.090663	-4.241532
18399		38.100272	48.325780	-4.229827
18400		38.314004	48.555726	-4.217241
18401		38.525952	48.788817	-4.200308
18402		38.749235	49.026229	-4.175881
18403		38.988539	49.274739	-4.141939
18404		39.242840	49.526612	-4.103548
18405		39.515368	49.776655	-4.066920
18406		39.794358	50.014352	-4.030959
18407		40.063760	50.233523	-4.007554
18408		40.324987	50.434651	-3.998719
18409		40.555115	50.620172	-4.001320
18410		40.756585	50.796212	-4.018074
18411		40.917845	50.959147	-4.057685
18412		41.041572	51.103473	-4.132209
18413		41.104365	51.229976	-4.257520
18414		41.080468	51.338949	-4.435000
18415		40.980727	51.435305	-4.655551
18416		40.790427	51.521869	-4.918111
18417		40.548866	51.605509	-5.200395
18418		40.266168	51.689864	-5.487282
18419		39.954649	51.771510	-5.773403
18420		39.607456	51.856913	-6.055732
18421		39.241575	51.951803	-6.329259
18422		38.862805	52.060937	-6.598992
18423		38.474209	52.191095	-6.857370
18424		38.095042	52.344831	-7.101328
18425		37.738731	52.518925	-7.329337
18426		37.423633	52.704139	-7.536939
18427		37.153072	52.891330	-7.725303
18428		36.932512	53.069603	-7.895587
18429		36.763764	53.240090	-8.055203
18430		36.641596	53.399573	-8.210890
18431		36.580073	53.552600	-8.362052
18432		36.568536	53.704118	-8.513977
18433		36.610903	53.860671	-8.648127
18434		36.695332	54.029101	-8.752902
18435		36.825050	54.201954	-8.827505
18436		36.997424	54.376259	-8.875707
18437		37.206021	54.547769	-8.899377
18438		37.438123	54.714014	-8.902556
18439		37.685076	54.881629	-8.883979
18440		37.936725	55.062974	-8.842917
18441		38.199933	55.259934	-8.766040
18442		38.460388	55.474157	-8.664942
18443		38.734645	55.698677	-8.533981
18444		39.015198	55.926594	-8.388578
18445		39.307679	56.152036	-8.231228
18446		39.610159	56.369002	-8.066010
18447		39.914189	56.575370	-7.898982
18448		40.211783	56.769030	-7.731795
18449		40.510275	56.950659	-7.560645
18450		40.796480	57.119851	-7.396843
18451		41.082178	57.276334	-7.244521
18452		41.366497	57.419668	-7.104204
18453		41.642868	57.548618	-6.981719
18454		41.901660	57.660064	-6.888506
18455		42.151077	57.757488	-6.823512
18456		42.386493	57.845700	-6.770442
18457		42.605842	57.930504	-6.719845
18458		42.812904	58.017954	-6.657885
18459		43.005451	58.115169	-6.577212
18460		43.181826	58.216444	-6.482592
18461		43.339099	58.317266	-6.390771
18462		43.456336	58.411925	-6.323983
18463		43.550189	58.500563	-6.269018
18464		43.632697	58.588651	-6.220608
18465		43.731792	58.677224	-6.155917
18466		43.828846	58.764904	-6.088455
18467		43.932003	58.847130	-6.007882
18468		44.037397	58.924085	-5.922016
18469		44.141962	58.997312	-5.832606
18470		44.234972	59.062679	-5.751405
18471		44.325512	59.125488	-5.673308
18472		44.412425	59.189549	-5.596053
18473		44.502378	59.259737	-5.518233
18474		44.591637	59.331425	-5.448768
18475		44.669754	59.394535	-5.402152
18476		44.742748	59.450655	-5.375137
18477		44.813408	59.500248	-5.361058
18478		44.892617	59.547079	-5.351165
18479		44.968455	59.593591	-5.341290
18480		45.039271	59.641518	-5.327900
18481		45.108732	59.693603	-5.308131
18482		45.174457	59.749213	-5.293090
18483		45.231458	59.809306	-5.278840
18484		45.289885	59.869814	-5.266707
18485		45.344111	59.927050	-5.256661
18486		45.393796	59.979982	-5.254626
18487		45.438258	60.028371	-5.254902
18488		45.482708	60.076065	-5.253085
18489		45.521840	60.126720	-5.247402
18490		45.561155	60.177910	-5.239343
18491		45.596081	60.230430	-5.229418
18492		45.630247	60.284446	-5.221035
18493		45.670345	60.334853	-5.212333
18494		45.707568	60.375465	-5.212055
18495		45.736519	60.407041	-5.220647
18496		45.776382	60.432459	-5.223183
18497		45.826025	60.454908	-5.217212
18498		45.889581	60.477937	-5.202458
18499		45.971447	60.505737	-5.171275
18500		46.065655	60.537914	-5.132832
18501		46.157540	60.571630	-5.099979
18502		46.236140	60.606964	-5.082500
18503		46.302049	60.643877	-5.082059
18504		46.365308	60.691419	-5.081797
18505		46.433737	60.753259	-5.073239
18506		46.510871	60.824070	-5.055330
18507		46.600557	60.908292	-5.022980
18508		46.701079	61.001105	-4.982853
18509		46.812594	61.097123	-4.939353
18510		46.923099	61.191181	-4.900783
18511		47.043885	61.278231	-4.863116
18512		47.158841	61.357096	-4.838949
18513		47.282139	61.423110	-4.808437
18514		47.409212	61.477955	-4.770323
18515		47.537201	61.518552	-4.728311
18516		47.665178	61.545319	-4.679147
18517		47.789407	61.557084	-4.627384
18518		47.894948	61.552243	-4.592116
18519		47.973577	61.535861	-4.573758
18520		48.033300	61.520167	-4.557587
18521		48.089754	61.519909	-4.524927
18522		48.146370	61.536751	-4.469610
18523		48.195936	61.565117	-4.398325
18524		48.224385	61.594068	-4.328786
18525		48.228305	61.620559	-4.272057
18526		48.210549	61.641496	-4.235481
18527		48.179467	61.661888	-4.212829
18528		48.135079	61.681314	-4.208601
18529		48.096936	61.699834	-4.206439
18530		48.056502	61.715755	-4.220346
18531		48.020465	61.724778	-4.245465
18532		47.989504	61.730562	-4.283420
18533		47.974991	61.733183	-4.315229
18534		47.975748	61.734339	-4.336910
18535		47.989046	61.737692	-4.351608
18536		48.010795	61.749304	-4.350550
18537		48.039822	61.763389	-4.335691
18538		48.060278	61.784119	-4.321014
18539		48.073860	61.803016	-4.311272
18540		48.073045	61.820680	-4.312444
18541		48.066374	61.835516	-4.314575
18542		48.061045	61.850182	-4.313132
18543		48.059868	61.863078	-4.312229
18544		48.058990	61.871517	-4.314947
18545		48.064340	61.875139	-4.318027
18546		48.068445	61.876481	-4.328245
18547		48.076963	61.876975	-4.335757
18548		48.080274	61.875260	-4.352832
18549		48.084573	61.873874	-4.373816
18550		48.092918	61.875641	-4.391936
18551		48.103038	61.882452	-4.405082
18552		48.123774	61.889473	-4.408293
18553		48.140209	61.894087	-4.415573
18554		48.156461	61.900387	-4.419885
18555		48.171066	61.907306	-4.426146
18556		48.185187	61.910751	-4.428120
18557		48.197617	61.912530	-4.428342
18558		48.210134	61.913601	-4.426402
18559		48.224151	61.915171	-4.423917
18560		48.242727	61.915089	-4.420212
18561		48.261779	61.919822	-4.415881
18562		48.284876	61.924086	-4.409860
18563		48.305023	61.932068	-4.406078
18564		48.318125	61.938178	-4.409991
18565		48.320270	61.941200	-4.426310
18566		48.314337	61.942433	-4.445645
18567		48.313083	61.949002	-4.455818
18568		48.311688	61.958934	-4.460953
18569		48.318105	61.970470	-4.455624
18570		48.325977	61.983793	-4.447461
18571		48.327671	61.995675	-4.447304
18572		48.323589	62.000612	-4.453738
18573		48.316681	62.002915	-4.461665
18574		48.309393	62.004033	-4.468936
18575		48.307541	62.005271	-4.470380
18576		48.315558	62.003343	-4.465811
18577		48.327152	62.002798	-4.462236
18578		48.337020	62.000842	-4.462410
18579		48.351758	61.993884	-4.467351
18580		48.364225	61.986664	-4.475609
18581		48.385350	61.979483	-4.475463
18582		48.400685	61.968951	-4.480748
18583		48.412153	61.954493	-4.487774
18584		48.408411	61.936494	-4.501897
18585		48.411928	61.917665	-4.506305
18586		48.414269	61.902864	-4.506768
18587		48.416200	61.888269	-4.499121
18588		48.411966	61.877145	-4.495966
18589		48.404556	61.870482	-4.496220
18590		48.386975	61.863003	-4.515318
18591		48.370009	61.853302	-4.543717
18592		48.360094	61.840406	-4.573084
18593		48.344855	61.828133	-4.611359
18594		48.337341	61.820041	-4.632001
18595		48.342274	61.813241	-4.637087
18596		48.356537	61.805797	-4.630791
18597		48.370326	61.793604	-4.622540
18598		48.382669	61.777271	-4.615950
18599		48.403074	61.765745	-4.599398
18600		48.418798	61.755180	-4.581001
18601		48.435378	61.740681	-4.562044
18602		48.448691	61.724993	-4.549496
18603		48.456362	61.704736	-4.544569
18604		48.457577	61.683065	-4.545690
18605		48.454510	61.665640	-4.542739
18606		48.440768	61.651974	-4.537601
18607		48.421421	61.640688	-4.534797
18608		48.407243	61.630791	-4.535746
18609		48.399772	61.621890	-4.532317
18610		48.387432	61.608026	-4.536311
18611		48.373896	61.593597	-4.542790
18612		48.353176	61.584061	-4.544143
18613		48.325005	61.577215	-4.545963
18614		48.285224	61.568513	-4.557622
18615		48.229692	61.559439	-4.585867
18616		48.180615	61.548062	-4.611809
18617		48.132631	61.534325	-4.651382
18618		48.082480	61.516667	-4.695358
18619		48.029134	61.498161	-4.745984
18620		47.984028	61.483337	-4.785214
18621		47.942553	61.475517	-4.813416
18622		47.887243	61.463665	-4.850151
18623		47.819599	61.442377	-4.893427
18624		47.737665	61.414289	-4.942986
18625		47.658684	61.383900	-4.982788
18626		47.582284	61.348082	-5.010178
18627		47.503403	61.311917	-5.030778
18628		47.421613	61.274820	-5.048646
18629		47.340007	61.237333	-5.064535
18630		47.258716	61.201731	-5.084676
18631		47.180565	61.163070	-5.105566
18632		47.108662	61.124538	-5.123279
18633		47.035276	61.085215	-5.147702
18634		46.965013	61.043854	-5.167650
18635		46.896005	60.999789	-5.186516
18636		46.830329	60.950348	-5.204771
18637		46.766704	60.897986	-5.219116
18638		46.710555	60.846632	-5.220132
18639		46.651400	60.794480	-5.215895
18640		46.596257	60.737347	-5.202472
18641		46.536687	60.684707	-5.188001
18642		46.475102	60.627628	-5.171922
18643		46.404917	60.572930	-5.160501
18644		46.323295	60.519076	-5.148824
18645		46.239518	60.465054	-5.137732
18646		46.154648	60.408833	-5.128765
18647		46.075657	60.349930	-5.116499
18648		45.998774	60.283160	-5.104109
18649		45.914268	60.209619	-5.104599
18650		45.818044	60.130890	-5.113274
18651		45.728814	60.056331	-5.111167
18652		45.655256	59.984034	-5.091387
18653		45.591763	59.915295	-5.060372
18654		45.535077	59.841289	-5.033649
18655		45.481924	59.761824	-5.008323
18656		45.428571	59.681466	-4.985029
18657		45.358952	59.596417	-4.975299
18658		45.272912	59.507659	-4.977909
18659		45.177568	59.421674	-4.982999
18660		45.085770	59.340297	-4.980774
18661		45.000452	59.258907	-4.970490
18662		44.922644	59.171656	-4.951981
18663		44.846015	59.080476	-4.932456
18664		44.773511	58.984917	-4.902501
18665		44.690177	58.885140	-4.875069
18666		44.594769	58.775252	-4.856489
18667		44.481979	58.662990	-4.835808
18668		44.350358	58.546917	-4.822309
18669		44.214327	58.431901	-4.810755
18670		44.083407	58.313852	-4.795436
18671		43.946931	58.188209	-4.783828
18672		43.811013	58.047024	-4.777062
18673		43.655229	57.890001	-4.786395
18674		43.492952	57.729377	-4.792063
18675		43.338832	57.562951	-4.780081
18676		43.175970	57.395061	-4.760777
18677		43.017926	57.228133	-4.730054
18678		42.874762	57.063220	-4.684257
18679		42.734788	56.898448	-4.625855
18680		42.579234	56.729291	-4.579838
18681		42.412930	56.554615	-4.535113
18682		42.235450	56.378082	-4.493690
18683		42.036448	56.196844	-4.469604
18684		41.832814	56.011917	-4.452504
18685		41.629063	55.830687	-4.430294
18686		41.427812	55.654215	-4.400684
18687		41.239004	55.478330	-4.366896
18688		41.059005	55.296168	-4.324132
18689		40.874531	55.107099	-4.278548
18690		40.682057	54.908583	-4.247987
18691		40.485237	54.712218	-4.218093
18692		40.279967	54.521490	-4.190042
18693		40.080445	54.339252	-4.159067
18694		39.898579	54.165648	-4.120491
18695		39.745458	53.987295	-4.071728
18696		39.603310	53.797982	-4.024667
18697		39.451033	53.597695	-3.989403
18698		39.277646	53.399268	-3.963374
18699		39.097190	53.208907	-3.942952
18700		38.922007	53.028823	-3.920851
18701		38.770275	52.858267	-3.880873
18702		38.629251	52.684936	-3.836537
18703		38.501855	52.503945	-3.793212
18704		38.374282	52.317943	-3.746749
18705		38.229987	52.130111	-3.706033
18706		38.070192	51.937948	-3.671399
18707		37.884034	51.748115	-3.645158
18708		37.678471	51.561940	-3.626107
18709		37.476473	51.383172	-3.606772
18710		37.296545	51.199311	-3.587592
18711		37.118863	51.007501	-3.573192
18712		36.943257	50.819716	-3.568231
18713		36.749711	50.643975	-3.571067
18714		36.542825	50.477888	-3.585429
18715		36.319463	50.329609	-3.610978
18716		36.121768	50.191386	-3.636501
18717		35.948531	50.061273	-3.658683
18718		35.775065	49.937157	-3.684822
18719		35.604149	49.821517	-3.719338
18720		35.438600	49.716792	-3.762748
18721		35.307714	49.616761	-3.799613
18722		35.205348	49.504861	-3.833899
18723		35.118141	49.373721	-3.874247
18724		35.037020	49.236906	-3.917924
18725		34.957249	49.100651	-3.963338
18726		34.879314	48.963589	-4.002265
18727		34.807624	48.831494	-4.027782
18728		34.755738	48.690817	-4.037727
18729		34.722717	48.537497	-4.033631
18730		34.676362	48.361174	-4.019976
18731		34.597339	48.169257	-4.006679
18732		34.478657	47.972394	-3.992740
18733		34.345821	47.777409	-3.973024
18734		34.194786	47.579637	-3.949736
