// General information: 
//  MT Manager version: 2022.2.0 
//  XDA version: 2022.2.0 build 7381 rev 124627 built on 2023-07-19
// Device information: 
//  DeviceId: 00B44730
//  ProductCode: MTW2-3A7G6
//  Firmware Version: 4.3.5
//  Hardware Version: 2.0.0
// Device settings: 
//  Filter Profile: human(46.1)
//  Option Flags: Orientation Smoother Disabled, Position/Velocity Smoother Disabled, Continuous Zero Rotation Update Disabled, AHS Disabled, ICC Disabled
// Coordinate system: ENU
PacketCounter	SampleTimeFine	Roll	Pitch	Yaw
47489		11.477949	-10.079772	-23.768881
47490		11.483608	-10.073025	-23.766176
47491		11.486400	-10.066158	-23.764636
47492		11.478675	-10.066980	-23.767869
47493		11.459429	-10.068899	-23.773836
47494		11.450130	-10.070241	-23.777511
47495		11.445535	-10.074438	-23.781586
47496		11.443533	-10.080759	-23.788640
47497		11.446548	-10.077507	-23.793996
47498		11.450068	-10.073249	-23.794421
47499		11.455978	-10.068906	-23.797366
47500		11.458247	-10.067204	-23.805138
47501		11.456674	-10.065972	-23.817407
47502		11.457171	-10.058912	-23.826991
47503		11.467513	-10.055950	-23.834541
47504		11.478870	-10.047808	-23.842963
47505		11.493907	-10.031808	-23.847539
47506		11.504967	-10.015233	-23.854073
47507		11.514100	-10.011312	-23.863717
47508		11.517211	-10.009254	-23.878275
47509		11.514365	-10.003933	-23.891351
47510		11.511729	-9.993810	-23.898588
47511		11.508159	-9.987896	-23.902979
47512		11.500183	-9.988142	-23.906849
47513		11.493080	-10.000326	-23.915389
47514		11.491329	-10.009668	-23.931416
47515		11.486212	-10.025427	-23.952025
47516		11.485841	-10.035094	-23.975792
47517		11.493522	-10.042953	-24.001402
47518		11.499789	-10.049484	-24.029078
47519		11.507915	-10.057326	-24.063930
47520		11.517909	-10.069068	-24.102575
47521		11.532988	-10.077539	-24.142151
47522		11.551047	-10.088844	-24.177926
47523		11.568735	-10.108060	-24.219304
47524		11.583140	-10.135895	-24.257927
47525		11.595021	-10.178387	-24.294336
47526		11.604394	-10.224270	-24.339562
47527		11.606321	-10.266798	-24.399858
47528		11.594698	-10.306498	-24.471646
47529		11.580619	-10.335271	-24.550046
47530		11.581012	-10.354782	-24.630296
47531		11.589603	-10.382988	-24.718520
47532		11.601424	-10.422284	-24.810939
47533		11.621901	-10.455865	-24.905225
47534		11.652978	-10.481426	-25.003226
47535		11.688134	-10.513846	-25.108255
47536		11.726356	-10.553513	-25.224474
47537		11.768704	-10.602089	-25.353170
47538		11.806302	-10.639327	-25.495001
47539		11.779218	-10.679506	-25.653856
47540		11.716254	-10.714185	-25.820409
47541		11.715510	-10.730728	-25.988836
47542		11.759600	-10.756229	-26.165537
47543		11.817738	-10.798428	-26.349599
47544		11.888919	-10.844248	-26.533610
47545		11.961437	-10.901384	-26.714563
47546		12.005067	-10.968184	-26.901695
47547		12.021549	-11.035227	-27.100572
47548		11.993600	-11.097888	-27.322180
47549		11.921213	-11.162005	-27.564422
47550		11.877924	-11.203742	-27.802750
47551		11.900668	-11.231625	-28.034308
47552		11.943028	-11.270721	-28.264425
47553		11.987752	-11.314243	-28.486924
47554		12.030896	-11.354920	-28.697764
47555		12.075277	-11.395998	-28.909220
47556		12.121815	-11.435046	-29.132694
47557		12.183544	-11.477013	-29.367808
47558		12.283406	-11.522058	-29.609566
47559		12.400378	-11.571763	-29.853753
47560		12.511608	-11.622043	-30.090656
47561		12.633962	-11.656905	-30.325827
47562		12.771545	-11.674812	-30.561574
47563		12.889653	-11.689740	-30.794749
47564		12.974558	-11.713485	-31.035344
47565		13.046115	-11.747784	-31.286125
47566		13.124214	-11.784053	-31.549488
47567		13.206455	-11.824508	-31.835346
47568		13.297399	-11.871796	-32.134316
47569		13.399935	-11.922520	-32.436465
47570		13.523905	-11.979857	-32.747421
47571		13.650502	-12.038250	-33.058549
47572		13.789828	-12.088551	-33.367485
47573		13.961894	-12.127981	-33.671014
47574		14.136915	-12.168221	-33.965793
47575		14.268010	-12.224683	-34.260427
47576		14.338990	-12.291250	-34.571656
47577		14.414011	-12.352559	-34.913358
47578		14.527743	-12.389068	-35.260365
47579		14.677832	-12.416866	-35.602032
47580		14.834271	-12.456559	-35.939070
47581		15.000070	-12.503867	-36.275955
47582		15.184273	-12.557031	-36.611581
47583		15.372489	-12.618239	-36.941767
47584		15.526056	-12.681721	-37.275360
47585		15.633862	-12.751956	-37.613733
47586		15.683357	-12.823054	-37.970259
47587		15.684081	-12.913191	-38.364888
47588		15.694335	-12.972669	-38.769070
47589		15.776202	-12.969544	-39.138847
47590		15.940343	-12.955287	-39.476779
47591		16.149153	-12.970260	-39.787616
47592		16.329700	-13.024122	-40.071139
47593		16.437830	-13.110966	-40.340160
47594		16.505114	-13.210327	-40.613270
47595		16.570671	-13.288984	-40.907956
47596		16.689852	-13.332368	-41.215441
47597		16.832173	-13.366837	-41.526404
47598		16.983838	-13.420425	-41.856351
47599		17.150987	-13.484730	-42.183504
47600		17.334251	-13.523051	-42.485647
47601		17.532110	-13.542926	-42.763271
47602		17.690745	-13.563198	-43.011622
47603		17.761560	-13.611329	-43.255082
47604		17.798045	-13.665770	-43.536889
47605		17.898091	-13.679766	-43.845341
47606		18.063614	-13.644087	-44.145259
47607		18.250393	-13.617642	-44.435492
47608		18.425732	-13.638365	-44.717314
47609		18.583871	-13.695893	-44.994709
47610		18.766054	-13.742848	-45.269378
47611		18.981035	-13.771935	-45.540093
47612		19.181941	-13.787827	-45.802649
47613		19.354791	-13.816034	-46.068129
47614		19.488088	-13.860940	-46.334104
47615		19.592664	-13.914817	-46.614691
47616		19.691729	-13.961910	-46.904116
47617		19.795675	-14.001190	-47.178927
47618		19.909352	-14.013699	-47.442624
47619		20.059565	-14.007824	-47.698095
47620		20.237387	-14.000330	-47.943301
47621		20.413856	-14.008294	-48.187932
47622		20.570957	-14.028560	-48.427115
47623		20.670688	-14.053923	-48.660508
47624		20.755863	-14.076242	-48.905495
47625		20.822045	-14.093740	-49.163124
47626		20.897486	-14.113539	-49.444446
47627		21.046136	-14.130624	-49.750242
47628		21.238157	-14.136450	-50.048877
47629		21.409800	-14.155576	-50.335093
47630		21.533647	-14.201962	-50.612371
47631		21.618608	-14.256718	-50.888067
47632		21.681834	-14.294273	-51.171012
47633		21.775800	-14.310991	-51.476798
47634		21.889774	-14.299248	-51.793914
47635		21.969679	-14.261630	-52.093581
47636		22.007654	-14.221844	-52.362909
47637		21.970130	-14.200021	-52.598686
47638		21.866506	-14.209223	-52.843980
47639		21.835944	-14.229888	-53.122216
47640		21.862665	-14.205121	-53.384947
47641		21.946545	-14.154120	-53.616732
47642		22.056627	-14.121330	-53.840915
47643		22.140327	-14.133628	-54.070118
47644		22.129817	-14.179104	-54.296532
47645		22.066133	-14.225281	-54.524824
47646		22.025533	-14.250911	-54.766929
47647		22.045160	-14.251842	-55.016471
47648		22.097517	-14.225987	-55.275206
47649		22.166884	-14.185006	-55.519575
47650		22.245315	-14.161282	-55.748518
47651		22.336024	-14.149973	-55.949023
47652		22.393026	-14.154640	-56.115760
47653		22.420589	-14.187368	-56.290469
47654		22.479188	-14.235151	-56.480298
47655		22.567889	-14.279329	-56.677701
47656		22.698999	-14.298050	-56.884799
47657		22.858213	-14.283675	-57.082632
47658		22.964244	-14.256759	-57.260395
47659		23.009601	-14.243552	-57.427509
47660		23.019132	-14.235056	-57.579527
47661		22.997909	-14.223667	-57.720774
47662		22.977926	-14.206326	-57.860860
47663		22.982582	-14.187323	-58.009369
47664		23.009178	-14.173091	-58.170119
47665		23.058626	-14.147065	-58.339432
47666		23.103819	-14.105592	-58.496798
47667		23.118048	-14.055455	-58.640772
47668		23.096477	-13.997154	-58.765684
47669		23.035829	-13.949466	-58.888092
47670		22.980491	-13.909169	-59.028206
47671		22.957874	-13.837395	-59.176092
47672		22.925397	-13.731034	-59.314061
47673		22.837742	-13.624347	-59.438297
47674		22.710289	-13.528496	-59.566107
47675		22.579620	-13.426786	-59.695532
47676		22.464674	-13.317732	-59.826308
47677		22.378501	-13.210435	-59.962463
47678		22.314586	-13.114792	-60.102913
47679		22.254922	-13.029533	-60.240436
47680		22.164162	-12.953316	-60.372650
47681		22.075693	-12.889650	-60.517788
47682		22.028736	-12.821953	-60.669089
47683		22.004468	-12.751289	-60.819913
47684		21.979433	-12.686587	-60.963136
47685		21.967166	-12.635575	-61.106253
47686		21.978978	-12.588818	-61.241437
47687		21.972936	-12.538165	-61.362123
47688		21.922972	-12.482602	-61.474287
47689		21.856228	-12.422947	-61.586473
47690		21.779724	-12.367699	-61.699374
47691		21.692416	-12.305254	-61.802655
47692		21.583756	-12.249398	-61.898800
47693		21.460715	-12.200228	-61.996707
47694		21.337149	-12.156638	-62.099166
47695		21.229275	-12.115994	-62.213072
47696		21.151164	-12.074012	-62.332925
47697		21.105479	-12.041177	-62.458778
47698		21.097082	-12.008555	-62.572868
47699		21.089809	-11.970905	-62.662991
47700		21.057345	-11.934423	-62.743540
47701		21.018588	-11.904177	-62.823666
47702		20.978446	-11.873084	-62.904726
47703		20.935017	-11.840729	-62.986354
47704		20.908742	-11.815612	-63.070384
47705		20.902696	-11.800061	-63.151692
47706		20.909985	-11.783053	-63.221064
47707		20.908096	-11.751195	-63.272336
47708		20.892519	-11.710268	-63.313055
47709		20.853552	-11.673859	-63.351118
47710		20.788519	-11.642316	-63.388965
47711		20.694192	-11.614434	-63.428515
47712		20.595806	-11.586370	-63.473727
47713		20.562283	-11.569921	-63.527393
47714		20.574975	-11.551470	-63.578654
47715		20.583838	-11.524626	-63.616348
47716		20.572665	-11.495702	-63.643619
47717		20.547333	-11.474052	-63.665710
47718		20.510863	-11.453370	-63.687286
47719		20.463750	-11.428977	-63.709309
47720		20.398473	-11.408397	-63.736540
47721		20.358165	-11.398258	-63.773188
47722		20.347169	-11.381941	-63.817548
47723		20.331763	-11.358367	-63.857659
47724		20.315159	-11.352239	-63.906765
47725		20.300023	-11.363072	-63.970987
47726		20.273366	-11.371440	-64.040752
47727		20.250788	-11.375124	-64.119484
47728		20.258613	-11.376479	-64.208884
47729		20.289146	-11.372993	-64.296284
47730		20.321873	-11.367130	-64.373898
47731		20.362302	-11.357792	-64.432439
47732		20.385081	-11.349333	-64.470680
47733		20.363721	-11.349801	-64.492784
47734		20.305610	-11.365994	-64.516595
47735		20.254831	-11.394380	-64.559591
47736		20.218450	-11.423091	-64.617771
47737		20.200796	-11.459719	-64.692435
47738		20.199066	-11.485157	-64.761571
47739		20.201137	-11.493982	-64.829486
47740		20.216366	-11.493455	-64.890675
47741		20.221973	-11.495174	-64.943968
47742		20.203905	-11.504580	-64.992757
47743		20.179412	-11.523939	-65.044538
47744		20.145642	-11.539743	-65.096960
47745		20.116153	-11.560258	-65.160659
47746		20.114690	-11.570604	-65.228576
47747		20.119732	-11.561075	-65.292147
47748		20.116102	-11.546205	-65.346026
47749		20.096127	-11.542087	-65.385608
47750		20.062953	-11.541810	-65.418234
47751		20.021300	-11.540486	-65.448351
47752		19.980490	-11.540358	-65.484316
47753		19.948249	-11.541618	-65.527021
47754		19.938914	-11.537411	-65.576423
47755		19.938007	-11.531650	-65.620870
47756		19.925859	-11.529214	-65.655266
47757		19.905779	-11.539710	-65.681960
47758		19.876466	-11.550315	-65.701233
47759		19.847594	-11.571702	-65.717706
47760		19.826355	-11.606662	-65.737800
47761		19.805785	-11.633027	-65.754470
47762		19.794115	-11.650677	-65.769714
47763		19.791074	-11.651734	-65.781819
47764		19.781451	-11.637978	-65.787040
47765		19.757656	-11.621725	-65.788686
47766		19.734797	-11.613436	-65.792742
47767		19.718669	-11.603869	-65.796257
47768		19.709060	-11.593942	-65.797855
47769		19.703561	-11.585987	-65.802005
47770		19.688640	-11.580189	-65.804183
47771		19.664392	-11.569562	-65.807484
47772		19.653476	-11.558554	-65.814877
47773		19.642303	-11.539678	-65.819240
47774		19.618340	-11.524959	-65.823312
47775		19.606047	-11.525961	-65.832099
47776		19.604312	-11.528182	-65.842128
47777		19.600903	-11.536516	-65.858205
47778		19.603023	-11.544287	-65.872911
47779		19.605291	-11.543946	-65.885897
47780		19.608736	-11.540544	-65.900255
47781		19.620345	-11.530764	-65.908449
47782		19.605665	-11.517503	-65.907210
47783		19.588440	-11.512282	-65.905885
47784		19.572409	-11.508428	-65.901919
47785		19.554308	-11.506405	-65.901600
47786		19.525817	-11.510125	-65.899784
47787		19.497637	-11.521314	-65.907010
47788		19.484051	-11.536123	-65.917754
47789		19.480967	-11.549694	-65.930956
47790		19.488136	-11.567367	-65.944864
47791		19.503864	-11.578882	-65.954886
47792		19.518228	-11.582687	-65.963609
47793		19.512837	-11.584116	-65.967162
47794		19.502138	-11.590857	-65.966369
47795		19.496379	-11.604681	-65.968098
47796		19.491926	-11.617984	-65.966167
47797		19.490735	-11.635620	-65.962285
47798		19.486511	-11.649687	-65.955105
47799		19.470921	-11.656712	-65.947622
47800		19.453516	-11.662415	-65.941654
47801		19.440255	-11.669758	-65.938040
47802		19.429967	-11.675917	-65.935544
47803		19.425075	-11.682824	-65.932777
47804		19.419969	-11.698844	-65.929422
47805		19.412131	-11.718598	-65.924957
47806		19.401469	-11.733670	-65.925173
47807		19.393382	-11.742739	-65.924163
47808		19.390165	-11.750095	-65.924025
47809		19.397978	-11.764878	-65.923989
47810		19.406779	-11.774602	-65.921376
47811		19.400119	-11.780506	-65.913656
47812		19.392262	-11.788192	-65.906311
47813		19.392041	-11.796124	-65.901430
47814		19.389687	-11.809268	-65.896631
47815		19.382834	-11.823021	-65.894652
47816		19.367680	-11.831830	-65.891892
47817		19.360185	-11.835816	-65.890983
47818		19.363440	-11.832449	-65.889592
47819		19.367144	-11.822259	-65.884267
47820		19.356323	-11.815074	-65.875076
47821		19.340285	-11.807786	-65.861119
47822		19.328438	-11.802069	-65.847707
47823		19.327673	-11.802216	-65.836361
47824		19.331367	-11.805537	-65.825699
47825		19.342123	-11.807853	-65.817493
47826		19.352599	-11.804374	-65.803412
47827		19.353137	-11.800068	-65.788234
47828		19.345838	-11.803705	-65.775125
47829		19.338734	-11.803421	-65.763265
47830		19.336370	-11.797918	-65.751108
47831		19.334347	-11.797761	-65.739539
47832		19.331278	-11.798985	-65.723135
47833		19.325268	-11.798758	-65.699846
47834		19.328061	-11.792785	-65.673947
47835		19.318280	-11.780543	-65.639571
47836		19.299053	-11.773929	-65.603066
47837		19.285181	-11.778488	-65.572010
47838		19.280907	-11.792824	-65.548377
47839		19.290735	-11.806459	-65.528347
47840		19.303540	-11.809689	-65.512200
47841		19.313327	-11.805813	-65.490447
47842		19.322743	-11.805001	-65.469173
47843		19.336261	-11.806419	-65.446884
47844		19.349837	-11.805636	-65.419996
47845		19.359704	-11.803732	-65.390678
47846		19.359625	-11.803727	-65.357849
47847		19.351490	-11.805625	-65.324841
47848		19.344263	-11.803901	-65.290868
47849		19.343083	-11.808233	-65.260205
47850		19.347732	-11.818814	-65.233452
47851		19.357792	-11.823510	-65.207041
47852		19.369321	-11.817762	-65.175143
47853		19.379618	-11.810855	-65.139452
47854		19.376828	-11.807748	-65.095455
47855		19.356874	-11.812488	-65.046972
47856		19.331954	-11.820764	-64.996168
47857		19.312467	-11.836609	-64.952386
47858		19.301533	-11.852928	-64.909390
47859		19.301521	-11.861131	-64.867195
47860		19.304898	-11.862368	-64.820824
47861		19.311749	-11.867677	-64.775129
47862		19.316674	-11.869039	-64.729472
47863		19.321061	-11.872672	-64.682747
47864		19.325267	-11.885638	-64.638449
47865		19.328357	-11.902061	-64.594388
47866		19.327868	-11.910290	-64.547295
47867		19.326774	-11.913906	-64.502499
47868		19.324392	-11.910911	-64.452812
47869		19.331329	-11.904265	-64.401203
47870		19.330450	-11.896058	-64.345880
47871		19.316840	-11.892386	-64.290110
47872		19.311708	-11.889898	-64.236870
47873		19.313508	-11.890064	-64.186651
47874		19.318751	-11.892497	-64.139450
47875		19.335158	-11.897266	-64.089378
47876		19.367311	-11.902188	-64.037188
47877		19.400857	-11.908472	-63.984176
47878		19.429931	-11.914141	-63.927958
47879		19.463652	-11.925635	-63.872009
47880		19.495011	-11.936646	-63.817449
47881		19.524902	-11.941802	-63.754930
47882		19.555054	-11.939842	-63.687398
47883		19.576352	-11.938849	-63.611011
47884		19.585983	-11.943550	-63.529010
47885		19.588388	-11.946745	-63.443448
47886		19.575598	-11.942755	-63.352203
47887		19.563262	-11.942821	-63.262265
47888		19.558077	-11.954078	-63.174515
47889		19.534637	-11.964433	-63.088492
47890		19.499609	-11.967327	-62.996660
47891		19.483245	-11.959244	-62.906437
47892		19.485464	-11.940089	-62.812324
47893		19.482716	-11.923950	-62.710776
47894		19.467704	-11.919240	-62.604399
47895		19.449245	-11.925299	-62.499488
47896		19.438143	-11.941083	-62.401080
47897		19.447315	-11.959699	-62.313224
47898		19.456943	-11.969322	-62.220654
47899		19.465984	-11.974931	-62.132080
47900		19.479503	-11.965577	-62.042741
47901		19.494112	-11.951104	-61.949671
47902		19.511280	-11.948779	-61.853408
47903		19.521935	-11.955054	-61.754255
47904		19.528648	-11.956671	-61.652525
47905		19.543964	-11.956690	-61.552856
47906		19.577649	-11.951593	-61.453809
47907		19.604162	-11.934008	-61.341618
47908		19.606998	-11.915964	-61.215775
47909		19.594290	-11.899777	-61.082459
47910		19.580352	-11.888624	-60.946369
47911		19.579244	-11.890814	-60.812508
47912		19.610904	-11.901024	-60.688144
47913		19.662489	-11.902666	-60.567809
47914		19.714792	-11.890972	-60.440067
47915		19.755445	-11.890375	-60.302108
47916		19.779149	-11.892204	-60.157970
47917		19.793384	-11.896345	-60.014127
47918		19.800203	-11.904604	-59.871009
47919		19.801974	-11.910618	-59.727231
47920		19.791703	-11.906005	-59.577579
47921		19.782573	-11.899727	-59.413637
47922		19.784044	-11.897924	-59.242169
47923		19.787038	-11.895864	-59.070351
47924		19.776777	-11.891146	-58.897893
47925		19.755557	-11.886337	-58.722850
47926		19.739585	-11.880128	-58.549963
47927		19.731707	-11.867167	-58.382837
47928		19.730626	-11.850524	-58.219079
47929		19.739656	-11.834567	-58.064152
47930		19.760954	-11.810268	-57.913694
47931		19.771531	-11.786021	-57.758433
47932		19.763619	-11.765219	-57.600182
47933		19.747836	-11.754923	-57.448251
47934		19.729182	-11.748833	-57.305424
47935		19.713196	-11.744600	-57.178835
47936		19.708640	-11.727247	-57.062645
47937		19.720638	-11.704423	-56.946102
47938		19.730950	-11.689338	-56.838493
47939		19.742172	-11.691100	-56.741407
47940		19.760682	-11.691880	-56.651264
47941		19.795044	-11.687779	-56.565356
47942		19.845315	-11.685086	-56.482552
47943		19.899451	-11.690879	-56.392301
47944		19.956962	-11.707497	-56.301637
47945		20.039659	-11.732392	-56.219411
47946		20.131486	-11.747223	-56.134610
47947		20.204853	-11.753080	-56.045351
47948		20.240154	-11.763072	-55.948502
47949		20.236271	-11.781726	-55.846574
47950		20.212633	-11.795556	-55.740130
47951		20.188068	-11.802087	-55.628681
47952		20.172334	-11.803862	-55.515425
47953		20.162395	-11.811033	-55.404847
47954		20.175155	-11.828768	-55.292588
47955		20.210870	-11.842581	-55.171664
47956		20.268760	-11.836013	-55.047321
47957		20.336346	-11.803495	-54.906299
47958		20.396371	-11.764179	-54.743228
47959		20.427385	-11.735013	-54.560763
47960		20.446541	-11.720875	-54.372505
47961		20.456707	-11.727788	-54.188336
47962		20.473434	-11.750723	-54.023373
47963		20.496590	-11.777729	-53.863371
47964		20.549382	-11.800531	-53.713074
47965		20.622915	-11.798549	-53.573844
47966		20.689969	-11.776838	-53.422296
47967		20.713464	-11.775275	-53.252344
47968		20.693723	-11.785772	-53.065958
47969		20.641359	-11.788470	-52.871430
47970		20.574974	-11.766824	-52.666897
47971		20.516454	-11.737469	-52.459018
47972		20.474075	-11.721902	-52.260394
47973		20.455555	-11.717913	-52.068482
47974		20.482794	-11.716399	-51.884505
47975		20.543261	-11.682675	-51.695941
47976		20.599817	-11.616562	-51.477710
47977		20.605222	-11.556463	-51.240870
47978		20.558356	-11.531389	-51.005043
47979		20.480523	-11.539182	-50.780003
47980		20.428598	-11.553476	-50.574733
47981		20.404016	-11.554297	-50.381563
47982		20.390186	-11.535005	-50.189438
47983		20.385738	-11.503750	-49.994450
47984		20.390873	-11.472374	-49.787087
47985		20.384010	-11.442454	-49.568823
47986		20.373600	-11.425749	-49.343141
47987		20.358010	-11.422615	-49.122171
47988		20.367589	-11.437462	-48.916734
47989		20.399800	-11.469397	-48.737371
47990		20.444413	-11.469059	-48.543489
47991		20.460054	-11.411356	-48.308385
47992		20.427632	-11.349891	-48.059820
47993		20.348173	-11.343870	-47.823888
47994		20.243920	-11.362571	-47.609554
47995		20.153955	-11.381102	-47.415934
47996		20.121608	-11.381817	-47.232373
47997		20.138810	-11.346948	-47.030779
47998		20.169079	-11.288974	-46.795832
47999		20.162764	-11.234310	-46.537669
48000		20.121572	-11.200322	-46.265614
48001		20.046362	-11.174518	-45.989733
48002		19.959649	-11.137022	-45.719130
48003		19.879195	-11.095223	-45.463654
48004		19.827590	-11.084587	-45.237159
48005		19.801774	-11.083414	-45.018185
48006		19.774318	-11.065288	-44.762030
48007		19.691535	-11.045359	-44.472674
48008		19.581180	-11.055717	-44.189690
48009		19.447982	-11.083697	-43.914906
48010		19.306473	-11.099871	-43.658882
48011		19.186704	-11.098541	-43.423160
48012		19.107779	-11.074270	-43.198372
48013		19.062345	-11.047480	-42.975958
48014		19.036365	-11.015281	-42.744472
48015		19.025036	-10.979375	-42.507165
48016		19.034219	-10.946390	-42.278059
48017		19.069313	-10.912593	-42.067010
48018		19.159419	-10.874896	-41.888278
48019		19.318733	-10.852721	-41.751953
48020		19.328475	-10.870694	-41.648269
48021		19.222283	-10.966180	-41.641962
48022		19.138451	-11.041916	-41.657169
48023		19.135742	-11.076186	-41.614305
48024		19.082212	-11.045133	-41.483018
48025		18.940305	-10.962833	-41.283456
48026		18.729452	-10.887059	-41.065801
48027		18.500239	-10.846337	-40.875889
48028		18.308834	-10.797606	-40.706733
48029		18.147557	-10.705490	-40.522215
48030		17.986834	-10.618649	-40.310726
48031		17.831363	-10.589471	-40.073711
48032		17.694958	-10.598189	-39.801055
48033		17.570449	-10.610965	-39.487950
48034		17.449406	-10.620206	-39.156052
48035		17.323318	-10.617228	-38.824881
48036		17.209267	-10.605303	-38.503227
48037		17.126486	-10.593932	-38.208729
48038		17.061832	-10.590468	-37.944799
48039		17.014528	-10.588140	-37.692135
48040		16.979512	-10.587407	-37.433742
48041		16.928101	-10.578990	-37.157483
48042		16.852279	-10.565094	-36.864584
48043		16.724896	-10.547240	-36.560791
48044		16.559068	-10.535948	-36.257663
48045		16.375015	-10.533065	-35.959256
48046		16.139008	-10.532491	-35.661081
48047		15.870612	-10.537213	-35.370076
48048		15.612934	-10.532397	-35.085721
48049		15.387220	-10.519806	-34.805735
48050		15.188200	-10.521389	-34.525371
48051		14.998775	-10.555543	-34.254261
48052		14.796941	-10.611575	-33.995642
48053		14.568754	-10.651037	-33.743162
48054		14.376565	-10.658818	-33.494867
48055		14.216774	-10.635885	-33.245850
48056		14.073589	-10.614297	-32.995223
48057		13.927553	-10.605053	-32.741279
48058		13.762272	-10.608078	-32.479112
48059		13.569618	-10.623778	-32.210001
48060		13.347028	-10.652688	-31.942811
48061		13.129270	-10.699213	-31.683593
48062		12.948965	-10.722135	-31.418744
48063		12.824282	-10.702646	-31.146553
48064		12.695455	-10.647208	-30.872430
48065		12.524739	-10.581790	-30.600553
48066		12.314909	-10.520991	-30.342856
48067		12.087305	-10.480643	-30.103700
48068		11.879563	-10.475717	-29.875471
48069		11.715535	-10.517038	-29.646694
48070		11.559652	-10.567304	-29.412519
48071		11.424446	-10.602948	-29.175425
48072		11.296035	-10.595109	-28.935953
48073		11.174937	-10.540874	-28.692886
48074		11.035398	-10.471320	-28.461325
48075		10.873104	-10.419775	-28.250862
48076		10.709161	-10.396290	-28.055769
48077		10.575451	-10.405356	-27.864448
48078		10.445957	-10.428929	-27.667545
48079		10.326603	-10.439780	-27.459447
48080		10.226828	-10.426954	-27.230897
48081		10.108799	-10.397650	-26.988078
48082		9.937269	-10.378508	-26.751352
48083		9.755505	-10.369680	-26.531834
48084		9.611004	-10.344299	-26.333517
48085		9.485407	-10.323247	-26.145762
48086		9.357341	-10.334224	-25.954463
48087		9.253934	-10.348339	-25.748257
48088		9.199630	-10.330623	-25.530996
48089		9.160380	-10.296850	-25.310634
48090		9.104397	-10.268882	-25.095589
48091		9.017751	-10.269608	-24.905861
48092		8.909762	-10.268915	-24.747782
48093		8.819563	-10.240579	-24.614697
48094		8.776411	-10.211466	-24.479014
48095		8.734613	-10.207879	-24.337475
48096		8.679409	-10.223390	-24.186675
48097		8.634509	-10.222794	-24.030384
48098		8.605866	-10.189060	-23.864587
48099		8.574126	-10.168728	-23.694088
48100		8.536167	-10.164886	-23.535435
48101		8.501453	-10.152722	-23.388933
48102		8.465720	-10.125286	-23.248406
48103		8.446525	-10.092780	-23.107399
48104		8.448023	-10.060165	-22.967957
48105		8.466764	-10.044391	-22.830971
48106		8.486978	-10.042855	-22.698331
48107		8.517385	-10.046227	-22.568791
48108		8.539610	-10.045018	-22.445856
48109		8.527636	-10.037986	-22.328734
48110		8.495471	-10.028507	-22.223539
48111		8.476780	-10.016735	-22.133712
48112		8.484845	-10.008874	-22.059484
48113		8.501367	-10.009881	-21.998296
48114		8.522695	-10.013212	-21.943717
48115		8.557138	-10.012830	-21.897072
48116		8.579246	-10.019676	-21.859567
48117		8.577704	-10.038257	-21.831350
48118		8.571748	-10.048425	-21.806274
48119		8.577638	-10.059284	-21.788576
48120		8.594688	-10.072910	-21.776804
48121		8.620186	-10.084458	-21.770367
48122		8.655587	-10.098251	-21.768107
48123		8.689481	-10.124877	-21.773684
48124		8.702517	-10.154819	-21.788100
48125		8.708422	-10.175261	-21.806705
48126		8.724129	-10.190971	-21.826783
48127		8.733960	-10.221758	-21.849079
48128		8.740258	-10.257766	-21.875409
48129		8.747709	-10.295425	-21.900182
48130		8.758734	-10.330189	-21.928231
48131		8.753947	-10.362297	-21.958177
48132		8.748068	-10.390131	-21.993134
48133		8.750457	-10.413495	-22.030086
48134		8.766601	-10.433213	-22.066058
48135		8.785780	-10.457322	-22.099863
48136		8.799718	-10.488471	-22.132188
48137		8.809917	-10.523571	-22.168096
48138		8.824509	-10.549655	-22.209358
48139		8.837625	-10.560988	-22.245900
48140		8.845627	-10.572864	-22.282139
48141		8.851288	-10.590667	-22.317055
48142		8.851473	-10.606833	-22.349177
48143		8.850866	-10.619274	-22.378890
48144		8.849720	-10.642556	-22.407176
48145		8.841986	-10.673377	-22.436249
48146		8.824905	-10.706857	-22.471396
48147		8.799022	-10.734213	-22.515196
48148		8.778973	-10.747914	-22.560601
48149		8.776145	-10.768157	-22.600961
48150		8.777350	-10.792084	-22.638478
48151		8.788300	-10.818809	-22.673129
48152		8.801777	-10.846027	-22.708612
48153		8.808485	-10.869670	-22.751290
48154		8.820119	-10.881638	-22.799586
48155		8.835512	-10.890941	-22.843586
48156		8.841809	-10.902979	-22.883287
48157		8.845027	-10.913878	-22.921941
48158		8.853008	-10.922872	-22.955431
48159		8.855412	-10.952895	-22.982569
48160		8.845909	-11.007697	-23.001668
48161		8.827141	-11.057300	-23.019739
48162		8.791579	-11.101287	-23.038179
48163		8.751852	-11.128404	-23.064835
48164		8.735605	-11.144381	-23.094624
48165		8.726629	-11.167162	-23.132150
48166		8.721407	-11.186299	-23.174975
48167		8.729592	-11.197534	-23.222415
48168		8.746578	-11.203429	-23.275215
48169		8.766534	-11.211288	-23.331294
48170		8.779434	-11.215737	-23.391889
48171		8.794717	-11.226081	-23.457542
48172		8.823203	-11.245922	-23.522369
48173		8.859200	-11.271820	-23.583683
48174		8.891029	-11.293176	-23.631418
48175		8.916375	-11.316404	-23.672777
48176		8.930151	-11.340734	-23.711880
48177		8.949756	-11.360251	-23.750960
48178		8.974030	-11.374013	-23.796617
48179		8.975444	-11.388386	-23.846373
48180		8.975376	-11.391710	-23.897393
48181		9.000550	-11.389932	-23.948679
48182		9.028310	-11.395977	-24.000759
48183		9.052508	-11.412427	-24.052041
48184		9.084248	-11.431029	-24.105003
48185		9.103760	-11.451940	-24.169849
48186		9.097185	-11.464238	-24.250716
48187		9.103524	-11.463909	-24.335860
48188		9.132685	-11.465310	-24.424935
48189		9.159995	-11.475190	-24.512974
48190		9.190886	-11.487871	-24.597176
48191		9.215085	-11.502765	-24.674458
48192		9.238434	-11.513773	-24.751996
48193		9.269673	-11.522408	-24.833454
48194		9.311476	-11.525067	-24.922057
48195		9.363112	-11.527425	-25.019123
48196		9.412275	-11.521320	-25.124079
48197		9.397102	-11.510609	-25.234159
48198		9.381849	-11.494657	-25.339013
48199		9.410730	-11.480878	-25.440782
48200		9.438584	-11.484894	-25.545791
48201		9.457014	-11.496791	-25.658397
48202		9.483490	-11.508731	-25.781038
48203		9.514106	-11.519747	-25.913400
48204		9.539792	-11.532912	-26.060030
48205		9.552255	-11.547509	-26.215781
48206		9.565474	-11.552250	-26.371241
48207		9.598019	-11.553265	-26.518297
48208		9.641798	-11.563386	-26.657847
48209		9.688951	-11.588500	-26.795453
48210		9.744367	-11.610580	-26.944907
48211		9.813481	-11.623067	-27.102153
48212		9.872215	-11.622623	-27.272425
48213		9.902416	-11.618681	-27.446109
48214		9.938567	-11.609361	-27.614474
48215		9.987879	-11.602076	-27.777081
48216		10.035586	-11.605767	-27.934772
48217		10.073825	-11.621776	-28.095733
48218		10.103206	-11.639984	-28.265136
48219		10.128514	-11.656474	-28.447188
48220		10.150127	-11.660718	-28.639087
48221		10.136811	-11.660353	-28.840661
48222		10.137857	-11.653513	-29.042278
48223		10.194237	-11.655316	-29.246033
48224		10.285873	-11.673998	-29.453954
48225		10.384573	-11.705038	-29.650903
48226		10.473227	-11.741272	-29.837774
48227		10.535460	-11.772051	-30.024379
48228		10.590579	-11.796493	-30.219275
48229		10.669482	-11.827044	-30.427721
48230		10.766518	-11.869489	-30.648900
48231		10.874727	-11.916880	-30.877850
48232		10.987033	-11.957031	-31.102627
48233		11.097747	-11.981940	-31.314384
48234		11.200733	-12.012631	-31.517659
48235		11.264653	-12.060194	-31.726606
48236		11.267553	-12.110892	-31.946940
48237		11.248240	-12.149200	-32.181258
48238		11.275990	-12.168864	-32.417471
48239		11.358535	-12.186384	-32.651944
48240		11.454816	-12.231080	-32.882471
48241		11.531119	-12.302127	-33.119300
48242		11.600950	-12.381650	-33.356464
48243		11.680042	-12.450089	-33.597366
48244		11.770127	-12.512056	-33.842346
48245		11.879228	-12.568969	-34.092047
48246		12.019724	-12.620019	-34.342604
48247		12.173775	-12.664356	-34.590946
48248		12.323341	-12.713584	-34.847080
48249		12.447257	-12.764983	-35.103498
48250		12.538931	-12.814781	-35.365592
48251		12.634387	-12.867555	-35.635432
48252		12.724193	-12.912482	-35.904727
48253		12.812511	-12.946381	-36.173220
48254		12.900018	-12.971939	-36.431250
48255		12.975501	-13.005133	-36.683767
48256		13.058420	-13.050639	-36.937317
48257		13.139040	-13.094429	-37.196108
48258		13.219402	-13.133287	-37.465041
48259		13.295832	-13.160459	-37.735232
48260		13.363083	-13.186961	-38.010004
48261		13.447709	-13.228830	-38.295817
48262		13.536470	-13.271852	-38.581473
48263		13.631167	-13.307077	-38.862643
48264		13.743751	-13.341138	-39.143866
48265		13.847749	-13.372898	-39.419795
48266		13.955251	-13.405029	-39.700552
48267		14.056624	-13.428159	-39.979384
48268		14.122168	-13.441815	-40.257086
48269		14.174200	-13.461646	-40.539024
48270		14.220828	-13.484355	-40.826103
48271		14.263349	-13.514894	-41.113782
48272		14.320903	-13.544122	-41.399308
48273		14.392272	-13.568661	-41.678350
48274		14.475590	-13.582004	-41.943877
48275		14.561774	-13.596240	-42.194246
48276		14.647165	-13.606000	-42.439795
48277		14.708579	-13.612064	-42.683648
48278		14.748655	-13.622276	-42.936339
48279		14.843038	-13.644219	-43.207544
48280		14.974429	-13.655805	-43.484787
48281		15.099599	-13.652917	-43.748713
48282		15.224372	-13.640561	-43.994673
48283		15.341977	-13.635606	-44.222597
48284		15.407743	-13.648293	-44.434633
48285		15.430986	-13.669912	-44.646875
48286		15.461351	-13.698838	-44.876329
48287		15.526484	-13.720395	-45.124955
48288		15.615605	-13.729568	-45.379210
48289		15.728569	-13.729536	-45.627447
48290		15.837834	-13.705186	-45.865068
48291		15.936083	-13.687596	-46.082987
48292		16.011931	-13.686438	-46.286750
48293		16.071315	-13.695739	-46.482771
48294		16.094741	-13.705310	-46.668660
48295		16.122977	-13.722383	-46.869164
48296		16.227272	-13.731861	-47.097768
48297		16.362321	-13.728983	-47.327532
48298		16.505835	-13.715387	-47.553171
48299		16.667476	-13.713396	-47.775215
48300		16.816871	-13.722241	-47.984337
48301		16.933166	-13.735476	-48.184806
48302		17.038720	-13.751250	-48.383709
48303		17.129499	-13.762191	-48.581721
48304		17.237520	-13.768425	-48.792812
48305		17.380120	-13.762393	-49.018587
48306		17.539114	-13.744505	-49.240795
48307		17.701254	-13.725706	-49.450242
48308		17.859785	-13.708724	-49.639341
48309		17.971109	-13.704300	-49.803405
48310		18.053562	-13.716034	-49.953446
48311		18.177395	-13.725215	-50.114373
48312		18.338664	-13.706143	-50.276341
48313		18.508898	-13.676937	-50.435194
48314		18.658153	-13.659722	-50.595602
48315		18.757720	-13.665442	-50.757155
48316		18.845553	-13.683031	-50.933602
48317		18.947783	-13.685700	-51.114658
48318		19.033319	-13.678331	-51.289233
48319		19.098282	-13.675264	-51.468755
48320		19.160396	-13.686315	-51.658187
48321		19.227157	-13.699160	-51.857355
48322		19.285887	-13.700910	-52.061205
48323		19.340858	-13.694684	-52.259558
48324		19.367291	-13.681011	-52.460435
48325		19.380308	-13.677967	-52.668775
48326		19.415765	-13.689862	-52.898310
48327		19.475237	-13.698805	-53.139826
48328		19.551346	-13.678987	-53.368623
48329		19.618388	-13.645646	-53.578933
48330		19.658002	-13.625130	-53.774691
48331		19.662548	-13.627288	-53.962540
48332		19.663243	-13.643364	-54.152672
48333		19.682963	-13.638760	-54.337840
48334		19.718777	-13.617303	-54.520818
48335		19.764713	-13.594085	-54.708429
48336		19.834317	-13.576691	-54.899472
48337		19.902904	-13.562243	-55.074022
48338		19.946956	-13.570917	-55.239952
48339		19.988415	-13.595296	-55.399079
48340		20.027724	-13.614255	-55.546329
48341		20.074979	-13.614120	-55.685186
48342		20.140544	-13.600837	-55.824103
48343		20.191260	-13.600675	-55.965242
48344		20.222427	-13.629352	-56.126621
48345		20.247774	-13.680871	-56.296696
48346		20.271684	-13.733218	-56.473610
48347		20.319953	-13.771570	-56.664579
48348		20.397068	-13.776032	-56.853284
48349		20.457625	-13.764688	-57.034607
48350		20.505715	-13.759046	-57.223270
48351		20.544230	-13.760438	-57.412023
48352		20.581170	-13.757605	-57.595496
48353		20.624290	-13.738552	-57.781137
48354		20.679222	-13.711855	-57.968588
48355		20.718911	-13.668739	-58.145815
48356		20.722774	-13.625317	-58.315174
48357		20.701203	-13.591509	-58.482175
48358		20.670886	-13.561566	-58.647040
48359		20.615597	-13.530485	-58.807544
48360		20.546316	-13.499142	-58.966402
48361		20.484469	-13.462912	-59.129417
48362		20.421368	-13.432070	-59.297195
48363		20.374106	-13.403670	-59.482643
48364		20.365006	-13.373573	-59.686428
48365		20.408268	-13.346185	-59.899026
48366		20.465688	-13.322098	-60.099175
48367		20.464963	-13.285616	-60.270498
48368		20.379446	-13.245595	-60.422620
48369		20.268764	-13.223060	-60.588702
48370		20.188472	-13.200076	-60.762601
48371		20.138002	-13.172578	-60.930271
48372		20.080262	-13.133331	-61.084266
48373		20.014264	-13.103175	-61.231942
48374		19.945407	-13.094531	-61.387930
48375		19.873242	-13.116378	-61.559929
48376		19.816042	-13.149686	-61.748696
48377		19.745557	-13.174272	-61.930064
48378		19.675062	-13.185807	-62.115632
48379		19.642465	-13.189769	-62.311406
48380		19.642005	-13.204481	-62.512375
48381		19.637049	-13.238292	-62.718970
48382		19.629204	-13.281872	-62.926285
48383		19.611366	-13.309197	-63.120371
48384		19.575860	-13.313664	-63.305001
48385		19.541393	-13.307375	-63.482921
48386		19.504458	-13.293798	-63.655089
48387		19.450705	-13.285236	-63.821857
48388		19.408261	-13.288755	-63.990519
48389		19.394485	-13.300674	-64.163279
48390		19.404324	-13.302902	-64.327879
48391		19.401816	-13.286636	-64.477828
48392		19.375775	-13.263884	-64.615073
48393		19.352970	-13.263785	-64.750755
48394		19.329402	-13.270586	-64.880418
48395		19.341608	-13.283201	-65.014717
48396		19.384236	-13.285530	-65.138779
48397		19.392916	-13.280550	-65.250832
48398		19.359060	-13.281107	-65.358528
48399		19.349234	-13.283126	-65.472319
48400		19.368900	-13.279323	-65.585844
48401		19.404639	-13.267516	-65.695100
48402		19.443540	-13.246410	-65.793466
48403		19.468129	-13.241865	-65.889599
48404		19.470688	-13.246074	-65.990087
48405		19.446707	-13.237246	-66.090113
48406		19.429576	-13.213364	-66.193527
48407		19.420212	-13.182623	-66.311358
48408		19.478302	-13.166087	-66.439716
48409		19.561561	-13.143899	-66.555511
48410		19.591044	-13.107581	-66.639918
48411		19.606725	-13.065433	-66.707428
48412		19.603621	-13.028627	-66.770053
48413		19.572328	-12.995371	-66.832353
48414		19.534391	-12.953794	-66.901394
48415		19.484807	-12.904780	-66.975394
48416		19.455751	-12.859847	-67.057574
48417		19.466552	-12.819981	-67.135601
48418		19.499314	-12.789949	-67.207627
48419		19.540665	-12.769106	-67.269872
48420		19.589800	-12.748676	-67.322045
48421		19.608521	-12.723218	-67.364269
48422		19.594313	-12.689542	-67.403791
48423		19.560671	-12.651915	-67.448581
48424		19.530199	-12.611993	-67.499738
48425		19.513196	-12.575510	-67.556287
48426		19.500198	-12.540730	-67.614321
48427		19.509234	-12.517835	-67.663379
48428		19.500661	-12.483373	-67.700635
48429		19.486694	-12.442750	-67.735067
48430		19.486822	-12.412471	-67.771486
48431		19.484679	-12.387830	-67.802811
48432		19.463180	-12.365731	-67.823930
48433		19.441477	-12.349402	-67.843841
48434		19.453581	-12.332171	-67.860789
48435		19.449923	-12.317576	-67.865056
48436		19.440427	-12.308403	-67.863824
48437		19.432052	-12.295810	-67.858070
48438		19.403397	-12.275555	-67.848516
48439		19.377664	-12.263169	-67.841314
48440		19.374858	-12.258857	-67.837360
48441		19.396317	-12.250598	-67.834904
48442		19.413920	-12.241653	-67.821929
48443		19.408681	-12.230205	-67.802377
48444		19.384091	-12.206062	-67.781209
48445		19.351831	-12.177298	-67.759622
48446		19.328523	-12.151002	-67.743922
48447		19.308520	-12.134947	-67.729018
48448		19.287055	-12.117854	-67.713763
48449		19.257253	-12.093700	-67.695086
48450		19.228662	-12.069165	-67.677987
48451		19.187921	-12.039132	-67.658292
48452		19.147145	-12.003603	-67.637898
48453		19.115636	-11.965581	-67.619068
48454		19.080824	-11.933235	-67.603035
48455		19.045967	-11.904359	-67.590236
48456		19.025038	-11.886702	-67.579131
48457		19.003725	-11.873236	-67.565815
48458		18.984974	-11.859297	-67.551225
48459		18.977533	-11.851165	-67.536554
48460		18.976788	-11.843082	-67.521101
48461		18.955119	-11.839536	-67.503414
48462		18.934188	-11.848142	-67.491778
48463		18.925056	-11.865182	-67.489682
48464		18.912172	-11.869600	-67.491924
48465		18.907141	-11.869693	-67.497544
48466		18.930926	-11.869646	-67.503272
48467		18.941731	-11.858523	-67.499308
48468		18.954297	-11.846666	-67.489435
48469		18.962030	-11.837670	-67.473438
48470		18.949623	-11.826665	-67.454962
48471		18.938558	-11.818079	-67.441338
48472		18.940814	-11.808048	-67.434331
48473		18.951622	-11.798092	-67.436158
48474		18.958945	-11.786655	-67.440199
48475		18.952894	-11.779385	-67.446562
48476		18.937509	-11.766960	-67.452779
48477		18.929279	-11.754597	-67.462621
48478		18.938345	-11.750197	-67.473858
48479		18.948122	-11.750727	-67.486210
48480		18.957568	-11.756974	-67.499361
48481		18.972853	-11.744403	-67.504201
48482		18.980525	-11.722741	-67.502220
48483		18.973043	-11.723455	-67.499358
48484		18.966211	-11.736845	-67.496317
48485		18.960575	-11.747254	-67.491221
48486		18.947104	-11.761320	-67.486038
48487		18.944709	-11.773292	-67.482726
48488		18.948672	-11.775256	-67.481401
48489		18.957326	-11.779028	-67.478083
48490		18.961339	-11.781713	-67.472712
48491		18.979134	-11.790661	-67.470638
48492		19.005730	-11.806982	-67.469965
48493		19.022278	-11.820097	-67.466657
48494		19.036754	-11.829543	-67.459245
48495		19.043947	-11.836822	-67.447707
48496		19.033521	-11.843680	-67.432507
48497		19.018584	-11.855020	-67.410758
48498		18.999088	-11.865675	-67.390292
48499		18.982922	-11.881301	-67.372490
48500		18.969789	-11.900906	-67.355367
48501		18.961621	-11.911773	-67.336532
48502		18.955506	-11.904945	-67.311383
48503		18.937269	-11.897832	-67.278572
48504		18.916647	-11.900026	-67.245656
48505		18.887369	-11.903312	-67.205394
48506		18.862676	-11.917957	-67.168072
48507		18.850718	-11.931160	-67.127788
48508		18.837343	-11.937460	-67.082212
48509		18.815765	-11.937268	-67.035096
48510		18.782976	-11.937845	-66.989033
48511		18.747161	-11.942220	-66.944068
48512		18.730890	-11.951265	-66.905091
48513		18.736589	-11.959761	-66.864915
48514		18.736457	-11.980893	-66.817784
48515		18.732814	-12.012866	-66.766204
48516		18.728607	-12.036745	-66.708023
48517		18.717106	-12.066151	-66.653143
48518		18.708741	-12.110317	-66.612503
48519		18.703142	-12.155024	-66.577094
48520		18.702919	-12.187798	-66.542596
48521		18.720883	-12.214598	-66.506322
48522		18.740515	-12.242876	-66.465432
48523		18.751625	-12.267781	-66.419706
48524		18.763365	-12.288152	-66.369534
48525		18.763367	-12.302004	-66.308044
48526		18.747145	-12.309091	-66.236339
48527		18.727078	-12.324086	-66.160090
48528		18.706425	-12.339818	-66.083979
48529		18.678002	-12.357546	-66.000960
48530		18.652898	-12.369612	-65.913468
48531		18.635062	-12.379919	-65.822807
48532		18.611666	-12.377741	-65.722804
48533		18.583337	-12.385404	-65.623619
48534		18.571279	-12.418959	-65.532598
48535		18.569296	-12.467061	-65.449301
48536		18.574562	-12.513162	-65.369952
48537		18.581535	-12.547918	-65.284944
48538		18.593961	-12.579195	-65.198487
48539		18.601272	-12.606035	-65.096308
48540		18.592546	-12.633474	-64.982558
48541		18.576048	-12.665614	-64.858394
48542		18.567198	-12.700061	-64.736206
48543		18.565881	-12.732021	-64.612383
48544		18.577673	-12.769824	-64.497235
48545		18.602234	-12.794103	-64.387303
48546		18.639553	-12.802310	-64.280390
48547		18.689029	-12.803891	-64.167343
48548		18.738735	-12.816216	-64.046810
48549		18.779778	-12.828110	-63.912910
48550		18.804816	-12.832743	-63.768621
48551		18.813847	-12.837027	-63.618835
48552		18.815653	-12.854181	-63.472955
48553		18.818168	-12.885537	-63.336653
48554		18.825238	-12.930188	-63.217632
48555		18.865084	-12.962143	-63.110618
48556		18.939435	-12.971617	-62.992457
48557		19.006326	-12.970632	-62.850962
48558		19.050025	-12.966984	-62.693450
48559		19.075167	-12.975060	-62.534637
48560		19.098021	-12.985999	-62.379274
48561		19.125130	-12.991816	-62.223431
48562		19.166150	-13.007325	-62.076923
48563		19.243827	-13.048377	-61.942094
48564		19.356465	-13.082443	-61.811459
48565		19.474999	-13.091276	-61.660863
48566		19.565834	-13.084028	-61.478078
48567		19.610044	-13.072824	-61.268380
48568		19.608313	-13.069464	-61.052311
48569		19.591063	-13.072031	-60.840789
48570		19.590878	-13.078396	-60.639280
48571		19.603448	-13.072680	-60.446872
48572		19.633528	-13.059732	-60.259560
48573		19.697008	-13.052194	-60.076000
48574		19.779979	-13.046870	-59.903579
48575		19.861883	-13.028632	-59.735701
48576		19.929909	-13.014876	-59.554693
48577		19.976309	-13.008040	-59.348934
48578		19.993752	-12.984661	-59.121094
48579		19.979628	-12.947666	-58.886266
48580		19.964494	-12.922060	-58.662349
48581		19.965814	-12.914551	-58.450408
48582		19.985569	-12.909715	-58.240967
48583		20.025409	-12.899528	-58.030772
48584		20.073406	-12.890847	-57.817048
48585		20.126537	-12.880504	-57.601755
48586		20.196933	-12.869709	-57.389050
48587		20.274559	-12.866278	-57.183213
48588		20.358912	-12.857863	-56.981806
48589		20.456001	-12.839953	-56.779160
48590		20.563653	-12.817162	-56.577006
48591		20.678994	-12.816723	-56.390042
48592		20.784558	-12.830940	-56.221913
48593		20.880804	-12.843447	-56.056979
48594		20.936989	-12.839412	-55.870504
48595		20.969644	-12.842107	-55.673100
48596		20.978743	-12.834422	-55.464677
48597		20.966798	-12.823598	-55.252146
48598		20.958709	-12.821787	-55.050427
48599		20.984876	-12.827038	-54.857246
48600		21.046467	-12.835344	-54.665120
48601		21.117946	-12.833077	-54.464145
48602		21.175486	-12.818102	-54.248100
48603		21.238295	-12.802764	-54.031175
48604		21.303161	-12.799464	-53.820055
48605		21.361932	-12.803061	-53.616693
48606		21.409955	-12.791696	-53.406011
48607		21.435765	-12.754881	-53.176133
48608		21.447213	-12.712086	-52.935634
48609		21.446204	-12.687271	-52.700154
48610		21.448562	-12.681171	-52.473157
48611		21.442849	-12.684359	-52.254188
48612		21.437086	-12.692873	-52.040927
48613		21.441735	-12.702759	-51.825381
48614		21.442978	-12.698919	-51.590077
48615		21.431149	-12.688477	-51.343285
48616		21.420527	-12.674940	-51.102127
48617		21.404175	-12.652766	-50.865057
48618		21.388427	-12.629524	-50.638268
48619		21.374334	-12.614234	-50.425207
48620		21.363396	-12.598222	-50.210946
48621		21.361018	-12.568424	-49.987340
48622		21.351404	-12.529099	-49.748361
48623		21.319259	-12.496180	-49.500562
48624		21.274926	-12.470144	-49.253394
48625		21.244938	-12.441429	-49.017272
48626		21.226706	-12.414057	-48.787912
48627		21.217151	-12.392305	-48.564627
48628		21.200076	-12.368077	-48.340473
48629		21.165072	-12.332752	-48.105886
48630		21.105986	-12.293314	-47.866878
48631		21.050875	-12.268784	-47.646632
48632		21.028548	-12.252414	-47.461016
48633		20.999832	-12.221039	-47.295845
48634		20.776888	-12.253360	-47.178695
48635		20.554615	-12.330107	-47.203443
48636		20.488421	-12.334916	-47.250218
48637		20.477898	-12.296738	-47.206155
48638		20.357378	-12.212315	-47.045566
48639		20.207521	-12.104679	-46.830782
48640		20.041214	-12.036104	-46.605871
48641		19.892727	-12.022796	-46.408148
48642		19.779351	-12.003497	-46.232263
48643		19.680075	-11.936312	-46.052878
48644		19.573604	-11.849386	-45.861327
48645		19.470846	-11.797466	-45.657820
48646		19.376295	-11.769949	-45.434490
48647		19.280485	-11.737193	-45.184903
48648		19.187652	-11.701285	-44.919713
48649		19.111043	-11.685494	-44.646136
48650		19.070284	-11.680949	-44.365316
48651		19.032217	-11.664254	-44.064296
48652		18.970468	-11.625799	-43.758492
48653		18.885489	-11.566781	-43.458931
48654		18.791153	-11.508748	-43.172074
48655		18.678170	-11.465773	-42.896659
48656		18.546214	-11.433045	-42.630403
48657		18.404210	-11.392723	-42.365436
48658		18.242439	-11.347310	-42.092546
48659		18.053375	-11.308845	-41.804117
48660		17.837089	-11.289090	-41.520796
48661		17.589318	-11.259127	-41.232843
48662		17.298080	-11.202637	-40.948746
48663		16.988049	-11.149595	-40.692269
48664		16.682483	-11.102622	-40.440467
48665		16.433592	-11.077411	-40.186741
48666		16.243689	-11.067347	-39.924480
48667		16.070087	-11.053908	-39.646798
48668		15.906345	-11.027226	-39.356722
48669		15.737378	-10.996120	-39.056175
48670		15.556387	-10.975345	-38.752475
48671		15.387087	-10.969268	-38.453612
48672		15.249105	-10.960610	-38.153100
48673		15.128596	-10.948774	-37.842293
48674		15.017089	-10.933554	-37.519723
48675		14.918899	-10.918816	-37.186803
48676		14.819924	-10.881882	-36.841683
48677		14.700026	-10.822022	-36.494557
48678		14.558299	-10.747523	-36.160142
48679		14.404666	-10.672939	-35.843514
48680		14.242524	-10.627244	-35.553891
48681		14.093880	-10.611554	-35.276556
48682		13.971180	-10.591372	-34.998324
48683		13.861481	-10.553496	-34.710449
48684		13.748821	-10.507928	-34.410941
48685		13.588751	-10.471840	-34.113465
48686		13.369499	-10.454514	-33.833185
48687		13.146797	-10.446591	-33.571973
48688		12.961214	-10.427574	-33.311920
48689		12.825813	-10.419017	-33.054367
48690		12.719561	-10.424593	-32.782907
48691		12.620606	-10.420901	-32.493677
48692		12.494579	-10.419642	-32.205253
48693		12.327848	-10.407259	-31.930228
48694		12.130213	-10.369991	-31.670433
48695		11.946244	-10.315450	-31.421742
48696		11.778934	-10.271616	-31.178677
48697		11.628919	-10.263219	-30.931698
48698		11.497203	-10.273750	-30.675904
48699		11.374628	-10.261116	-30.403932
48700		11.269086	-10.233698	-30.121725
48701		11.157264	-10.187361	-29.850401
48702		11.026512	-10.121822	-29.600449
48703		10.894513	-10.052437	-29.366746
48704		10.784262	-9.999060	-29.134801
48705		10.703751	-9.957911	-28.891076
48706		10.616463	-9.933182	-28.634888
48707		10.507906	-9.921638	-28.371616
48708		10.386216	-9.909859	-28.103661
48709		10.257046	-9.898124	-27.845219
48710		10.116911	-9.894257	-27.609114
48711		9.994811	-9.886969	-27.383726
48712		9.913713	-9.853770	-27.152264
48713		9.838323	-9.826117	-26.917199
48714		9.754926	-9.801891	-26.679132
48715		9.668252	-9.783851	-26.444939
48716		9.570577	-9.769168	-26.214566
48717		9.465196	-9.758502	-25.987779
48718		9.372613	-9.753581	-25.763991
48719		9.295007	-9.750473	-25.549141
48720		9.225014	-9.726777	-25.338648
48721		9.155969	-9.694907	-25.126993
48722		9.078477	-9.666222	-24.923363
48723		8.989381	-9.651374	-24.724699
48724		8.922337	-9.641237	-24.530728
48725		8.870315	-9.634065	-24.334335
48726		8.818737	-9.644309	-24.132580
48727		8.744378	-9.658105	-23.932238
48728		8.656864	-9.686871	-23.743740
48729		8.559009	-9.723203	-23.575960
48730		8.458529	-9.744739	-23.421301
48731		8.377066	-9.750176	-23.272794
48732		8.318331	-9.746897	-23.116449
48733		8.281118	-9.753257	-22.949761
48734		8.254294	-9.749081	-22.773366
48735		8.242762	-9.741394	-22.591370
48736		8.230709	-9.744968	-22.410056
48737		8.180602	-9.759607	-22.243517
48738		8.132273	-9.761050	-22.086967
48739		8.104836	-9.751517	-21.933026
48740		8.087433	-9.732980	-21.782064
48741		8.060428	-9.718985	-21.634688
48742		8.038070	-9.716316	-21.494991
48743		8.022072	-9.727207	-21.366909
48744		7.992204	-9.752877	-21.254074
48745		7.963018	-9.776180	-21.149163
48746		7.936140	-9.797215	-21.047906
48747		7.913958	-9.817548	-20.955422
48748		7.899008	-9.830164	-20.865538
48749		7.884497	-9.850814	-20.783647
48750		7.855600	-9.881005	-20.709880
48751		7.805666	-9.906144	-20.641612
48752		7.766684	-9.922917	-20.577513
48753		7.745569	-9.946484	-20.515721
48754		7.730578	-9.973337	-20.454240
48755		7.717250	-9.997484	-20.398361
48756		7.703639	-10.013950	-20.349916
48757		7.690335	-10.035784	-20.308245
48758		7.666256	-10.059991	-20.272444
48759		7.629300	-10.085820	-20.243539
48760		7.594700	-10.106640	-20.217053
48761		7.568604	-10.132365	-20.195603
48762		7.555749	-10.160554	-20.179376
48763		7.545458	-10.182694	-20.173377
48764		7.525530	-10.201549	-20.175288
48765		7.513088	-10.215869	-20.179926
48766		7.513663	-10.219269	-20.186395
48767		7.514666	-10.235151	-20.200396
48768		7.516135	-10.243242	-20.220824
48769		7.519135	-10.249213	-20.242950
48770		7.521569	-10.268385	-20.269731
48771		7.512520	-10.296959	-20.296896
48772		7.497173	-10.318857	-20.329013
48773		7.482924	-10.339427	-20.363277
48774		7.467837	-10.367023	-20.402662
48775		7.450770	-10.399659	-20.448375
48776		7.442528	-10.439413	-20.499057
48777		7.427832	-10.478263	-20.555052
48778		7.397716	-10.508818	-20.616945
48779		7.379063	-10.536589	-20.680796
48780		7.370175	-10.568649	-20.742492
48781		7.372007	-10.605223	-20.805540
48782		7.371456	-10.638965	-20.869594
48783		7.365721	-10.665395	-20.939999
48784		7.353631	-10.689063	-21.014534
48785		7.346568	-10.709330	-21.091249
48786		7.340794	-10.726439	-21.171391
48787		7.322734	-10.746738	-21.245248
48788		7.319453	-10.767087	-21.311005
48789		7.328942	-10.798479	-21.377478
48790		7.333171	-10.834043	-21.443776
48791		7.335770	-10.865411	-21.511469
48792		7.336423	-10.912135	-21.579351
48793		7.345376	-10.959054	-21.645522
48794		7.356715	-10.999603	-21.702330
48795		7.372688	-11.040903	-21.761591
48796		7.397144	-11.081628	-21.817711
48797		7.422071	-11.122756	-21.872148
48798		7.433342	-11.162982	-21.924863
48799		7.447445	-11.195513	-21.978239
48800		7.475550	-11.224447	-22.028573
48801		7.506389	-11.261619	-22.075503
48802		7.534443	-11.299806	-22.123585
48803		7.568790	-11.333887	-22.171796
48804		7.604356	-11.371589	-22.222428
48805		7.627581	-11.419320	-22.285868
48806		7.657711	-11.461767	-22.362063
48807		7.710292	-11.502617	-22.449511
48808		7.775285	-11.549936	-22.543584
48809		7.854041	-11.596040	-22.644245
48810		7.939251	-11.637469	-22.748453
48811		7.994715	-11.683775	-22.862128
48812		7.989835	-11.731960	-22.983114
48813		7.982851	-11.763761	-23.106404
48814		8.014889	-11.793843	-23.234621
48815		8.054822	-11.841417	-23.369916
48816		8.090413	-11.898311	-23.504074
48817		8.132055	-11.958783	-23.633738
48818		8.171687	-12.022912	-23.768916
48819		8.218122	-12.090029	-23.904879
48820		8.266064	-12.157783	-24.052383
48821		8.282740	-12.220460	-24.209552
48822		8.293887	-12.261366	-24.369990
48823		8.343931	-12.294322	-24.531578
48824		8.413887	-12.342280	-24.702690
48825		8.484750	-12.401227	-24.872074
48826		8.573920	-12.447835	-25.038140
48827		8.654336	-12.501665	-25.209493
48828		8.711797	-12.565550	-25.390012
48829		8.763700	-12.620304	-25.578989
48830		8.809852	-12.661787	-25.771764
48831		8.858479	-12.706035	-25.968365
48832		8.924490	-12.746213	-26.163964
48833		8.995921	-12.787421	-26.360609
48834		9.064560	-12.834098	-26.557269
48835		9.136401	-12.881454	-26.756769
48836		9.214491	-12.923715	-26.957290
48837		9.276963	-12.964594	-27.163142
48838		9.330307	-13.001622	-27.372697
48839		9.406786	-13.029943	-27.581849
48840		9.506644	-13.058843	-27.789872
48841		9.612177	-13.098379	-27.997165
48842		9.710187	-13.144883	-28.205937
48843		9.801245	-13.191877	-28.415738
48844		9.900006	-13.235425	-28.621622
48845		10.002553	-13.276206	-28.827138
48846		10.092853	-13.316366	-29.035106
48847		10.172806	-13.356166	-29.247265
48848		10.255363	-13.391754	-29.464477
48849		10.343000	-13.424779	-29.681190
48850		10.432768	-13.459171	-29.890659
48851		10.530095	-13.498358	-30.089478
48852		10.625443	-13.542527	-30.281046
48853		10.695853	-13.586260	-30.473798
48854		10.745587	-13.624875	-30.670102
48855		10.777725	-13.655432	-30.877799
48856		10.828640	-13.690470	-31.103727
48857		10.887781	-13.736440	-31.338396
48858		10.955771	-13.782006	-31.573626
48859		11.021238	-13.815626	-31.806258
48860		11.106687	-13.844419	-32.032908
48861		11.207041	-13.879274	-32.250366
48862		11.310419	-13.921017	-32.461015
48863		11.386626	-13.969931	-32.674204
48864		11.420164	-14.002549	-32.885248
48865		11.473753	-14.022393	-33.109376
48866		11.558273	-14.040302	-33.343501
48867		11.644092	-14.056346	-33.572377
48868		11.742175	-14.077859	-33.798292
48869		11.864535	-14.101737	-34.020195
48870		11.989335	-14.130820	-34.238584
48871		12.111295	-14.163508	-34.458938
48872		12.224053	-14.189138	-34.684963
48873		12.294649	-14.207887	-34.908474
48874		12.360255	-14.228426	-35.143046
48875		12.442160	-14.252538	-35.383781
48876		12.531694	-14.266913	-35.615990
48877		12.632556	-14.279657	-35.838153
48878		12.740497	-14.313480	-36.056764
48879		12.835098	-14.363033	-36.276744
48880		12.898302	-14.409669	-36.497061
48881		12.946701	-14.435177	-36.723215
48882		13.018321	-14.463043	-36.970607
48883		13.130720	-14.478738	-37.224032
48884		13.250584	-14.483362	-37.469745
48885		13.376340	-14.506721	-37.711307
48886		13.504862	-14.546505	-37.950901
48887		13.606867	-14.589641	-38.183408
48888		13.647803	-14.632359	-38.402679
48889		13.705725	-14.672479	-38.639067
48890		13.829099	-14.699561	-38.891577
48891		13.957326	-14.705379	-39.136846
48892		14.090104	-14.711610	-39.380751
48893		14.235618	-14.727926	-39.621094
48894		14.347729	-14.751683	-39.851484
48895		14.411087	-14.770925	-40.075196
48896		14.462682	-14.787570	-40.309592
48897		14.526468	-14.805793	-40.563810
48898		14.589232	-14.826057	-40.828811
48899		14.681228	-14.859414	-41.114012
48900		14.796941	-14.887047	-41.400969
48901		14.916045	-14.910811	-41.676918
48902		15.044969	-14.924894	-41.943426
48903		15.163785	-14.934183	-42.197742
48904		15.260339	-14.942557	-42.443440
48905		15.358178	-14.951429	-42.692080
48906		15.460291	-14.954724	-42.939313
48907		15.561584	-14.950379	-43.191351
48908		15.665744	-14.955863	-43.449829
48909		15.769229	-14.959042	-43.707554
48910		15.881428	-14.961640	-43.964056
48911		15.975524	-14.966509	-44.214104
48912		16.026742	-14.974851	-44.459708
48913		16.091591	-14.989574	-44.713909
48914		16.184504	-15.000538	-44.981862
48915		16.280992	-14.988543	-45.249406
48916		16.388341	-14.970128	-45.510809
48917		16.474501	-14.952352	-45.755481
48918		16.510889	-14.930357	-45.993587
48919		16.532846	-14.902232	-46.225379
48920		16.571338	-14.873842	-46.465726
48921		16.638454	-14.847525	-46.709965
48922		16.729106	-14.823314	-46.960850
48923		16.834476	-14.796493	-47.213687
48924		16.953163	-14.763320	-47.472539
48925		17.104709	-14.730461	-47.733652
48926		17.259478	-14.689535	-47.981854
48927		17.383969	-14.650794	-48.216097
48928		17.475899	-14.610275	-48.435626
48929		17.532426	-14.568312	-48.644602
48930		17.586155	-14.542469	-48.878905
48931		17.696267	-14.522542	-49.143943
48932		17.805219	-14.488006	-49.410827
48933		17.910788	-14.445395	-49.667984
48934		18.004545	-14.413390	-49.921365
48935		18.055550	-14.403269	-50.172919
48936		18.080982	-14.411975	-50.433167
48937		18.116887	-14.416385	-50.712994
48938		18.198524	-14.409181	-51.015371
48939		18.290279	-14.384973	-51.321443
48940		18.372463	-14.348285	-51.616760
48941		18.416232	-14.316390	-51.894164
48942		18.430755	-14.302650	-52.169753
48943		18.462434	-14.296112	-52.451012
48944		18.509936	-14.268550	-52.723170
48945		18.549214	-14.223886	-52.980151
48946		18.553697	-14.186845	-53.228891
48947		18.519829	-14.164410	-53.470806
48948		18.496870	-14.167263	-53.722509
48949		18.512205	-14.183707	-53.990415
48950		18.555481	-14.192437	-54.258708
48951		18.602941	-14.181342	-54.512249
48952		18.649719	-14.160747	-54.751056
48953		18.696306	-14.124065	-54.962981
48954		18.726508	-14.087883	-55.152708
48955		18.715973	-14.050697	-55.333659
48956		18.687773	-14.024346	-55.520086
48957		18.674503	-14.018307	-55.725920
48958		18.721782	-14.025888	-55.940418
48959		18.801132	-14.032003	-56.158835
48960		18.888108	-14.040422	-56.366046
48961		18.983273	-14.054257	-56.556612
48962		19.075391	-14.052258	-56.730188
48963		19.133429	-14.049901	-56.889864
48964		19.133696	-14.062142	-57.057608
48965		19.109398	-14.082756	-57.243163
48966		19.111441	-14.090242	-57.450308
48967		19.139558	-14.078249	-57.676235
48968		19.153460	-14.069941	-57.916023
48969		19.160646	-14.066294	-58.155290
48970		19.139014	-14.050231	-58.385412
48971		19.109702	-14.012038	-58.614946
48972		19.110561	-13.948175	-58.842403
48973		19.107285	-13.875601	-59.057187
48974		19.068580	-13.819781	-59.263259
48975		18.988682	-13.783148	-59.464622
48976		18.846003	-13.748636	-59.665998
48977		18.698813	-13.711801	-59.871267
48978		18.601421	-13.664545	-60.085619
48979		18.526677	-13.608590	-60.282232
48980		18.436758	-13.549483	-60.461711
48981		18.358141	-13.512452	-60.642386
48982		18.290211	-13.498480	-60.823122
48983		18.221493	-13.499947	-61.008332
48984		18.173930	-13.506808	-61.191952
48985		18.142253	-13.511547	-61.383140
48986		18.132536	-13.518052	-61.577427
48987		18.166597	-13.526753	-61.769830
48988		18.207888	-13.540818	-61.953169
48989		18.243107	-13.565844	-62.130200
48990		18.252814	-13.590252	-62.298307
48991		18.229437	-13.593727	-62.461511
48992		18.200471	-13.579382	-62.621302
48993		18.178473	-13.559935	-62.779261
48994		18.116645	-13.543350	-62.924584
48995		18.061457	-13.535382	-63.068320
48996		18.041448	-13.538195	-63.203265
48997		18.012710	-13.541323	-63.326702
48998		17.958798	-13.535156	-63.441640
48999		17.903506	-13.516156	-63.551359
49000		17.871847	-13.492195	-63.658123
49001		17.851684	-13.466731	-63.761077
49002		17.840340	-13.455608	-63.861301
49003		17.840632	-13.458759	-63.958451
49004		17.844894	-13.468151	-64.053808
49005		17.852074	-13.490582	-64.155497
49006		17.896619	-13.530725	-64.271705
49007		17.958666	-13.568172	-64.388223
49008		18.040961	-13.591554	-64.502395
49009		18.155782	-13.591732	-64.606270
49010		18.246408	-13.570199	-64.685807
49011		18.285958	-13.544089	-64.741802
49012		18.300999	-13.519206	-64.782978
49013		18.292036	-13.498702	-64.817584
49014		18.288997	-13.487927	-64.854282
49015		18.284678	-13.479085	-64.896249
49016		18.272669	-13.479101	-64.945207
49017		18.258741	-13.486646	-65.005896
49018		18.252386	-13.491948	-65.079169
49019		18.297698	-13.499209	-65.169431
49020		18.424160	-13.511414	-65.266079
49021		18.567974	-13.517859	-65.349967
49022		18.664005	-13.521591	-65.408266
49023		18.711936	-13.518306	-65.445234
49024		18.730746	-13.500290	-65.478244
49025		18.745436	-13.481665	-65.519325
49026		18.755340	-13.458313	-65.562018
49027		18.766995	-13.436452	-65.601697
49028		18.755278	-13.401125	-65.625567
49029		18.732553	-13.356019	-65.638940
49030		18.721049	-13.314021	-65.651968
49031		18.701905	-13.286542	-65.670527
49032		18.689494	-13.264544	-65.690818
49033		18.668610	-13.230331	-65.713321
49034		18.641725	-13.188774	-65.735674
49035		18.647927	-13.166303	-65.769480
49036		18.677783	-13.159796	-65.809124
49037		18.716305	-13.155241	-65.843357
49038		18.735767	-13.152497	-65.864816
49039		18.736814	-13.154177	-65.881427
49040		18.737679	-13.158698	-65.902356
49041		18.732508	-13.165212	-65.928490
49042		18.748865	-13.170739	-65.959578
49043		18.785577	-13.174117	-65.984553
49044		18.821692	-13.167183	-65.995898
49045		18.834927	-13.148178	-65.991012
49046		18.823181	-13.122555	-65.976828
49047		18.814427	-13.101350	-65.964526
49048		18.810215	-13.086846	-65.958410
49049		18.807656	-13.080113	-65.956916
49050		18.817992	-13.070045	-65.957158
49051		18.836110	-13.066157	-65.963421
49052		18.855768	-13.053202	-65.969526
49053		18.885452	-13.024856	-65.963796
49054		18.897191	-13.009597	-65.954758
49055		18.895303	-13.012212	-65.948703
49056		18.898470	-13.009563	-65.941231
49057		18.897484	-13.005584	-65.935543
49058		18.891398	-13.013489	-65.941926
49059		18.921794	-13.021019	-65.967016
49060		18.983833	-13.016673	-65.995006
49061		19.063921	-13.019714	-66.027256
49062		19.198408	-13.034071	-66.062139
49063		19.329643	-13.041944	-66.081325
49064		19.372494	-13.037358	-66.074163
49065		19.362743	-13.037376	-66.064697
49066		19.371891	-13.040424	-66.070187
49067		19.396731	-13.046330	-66.091176
49068		19.440346	-13.047050	-66.118066
49069		19.473460	-13.032507	-66.142832
49070		19.491470	-13.005492	-66.164626
49071		19.503198	-12.968792	-66.182002
49072		19.506308	-12.927510	-66.202553
49073		19.517329	-12.892907	-66.225727
49074		19.540775	-12.865017	-66.258496
49075		19.549872	-12.832616	-66.283745
49076		19.553875	-12.795815	-66.304755
49077		19.542345	-12.764689	-66.317362
49078		19.535246	-12.747825	-66.322993
49079		19.532003	-12.734660	-66.320343
49080		19.526646	-12.718551	-66.314664
49081		19.515654	-12.712274	-66.308664
49082		19.508983	-12.705792	-66.298454
49083		19.508164	-12.688223	-66.282562
49084		19.508850	-12.671417	-66.262964
49085		19.512282	-12.656798	-66.239337
49086		19.515279	-12.645395	-66.215925
49087		19.522420	-12.635886	-66.195678
49088		19.537242	-12.629568	-66.180316
49089		19.558520	-12.617446	-66.162573
49090		19.577081	-12.598934	-66.137978
49091		19.573140	-12.574048	-66.107531
49092		19.554712	-12.543866	-66.074372
49093		19.531507	-12.509560	-66.039602
49094		19.509193	-12.476375	-66.001479
49095		19.488074	-12.453846	-65.969092
49096		19.498026	-12.429361	-65.941883
49097		19.512932	-12.396671	-65.906233
49098		19.507124	-12.371027	-65.867315
49099		19.489851	-12.351404	-65.824164
49100		19.467439	-12.340347	-65.783824
49101		19.450895	-12.339781	-65.749154
49102		19.440032	-12.340881	-65.721972
49103		19.446272	-12.342433	-65.700494
49104		19.473099	-12.341885	-65.684576
49105		19.488241	-12.345992	-65.664948
49106		19.483887	-12.354389	-65.640349
49107		19.471611	-12.362929	-65.612366
49108		19.461749	-12.368513	-65.577607
49109		19.450737	-12.375764	-65.539815
49110		19.434378	-12.382588	-65.497526
49111		19.407223	-12.386871	-65.447685
49112		19.378098	-12.389842	-65.398011
49113		19.342629	-12.395447	-65.349589
49114		19.301142	-12.395070	-65.301949
49115		19.263215	-12.392825	-65.255995
49116		19.230135	-12.391543	-65.213380
49117		19.205235	-12.390390	-65.169941
49118		19.189980	-12.391647	-65.125586
49119		19.179441	-12.392445	-65.081465
49120		19.166433	-12.390027	-65.030355
49121		19.160167	-12.391684	-64.977112
49122		19.157534	-12.407717	-64.925973
49123		19.167144	-12.429310	-64.872978
49124		19.202103	-12.437097	-64.813582
49125		19.231808	-12.441729	-64.742632
49126		19.233176	-12.466843	-64.662046
49127		19.214164	-12.492522	-64.572696
49128		19.196109	-12.516839	-64.485990
49129		19.191117	-12.539580	-64.402529
49130		19.182889	-12.566473	-64.320423
49131		19.164670	-12.588398	-64.238428
49132		19.143383	-12.605330	-64.156580
49133		19.131199	-12.621025	-64.075225
49134		19.126549	-12.636500	-63.996498
49135		19.113395	-12.653764	-63.919119
49136		19.100257	-12.672232	-63.848075
49137		19.089482	-12.690779	-63.775299
49138		19.089179	-12.716293	-63.713388
49139		19.106058	-12.755288	-63.660819
49140		19.125602	-12.788859	-63.610398
49141		19.153763	-12.813818	-63.559599
49142		19.181206	-12.841876	-63.506646
49143		19.209158	-12.871720	-63.451386
49144		19.246387	-12.894191	-63.394157
49145		19.264678	-12.915669	-63.331110
49146		19.266589	-12.937253	-63.256022
49147		19.263136	-12.959480	-63.170443
49148		19.246301	-12.991173	-63.076899
49149		19.210289	-13.037775	-62.980686
49150		19.164387	-13.088807	-62.883067
49151		19.120558	-13.137744	-62.785903
49152		19.103483	-13.180447	-62.686173
49153		19.105264	-13.209743	-62.586910
49154		19.113675	-13.240553	-62.482941
49155		19.134595	-13.290828	-62.376789
49156		19.170234	-13.354051	-62.270457
49157		19.221753	-13.415116	-62.163128
49158		19.280232	-13.466009	-62.059693
49159		19.349510	-13.499442	-61.959815
49160		19.406567	-13.536774	-61.848158
49161		19.434784	-13.587192	-61.716785
49162		19.430454	-13.639157	-61.569705
49163		19.426156	-13.684746	-61.421833
49164		19.428466	-13.736031	-61.279996
49165		19.437594	-13.792189	-61.144191
49166		19.464727	-13.841274	-61.008870
49167		19.527042	-13.879244	-60.870085
49168		19.609972	-13.895266	-60.729005
49169		19.680930	-13.900917	-60.582207
49170		19.744020	-13.923309	-60.423315
49171		19.794795	-13.966402	-60.262769
49172		19.818500	-14.000084	-60.089333
49173		19.823160	-14.029231	-59.906368
49174		19.818066	-14.053954	-59.714601
49175		19.812915	-14.080482	-59.515201
49176		19.823227	-14.117052	-59.315699
49177		19.863776	-14.157012	-59.117808
49178		19.926788	-14.182234	-58.915033
49179		19.982761	-14.187322	-58.691896
49180		20.019908	-14.181126	-58.443770
49181		20.030909	-14.174059	-58.184103
49182		20.023217	-14.161550	-57.926420
49183		20.007314	-14.140721	-57.674752
49184		19.982575	-14.123649	-57.427422
49185		19.977549	-14.135142	-57.194779
49186		20.031872	-14.178037	-56.983416
49187		20.149486	-14.214784	-56.770289
49188		20.259542	-14.196467	-56.538435
49189		20.312775	-14.139361	-56.277958
49190		20.307688	-14.106170	-55.996581
49191		20.239045	-14.111275	-55.698922
49192		20.120209	-14.119106	-55.391248
49193		19.994235	-14.124068	-55.091204
49194		19.903299	-14.121098	-54.805557
49195		19.862242	-14.120463	-54.522237
49196		19.867831	-14.119316	-54.242700
49197		19.920171	-14.129320	-53.963725
49198		19.997849	-14.139365	-53.681196
49199		20.077504	-14.132857	-53.389784
49200		20.145602	-14.102777	-53.089634
49201		20.189046	-14.085325	-52.785398
49202		20.217576	-14.085280	-52.494427
49203		20.251474	-14.095645	-52.214840
49204		20.286308	-14.087455	-51.929376
49205		20.303927	-14.055437	-51.621775
49206		20.321890	-14.023930	-51.305874
49207		20.354221	-14.013604	-50.999133
49208		20.390386	-14.011010	-50.699331
49209		20.431637	-14.020615	-50.409700
49210		20.482983	-14.060892	-50.149970
49211		20.552934	-14.095463	-49.899964
49212		20.615883	-14.072854	-49.622463
49213		20.635709	-14.011019	-49.315502
49214		20.612210	-13.960072	-49.002572
49215		20.559715	-13.934176	-48.694233
49216		20.499282	-13.912805	-48.397602
49217		20.433047	-13.894060	-48.110684
49218		20.364924	-13.859301	-47.831284
49219		20.309164	-13.821157	-47.562838
49220		20.285764	-13.800720	-47.313915
49221		20.283663	-13.775341	-47.063604
49222		20.269699	-13.731733	-46.789114
49223		20.236539	-13.680492	-46.502320
49224		20.187209	-13.626797	-46.204313
49225		20.125094	-13.573722	-45.907771
49226		20.065937	-13.518381	-45.622436
49227		20.022982	-13.468161	-45.359478
49228		20.010875	-13.428757	-45.130762
49229		20.063640	-13.401294	-44.925524
49230		20.179505	-13.389610	-44.734357
49231		20.229750	-13.392451	-44.528186
49232		20.145100	-13.475183	-44.373376
49233		19.997603	-13.549431	-44.262150
49234		19.900144	-13.574812	-44.170777
49235		19.796759	-13.543463	-44.034957
49236		19.665887	-13.447932	-43.843229
49237		19.495813	-13.327119	-43.604851
49238		19.272105	-13.229322	-43.352434
49239		19.038005	-13.163751	-43.108419
49240		18.843647	-13.097498	-42.875611
49241		18.712893	-13.026269	-42.637809
49242		18.606875	-12.958693	-42.374495
49243		18.496698	-12.907935	-42.090382
49244		18.396186	-12.856797	-41.798237
49245		18.329140	-12.799055	-41.498787
49246		18.278838	-12.731478	-41.177981
49247		18.245599	-12.683330	-40.864407
49248		18.238465	-12.661515	-40.575009
49249		18.241748	-12.648306	-40.303485
49250		18.233385	-12.619455	-40.039822
49251		18.199611	-12.568836	-39.785781
49252		18.112905	-12.508580	-39.539550
49253		17.988873	-12.460917	-39.311534
49254		17.870149	-12.413418	-39.094673
49255		17.755034	-12.361141	-38.875940
49256		17.645415	-12.330335	-38.660338
49257		17.498917	-12.321518	-38.435840
49258		17.298066	-12.307401	-38.196982
49259		17.076864	-12.276053	-37.949880
49260		16.833523	-12.227327	-37.697102
49261		16.567578	-12.173274	-37.456587
49262		16.325955	-12.147864	-37.245477
49263		16.124214	-12.121787	-37.044253
49264		15.972107	-12.073262	-36.831460
49265		15.827105	-12.009537	-36.600639
49266		15.641037	-11.941023	-36.362602
49267		15.419006	-11.880012	-36.131985
49268		15.182712	-11.817218	-35.912714
49269		14.953299	-11.785295	-35.719142
49270		14.716323	-11.794511	-35.538858
49271		14.515664	-11.804571	-35.354871
49272		14.372101	-11.783972	-35.152522
49273		14.265685	-11.729786	-34.935094
49274		14.145128	-11.648116	-34.698650
49275		14.003326	-11.561710	-34.469913
49276		13.832576	-11.493089	-34.266683
49277		13.646007	-11.461372	-34.087243
49278		13.483411	-11.430129	-33.908104
49279		13.372895	-11.368785	-33.707119
49280		13.278312	-11.282069	-33.483044
49281		13.152469	-11.178182	-33.236975
49282		12.971894	-11.074193	-32.990916
49283		12.729887	-10.975891	-32.765512
49284		12.451510	-10.878538	-32.572882
49285		12.197802	-10.802826	-32.394626
49286		12.011830	-10.765627	-32.212875
49287		11.890416	-10.729762	-32.017195
49288		11.811738	-10.661627	-31.796828
49289		11.740524	-10.576963	-31.543943
49290		11.625980	-10.510640	-31.292831
49291		11.461103	-10.457917	-31.076579
49292		11.314498	-10.392580	-30.890807
49293		11.212273	-10.316196	-30.710385
49294		11.090143	-10.271037	-30.524243
49295		10.949448	-10.243954	-30.328457
49296		10.820718	-10.193529	-30.117882
49297		10.711943	-10.111353	-29.890394
49298		10.610628	-10.010620	-29.654033
49299		10.485772	-9.926057	-29.434272
49300		10.352732	-9.858894	-29.238214
49301		10.185412	-9.797345	-29.073612
49302		9.990753	-9.749119	-28.928547
49303		9.801895	-9.722159	-28.784522
49304		9.630963	-9.735328	-28.633504
49305		9.493220	-9.757491	-28.458317
49306		9.371034	-9.724110	-28.255674
49307		9.268022	-9.649523	-28.042722
49308		9.140247	-9.569171	-27.845400
49309		8.981142	-9.492022	-27.670741
49310		8.831576	-9.423250	-27.516553
49311		8.705443	-9.376686	-27.375982
49312		8.607715	-9.346758	-27.231651
49313		8.508453	-9.335311	-27.066323
49314		8.406814	-9.331296	-26.883147
49315		8.300553	-9.318171	-26.689800
49316		8.218977	-9.272113	-26.498842
49317		8.152406	-9.215764	-26.321079
49318		8.105189	-9.148072	-26.158106
49319		8.075223	-9.064871	-25.994227
49320		8.052518	-8.969432	-25.823914
49321		8.039172	-8.878825	-25.650688
49322		8.016061	-8.822349	-25.480342
49323		7.956970	-8.784322	-25.319076
49324		7.886792	-8.744141	-25.162545
49325		7.827899	-8.705264	-25.000882
49326		7.777211	-8.674970	-24.834746
49327		7.733622	-8.645210	-24.661625
49328		7.698209	-8.612795	-24.489769
49329		7.641629	-8.581401	-24.338473
49330		7.576732	-8.538125	-24.215356
49331		7.532903	-8.483735	-24.102165
49332		7.504032	-8.425088	-23.991969
49333		7.491019	-8.376503	-23.879895
49334		7.481582	-8.353656	-23.767024
49335		7.451406	-8.351988	-23.658179
49336		7.404450	-8.340427	-23.562884
49337		7.367266	-8.313217	-23.470340
49338		7.352766	-8.270316	-23.383351
49339		7.359117	-8.229447	-23.297982
49340		7.355080	-8.215048	-23.221556
49341		7.339443	-8.217739	-23.150827
49342		7.327735	-8.220124	-23.089093
49343		7.293621	-8.208888	-23.038875
49344		7.260758	-8.174436	-22.994992
49345		7.248155	-8.142785	-22.946232
49346		7.228693	-8.128685	-22.894812
49347		7.203997	-8.118050	-22.842851
49348		7.186794	-8.115570	-22.794175
49349		7.173812	-8.122314	-22.752036
49350		7.153064	-8.124652	-22.714488
49351		7.131460	-8.119119	-22.681146
49352		7.109961	-8.119491	-22.650010
49353		7.091219	-8.128393	-22.620593
49354		7.076848	-8.141787	-22.595887
49355		7.057764	-8.149594	-22.576436
49356		7.043798	-8.155817	-22.566587
49357		7.041324	-8.164647	-22.564018
49358		7.047815	-8.181556	-22.564418
49359		7.044316	-8.206689	-22.565919
49360		7.035486	-8.233479	-22.575357
49361		7.024615	-8.248094	-22.585443
49362		7.018290	-8.259619	-22.594903
49363		7.017875	-8.270631	-22.606568
49364		7.012968	-8.296160	-22.620888
49365		7.000182	-8.324241	-22.639469
49366		7.000238	-8.344827	-22.655836
49367		7.003537	-8.374600	-22.666888
49368		6.996045	-8.408012	-22.682221
49369		6.992013	-8.433827	-22.696172
49370		6.998582	-8.459063	-22.711042
49371		6.992480	-8.492606	-22.732372
49372		6.977963	-8.516955	-22.757697
49373		6.973760	-8.532554	-22.782808
49374		6.968342	-8.558238	-22.810943
49375		6.962902	-8.591929	-22.842610
49376		6.959750	-8.624327	-22.877411
49377		6.953233	-8.653179	-22.914190
49378		6.953681	-8.680707	-22.947491
49379		6.956171	-8.711820	-22.976196
49380		6.961317	-8.749930	-23.003867
49381		6.968585	-8.796081	-23.025950
49382		6.974103	-8.843246	-23.042588
49383		6.982845	-8.892002	-23.059193
49384		7.004444	-8.940293	-23.080231
49385		7.032710	-8.985696	-23.099947
49386		7.065335	-9.037807	-23.115753
49387		7.089893	-9.096946	-23.140507
49388		7.096505	-9.153515	-23.172023
49389		7.084322	-9.192063	-23.209047
49390		7.086908	-9.225781	-23.246547
49391		7.108818	-9.271473	-23.285513
49392		7.137007	-9.327096	-23.328130
49393		7.168324	-9.388393	-23.372725
49394		7.199969	-9.460029	-23.422465
49395		7.230526	-9.536983	-23.478076
49396		7.265927	-9.624214	-23.544328
49397		7.312500	-9.709362	-23.622453
49398		7.345806	-9.789296	-23.708240
49399		7.346725	-9.866138	-23.799765
49400		7.343782	-9.932235	-23.895900
49401		7.356769	-10.003562	-23.995976
49402		7.384278	-10.091358	-24.090051
49403		7.400137	-10.195382	-24.173260
49404		7.409686	-10.296575	-24.250881
49405		7.417051	-10.410718	-24.335043
49406		7.420475	-10.536878	-24.437207
49407		7.436664	-10.647331	-24.564514
49408		7.441189	-10.716485	-24.703990
49409		7.441331	-10.764252	-24.835330
49410		7.474285	-10.815914	-24.965699
49411		7.530869	-10.890805	-25.092356
49412		7.594951	-10.977468	-25.213889
49413		7.657789	-11.066542	-25.329634
49414		7.721521	-11.159255	-25.446454
49415		7.771076	-11.261731	-25.572226
49416		7.814776	-11.366203	-25.717149
49417		7.877570	-11.455190	-25.876751
49418		7.956312	-11.532602	-26.047467
49419		8.055038	-11.589997	-26.218410
49420		8.171342	-11.633427	-26.383705
49421		8.295481	-11.678973	-26.545435
49422		8.428079	-11.729979	-26.705467
49423		8.556913	-11.800376	-26.865410
49424		8.651538	-11.886652	-27.040396
49425		8.678284	-11.952635	-27.239484
49426		8.664147	-11.989025	-27.455008
49427		8.685055	-12.011194	-27.677965
49428		8.751049	-12.051637	-27.903361
49429		8.828460	-12.129278	-28.134904
49430		8.915177	-12.231635	-28.372002
49431		9.011964	-12.343440	-28.614680
49432		9.105370	-12.445106	-28.869282
49433		9.195075	-12.536011	-29.136633
49434		9.305020	-12.604289	-29.421689
49435		9.442282	-12.663017	-29.711228
49436		9.586117	-12.729069	-30.002249
49437		9.726562	-12.801745	-30.285334
49438		9.874812	-12.869528	-30.554041
49439		10.037975	-12.932033	-30.806711
49440		10.180540	-13.005593	-31.054298
49441		10.263840	-13.084741	-31.316807
49442		10.306352	-13.142770	-31.595318
49443		10.330433	-13.181821	-31.895759
49444		10.370871	-13.202534	-32.197855
49445		10.442662	-13.225895	-32.491794
49446		10.545915	-13.261500	-32.772042
49447		10.676153	-13.313730	-33.038956
49448		10.822649	-13.380134	-33.293304
49449		10.963359	-13.463141	-33.549399
49450		11.058644	-13.545545	-33.811781
49451		11.129648	-13.605465	-34.085142
49452		11.243586	-13.649491	-34.373429
49453		11.383079	-13.687046	-34.666011
49454		11.511507	-13.734030	-34.951991
49455		11.633947	-13.789348	-35.231264
49456		11.764388	-13.839024	-35.496684
49457		11.886560	-13.888280	-35.753315
49458		11.989713	-13.947862	-36.016728
49459		12.059022	-14.003427	-36.290574
49460		12.124735	-14.040881	-36.574236
49461		12.228150	-14.057230	-36.860768
49462		12.363867	-14.068528	-37.138787
49463		12.513490	-14.101995	-37.404394
49464		12.649393	-14.151264	-37.660968
49465		12.751820	-14.205312	-37.917558
49466		12.839153	-14.236788	-38.171569
49467		12.962152	-14.258239	-38.446816
49468		13.086180	-14.276331	-38.729125
49469		13.202654	-14.292409	-39.018872
49470		13.341701	-14.297937	-39.311708
49471		13.499587	-14.300830	-39.589172
49472		13.655468	-14.314494	-39.839371
49473		13.787820	-14.334738	-40.067188
49474		13.885354	-14.374651	-40.288059
49475		13.945158	-14.419725	-40.516202
49476		14.039826	-14.446908	-40.768251
49477		14.182639	-14.451306	-41.026839
49478		14.314755	-14.447727	-41.280644
49479		14.468791	-14.461131	-41.540524
49480		14.671872	-14.481005	-41.797787
49481		14.871078	-14.492269	-42.034623
49482		15.040403	-14.497056	-42.253569
49483		15.142479	-14.519449	-42.463489
49484		15.164028	-14.556223	-42.678222
49485		15.247394	-14.590765	-42.939035
49486		15.393476	-14.593351	-43.222395
49487		15.508341	-14.579232	-43.491242
49488		15.617592	-14.589187	-43.757031
49489		15.761236	-14.630107	-44.027521
49490		15.912553	-14.662286	-44.294299
49491		16.066242	-14.670026	-44.550849
49492		16.215885	-14.664401	-44.802453
49493		16.346515	-14.656871	-45.050262
49494		16.434833	-14.652928	-45.299996
49495		16.512304	-14.662563	-45.564045
49496		16.614939	-14.671294	-45.848072
49497		16.720770	-14.656947	-46.123803
49498		16.832648	-14.627416	-46.382013
49499		16.934997	-14.608660	-46.633208
49500		17.055187	-14.601660	-46.875729
49501		17.172848	-14.591509	-47.096633
49502		17.269383	-14.572613	-47.312169
49503		17.379502	-14.542921	-47.531714
49504		17.487161	-14.490231	-47.748949
49505		17.560990	-14.425166	-47.960378
49506		17.632260	-14.375603	-48.181777
49507		17.754137	-14.356656	-48.431650
49508		17.896531	-14.349357	-48.687884
49509		18.083351	-14.327453	-48.938339
49510		18.317006	-14.280951	-49.175965
49511		18.529209	-14.229570	-49.395951
49512		18.700854	-14.198325	-49.610341
49513		18.829713	-14.186097	-49.825401
49514		18.946865	-14.177396	-50.065830
49515		19.102653	-14.164182	-50.337358
49516		19.278008	-14.136637	-50.612135
49517		19.438202	-14.099220	-50.871023
49518		19.569300	-14.050526	-51.106982
49519		19.654100	-14.007637	-51.316764
49520		19.666363	-13.987502	-51.503846
49521		19.601747	-13.998228	-51.689937
49522		19.523927	-13.992871	-51.886491
49523		19.489381	-13.972085	-52.094609
49524		19.471894	-13.934897	-52.306723
49525		19.456519	-13.913058	-52.512797
49526		19.442602	-13.923653	-52.717449
49527		19.428274	-13.956985	-52.920335
49528		19.404957	-13.984858	-53.119287
49529		19.388973	-13.990566	-53.342185
49530		19.422981	-13.977062	-53.577001
49531		19.501320	-13.964452	-53.813560
49532		19.568617	-13.953791	-54.045001
49533		19.641480	-13.960225	-54.258436
49534		19.709973	-13.979631	-54.455048
49535		19.786101	-14.017904	-54.650593
49536		19.886568	-14.094802	-54.857344
49537		19.992422	-14.201029	-55.079098
49538		20.133768	-14.314375	-55.313131
49539		20.312218	-14.395463	-55.546006
49540		20.500952	-14.439692	-55.752934
49541		20.651021	-14.484315	-55.944048
49542		20.760328	-14.538243	-56.129604
49543		20.835713	-14.586692	-56.314697
49544		20.882866	-14.624004	-56.511288
49545		20.905898	-14.648088	-56.730650
49546		20.925419	-14.654077	-56.966163
49547		20.958429	-14.646932	-57.207172
49548		20.986530	-14.627786	-57.449569
49549		20.993777	-14.613543	-57.692230
49550		20.958725	-14.607752	-57.930980
49551		20.837433	-14.592655	-58.158418
49552		20.687743	-14.563163	-58.386152
49553		20.553713	-14.509264	-58.619848
49554		20.423070	-14.415878	-58.837315
49555		20.313120	-14.287918	-59.049246
49556		20.210124	-14.148861	-59.244990
49557		20.112444	-14.045163	-59.427544
49558		20.054563	-13.986312	-59.612185
49559		20.057646	-13.950797	-59.808074
49560		20.074140	-13.910231	-59.996696
49561		20.052138	-13.862629	-60.175725
49562		20.002919	-13.801876	-60.355262
49563		19.932473	-13.716830	-60.520357
49564		19.871246	-13.633721	-60.677452
49565		19.858800	-13.568706	-60.839410
49566		19.899512	-13.518340	-60.999659
49567		19.979851	-13.464614	-61.148120
49568		20.032909	-13.396951	-61.278630
49569		20.019425	-13.331564	-61.409068
49570		19.979320	-13.283732	-61.551546
49571		19.929599	-13.245271	-61.707018
49572		19.873465	-13.198407	-61.867588
49573		19.852678	-13.158025	-62.030020
49574		19.884725	-13.125167	-62.185441
49575		19.928061	-13.087044	-62.326294
49576		19.955055	-13.059893	-62.457752
49577		19.979939	-13.045569	-62.590000
49578		19.985987	-13.026616	-62.715954
49579		19.955105	-12.992673	-62.839928
49580		19.948991	-12.961171	-62.974268
49581		19.972703	-12.941350	-63.111901
49582		20.001944	-12.934397	-63.248418
49583		20.033085	-12.938267	-63.376047
49584		20.070341	-12.948378	-63.500367
49585		20.105117	-12.953646	-63.604372
49586		20.118751	-12.954123	-63.697352
49587		20.082986	-12.936933	-63.774546
49588		20.031573	-12.929190	-63.851831
49589		20.015523	-12.942641	-63.932352
49590		20.022286	-12.956144	-64.011851
49591		20.037130	-12.966151	-64.084963
49592		20.057461	-12.987835	-64.152524
49593		20.070089	-13.026585	-64.222185
49594		20.085319	-13.074071	-64.293389
49595		20.109326	-13.115870	-64.356103
49596		20.127360	-13.169565	-64.422476
49597		20.165482	-13.248713	-64.494143
49598		20.223432	-13.346261	-64.560545
49599		20.251720	-13.442714	-64.610180
49600		20.295201	-13.539125	-64.657200
49601		20.427521	-13.651570	-64.726367
49602		20.617596	-13.769376	-64.830444
49603		20.823546	-13.893309	-64.956628
49604		21.008160	-14.019366	-65.086220
49605		21.178002	-14.129260	-65.202246
49606		21.320152	-14.202312	-65.292405
49607		21.402762	-14.238739	-65.351278
49608		21.424583	-14.268965	-65.396632
49609		21.423989	-14.311136	-65.454131
49610		21.429261	-14.334824	-65.516165
49611		21.440826	-14.329479	-65.568589
49612		21.459880	-14.300080	-65.609979
49613		21.468811	-14.254483	-65.640957
49614		21.477764	-14.212351	-65.674625
49615		21.472636	-14.184187	-65.720554
49616		21.447650	-14.164589	-65.777633
49617		21.404145	-14.143350	-65.834246
49618		21.376901	-14.125186	-65.892135
49619		21.394120	-14.111981	-65.950007
49620		21.422184	-14.085381	-65.992755
49621		21.455399	-14.053114	-66.027572
49622		21.506845	-14.044038	-66.065590
49623		21.528581	-14.049275	-66.103997
49624		21.549558	-14.062060	-66.152570
49625		21.578728	-14.071513	-66.208213
49626		21.609733	-14.078693	-66.262483
49627		21.644936	-14.081167	-66.310308
49628		21.660215	-14.087007	-66.346034
49629		21.666167	-14.095660	-66.369312
49630		21.661147	-14.097360	-66.381356
49631		21.642363	-14.102903	-66.392286
49632		21.621766	-14.114162	-66.405850
49633		21.599275	-14.127634	-66.431596
49634		21.604256	-14.141008	-66.467684
49635		21.651454	-14.156750	-66.512930
49636		21.692522	-14.159968	-66.550870
49637		21.708373	-14.162529	-66.574844
49638		21.718739	-14.168185	-66.591689
49639		21.700473	-14.174569	-66.606322
49640		21.685452	-14.188064	-66.629481
49641		21.661653	-14.205333	-66.650082
49642		21.626096	-14.220134	-66.668693
49643		21.604390	-14.234716	-66.688206
49644		21.595138	-14.249789	-66.713352
49645		21.609866	-14.263413	-66.738917
49646		21.633560	-14.275602	-66.760955
49647		21.654764	-14.286354	-66.776952
49648		21.652853	-14.300987	-66.793568
49649		21.649989	-14.317774	-66.808317
49650		21.638881	-14.331148	-66.815896
49651		21.625195	-14.342923	-66.819676
49652		21.636372	-14.353535	-66.823008
49653		21.655804	-14.357137	-66.819086
49654		21.662206	-14.355415	-66.809601
49655		21.660933	-14.361396	-66.798824
49656		21.657780	-14.368843	-66.790077
49657		21.645221	-14.366510	-66.778422
49658		21.635275	-14.368890	-66.770396
49659		21.631288	-14.360766	-66.755716
49660		21.617842	-14.337768	-66.729670
49661		21.597831	-14.326357	-66.697294
49662		21.575647	-14.341621	-66.667679
49663		21.547994	-14.367766	-66.641484
49664		21.523489	-14.390827	-66.622799
49665		21.508103	-14.407785	-66.609185
49666		21.497696	-14.419908	-66.597275
49667		21.492482	-14.428315	-66.584177
49668		21.490545	-14.430391	-66.565286
49669		21.486469	-14.424663	-66.536746
49670		21.472013	-14.418526	-66.498487
49671		21.469049	-14.422066	-66.457101
49672		21.465824	-14.429512	-66.407901
49673		21.443824	-14.437916	-66.349064
49674		21.416204	-14.453424	-66.287484
49675		21.391898	-14.474437	-66.228947
49676		21.378074	-14.493358	-66.178809
49677		21.368759	-14.498134	-66.127955
49678		21.357548	-14.490792	-66.073234
49679		21.335135	-14.485123	-66.009109
49680		21.303873	-14.485295	-65.935079
49681		21.272925	-14.499281	-65.851908
49682		21.247930	-14.542978	-65.768373
49683		21.213690	-14.585522	-65.685798
49684		21.173296	-14.617284	-65.605796
49685		21.144323	-14.638111	-65.525943
49686		21.123973	-14.646649	-65.446460
49687		21.092805	-14.644727	-65.358300
49688		21.063167	-14.654634	-65.267778
49689		21.051493	-14.680574	-65.188927
49690		21.051471	-14.704425	-65.107663
49691		21.073983	-14.722935	-65.023735
49692		21.094386	-14.740213	-64.932896
49693		21.084867	-14.754734	-64.828832
49694		21.067036	-14.768440	-64.723496
49695		21.060437	-14.785994	-64.620835
49696		21.056303	-14.800719	-64.517329
49697		21.046631	-14.808095	-64.400359
49698		21.028090	-14.809380	-64.280641
49699		21.023641	-14.820093	-64.163776
49700		21.051667	-14.833997	-64.056457
49701		21.088899	-14.847097	-63.955412
49702		21.152552	-14.857603	-63.858805
49703		21.240853	-14.861155	-63.765238
49704		21.331765	-14.856272	-63.668216
49705		21.416551	-14.846229	-63.568591
49706		21.491284	-14.847320	-63.457987
49707		21.563425	-14.853362	-63.341807
49708		21.618819	-14.835432	-63.211562
49709		21.635304	-14.792735	-63.057984
49710		21.622145	-14.747574	-62.891611
49711		21.596832	-14.712199	-62.723003
49712		21.572033	-14.679420	-62.553307
49713		21.551160	-14.650180	-62.386026
49714		21.551893	-14.627395	-62.222234
49715		21.578099	-14.606968	-62.056016
49716		21.648879	-14.591077	-61.896621
49717		21.734710	-14.556495	-61.732870
49718		21.808162	-14.513592	-61.560699
49719		21.867349	-14.488627	-61.379578
49720		21.908514	-14.466014	-61.182070
49721		21.950171	-14.436845	-60.988871
49722		22.002941	-14.413605	-60.804733
49723		22.074348	-14.426508	-60.649843
49724		22.175518	-14.455834	-60.515325
49725		22.309246	-14.466697	-60.375532
49726		22.461176	-14.436677	-60.221022
49727		22.604136	-14.382198	-60.048239
49728		22.706763	-14.329727	-59.859695
49729		22.763825	-14.287141	-59.651226
49730		22.799464	-14.237231	-59.431301
49731		22.826921	-14.178678	-59.208898
49732		22.867551	-14.121469	-59.000687
49733		22.918177	-14.072171	-58.804093
49734		22.992273	-14.044368	-58.621706
49735		23.088733	-14.028449	-58.442956
49736		23.201358	-13.975150	-58.236068
49737		23.307996	-13.895994	-58.000250
49738		23.403239	-13.823855	-57.755377
49739		23.484970	-13.776103	-57.525585
49740		23.554373	-13.742977	-57.306918
49741		23.617359	-13.706520	-57.095900
49742		23.680945	-13.670493	-56.894796
49743		23.751375	-13.634759	-56.696294
49744		23.812218	-13.583556	-56.475411
49745		23.842433	-13.521750	-56.229836
49746		23.856024	-13.450311	-55.965065
49747		23.858373	-13.384213	-55.690710
49748		23.837456	-13.325067	-55.413922
49749		23.810451	-13.264281	-55.146667
49750		23.804688	-13.203226	-54.891859
49751		23.824914	-13.139675	-54.647920
49752		23.862667	-13.066193	-54.395347
49753		23.903867	-12.998657	-54.138515
49754		23.948530	-12.927847	-53.880546
49755		23.982673	-12.840816	-53.614065
49756		23.989054	-12.757074	-53.340644
49757		23.974811	-12.695722	-53.071363
49758		23.932648	-12.627514	-52.792052
49759		23.863902	-12.531732	-52.488835
49760		23.798574	-12.414421	-52.177145
49761		23.756737	-12.304245	-51.873656
49762		23.736856	-12.224746	-51.582834
49763		23.736835	-12.178755	-51.307366
49764		23.741117	-12.156452	-51.036601
49765		23.753752	-12.147125	-50.768622
49766		23.773305	-12.132822	-50.497700
49767		23.780719	-12.094740	-50.216748
49768		23.771112	-12.060219	-49.937705
49769		23.737410	-12.045785	-49.677491
49770		23.682769	-12.042526	-49.426389
49771		23.616671	-12.039007	-49.181869
49772		23.539064	-12.030220	-48.935848
49773		23.464299	-12.031424	-48.695896
49774		23.392279	-12.051096	-48.457910
49775		23.300278	-12.090936	-48.215466
49776		23.200607	-12.137940	-47.957127
49777		23.108842	-12.160637	-47.676681
49778		23.018241	-12.159576	-47.379226
49779		22.939472	-12.155351	-47.094147
49780		22.905452	-12.151810	-46.845307
49781		22.710536	-12.173336	-46.614958
49782		22.450941	-12.265068	-46.502729
49783		22.209525	-12.288396	-46.425662
49784		22.042092	-12.249064	-46.312979
49785		21.860073	-12.163059	-46.128155
49786		21.674471	-12.060056	-45.888273
49787		21.457144	-11.992880	-45.631888
49788		21.206378	-11.982906	-45.389107
49789		20.937473	-11.990896	-45.155720
49790		20.688977	-11.971187	-44.923905
49791		20.489222	-11.937868	-44.689447
49792		20.312294	-11.912706	-44.437745
49793		20.144695	-11.895476	-44.170958
49794		19.985365	-11.893496	-43.896046
49795		19.829011	-11.899444	-43.601777
49796		19.701002	-11.911944	-43.286460
49797		19.606956	-11.922062	-42.959635
49798		19.523947	-11.922429	-42.637026
49799		19.443195	-11.900671	-42.328274
49800		19.350114	-11.858699	-42.038890
49801		19.253466	-11.804654	-41.768088
49802		19.176296	-11.753023	-41.501331
49803		19.098661	-11.706981	-41.235808
49804		18.990044	-11.662617	-40.966756
49805		18.854743	-11.610339	-40.695866
49806		18.705411	-11.548096	-40.424416
49807		18.514476	-11.486341	-40.143899
49808		18.285405	-11.445346	-39.864450
49809		18.036763	-11.420326	-39.589248
49810		17.783192	-11.373905	-39.313093
49811		17.531251	-11.307284	-39.036989
49812		17.291625	-11.242245	-38.771419
49813		17.042840	-11.199837	-38.520723
49814		16.775115	-11.173437	-38.271327
49815		16.526625	-11.163278	-38.021013
49816		16.316803	-11.159632	-37.763065
49817		16.127770	-11.154349	-37.502258
49818		15.949381	-11.132640	-37.239658
49819		15.769655	-11.094980	-36.973748
49820		15.591805	-11.050703	-36.707129
49821		15.421510	-11.031575	-36.451767
49822		15.268696	-11.003534	-36.189937
49823		15.138485	-10.940577	-35.915541
49824		14.990277	-10.840079	-35.634929
49825		14.803022	-10.719208	-35.352484
49826		14.603985	-10.594075	-35.069056
49827		14.381081	-10.504471	-34.799979
49828		14.181442	-10.472240	-34.548298
49829		14.022549	-10.485924	-34.296415
49830		13.883337	-10.489994	-34.025525
49831		13.768553	-10.474507	-33.736578
49832		13.643827	-10.416525	-33.423630
49833		13.489504	-10.333701	-33.104995
49834		13.267011	-10.258321	-32.814652
49835		13.003537	-10.178434	-32.554329
49836		12.782129	-10.087440	-32.310768
49837		12.656258	-10.024313	-32.064045
49838		12.572967	-10.031137	-31.800415
49839		12.484813	-10.048496	-31.513696
49840		12.392679	-10.044060	-31.211302
49841		12.287912	-10.008086	-30.909057
49842		12.147269	-9.937752	-30.624001
49843		11.983106	-9.846564	-30.365237
49844		11.825694	-9.748265	-30.124396
49845		11.697103	-9.680646	-29.895998
49846		11.571190	-9.671996	-29.662952
49847		11.433605	-9.675308	-29.417869
49848		11.299093	-9.661164	-29.163282
49849		11.161776	-9.620866	-28.900916
49850		11.011982	-9.570133	-28.643991
49851		10.871127	-9.529666	-28.397320
49852		10.756240	-9.521142	-28.172725
49853		10.664389	-9.529954	-27.954368
49854		10.595674	-9.507128	-27.727283
49855		10.528802	-9.452751	-27.491782
49856		10.459679	-9.393361	-27.251645
49857		10.361060	-9.343935	-27.012294
49858		10.242400	-9.305659	-26.783995
49859		10.129682	-9.271490	-26.567113
49860		10.036474	-9.255941	-26.365931
49861		9.958751	-9.253466	-26.180570
49862		9.898379	-9.246289	-25.996906
49863		9.849452	-9.241912	-25.803746
49864		9.797417	-9.222173	-25.603017
49865		9.723753	-9.188845	-25.404642
49866		9.636516	-9.154172	-25.213930
49867		9.553824	-9.131529	-25.037509
49868		9.470341	-9.116306	-24.876197
49869		9.405532	-9.097160	-24.716325
49870		9.362933	-9.075671	-24.548353
49871		9.339874	-9.063194	-24.371369
49872		9.313090	-9.062704	-24.191191
49873		9.263540	-9.059114	-24.017844
49874		9.194944	-9.046626	-23.850834
49875		9.112710	-9.037583	-23.694783
49876		9.045217	-9.038979	-23.554177
49877		9.006373	-9.037627	-23.426189
49878		8.990058	-9.028916	-23.289688
49879		8.974489	-9.036338	-23.142437
49880		8.943447	-9.059374	-22.993375
49881		8.917014	-9.090281	-22.845507
49882		8.887578	-9.126423	-22.702917
49883		8.833399	-9.173750	-22.567174
49884		8.754801	-9.217223	-22.444448
49885		8.681489	-9.249119	-22.333975
49886		8.618364	-9.278927	-22.239900
49887		8.565592	-9.295319	-22.160657
49888		8.526742	-9.305234	-22.093650
49889		8.508796	-9.315411	-22.042971
49890		8.508822	-9.317234	-22.001667
49891		8.519696	-9.312610	-21.963274
49892		8.531103	-9.312131	-21.923682
49893		8.526631	-9.323167	-21.887459
49894		8.521457	-9.331570	-21.853498
49895		8.538296	-9.337038	-21.821403
49896		8.553863	-9.352306	-21.790068
49897		8.561696	-9.371118	-21.762311
49898		8.573823	-9.386175	-21.736533
49899		8.580678	-9.407674	-21.712922
49900		8.562269	-9.428026	-21.696881
49901		8.530874	-9.440258	-21.691249
49902		8.517659	-9.450571	-21.693514
49903		8.513208	-9.464686	-21.699544
49904		8.510824	-9.479620	-21.703890
49905		8.506545	-9.495750	-21.709279
49906		8.496264	-9.518376	-21.726424
49907		8.475549	-9.539688	-21.750290
49908		8.461229	-9.559857	-21.779448
49909		8.459700	-9.577936	-21.811742
49910		8.469794	-9.597840	-21.844669
49911		8.478691	-9.613847	-21.878257
49912		8.481736	-9.631042	-21.912291
49913		8.472790	-9.639381	-21.946242
49914		8.470010	-9.646725	-21.974988
49915		8.476273	-9.657192	-21.999648
49916		8.476011	-9.674077	-22.020288
49917		8.468400	-9.691055	-22.042694
49918		8.455291	-9.707544	-22.064586
49919		8.449517	-9.724442	-22.083166
49920		8.438619	-9.747182	-22.101987
49921		8.432979	-9.777646	-22.123560
49922		8.426457	-9.808006	-22.145479
49923		8.419988	-9.834483	-22.166791
49924		8.409335	-9.867033	-22.190825
49925		8.395812	-9.901800	-22.220720
49926		8.385164	-9.922486	-22.251656
49927		8.380887	-9.934577	-22.285535
49928		8.376558	-9.952807	-22.321839
49929		8.376961	-9.978668	-22.359372
49930		8.363469	-9.998676	-22.404008
49931		8.343093	-10.021440	-22.452362
49932		8.331106	-10.042757	-22.506156
49933		8.327081	-10.058696	-22.561849
49934		8.331096	-10.071824	-22.619148
49935		8.348474	-10.083215	-22.676409
49936		8.366177	-10.098461	-22.735634
49937		8.372973	-10.118983	-22.798604
49938		8.384991	-10.142353	-22.860203
49939		8.407460	-10.166739	-22.930610
49940		8.414465	-10.192131	-23.007885
49941		8.408765	-10.205875	-23.090065
49942		8.420841	-10.206410	-23.169373
49943		8.447736	-10.219626	-23.239423
49944		8.472187	-10.261331	-23.301215
49945		8.491542	-10.314876	-23.362241
49946		8.508194	-10.362591	-23.427472
49947		8.532837	-10.413291	-23.498212
49948		8.572117	-10.453144	-23.575583
49949		8.625057	-10.481020	-23.650845
49950		8.674671	-10.501523	-23.725625
49951		8.708733	-10.533590	-23.801770
49952		8.739776	-10.574467	-23.878417
49953		8.772361	-10.620071	-23.958904
49954		8.786041	-10.659207	-24.046939
49955		8.808414	-10.679651	-24.146098
49956		8.853343	-10.690629	-24.250021
49957		8.900736	-10.715678	-24.367483
49958		8.953828	-10.752737	-24.495113
49959		9.022528	-10.784928	-24.623262
49960		9.102821	-10.819485	-24.755147
49961		9.173748	-10.857292	-24.900851
49962		9.220348	-10.885600	-25.058372
49963		9.276356	-10.900190	-25.221320
49964		9.363548	-10.914826	-25.385599
49965		9.462952	-10.943209	-25.553116
49966		9.554308	-10.979696	-25.726209
49967		9.643797	-11.015520	-25.905939
49968		9.738773	-11.052825	-26.086288
49969		9.836956	-11.089098	-26.255495
49970		9.934521	-11.131436	-26.413497
49971		10.019821	-11.181674	-26.566224
49972		10.084209	-11.234977	-26.726949
49973		10.112086	-11.270841	-26.898193
49974		10.104422	-11.278839	-27.085394
49975		10.117368	-11.270216	-27.280211
49976		10.183511	-11.274034	-27.478022
49977		10.267517	-11.312913	-27.680130
49978		10.357370	-11.361003	-27.879738
49979		10.460497	-11.408977	-28.079904
49980		10.577421	-11.454690	-28.283604
49981		10.695156	-11.505808	-28.488642
49982		10.807258	-11.561410	-28.698381
49983		10.911774	-11.610769	-28.917817
49984		11.009085	-11.657881	-29.147433
49985		11.104601	-11.703312	-29.379873
49986		11.207012	-11.743296	-29.608003
49987		11.319771	-11.781394	-29.827362
49988		11.431821	-11.832361	-30.041326
49989		11.549141	-11.883424	-30.256923
49990		11.663422	-11.927519	-30.483286
49991		11.773474	-11.966539	-30.717503
49992		11.870918	-12.010523	-30.958008
49993		11.955026	-12.049898	-31.200078
49994		12.042538	-12.079402	-31.444095
49995		12.129362	-12.107465	-31.693939
49996		12.208036	-12.148020	-31.946161
49997		12.291097	-12.200058	-32.205143
49998		12.407137	-12.251107	-32.466692
49999		12.555771	-12.298697	-32.722993
50000		12.712229	-12.350185	-32.976462
50001		12.865138	-12.417991	-33.229097
50002		13.000857	-12.500149	-33.488891
50003		13.100186	-12.573786	-33.745293
50004		13.185941	-12.636925	-34.010258
50005		13.278904	-12.697270	-34.287173
50006		13.367405	-12.754191	-34.570353
50007		13.477738	-12.814965	-34.853953
50008		13.613030	-12.871780	-35.136278
50009		13.741882	-12.943369	-35.419053
50010		13.843511	-13.032124	-35.704018
50011		13.927388	-13.122763	-36.004599
50012		14.020106	-13.198908	-36.321344
50013		14.141205	-13.254303	-36.643143
50014		14.291775	-13.307666	-36.962023
50015		14.458504	-13.384533	-37.266353
50016		14.624136	-13.478621	-37.553587
50017		14.768358	-13.579539	-37.827512
50018		14.862042	-13.675392	-38.104540
50019		14.919410	-13.749651	-38.392173
50020		15.014874	-13.812963	-38.706152
50021		15.148312	-13.865331	-39.033409
50022		15.301953	-13.914992	-39.356546
50023		15.467375	-13.979240	-39.668162
50024		15.634094	-14.055769	-39.974137
50025		15.793422	-14.140605	-40.280348
50026		15.937387	-14.217331	-40.588845
50027		16.072668	-14.280510	-40.898295
50028		16.216915	-14.337229	-41.220087
50029		16.363278	-14.395658	-41.549565
50030		16.492906	-14.445379	-41.875851
50031		16.631497	-14.486124	-42.193868
50032		16.788857	-14.515448	-42.497007
50033		16.944813	-14.540038	-42.779440
50034		17.085411	-14.573836	-43.052142
50035		17.211421	-14.611456	-43.321051
50036		17.315082	-14.645670	-43.588854
50037		17.377960	-14.673368	-43.856862
50038		17.452609	-14.687158	-44.137297
50039		17.560658	-14.696389	-44.429091
50040		17.682928	-14.696605	-44.723310
50041		17.822812	-14.698823	-45.012302
50042		17.939856	-14.715959	-45.292685
50043		18.030573	-14.738055	-45.565300
50044		18.126636	-14.761030	-45.843104
50045		18.202231	-14.775065	-46.121719
50046		18.298952	-14.770974	-46.411393
50047		18.452362	-14.738419	-46.711421
50048		18.628795	-14.695256	-47.003009
50049		18.785226	-14.660942	-47.281384
50050		18.909768	-14.639773	-47.545720
50051		18.996986	-14.611154	-47.797687
50052		19.066190	-14.569346	-48.046964
50053		19.157898	-14.516164	-48.298487
50054		19.278204	-14.455363	-48.552758
50055		19.414009	-14.386311	-48.798242
50056		19.534614	-14.333034	-49.029170
50057		19.629565	-14.288346	-49.255201
50058		19.709868	-14.245530	-49.482147
50059		19.766107	-14.206862	-49.705748
50060		19.831064	-14.174379	-49.945087
50061		19.935859	-14.138145	-50.201313
50062		20.055120	-14.091903	-50.466374
50063		20.193028	-14.048498	-50.740128
50064		20.331305	-14.010501	-51.009617
50065		20.431356	-13.983919	-51.267535
50066		20.519296	-13.967276	-51.548125
50067		20.595566	-13.939245	-51.839278
50068		20.631164	-13.890539	-52.120800
50069		20.665512	-13.838514	-52.411996
50070		20.705832	-13.785028	-52.703792
50071		20.722900	-13.727630	-52.978871
50072		20.734890	-13.674117	-53.240711
50073		20.737431	-13.630347	-53.490514
50074		20.724533	-13.581823	-53.731185
50075		20.690376	-13.552002	-53.981576
50076		20.670664	-13.522533	-54.252029
50077		20.722659	-13.477135	-54.528217
50078		20.833069	-13.433211	-54.805857
50079		20.963955	-13.393534	-55.068724
50080		21.079047	-13.376325	-55.307845
50081		21.159710	-13.374045	-55.524424
50082		21.231928	-13.374733	-55.722666
50083		21.319179	-13.356827	-55.912315
50084		21.432477	-13.327538	-56.108392
50085		21.561846	-13.292021	-56.312937
50086		21.697925	-13.255175	-56.513821
50087		21.825882	-13.211168	-56.693771
50088		21.936834	-13.156977	-56.853266
50089		21.998700	-13.097044	-56.980225
50090		21.998714	-13.046387	-57.105693
50091		21.981586	-13.003378	-57.238482
50092		21.996041	-12.965513	-57.388786
50093		22.054030	-12.927002	-57.559144
50094		22.136631	-12.879644	-57.735520
50095		22.222277	-12.838456	-57.907435
50096		22.302615	-12.815622	-58.070841
50097		22.365567	-12.788830	-58.214291
50098		22.394267	-12.737738	-58.337762
50099		22.404439	-12.684298	-58.465868
50100		22.416451	-12.639639	-58.606911
50101		22.437415	-12.604735	-58.767740
50102		22.453572	-12.560413	-58.936020
50103		22.459890	-12.509658	-59.097464
50104		22.468163	-12.466273	-59.244931
50105		22.485006	-12.429215	-59.387136
50106		22.514361	-12.378523	-59.523493
50107		22.532594	-12.312642	-59.639732
50108		22.523709	-12.247795	-59.747222
50109		22.477375	-12.195101	-59.858131
50110		22.403747	-12.141314	-59.969886
50111		22.329794	-12.077088	-60.078584
50112		22.278533	-12.029223	-60.201784
50113		22.263740	-11.996891	-60.344909
50114		22.286557	-11.979815	-60.490024
50115		22.316440	-11.962068	-60.623179
50116		22.321921	-11.937882	-60.734671
50117		22.309691	-11.909205	-60.836962
50118		22.300465	-11.880847	-60.942509
50119		22.276833	-11.860253	-61.047989
50120		22.245148	-11.848658	-61.152402
50121		22.183171	-11.824957	-61.234262
50122		22.107524	-11.798616	-61.301699
50123		22.058776	-11.790644	-61.374841
50124		22.030179	-11.800695	-61.452932
50125		22.010864	-11.810788	-61.535440
50126		22.000277	-11.808524	-61.609207
50127		21.973035	-11.796118	-61.674980
50128		21.903492	-11.785697	-61.734671
50129		21.813151	-11.777169	-61.794721
50130		21.747205	-11.779858	-61.864146
50131		21.734795	-11.783878	-61.939220
50132		21.757796	-11.773462	-62.006523
50133		21.767602	-11.753620	-62.066289
50134		21.743759	-11.748514	-62.121279
50135		21.699974	-11.750349	-62.176375
50136		21.648752	-11.744593	-62.232294
50137		21.615913	-11.742811	-62.295460
50138		21.608003	-11.741557	-62.355184
50139		21.601547	-11.737559	-62.407228
50140		21.583957	-11.735256	-62.452049
50141		21.559835	-11.734434	-62.494147
50142		21.519115	-11.733165	-62.536440
50143		21.479504	-11.738200	-62.584823
50144		21.466887	-11.742924	-62.644268
50145		21.473302	-11.744053	-62.705313
50146		21.500967	-11.741276	-62.759688
50147		21.547924	-11.735154	-62.804083
50148		21.565343	-11.735979	-62.838402
50149		21.529767	-11.750370	-62.872952
50150		21.479596	-11.755614	-62.914464
50151		21.412800	-11.749343	-62.959607
50152		21.340862	-11.738429	-63.005348
50153		21.295129	-11.733461	-63.050142
50154		21.250743	-11.729785	-63.087977
50155		21.222052	-11.724443	-63.125746
50156		21.221744	-11.722155	-63.170753
50157		21.218193	-11.726344	-63.221438
50158		21.236769	-11.726724	-63.278413
50159		21.256777	-11.720982	-63.333150
50160		21.254158	-11.723618	-63.387444
50161		21.247056	-11.732204	-63.444634
50162		21.235146	-11.730928	-63.502538
50163		21.210958	-11.740415	-63.563050
50164		21.209368	-11.763703	-63.628018
50165		21.220525	-11.789646	-63.690658
50166		21.236783	-11.810199	-63.746105
50167		21.247379	-11.824103	-63.793463
50168		21.230181	-11.829487	-63.834161
50169		21.215173	-11.837662	-63.873656
50170		21.206820	-11.837962	-63.913596
50171		21.181993	-11.821811	-63.945382
50172		21.179532	-11.811116	-63.981784
50173		21.186078	-11.797819	-64.018409
50174		21.169422	-11.772061	-64.045355
50175		21.138654	-11.745639	-64.075089
50176		21.112900	-11.726667	-64.111922
50177		21.117517	-11.721628	-64.164990
50178		21.157938	-11.723126	-64.228831
50179		21.219027	-11.708690	-64.290783
50180		21.290623	-11.675786	-64.335657
50181		21.318201	-11.636081	-64.358563
50182		21.302791	-11.597377	-64.366949
50183		21.278161	-11.562037	-64.378778
50184		21.252459	-11.534647	-64.391764
50185		21.225622	-11.525903	-64.398165
50186		21.196110	-11.538253	-64.396655
50187		21.157885	-11.553952	-64.390580
50188		21.132686	-11.568325	-64.387370
50189		21.143508	-11.581597	-64.390654
50190		21.169057	-11.580760	-64.388012
50191		21.170289	-11.569262	-64.376896
50192		21.177129	-11.566026	-64.372631
50193		21.185714	-11.566418	-64.374252
50194		21.187557	-11.571581	-64.378103
50195		21.201814	-11.579665	-64.390147
50196		21.246863	-11.577653	-64.402987
50197		21.276475	-11.554113	-64.400655
50198		21.272516	-11.523885	-64.385873
50199		21.258855	-11.501027	-64.368045
50200		21.243644	-11.479656	-64.353841
50201		21.219680	-11.455449	-64.339148
50202		21.200099	-11.431768	-64.332788
50203		21.188101	-11.418247	-64.338592
50204		21.187370	-11.406022	-64.350036
50205		21.196759	-11.393353	-64.356914
50206		21.211937	-11.370498	-64.353797
50207		21.223122	-11.343551	-64.342020
50208		21.226756	-11.333951	-64.325206
50209		21.225082	-11.335955	-64.312348
50210		21.224759	-11.330821	-64.302058
50211		21.227699	-11.331636	-64.296946
50212		21.232755	-11.341079	-64.292773
50213		21.247441	-11.347347	-64.285195
50214		21.256230	-11.334565	-64.269803
50215		21.247052	-11.320356	-64.247303
50216		21.246201	-11.314237	-64.225198
50217		21.238257	-11.312304	-64.201575
50218		21.232568	-11.313772	-64.180532
50219		21.235254	-11.309012	-64.160139
50220		21.238675	-11.300048	-64.143832
50221		21.239060	-11.293428	-64.127640
50222		21.242404	-11.282456	-64.110626
50223		21.241997	-11.268274	-64.090362
50224		21.237788	-11.259687	-64.066521
50225		21.226191	-11.251281	-64.038130
50226		21.215953	-11.237188	-64.011912
50227		21.204602	-11.220826	-63.981526
50228		21.191249	-11.212794	-63.955934
50229		21.189048	-11.207576	-63.936888
50230		21.190001	-11.200689	-63.920473
50231		21.183071	-11.190133	-63.899117
50232		21.178940	-11.182100	-63.878788
50233		21.182608	-11.180343	-63.855064
50234		21.179492	-11.173060	-63.829125
50235		21.172204	-11.159666	-63.798513
50236		21.163568	-11.152935	-63.770557
50237		21.165510	-11.157227	-63.745850
50238		21.163292	-11.164730	-63.723692
50239		21.162360	-11.170096	-63.698269
50240		21.172138	-11.177381	-63.668685
50241		21.170234	-11.182649	-63.632886
50242		21.156190	-11.187205	-63.592228
50243		21.135320	-11.189543	-63.548356
50244		21.116936	-11.199104	-63.507574
50245		21.090005	-11.211052	-63.471865
50246		21.069575	-11.225758	-63.441479
50247		21.060636	-11.237938	-63.413418
50248		21.066348	-11.244717	-63.385063
50249		21.071107	-11.234114	-63.351482
50250		21.063438	-11.225167	-63.306860
50251		21.044423	-11.225183	-63.256459
50252		21.030168	-11.228047	-63.201030
50253		21.022464	-11.229391	-63.145759
50254		21.014521	-11.229860	-63.092293
50255		21.013224	-11.231539	-63.041061
50256		21.020828	-11.227279	-62.988458
50257		21.030275	-11.211428	-62.930124
50258		21.040559	-11.187788	-62.870726
50259		21.046392	-11.172834	-62.806790
50260		21.059788	-11.167868	-62.745338
50261		21.077485	-11.159920	-62.677496
50262		21.089956	-11.145413	-62.604243
50263		21.102595	-11.129199	-62.528727
50264		21.121330	-11.105978	-62.448579
50265		21.141913	-11.080098	-62.359901
50266		21.162873	-11.055594	-62.273921
50267		21.184591	-11.033666	-62.188089
50268		21.194915	-11.026180	-62.096023
50269		21.208472	-11.042827	-61.999581
50270		21.219150	-11.058067	-61.896656
50271		21.222674	-11.055982	-61.787243
50272		21.226430	-11.045824	-61.675776
50273		21.241801	-11.053358	-61.573853
50274		21.278575	-11.065722	-61.481119
50275		21.322467	-11.063357	-61.384800
50276		21.355952	-11.054570	-61.279400
50277		21.379975	-11.051644	-61.164197
50278		21.394291	-11.047114	-61.043486
50279		21.388273	-11.036067	-60.918633
50280		21.381979	-11.022220	-60.796590
50281		21.385744	-11.001658	-60.665657
50282		21.394888	-10.962253	-60.528397
50283		21.402184	-10.921156	-60.380118
50284		21.405120	-10.888322	-60.232826
50285		21.409788	-10.861977	-60.088534
50286		21.425579	-10.837081	-59.951122
50287		21.466524	-10.804203	-59.822203
50288		21.515158	-10.747442	-59.688199
50289		21.548303	-10.688949	-59.548947
50290		21.570675	-10.634293	-59.397112
50291		21.571041	-10.578777	-59.238681
50292		21.559071	-10.530295	-59.072752
50293		21.568163	-10.488102	-58.906920
50294		21.581165	-10.428973	-58.736115
50295		21.585754	-10.354863	-58.563202
50296		21.610207	-10.279435	-58.400028
50297		21.647626	-10.217263	-58.245703
50298		21.694841	-10.166294	-58.097601
50299		21.763488	-10.134865	-57.963921
50300		21.829558	-10.100007	-57.824553
50301		21.874491	-10.053242	-57.673438
50302		21.914323	-10.004899	-57.513350
50303		21.968220	-9.962841	-57.354260
50304		22.021416	-9.939807	-57.201384
50305		22.080466	-9.934861	-57.056885
50306		22.155621	-9.921870	-56.914343
50307		22.247659	-9.887998	-56.758961
50308		22.346340	-9.866571	-56.593533
50309		22.456681	-9.895231	-56.444146
50310		22.583307	-9.943061	-56.308469
50311		22.705327	-9.955451	-56.150574
50312		22.771421	-9.934372	-55.954152
50313		22.794153	-9.916612	-55.731356
50314		22.777283	-9.915404	-55.505581
50315		22.744984	-9.918505	-55.294437
50316		22.713772	-9.925682	-55.101715
50317		22.715926	-9.949644	-54.943108
50318		22.765001	-9.977463	-54.798837
50319		22.833760	-9.975324	-54.629129
50320		22.865387	-9.936139	-54.425469
50321		22.845573	-9.893254	-54.204754
50322		22.798746	-9.875496	-53.990192
50323		22.735912	-9.876201	-53.785155
50324		22.665322	-9.880762	-53.583336
50325		22.599997	-9.888390	-53.390619
50326		22.551578	-9.880153	-53.200117
50327		22.500820	-9.842232	-52.994523
50328		22.436564	-9.789960	-52.778817
50329		22.373988	-9.753323	-52.563598
50330		22.322953	-9.745028	-52.358988
50331		22.291773	-9.765212	-52.169649
50332		22.286362	-9.788900	-51.992783
50333		22.290671	-9.799861	-51.810638
50334		22.292019	-9.801833	-51.624379
50335		22.292642	-9.801804	-51.439840
50336		22.294480	-9.792071	-51.254887
50337		22.299207	-9.785828	-51.073915
50338		22.311798	-9.813601	-50.914594
50339		22.332955	-9.871037	-50.777525
50340		22.352817	-9.933291	-50.640018
50341		22.348279	-9.976481	-50.476300
50342		22.308179	-9.988091	-50.277530
50343		22.240223	-9.979195	-50.066029
50344		22.169318	-9.982659	-49.857945
50345		22.096121	-9.991835	-49.661129
50346		22.022179	-9.994914	-49.466464
50347		21.955103	-9.977014	-49.267290
50348		21.903669	-9.955427	-49.067257
50349		21.867593	-9.940197	-48.869049
50350		21.824060	-9.919107	-48.659201
50351		21.768589	-9.893560	-48.441240
50352		21.711360	-9.877244	-48.226466
50353		21.657030	-9.866714	-48.014040
50354		21.618195	-9.854415	-47.806153
50355		21.573692	-9.829435	-47.596248
50356		21.518770	-9.792336	-47.383864
50357		21.451709	-9.753982	-47.167602
50358		21.368263	-9.717487	-46.953837
50359		21.267650	-9.691902	-46.742992
50360		21.167913	-9.671082	-46.537488
50361		21.078613	-9.647868	-46.335214
50362		20.988618	-9.618849	-46.123833
50363		20.882752	-9.582812	-45.902728
50364		20.773906	-9.549138	-45.681662
50365		20.664552	-9.509583	-45.465660
50366		20.555997	-9.471923	-45.256221
50367		20.451291	-9.436170	-45.057617
50368		20.354901	-9.389452	-44.862073
50369		20.266018	-9.305937	-44.663193
50370		20.134021	-9.197451	-44.465548
50371		19.948419	-9.073301	-44.260133
50372		19.768334	-8.942172	-44.032896
50373		19.637577	-8.839561	-43.799963
50374		19.535598	-8.793460	-43.565198
50375		19.434589	-8.796502	-43.319976
50376		19.328765	-8.819405	-43.063657
50377		19.211408	-8.832300	-42.804082
50378		19.075259	-8.822842	-42.538766
50379		18.929785	-8.787261	-42.265822
50380		18.767125	-8.728761	-41.987717
50381		18.566871	-8.672179	-41.708972
50382		18.351906	-8.628445	-41.441308
50383		18.140587	-8.602873	-41.188718
50384		17.958208	-8.585954	-40.945915
50385		17.797066	-8.578055	-40.703811
50386		17.624015	-8.580243	-40.456678
50387		17.455987	-8.586916	-40.214282
50388		17.300490	-8.584900	-39.975001
50389		17.146437	-8.581935	-39.743996
50390		16.993116	-8.589361	-39.514576
50391		16.837407	-8.589995	-39.282651
50392		16.658737	-8.559366	-39.043468
50393		16.457687	-8.509886	-38.801310
50394		16.219538	-8.470767	-38.566476
50395		15.975006	-8.453313	-38.345547
50396		15.759091	-8.441470	-38.124362
50397		15.603889	-8.430093	-37.903925
50398		15.467626	-8.409706	-37.675489
50399		15.316895	-8.395286	-37.445115
50400		15.142574	-8.402981	-37.228294
50401		14.961302	-8.430361	-37.030943
50402		14.807641	-8.440358	-36.840900
50403		14.676656	-8.430961	-36.651109
50404		14.546867	-8.414389	-36.463951
50405		14.403404	-8.397310	-36.275436
50406		14.203349	-8.382587	-36.089717
50407		13.975980	-8.368321	-35.911287
50408		13.783016	-8.344590	-35.731777
50409		13.645706	-8.341732	-35.551894
50410		13.539634	-8.378051	-35.372393
50411		13.437758	-8.426206	-35.182330
50412		13.327744	-8.457351	-34.980586
50413		13.210162	-8.468819	-34.770466
50414		13.075356	-8.473667	-34.562552
50415		12.936990	-8.471447	-34.347694
50416		12.795750	-8.476977	-34.127134
50417		12.653914	-8.510733	-33.906494
50418		12.522464	-8.556678	-33.684701
50419		12.401569	-8.583897	-33.461631
50420		12.294924	-8.585772	-33.230890
50421		12.195074	-8.571178	-32.997351
50422		12.101767	-8.551758	-32.755351
50423		11.994633	-8.547078	-32.518308
50424		11.876851	-8.560855	-32.297644
50425		11.775027	-8.581243	-32.085538
50426		11.673351	-8.587443	-31.879412
50427		11.544176	-8.575645	-31.689974
50428		11.403157	-8.547770	-31.509200
50429		11.271798	-8.522811	-31.328878
50430		11.147218	-8.525752	-31.146998
50431		11.022278	-8.556667	-30.964909
50432		10.916824	-8.595367	-30.776518
50433		10.813326	-8.641221	-30.580161
50434		10.697948	-8.678143	-30.386131
50435		10.586864	-8.685562	-30.194503
50436		10.492985	-8.656407	-29.992404
50437		10.397920	-8.611157	-29.779403
50438		10.286750	-8.570367	-29.565788
50439		10.180968	-8.541466	-29.356382
50440		10.082383	-8.519069	-29.155966
50441		9.990705	-8.497346	-28.959043
50442		9.907468	-8.476236	-28.766937
50443		9.814018	-8.457599	-28.578146
50444		9.709857	-8.427910	-28.398024
50445		9.606959	-8.382588	-28.226466
50446		9.525126	-8.332844	-28.055468
50447		9.457247	-8.303183	-27.883719
50448		9.386756	-8.285371	-27.707410
50449		9.321521	-8.278159	-27.530898
50450		9.249474	-8.280479	-27.351619
50451		9.171966	-8.275138	-27.177650
50452		9.084682	-8.251295	-27.010390
50453		8.994175	-8.221751	-26.852131
50454		8.914100	-8.190870	-26.706246
50455		8.843194	-8.151479	-26.566241
50456		8.776073	-8.108036	-26.427350
50457		8.720549	-8.078904	-26.285282
50458		8.664393	-8.051602	-26.149500
50459		8.616634	-8.033697	-26.013578
50460		8.578077	-8.022515	-25.871601
50461		8.532687	-8.012479	-25.730482
50462		8.478211	-7.992760	-25.592883
50463		8.416306	-7.966670	-25.458502
50464		8.337666	-7.945814	-25.329223
50465		8.249241	-7.929512	-25.210091
50466		8.167920	-7.920079	-25.093282
50467		8.104798	-7.914202	-24.985811
50468		8.058102	-7.917972	-24.882830
50469		8.017629	-7.918039	-24.780111
50470		7.974420	-7.913306	-24.677902
50471		7.925425	-7.913774	-24.575199
50472		7.870924	-7.912468	-24.478896
50473		7.824139	-7.912976	-24.386378
50474		7.791676	-7.912307	-24.292918
50475		7.764338	-7.921658	-24.201771
50476		7.746436	-7.922863	-24.107235
50477		7.745429	-7.920318	-24.016242
50478		7.743410	-7.922593	-23.930703
50479		7.727528	-7.922399	-23.858326
50480		7.709824	-7.900090	-23.793145
50481		7.709565	-7.868727	-23.734570
50482		7.708555	-7.853658	-23.685324
50483		7.701414	-7.854185	-23.637521
50484		7.694903	-7.852790	-23.594266
50485		7.684534	-7.849631	-23.558560
50486		7.668939	-7.845027	-23.529283
50487		7.649518	-7.829685	-23.508320
50488		7.632661	-7.806664	-23.487291
50489		7.619543	-7.790530	-23.470800
50490		7.616759	-7.785231	-23.459328
50491		7.625144	-7.781902	-23.447444
50492		7.639429	-7.785647	-23.438017
50493		7.648998	-7.793880	-23.428181
50494		7.657246	-7.801734	-23.424241
50495		7.661596	-7.806783	-23.425701
50496		7.667550	-7.804518	-23.431581
50497		7.672362	-7.793592	-23.443010
50498		7.678288	-7.778601	-23.455014
50499		7.691405	-7.770494	-23.471553
50500		7.703901	-7.765839	-23.486881
50501		7.715168	-7.770068	-23.504269
50502		7.723597	-7.780395	-23.526694
50503		7.730364	-7.788877	-23.556071
50504		7.741525	-7.788097	-23.589750
50505		7.757113	-7.791080	-23.626042
50506		7.775502	-7.803202	-23.663333
50507		7.787198	-7.820633	-23.702268
50508		7.792603	-7.829968	-23.744265
50509		7.790753	-7.833154	-23.789655
50510		7.791773	-7.832227	-23.840027
50511		7.808337	-7.831435	-23.894692
50512		7.830945	-7.837750	-23.946020
50513		7.843789	-7.857495	-23.992623
50514		7.860066	-7.876454	-24.044494
50515		7.875657	-7.903317	-24.095249
50516		7.885156	-7.927294	-24.155059
50517		7.873319	-7.941761	-24.218713
50518		7.873137	-7.948124	-24.282123
50519		7.890500	-7.958963	-24.347347
50520		7.914885	-7.970788	-24.417840
50521		7.943018	-7.986790	-24.493064
50522		7.967486	-8.005250	-24.570694
50523		7.991444	-8.025723	-24.652118
50524		8.008018	-8.040680	-24.737216
50525		8.014696	-8.046720	-24.824984
50526		8.024790	-8.049177	-24.912979
50527		8.038532	-8.057284	-25.000819
50528		8.061831	-8.069716	-25.090172
50529		8.085957	-8.085334	-25.181189
50530		8.115860	-8.103196	-25.268514
50531		8.157332	-8.124514	-25.358207
50532		8.198729	-8.151569	-25.450371
50533		8.239565	-8.179277	-25.548948
50534		8.266556	-8.197455	-25.651473
50535		8.287884	-8.205869	-25.755681
50536		8.309043	-8.209983	-25.857365
50537		8.341795	-8.220993	-25.960042
50538		8.383091	-8.239649	-26.056660
50539		8.420396	-8.269356	-26.149968
50540		8.455198	-8.300671	-26.248871
50541		8.497829	-8.317706	-26.353353
50542		8.540183	-8.330704	-26.460494
50543		8.578590	-8.350901	-26.571253
50544		8.625067	-8.366414	-26.682801
50545		8.680823	-8.377237	-26.789442
50546		8.746039	-8.397037	-26.902045
50547		8.814255	-8.418932	-27.015339
50548		8.881343	-8.441103	-27.133936
50549		8.936711	-8.455500	-27.261097
50550		8.988413	-8.458803	-27.390028
50551		9.040800	-8.459793	-27.522472
50552		9.088999	-8.472255	-27.666730
50553		9.141271	-8.489774	-27.814742
50554		9.206198	-8.510490	-27.963063
50555		9.275461	-8.542244	-28.106210
50556		9.344795	-8.577196	-28.247074
50557		9.413778	-8.615808	-28.388741
50558		9.479830	-8.649525	-28.535679
50559		9.516624	-8.668950	-28.690538
50560		9.541408	-8.664442	-28.852241
50561		9.594513	-8.649598	-29.007275
50562		9.662441	-8.659201	-29.163226
50563		9.722014	-8.700595	-29.321511
50564		9.790758	-8.755303	-29.474046
50565		9.871129	-8.809675	-29.620441
50566		9.945554	-8.859700	-29.764767
50567		10.024313	-8.901815	-29.911014
50568		10.106702	-8.935061	-30.061675
50569		10.173875	-8.964407	-30.220475
50570		10.241867	-8.991027	-30.384041
50571		10.329946	-9.010462	-30.547637
50572		10.428688	-9.029914	-30.706229
50573		10.527303	-9.058135	-30.861348
50574		10.619419	-9.096804	-31.022870
50575		10.687386	-9.130821	-31.197199
50576		10.746804	-9.149942	-31.379924
50577		10.822962	-9.149282	-31.566517
50578		10.905641	-9.155239	-31.752366
50579		10.992835	-9.185487	-31.934983
50580		11.082973	-9.224930	-32.115215
50581		11.162303	-9.266227	-32.296019
