// General information: 
//  MT Manager version: 2022.2.0 
//  XDA version: 2022.2.0 build 7381 rev 124627 built on 2023-07-19
// Device information: 
//  DeviceId: 00B447FD
//  ProductCode: MTW2-3A7G6
//  Firmware Version: 4.3.5
//  Hardware Version: 2.0.0
// Device settings: 
//  Filter Profile: human(46.1)
//  Option Flags: Orientation Smoother Disabled, Position/Velocity Smoother Disabled, Continuous Zero Rotation Update Disabled, AHS Disabled, ICC Disabled
// Coordinate system: ENU
PacketCounter	SampleTimeFine	Roll	Pitch	Yaw
47489		4.095208	-4.509394	8.117427
47490		4.103070	-4.524239	8.119933
47491		4.124286	-4.541574	8.122771
47492		4.149502	-4.558891	8.118953
47493		4.159466	-4.576781	8.106481
47494		4.144686	-4.590784	8.087121
47495		4.115201	-4.597993	8.067712
47496		4.084357	-4.591957	8.052703
47497		4.073017	-4.567710	8.048415
47498		4.070065	-4.532766	8.043183
47499		4.078821	-4.496555	8.037159
47500		4.097633	-4.463261	8.027249
47501		4.120694	-4.447017	8.014145
47502		4.139563	-4.449524	7.995782
47503		4.155322	-4.467619	7.973803
47504		4.163175	-4.493762	7.957838
47505		4.176369	-4.522100	7.942666
47506		4.193920	-4.560918	7.929186
47507		4.224428	-4.602818	7.917538
47508		4.250033	-4.640486	7.907096
47509		4.269946	-4.664538	7.888774
47510		4.285531	-4.674182	7.870628
47511		4.306169	-4.667840	7.852737
47512		4.332724	-4.651417	7.830074
47513		4.359202	-4.626351	7.803953
47514		4.378130	-4.601533	7.768798
47515		4.399192	-4.590470	7.724248
47516		4.438048	-4.604939	7.671049
47517		4.495892	-4.642875	7.614033
47518		4.563404	-4.692913	7.550733
47519		4.622605	-4.741849	7.481717
47520		4.667218	-4.785573	7.406755
47521		4.698504	-4.820045	7.332685
47522		4.744393	-4.858700	7.257278
47523		4.829837	-4.906987	7.183497
47524		4.985865	-4.964912	7.100377
47525		5.195874	-5.034091	7.003903
47526		5.445811	-5.103294	6.886977
47527		5.712623	-5.175314	6.746524
47528		5.960276	-5.261123	6.574826
47529		6.180509	-5.347686	6.374613
47530		6.358915	-5.433988	6.146348
47531		6.476881	-5.515788	5.905855
47532		6.534767	-5.592333	5.655436
47533		6.549730	-5.659818	5.407326
47534		6.554445	-5.729505	5.164004
47535		6.587531	-5.808225	4.926846
47536		6.682029	-5.906249	4.681914
47537		6.849080	-6.020792	4.410174
47538		7.071295	-6.137373	4.102077
47539		7.295321	-6.251900	3.736737
47540		7.501475	-6.358297	3.318210
47541		7.660381	-6.449337	2.853586
47542		7.772157	-6.525614	2.366352
47543		7.853796	-6.578638	1.870365
47544		7.925346	-6.607385	1.381785
47545		7.988205	-6.623582	0.907820
47546		8.054849	-6.635884	0.442404
47547		8.094251	-6.641478	-0.025630
47548		8.079329	-6.633483	-0.520148
47549		7.993985	-6.612249	-1.051516
47550		7.863991	-6.572937	-1.611354
47551		7.708686	-6.519737	-2.197699
47552		7.549033	-6.461471	-2.793691
47553		7.413087	-6.398511	-3.386129
47554		7.305174	-6.358912	-3.960182
47555		7.261025	-6.368578	-4.507046
47556		7.309407	-6.444852	-5.026559
47557		7.420103	-6.582972	-5.533642
47558		7.553157	-6.760853	-6.035321
47559		7.669191	-6.944439	-6.535873
47560		7.752703	-7.114105	-7.032766
47561		7.782636	-7.265721	-7.529572
47562		7.783845	-7.384475	-8.035541
47563		7.790978	-7.496247	-8.565146
47564		7.836159	-7.614585	-9.135647
47565		7.908689	-7.746508	-9.745710
47566		8.007335	-7.902789	-10.399800
47567		8.117081	-8.073453	-11.100676
47568		8.238211	-8.260514	-11.848712
47569		8.374054	-8.453459	-12.625795
47570		8.535609	-8.623610	-13.420825
47571		8.708523	-8.771495	-14.209989
47572		8.889532	-8.883322	-14.980042
47573		9.063292	-8.964310	-15.723362
47574		9.252974	-9.042240	-16.447071
47575		9.439259	-9.132250	-17.175539
47576		9.579647	-9.229306	-17.937501
47577		9.658753	-9.320354	-18.739325
47578		9.712720	-9.409421	-19.578848
47579		9.768245	-9.515687	-20.432140
47580		9.848533	-9.644515	-21.280215
47581		9.934240	-9.769921	-22.111534
47582		10.012343	-9.890604	-22.916376
47583		10.087933	-10.008721	-23.690968
47584		10.174312	-10.118347	-24.447674
47585		10.246256	-10.222133	-25.199314
47586		10.285449	-10.292616	-25.982951
47587		10.291047	-10.331345	-26.811959
47588		10.312695	-10.334835	-27.687544
47589		10.360637	-10.326624	-28.594914
47590		10.464992	-10.310935	-29.501738
47591		10.611393	-10.302520	-30.374288
47592		10.780464	-10.318094	-31.193404
47593		10.955353	-10.364910	-31.947952
47594		11.124685	-10.428940	-32.656802
47595		11.257748	-10.502883	-33.348783
47596		11.361017	-10.589357	-34.048811
47597		11.425423	-10.689788	-34.774726
47598		11.493403	-10.776083	-35.530172
47599		11.609644	-10.842731	-36.297251
47600		11.798453	-10.892773	-37.066780
47601		12.021730	-10.928481	-37.823115
47602		12.252216	-10.953779	-38.572192
47603		12.443347	-10.972798	-39.346562
47604		12.598155	-11.009971	-40.180669
47605		12.737855	-11.073185	-41.072816
47606		12.904570	-11.172146	-41.993972
47607		13.106171	-11.300607	-42.900612
47608		13.322244	-11.435812	-43.779133
47609		13.520522	-11.547272	-44.635030
47610		13.706602	-11.617407	-45.474389
47611		13.897515	-11.647557	-46.292793
47612		14.121091	-11.653957	-47.098140
47613		14.360818	-11.632325	-47.909382
47614		14.598981	-11.577752	-48.761357
47615		14.806465	-11.477680	-49.664837
47616		15.016275	-11.332208	-50.617211
47617		15.242013	-11.169258	-51.615279
47618		15.519244	-10.993519	-52.636522
47619		15.839250	-10.808885	-53.668181
47620		16.170159	-10.637262	-54.696755
47621		16.483002	-10.490034	-55.699140
47622		16.784360	-10.384683	-56.672764
47623		17.061335	-10.322955	-57.634658
47624		17.299757	-10.287616	-58.598847
47625		17.485718	-10.263605	-59.571207
47626		17.645665	-10.251960	-60.558816
47627		17.762116	-10.253654	-61.553777
47628		17.842797	-10.266167	-62.540655
47629		17.889102	-10.279516	-63.498509
47630		17.924203	-10.278257	-64.419465
47631		17.945854	-10.254416	-65.306950
47632		17.952716	-10.213180	-66.172690
47633		17.965832	-10.165154	-67.020536
47634		18.015539	-10.128037	-67.838958
47635		18.081769	-10.122861	-68.611241
47636		18.155321	-10.147392	-69.342050
47637		18.199333	-10.183279	-70.067664
47638		18.197436	-10.223849	-70.820735
47639		18.185051	-10.245762	-71.603052
47640		18.114022	-10.266916	-72.402319
47641		17.923261	-10.300012	-73.178773
47642		17.665096	-10.336456	-73.900209
47643		17.403177	-10.367581	-74.560761
47644		17.198382	-10.393271	-75.185914
47645		17.100744	-10.387278	-75.798631
47646		17.107781	-10.334835	-76.414560
47647		17.203945	-10.245135	-77.045776
47648		17.362674	-10.163837	-77.697308
47649		17.550494	-10.098639	-78.372656
47650		17.764647	-10.064339	-79.064231
47651		17.990540	-10.045619	-79.764735
47652		18.192978	-10.024401	-80.493154
47653		18.344510	-9.995971	-81.253284
47654		18.499009	-9.956870	-82.041748
47655		18.634698	-9.913667	-82.839516
47656		18.767469	-9.861965	-83.622666
47657		18.932114	-9.804981	-84.377102
47658		19.148367	-9.771556	-85.106656
47659		19.425955	-9.737812	-85.825455
47660		19.771225	-9.699446	-86.544188
47661		20.158420	-9.642516	-87.273925
47662		20.533765	-9.565844	-88.007381
47663		20.858282	-9.467213	-88.730467
47664		21.128936	-9.341635	-89.432233
47665		21.319489	-9.201981	-90.094448
47666		21.412470	-9.057100	-90.702251
47667		21.375465	-8.912960	-91.252424
47668		21.210253	-8.759676	-91.755338
47669		20.929639	-8.584565	-92.222859
47670		20.584219	-8.388221	-92.662620
47671		20.197588	-8.194551	-93.067919
47672		19.817252	-8.032300	-93.445019
47673		19.489696	-7.903040	-93.816223
47674		19.251859	-7.787757	-94.195408
47675		19.081732	-7.653696	-94.593314
47676		18.952741	-7.500258	-95.014989
47677		18.830717	-7.345618	-95.441819
47678		18.688923	-7.202052	-95.858638
47679		18.528160	-7.082677	-96.263412
47680		18.390065	-6.970733	-96.664254
47681		18.270319	-6.840457	-97.054105
47682		18.157494	-6.681445	-97.421897
47683		18.021177	-6.505281	-97.761345
47684		17.840704	-6.334537	-98.071165
47685		17.632956	-6.185982	-98.359387
47686		17.422658	-6.099305	-98.628968
47687		17.260882	-6.081294	-98.888093
47688		17.165660	-6.106308	-99.152000
47689		17.089876	-6.141532	-99.412232
47690		17.000512	-6.160611	-99.672225
47691		16.860353	-6.150638	-99.925896
47692		16.700284	-6.107308	-100.177944
47693		16.558196	-6.039119	-100.425230
47694		16.462924	-5.959219	-100.676392
47695		16.408892	-5.869467	-100.941258
47696		16.371625	-5.786074	-101.209769
47697		16.337201	-5.714278	-101.462164
47698		16.278927	-5.660434	-101.676505
47699		16.177070	-5.629961	-101.860627
47700		16.070017	-5.628005	-102.035134
47701		15.997415	-5.637384	-102.208810
47702		15.959543	-5.649797	-102.388810
47703		15.936281	-5.668660	-102.571175
47704		15.905213	-5.697644	-102.747065
47705		15.847494	-5.737118	-102.905585
47706		15.787393	-5.788498	-103.048528
47707		15.760451	-5.846830	-103.185115
47708		15.779230	-5.930996	-103.323511
47709		15.850191	-6.043758	-103.474225
47710		15.963988	-6.170048	-103.633940
47711		16.094446	-6.285066	-103.803558
47712		16.185177	-6.361357	-103.978930
47713		16.214614	-6.376202	-104.158295
47714		16.189059	-6.332213	-104.330863
47715		16.113200	-6.250854	-104.488602
47716		16.006022	-6.154912	-104.638318
47717		15.889519	-6.066653	-104.786083
47718		15.799349	-6.013182	-104.933939
47719		15.747814	-6.007881	-105.090331
47720		15.712853	-6.032405	-105.266957
47721		15.674318	-6.062318	-105.467850
47722		15.637347	-6.091639	-105.689150
47723		15.601734	-6.111314	-105.919290
47724		15.569057	-6.119418	-106.156987
47725		15.566225	-6.106351	-106.400188
47726		15.622541	-6.073464	-106.637981
47727		15.745089	-6.024061	-106.858837
47728		15.901641	-5.962084	-107.044864
47729		16.061003	-5.874768	-107.178378
47730		16.163305	-5.764068	-107.259924
47731		16.186127	-5.662812	-107.309618
47732		16.115790	-5.609689	-107.353231
47733		15.975554	-5.626803	-107.426256
47734		15.825591	-5.709405	-107.540055
47735		15.725127	-5.815118	-107.701256
47736		15.707437	-5.904847	-107.914318
47737		15.762969	-5.964565	-108.158949
47738		15.859204	-5.974889	-108.411274
47739		15.963178	-5.945972	-108.647625
47740		16.049493	-5.891662	-108.854323
47741		16.119796	-5.826927	-109.027531
47742		16.164771	-5.770717	-109.174567
47743		16.201537	-5.739777	-109.300865
47744		16.248352	-5.739715	-109.418314
47745		16.281502	-5.770783	-109.536467
47746		16.292690	-5.814294	-109.651314
47747		16.274279	-5.850651	-109.753396
47748		16.224487	-5.879352	-109.827395
47749		16.154853	-5.904658	-109.868910
47750		16.085782	-5.933993	-109.890686
47751		16.049960	-5.963681	-109.904783
47752		16.064203	-6.001461	-109.920093
47753		16.121127	-6.048749	-109.933711
47754		16.193253	-6.099190	-109.942663
47755		16.241434	-6.153703	-109.944405
47756		16.250626	-6.212586	-109.931433
47757		16.236587	-6.265003	-109.903090
47758		16.206018	-6.303936	-109.867808
47759		16.176601	-6.328838	-109.838011
47760		16.162053	-6.341652	-109.813893
47761		16.171682	-6.343951	-109.795297
47762		16.200315	-6.349146	-109.770351
47763		16.235509	-6.357404	-109.735159
47764		16.255396	-6.377419	-109.691789
47765		16.256022	-6.410157	-109.646762
47766		16.245412	-6.451643	-109.602221
47767		16.230558	-6.499160	-109.564234
47768		16.227183	-6.549211	-109.535895
47769		16.229192	-6.588671	-109.516687
47770		16.244077	-6.617519	-109.503868
47771		16.268079	-6.621468	-109.493144
47772		16.295060	-6.601116	-109.482575
47773		16.315133	-6.552488	-109.472321
47774		16.326256	-6.497189	-109.462173
47775		16.325091	-6.449869	-109.450442
47776		16.310189	-6.418557	-109.441026
47777		16.297889	-6.410361	-109.434013
47778		16.289273	-6.427137	-109.441351
47779		16.281423	-6.450443	-109.461242
47780		16.274945	-6.470419	-109.491804
47781		16.263862	-6.475502	-109.517987
47782		16.255842	-6.457099	-109.534876
47783		16.247228	-6.425872	-109.544258
47784		16.238062	-6.387097	-109.549373
47785		16.238434	-6.352541	-109.549118
47786		16.265208	-6.330390	-109.550517
47787		16.310553	-6.323500	-109.562839
47788		16.350691	-6.329623	-109.582702
47789		16.372995	-6.345971	-109.595874
47790		16.392876	-6.367198	-109.596172
47791		16.417285	-6.389118	-109.586071
47792		16.443000	-6.407624	-109.569763
47793		16.456509	-6.430429	-109.552318
47794		16.450531	-6.446905	-109.535265
47795		16.424303	-6.459401	-109.525640
47796		16.379259	-6.475035	-109.521771
47797		16.333113	-6.495629	-109.520855
47798		16.303832	-6.522347	-109.524686
47799		16.299328	-6.544711	-109.531005
47800		16.317483	-6.562632	-109.540692
47801		16.343181	-6.572137	-109.544718
47802		16.355557	-6.571431	-109.539576
47803		16.347533	-6.552822	-109.525185
47804		16.335260	-6.536420	-109.507820
47805		16.329590	-6.528661	-109.500260
47806		16.332445	-6.537729	-109.505200
47807		16.339630	-6.556998	-109.521804
47808		16.343961	-6.576652	-109.542169
47809		16.339896	-6.585326	-109.562556
47810		16.336786	-6.581212	-109.578286
47811		16.334180	-6.562639	-109.594398
47812		16.338230	-6.528812	-109.608561
47813		16.349044	-6.484919	-109.624564
47814		16.360249	-6.442746	-109.640480
47815		16.375874	-6.412611	-109.655999
47816		16.399624	-6.395510	-109.673077
47817		16.433633	-6.395532	-109.686057
47818		16.459876	-6.402970	-109.690408
47819		16.447980	-6.410691	-109.693668
47820		16.402530	-6.429168	-109.691958
47821		16.353170	-6.459683	-109.686863
47822		16.326330	-6.492954	-109.681782
47823		16.327469	-6.511366	-109.682839
47824		16.346069	-6.503288	-109.687896
47825		16.369191	-6.475430	-109.686609
47826		16.383780	-6.433922	-109.670016
47827		16.387450	-6.398999	-109.638547
47828		16.389800	-6.377959	-109.595971
47829		16.393594	-6.374049	-109.551844
47830		16.382172	-6.387269	-109.515264
47831		16.358496	-6.409949	-109.483852
47832		16.333692	-6.437712	-109.453556
47833		16.318646	-6.457734	-109.424200
47834		16.312816	-6.458152	-109.388887
47835		16.312920	-6.439049	-109.344372
47836		16.318834	-6.405695	-109.295111
47837		16.331733	-6.362327	-109.247708
47838		16.365551	-6.325335	-109.202726
47839		16.407010	-6.296659	-109.158406
47840		16.435559	-6.279872	-109.121412
47841		16.432526	-6.284016	-109.090014
47842		16.421165	-6.295670	-109.062384
47843		16.427864	-6.309221	-109.032638
47844		16.462499	-6.318931	-109.000991
47845		16.498765	-6.326011	-108.961193
47846		16.518592	-6.329551	-108.909021
47847		16.519701	-6.335820	-108.845165
47848		16.520185	-6.346017	-108.778297
47849		16.530337	-6.364996	-108.710641
47850		16.539494	-6.408802	-108.645208
47851		16.529441	-6.458431	-108.579510
47852		16.483112	-6.500029	-108.508352
47853		16.418860	-6.529972	-108.428990
47854		16.369214	-6.554916	-108.345078
47855		16.339651	-6.577972	-108.271101
47856		16.339110	-6.592150	-108.217338
47857		16.375491	-6.589849	-108.182397
47858		16.449381	-6.573961	-108.155536
47859		16.546580	-6.546529	-108.124722
47860		16.625240	-6.516753	-108.080888
47861		16.674438	-6.495758	-108.021147
47862		16.695910	-6.476616	-107.949855
47863		16.679364	-6.469896	-107.877454
47864		16.649629	-6.479560	-107.809369
47865		16.619097	-6.506741	-107.748665
47866		16.608032	-6.549958	-107.695405
47867		16.613373	-6.605694	-107.646851
47868		16.634542	-6.654076	-107.594239
47869		16.657869	-6.682634	-107.533414
47870		16.676490	-6.688307	-107.466541
47871		16.690868	-6.679024	-107.392820
47872		16.708264	-6.660772	-107.321246
47873		16.730263	-6.633615	-107.248351
47874		16.743838	-6.609302	-107.172200
47875		16.743023	-6.602859	-107.086207
47876		16.725092	-6.611554	-106.992601
47877		16.711705	-6.635129	-106.894069
47878		16.712480	-6.671278	-106.797906
47879		16.722527	-6.710312	-106.710836
47880		16.730500	-6.734953	-106.620493
47881		16.713055	-6.739079	-106.511220
47882		16.666371	-6.734285	-106.382884
47883		16.604140	-6.726082	-106.237818
47884		16.550768	-6.726906	-106.078766
47885		16.521214	-6.737607	-105.911227
47886		16.518353	-6.761210	-105.741875
47887		16.527466	-6.801153	-105.580381
47888		16.541820	-6.839527	-105.423853
47889		16.558740	-6.877179	-105.270995
47890		16.569315	-6.897952	-105.121081
47891		16.564374	-6.895048	-104.968843
47892		16.535710	-6.878081	-104.804911
47893		16.505802	-6.861147	-104.635491
47894		16.482648	-6.855935	-104.468432
47895		16.481130	-6.858305	-104.310778
47896		16.498117	-6.878495	-104.157924
47897		16.525404	-6.914553	-104.020067
47898		16.552591	-6.958582	-103.892678
47899		16.581950	-7.002950	-103.772022
47900		16.621217	-7.033397	-103.644915
47901		16.666479	-7.048169	-103.503176
47902		16.708409	-7.052397	-103.344939
47903		16.740079	-7.052980	-103.175278
47904		16.762264	-7.055186	-102.996729
47905		16.776430	-7.070870	-102.810858
47906		16.778145	-7.090507	-102.610575
47907		16.767969	-7.106617	-102.396481
47908		16.735540	-7.132764	-102.179352
47909		16.699674	-7.159685	-101.970771
47910		16.671595	-7.182112	-101.774245
47911		16.663270	-7.201222	-101.583432
47912		16.675929	-7.212737	-101.376919
47913		16.686334	-7.211044	-101.137910
47914		16.686157	-7.194843	-100.860641
47915		16.670320	-7.178342	-100.550081
47916		16.657284	-7.170310	-100.218536
47917		16.678634	-7.178312	-99.880766
47918		16.721136	-7.198751	-99.538141
47919		16.762215	-7.227958	-99.188901
47920		16.767627	-7.265439	-98.828303
47921		16.728280	-7.299634	-98.463984
47922		16.653982	-7.337184	-98.107282
47923		16.587907	-7.378864	-97.765071
47924		16.559056	-7.422643	-97.439643
47925		16.570887	-7.458581	-97.131151
47926		16.606151	-7.479039	-96.839172
47927		16.650906	-7.483149	-96.561739
47928		16.677646	-7.485356	-96.303859
47929		16.685500	-7.488203	-96.054641
47930		16.676486	-7.496304	-95.814933
47931		16.651485	-7.513465	-95.586504
47932		16.624273	-7.549206	-95.375100
47933		16.598085	-7.598680	-95.181269
47934		16.572374	-7.640616	-95.005243
47935		16.573309	-7.670384	-94.852052
47936		16.598747	-7.689218	-94.709880
47937		16.658814	-7.687190	-94.565705
47938		16.757115	-7.672678	-94.417598
47939		16.862724	-7.652020	-94.257116
47940		16.964333	-7.633535	-94.093745
47941		17.040284	-7.613392	-93.936433
47942		17.074321	-7.603703	-93.797446
47943		17.087220	-7.617082	-93.686033
47944		17.120957	-7.661461	-93.601250
47945		17.220636	-7.711731	-93.516640
47946		17.359034	-7.743171	-93.401389
47947		17.473780	-7.727372	-93.220400
47948		17.514458	-7.664869	-92.966203
47949		17.461573	-7.572056	-92.648073
47950		17.373145	-7.464452	-92.288638
47951		17.303039	-7.363234	-91.910290
47952		17.257596	-7.307816	-91.540455
47953		17.235621	-7.314290	-91.208837
47954		17.236826	-7.365925	-90.917922
47955		17.259844	-7.435050	-90.641907
47956		17.292305	-7.502058	-90.355586
47957		17.320848	-7.559950	-90.042499
47958		17.321745	-7.618067	-89.714253
47959		17.308402	-7.684853	-89.392470
47960		17.308263	-7.761384	-89.095670
47961		17.358600	-7.854586	-88.822387
47962		17.470588	-7.951375	-88.554748
47963		17.628097	-8.012945	-88.274183
47964		17.783503	-8.027737	-87.965940
47965		17.905358	-7.987243	-87.595580
47966		17.995016	-7.897915	-87.151015
47967		18.053589	-7.796074	-86.655799
47968		18.085431	-7.697207	-86.142346
47969		18.107978	-7.614652	-85.622931
47970		18.121569	-7.562842	-85.120472
47971		18.135115	-7.553080	-84.659514
47972		18.155741	-7.590382	-84.253831
47973		18.209316	-7.648018	-83.885830
47974		18.295590	-7.714796	-83.528819
47975		18.417931	-7.766989	-83.154377
47976		18.553250	-7.799610	-82.737333
47977		18.686522	-7.812735	-82.276728
47978		18.809323	-7.811341	-81.786369
47979		18.914768	-7.798604	-81.281087
47980		19.006992	-7.776981	-80.764561
47981		19.078243	-7.740317	-80.237415
47982		19.103849	-7.702834	-79.721384
47983		19.095320	-7.672109	-79.236387
47984		19.085039	-7.667192	-78.786340
47985		19.120279	-7.689990	-78.378945
47986		19.231106	-7.741803	-78.016109
47987		19.425517	-7.802562	-77.699385
47988		19.701859	-7.848343	-77.419196
47989		20.009141	-7.845119	-77.131071
47990		20.275350	-7.767402	-76.775173
47991		20.456214	-7.641074	-76.327983
47992		20.566363	-7.512575	-75.813086
47993		20.643657	-7.401327	-75.254333
47994		20.725152	-7.337750	-74.697783
47995		20.830695	-7.343733	-74.180081
47996		20.926658	-7.422302	-73.687569
47997		20.987832	-7.533828	-73.182445
47998		20.976305	-7.666128	-72.644801
47999		20.902976	-7.796729	-72.086315
48000		20.801259	-7.914456	-71.526606
48001		20.699891	-8.011041	-70.981529
48002		20.618439	-8.102463	-70.461659
48003		20.584849	-8.200647	-69.971148
48004		20.601694	-8.306277	-69.492272
48005		20.637705	-8.400409	-68.992801
48006		20.650827	-8.471813	-68.465068
48007		20.621066	-8.516281	-67.930607
48008		20.572584	-8.540626	-67.404083
48009		20.535433	-8.563708	-66.903785
48010		20.495194	-8.602242	-66.428030
48011		20.447718	-8.663996	-65.970535
48012		20.369780	-8.753635	-65.517782
48013		20.263935	-8.854116	-65.053907
48014		20.139359	-8.961350	-64.566394
48015		20.021924	-9.077923	-64.060464
48016		19.913563	-9.211624	-63.535348
48017		19.755435	-9.353195	-62.989495
48018		19.436088	-9.488453	-62.429746
48019		18.851141	-9.590063	-61.846029
48020		17.935807	-9.736061	-61.195511
48021		17.077109	-10.026479	-60.244504
48022		16.588672	-10.366775	-59.004213
48023		16.190693	-10.743050	-57.517459
48024		15.699794	-11.104140	-55.969040
48025		15.112923	-11.446293	-54.479449
48026		14.420258	-11.798226	-53.110834
48027		13.710818	-12.167502	-51.917944
48028		13.104266	-12.579885	-50.913459
48029		12.727506	-13.012726	-50.080956
48030		12.602959	-13.463716	-49.392351
48031		12.762390	-13.904934	-48.809569
48032		13.136304	-14.293842	-48.281825
48033		13.582309	-14.575228	-47.746615
48034		13.975435	-14.730192	-47.156773
48035		14.248303	-14.774507	-46.493380
48036		14.341726	-14.745532	-45.757333
48037		14.287590	-14.692334	-44.962953
48038		14.192973	-14.666303	-44.128430
48039		14.179105	-14.695691	-43.276154
48040		14.259707	-14.780896	-42.426451
48041		14.374051	-14.887423	-41.598887
48042		14.424959	-14.972324	-40.796540
48043		14.361696	-15.029965	-40.020077
48044		14.203938	-15.073804	-39.261874
48045		14.013851	-15.116002	-38.497920
48046		13.869374	-15.171140	-37.715830
48047		13.797450	-15.232859	-36.925197
48048		13.748517	-15.298195	-36.125398
48049		13.678146	-15.365757	-35.303223
48050		13.534944	-15.454860	-34.436465
48051		13.321920	-15.575189	-33.505910
48052		13.042382	-15.728816	-32.494151
48053		12.796631	-15.890282	-31.417809
48054		12.633253	-16.057499	-30.305723
48055		12.555057	-16.216130	-29.189051
48056		12.493999	-16.357695	-28.107645
48057		12.369160	-16.451161	-27.070222
48058		12.131860	-16.488020	-26.089254
48059		11.787411	-16.481372	-25.163759
48060		11.397517	-16.479427	-24.284279
48061		11.069286	-16.536671	-23.428266
48062		10.945570	-16.654515	-22.558249
48063		11.005070	-16.802932	-21.666825
48064		11.131828	-16.958327	-20.789679
48065		11.283790	-17.086298	-19.979070
48066		11.446378	-17.187162	-19.258710
48067		11.644269	-17.265227	-18.644626
48068		11.870480	-17.328336	-18.103676
48069		12.089275	-17.388234	-17.544019
48070		12.243314	-17.428555	-16.861098
48071		12.290985	-17.456796	-16.028473
48072		12.262211	-17.472850	-15.007480
48073		12.144323	-17.451325	-13.819027
48074		11.906199	-17.385427	-12.520673
48075		11.572719	-17.260564	-11.207071
48076		11.158293	-17.137370	-9.930296
48077		10.694049	-17.048560	-8.714610
48078		10.292915	-17.018270	-7.561806
48079		10.101953	-17.022555	-6.469236
48080		10.050359	-17.059044	-5.439422
48081		10.029983	-17.128682	-4.480781
48082		10.005208	-17.248774	-3.600217
48083		9.992247	-17.431580	-2.813521
48084		10.004914	-17.634474	-2.116487
48085		10.055046	-17.820465	-1.509035
48086		10.138174	-17.969268	-0.961559
48087		10.281229	-18.039218	-0.404918
48088		10.497917	-18.022367	0.204696
48089		10.789787	-17.922886	0.884921
48090		11.103935	-17.773175	1.637700
48091		11.392546	-17.599276	2.443298
48092		11.627210	-17.400018	3.262367
48093		11.773350	-17.180660	4.050835
48094		11.799312	-16.971420	4.784258
48095		11.712038	-16.760549	5.465068
48096		11.550494	-16.545436	6.128489
48097		11.394846	-16.294485	6.790170
48098		11.260012	-16.021003	7.448703
48099		11.161404	-15.765670	8.078631
48100		11.102304	-15.573864	8.640160
48101		11.060834	-15.420046	9.112477
48102		11.002602	-15.298005	9.479993
48103		10.916577	-15.195358	9.742074
48104		10.817075	-15.105681	9.908676
48105		10.714681	-15.032147	9.989331
48106		10.637813	-14.979368	10.011649
48107		10.629450	-14.902510	10.011497
48108		10.677816	-14.806576	10.038774
48109		10.749250	-14.705525	10.095462
48110		10.794550	-14.624213	10.149783
48111		10.794375	-14.574184	10.162265
48112		10.755474	-14.557144	10.128286
48113		10.720300	-14.536082	10.055396
48114		10.717012	-14.504005	9.964674
48115		10.724749	-14.456977	9.874779
48116		10.729440	-14.388653	9.798176
48117		10.726809	-14.298404	9.747137
48118		10.728246	-14.206516	9.719041
48119		10.720199	-14.127430	9.706072
48120		10.700146	-14.061510	9.698123
48121		10.639150	-13.994650	9.694289
48122		10.552505	-13.928605	9.702082
48123		10.478470	-13.857025	9.713235
48124		10.427255	-13.783134	9.717912
48125		10.397942	-13.707337	9.710468
48126		10.376921	-13.629807	9.693268
48127		10.347239	-13.546354	9.671442
48128		10.328334	-13.459426	9.643564
48129		10.320915	-13.367458	9.619118
48130		10.325088	-13.282918	9.599506
48131		10.331883	-13.198355	9.579806
48132		10.338323	-13.119943	9.552482
48133		10.345678	-13.048900	9.524629
48134		10.364417	-12.997881	9.504625
48135		10.388250	-12.959227	9.497570
48136		10.400602	-12.940634	9.509413
48137		10.392333	-12.931993	9.531806
48138		10.353769	-12.930351	9.556762
48139		10.271067	-12.942713	9.555621
48140		10.175311	-12.976650	9.530430
48141		10.079491	-13.026559	9.482787
48142		10.006362	-13.068331	9.428133
48143		9.941059	-13.093719	9.381232
48144		9.889588	-13.116208	9.343586
48145		9.842631	-13.129158	9.324216
48146		9.803515	-13.138976	9.314401
48147		9.765721	-13.143828	9.308184
48148		9.721812	-13.156136	9.288257
48149		9.682243	-13.168028	9.254631
48150		9.655643	-13.186237	9.219125
48151		9.655665	-13.203350	9.184169
48152		9.677400	-13.225434	9.152151
48153		9.715139	-13.244817	9.120073
48154		9.760701	-13.282639	9.086082
48155		9.792823	-13.327129	9.048784
48156		9.808364	-13.371675	9.003379
48157		9.789997	-13.403204	8.951801
48158		9.751642	-13.421367	8.895860
48159		9.707899	-13.422732	8.837351
48160		9.676080	-13.421020	8.780400
48161		9.657780	-13.413664	8.715763
48162		9.637512	-13.415207	8.641454
48163		9.613660	-13.430933	8.548631
48164		9.596563	-13.467979	8.446075
48165		9.579559	-13.510585	8.340933
48166		9.552092	-13.554745	8.249960
48167		9.508397	-13.586741	8.176718
48168		9.443874	-13.602135	8.121082
48169		9.376967	-13.597686	8.071207
48170		9.328764	-13.584335	8.007867
48171		9.293219	-13.576416	7.923812
48172		9.288480	-13.583848	7.833857
48173		9.306043	-13.584262	7.753035
48174		9.327197	-13.578392	7.679261
48175		9.332585	-13.569478	7.613523
48176		9.319929	-13.574401	7.544671
48177		9.285154	-13.600697	7.474430
48178		9.251316	-13.639481	7.395278
48179		9.217504	-13.681389	7.304455
48180		9.194797	-13.721021	7.191367
48181		9.174775	-13.747276	7.066767
48182		9.159016	-13.755076	6.936948
48183		9.149302	-13.739375	6.810099
48184		9.154931	-13.701742	6.684358
48185		9.159527	-13.649027	6.563229
48186		9.145072	-13.594106	6.428205
48187		9.113294	-13.553700	6.266169
48188		9.085157	-13.532578	6.088479
48189		9.062690	-13.520841	5.909165
48190		9.036512	-13.525158	5.731855
48191		9.012155	-13.534042	5.561877
48192		8.986728	-13.541676	5.398668
48193		8.968871	-13.538679	5.245880
48194		8.974057	-13.536077	5.104409
48195		8.993154	-13.533890	4.963876
48196		9.012993	-13.537161	4.813870
48197		8.986370	-13.550155	4.633946
48198		8.940804	-13.568159	4.418870
48199		8.890463	-13.574479	4.186632
48200		8.842529	-13.571718	3.949871
48201		8.808136	-13.554992	3.709267
48202		8.794111	-13.536221	3.458583
48203		8.798220	-13.513136	3.194578
48204		8.820349	-13.493450	2.915301
48205		8.848801	-13.472168	2.624042
48206		8.868249	-13.459490	2.324643
48207		8.848325	-13.460454	2.015255
48208		8.789582	-13.487224	1.694984
48209		8.706031	-13.529302	1.370295
48210		8.629383	-13.590981	1.042584
48211		8.560690	-13.658808	0.709079
48212		8.481339	-13.734193	0.361574
48213		8.387727	-13.813198	-0.018792
48214		8.318226	-13.898372	-0.428909
48215		8.284933	-13.982111	-0.856270
48216		8.286251	-14.064428	-1.285718
48217		8.308921	-14.142467	-1.705352
48218		8.340472	-14.213226	-2.122855
48219		8.364359	-14.275306	-2.550948
48220		8.386550	-14.325561	-2.997801
48221		8.409908	-14.366002	-3.477287
48222		8.438125	-14.414884	-3.997741
48223		8.456106	-14.481727	-4.549393
48224		8.498825	-14.553901	-5.107369
48225		8.568492	-14.634844	-5.657063
48226		8.662528	-14.720745	-6.184998
48227		8.747475	-14.805592	-6.698069
48228		8.812203	-14.893703	-7.212724
48229		8.839296	-14.983217	-7.741220
48230		8.864907	-15.067956	-8.273494
48231		8.901255	-15.142783	-8.798962
48232		8.957511	-15.198480	-9.309135
48233		9.020036	-15.233026	-9.798174
48234		9.078016	-15.254028	-10.276560
48235		9.113664	-15.264614	-10.743156
48236		9.118618	-15.273703	-11.234588
48237		9.094411	-15.281861	-11.775677
48238		9.083523	-15.303453	-12.370231
48239		9.105436	-15.328570	-12.995281
48240		9.166612	-15.353846	-13.619557
48241		9.219191	-15.370762	-14.232457
48242		9.246358	-15.378769	-14.847277
48243		9.237748	-15.376513	-15.465610
48244		9.236783	-15.379349	-16.093152
48245		9.282466	-15.396247	-16.729811
48246		9.383442	-15.435721	-17.376483
48247		9.498315	-15.500917	-18.026773
48248		9.621978	-15.579199	-18.680922
48249		9.721337	-15.658452	-19.337132
48250		9.794649	-15.729888	-20.015540
48251		9.858238	-15.788484	-20.721646
48252		9.936361	-15.847344	-21.454521
48253		10.015240	-15.889707	-22.196515
48254		10.091455	-15.926266	-22.934482
48255		10.169853	-15.946991	-23.659378
48256		10.255293	-15.958020	-24.360126
48257		10.325602	-15.958361	-25.032849
48258		10.383491	-15.953521	-25.685715
48259		10.393269	-15.943139	-26.324380
48260		10.373621	-15.931426	-26.962729
48261		10.349413	-15.915886	-27.603570
48262		10.340149	-15.918645	-28.250414
48263		10.340689	-15.929837	-28.897159
48264		10.373506	-15.948718	-29.546306
48265		10.420889	-15.981012	-30.190462
48266		10.515550	-16.021872	-30.835238
48267		10.604754	-16.073165	-31.477581
48268		10.680848	-16.123962	-32.131571
48269		10.742462	-16.164657	-32.809668
48270		10.816629	-16.183327	-33.517316
48271		10.898102	-16.182032	-34.246920
48272		10.987148	-16.161728	-34.989542
48273		11.052272	-16.114294	-35.724325
48274		11.134822	-16.057224	-36.439487
48275		11.254561	-16.015313	-37.109457
48276		11.416914	-15.998429	-37.736745
48277		11.539411	-15.999063	-38.338973
48278		11.603634	-16.008025	-38.949546
48279		11.636693	-16.009849	-39.571907
48280		11.664388	-16.009965	-40.183312
48281		11.675991	-16.017812	-40.759069
48282		11.670226	-16.037404	-41.295496
48283		11.625223	-16.066806	-41.798118
48284		11.540156	-16.101894	-42.299873
48285		11.403639	-16.138222	-42.835369
48286		11.251544	-16.170022	-43.423354
48287		11.129721	-16.197302	-44.065513
48288		11.112913	-16.224796	-44.744445
48289		11.234119	-16.250230	-45.454018
48290		11.486259	-16.283503	-46.172913
48291		11.800596	-16.334625	-46.893343
48292		12.138795	-16.395272	-47.611375
48293		12.438296	-16.441044	-48.314868
48294		12.660544	-16.470345	-49.026752
48295		12.797859	-16.480165	-49.767680
48296		12.911289	-16.477887	-50.545404
48297		13.034675	-16.462103	-51.347467
48298		13.202257	-16.435608	-52.152360
48299		13.420749	-16.410196	-52.931889
48300		13.667244	-16.397472	-53.678324
48301		13.911135	-16.391493	-54.384510
48302		14.152149	-16.385604	-55.064612
48303		14.358894	-16.378880	-55.738673
48304		14.552509	-16.368032	-56.428939
48305		14.737068	-16.345598	-57.124405
48306		14.949280	-16.313567	-57.824022
48307		15.156914	-16.266956	-58.504826
48308		15.337534	-16.202558	-59.155794
48309		15.455149	-16.121547	-59.778204
48310		15.503555	-16.049812	-60.404977
48311		15.501979	-16.009084	-61.058498
48312		15.494034	-16.021155	-61.741256
48313		15.503336	-16.079000	-62.435319
48314		15.539488	-16.172595	-63.141000
48315		15.603758	-16.269056	-63.876861
48316		15.719328	-16.359956	-64.665454
48317		15.879239	-16.438197	-65.500588
48318		16.083310	-16.509657	-66.364527
48319		16.289693	-16.572268	-67.220113
48320		16.493362	-16.627697	-68.036508
48321		16.710340	-16.673697	-68.799479
48322		16.910436	-16.709085	-69.519558
48323		17.017933	-16.744175	-70.193724
48324		17.047800	-16.786578	-70.828219
48325		17.010173	-16.832471	-71.431575
48326		16.930000	-16.896153	-72.020302
48327		16.814313	-16.975401	-72.594392
48328		16.678972	-17.075776	-73.151246
48329		16.525279	-17.193270	-73.688452
48330		16.392563	-17.312821	-74.217054
48331		16.298397	-17.450979	-74.758835
48332		16.266779	-17.601048	-75.326912
48333		16.318847	-17.762812	-75.946413
48334		16.450604	-17.970852	-76.637186
48335		16.631626	-18.203112	-77.383468
48336		16.828934	-18.431089	-78.154026
48337		17.006446	-18.632193	-78.932913
48338		17.180102	-18.789103	-79.736641
48339		17.402268	-18.901812	-80.567097
48340		17.755645	-18.965049	-81.425161
48341		18.200173	-18.995901	-82.299677
48342		18.656997	-19.003072	-83.169854
48343		19.044552	-18.965832	-84.015464
48344		19.333971	-18.876543	-84.820254
48345		19.539795	-18.742240	-85.573267
48346		19.736585	-18.593014	-86.296650
48347		19.959218	-18.464659	-86.994694
48348		20.224461	-18.389238	-87.673630
48349		20.487275	-18.369670	-88.342679
48350		20.742778	-18.389324	-89.015139
48351		20.960749	-18.427360	-89.681875
48352		21.124670	-18.474818	-90.334818
48353		21.212566	-18.520228	-90.953567
48354		21.248062	-18.551267	-91.529898
48355		21.196239	-18.565896	-92.054342
48356		21.062207	-18.561186	-92.528536
48357		20.871582	-18.532004	-92.958241
48358		20.658369	-18.489780	-93.355426
48359		20.455705	-18.440177	-93.746251
48360		20.307275	-18.372870	-94.148175
48361		20.187232	-18.295709	-94.572643
48362		20.043019	-18.193778	-95.023647
48363		19.845238	-18.045635	-95.473813
48364		19.607730	-17.848111	-95.893036
48365		19.332879	-17.633204	-96.263761
48366		19.096378	-17.447970	-96.576847
48367		18.940647	-17.339980	-96.853678
48368		18.852827	-17.320006	-97.132837
48369		18.762958	-17.346236	-97.428231
48370		18.626528	-17.396166	-97.723676
48371		18.434101	-17.443433	-98.007890
48372		18.215485	-17.493647	-98.288110
48373		17.990620	-17.550942	-98.566665
48374		17.821702	-17.619705	-98.857888
48375		17.731801	-17.695305	-99.160911
48376		17.679009	-17.761177	-99.454644
48377		17.609181	-17.768788	-99.740899
48378		17.491464	-17.704368	-100.043479
48379		17.320435	-17.574107	-100.366276
48380		17.179639	-17.420450	-100.707887
48381		17.122161	-17.286819	-101.060394
48382		17.148108	-17.209420	-101.424999
48383		17.226495	-17.194817	-101.791071
48384		17.326832	-17.224329	-102.164439
48385		17.384820	-17.271457	-102.532403
48386		17.387449	-17.313366	-102.875420
48387		17.351069	-17.338887	-103.192808
48388		17.316956	-17.358471	-103.493607
48389		17.310180	-17.374664	-103.768070
48390		17.328331	-17.384273	-104.018029
48391		17.347206	-17.392600	-104.268719
48392		17.364808	-17.404422	-104.535053
48393		17.387848	-17.411503	-104.807576
48394		17.423010	-17.398681	-105.079518
48395		17.458616	-17.361585	-105.344147
48396		17.503133	-17.309495	-105.605505
48397		17.572442	-17.241452	-105.874224
48398		17.667862	-17.154028	-106.159401
48399		17.764233	-17.035163	-106.454575
48400		17.847705	-16.887770	-106.748866
48401		17.872714	-16.755504	-107.018509
48402		17.849012	-16.659910	-107.272049
48403		17.809071	-16.629532	-107.532572
48404		17.801144	-16.656046	-107.818524
48405		17.834724	-16.704681	-108.137075
48406		17.911318	-16.735926	-108.493631
48407		18.023563	-16.718178	-108.870179
48408		18.133056	-16.642031	-109.232783
48409		18.196864	-16.491873	-109.555914
48410		18.217840	-16.300193	-109.837640
48411		18.178713	-16.123853	-110.092418
48412		18.112544	-15.983756	-110.334309
48413		18.056104	-15.926670	-110.579058
48414		18.044845	-15.929455	-110.853897
48415		18.115040	-15.950998	-111.163537
48416		18.251760	-15.971760	-111.498202
48417		18.398511	-15.941017	-111.837814
48418		18.512221	-15.855338	-112.147500
48419		18.580397	-15.736455	-112.399853
48420		18.611357	-15.624133	-112.606388
48421		18.625143	-15.545133	-112.787262
48422		18.640868	-15.526804	-112.956690
48423		18.645320	-15.560079	-113.133062
48424		18.651294	-15.626172	-113.331117
48425		18.680768	-15.699074	-113.551963
48426		18.738243	-15.759329	-113.785702
48427		18.811785	-15.795291	-114.012720
48428		18.895584	-15.807871	-114.211075
48429		18.993648	-15.792846	-114.374395
48430		19.098653	-15.761891	-114.496858
48431		19.194672	-15.716484	-114.580331
48432		19.267123	-15.662600	-114.634807
48433		19.289803	-15.605878	-114.677066
48434		19.235209	-15.568063	-114.737259
48435		19.102658	-15.575957	-114.829177
48436		18.965213	-15.641311	-114.954743
48437		18.898449	-15.736037	-115.108441
48438		18.924537	-15.828165	-115.286335
48439		19.023830	-15.901705	-115.481392
48440		19.171643	-15.933279	-115.685552
48441		19.333271	-15.910182	-115.881943
48442		19.479053	-15.853920	-116.048875
48443		19.586228	-15.781763	-116.182670
48444		19.659570	-15.716576	-116.293983
48445		19.690525	-15.661777	-116.389908
48446		19.706490	-15.600744	-116.477171
48447		19.733377	-15.516201	-116.556530
48448		19.742577	-15.412062	-116.633624
48449		19.727541	-15.275772	-116.706643
48450		19.702246	-15.109676	-116.771594
48451		19.682440	-14.946786	-116.816655
48452		19.687113	-14.805401	-116.842266
48453		19.712404	-14.705635	-116.852470
48454		19.760246	-14.663549	-116.854999
48455		19.789895	-14.670736	-116.851493
48456		19.786655	-14.699668	-116.842597
48457		19.762837	-14.717692	-116.825554
48458		19.719109	-14.705425	-116.799048
48459		19.668269	-14.649934	-116.757295
48460		19.618563	-14.557330	-116.703077
48461		19.577606	-14.439428	-116.653597
48462		19.548300	-14.317333	-116.642643
48463		19.537253	-14.211014	-116.676511
48464		19.549855	-14.123989	-116.742305
48465		19.570062	-14.043609	-116.835046
48466		19.596662	-13.948270	-116.943129
48467		19.622283	-13.813290	-117.064795
48468		19.660852	-13.650971	-117.193797
48469		19.739755	-13.469453	-117.327733
48470		19.856346	-13.278322	-117.465287
48471		19.992745	-13.089862	-117.593666
48472		20.131798	-12.923039	-117.699835
48473		20.250601	-12.776511	-117.783404
48474		20.305248	-12.665851	-117.856718
48475		20.311684	-12.598012	-117.918408
48476		20.295551	-12.578598	-117.960655
48477		20.281416	-12.597505	-117.975224
48478		20.268166	-12.635529	-117.963950
48479		20.248870	-12.670868	-117.939966
48480		20.232936	-12.702067	-117.914113
48481		20.218135	-12.728708	-117.884372
48482		20.198628	-12.740378	-117.859512
48483		20.160042	-12.739570	-117.856616
48484		20.117006	-12.730806	-117.879393
48485		20.096903	-12.703981	-117.922876
48486		20.119807	-12.672421	-117.980341
48487		20.176346	-12.647318	-118.050226
48488		20.242289	-12.623932	-118.126241
48489		20.326763	-12.601756	-118.197433
48490		20.437174	-12.587276	-118.259899
48491		20.579130	-12.567180	-118.313828
48492		20.725735	-12.543759	-118.347433
48493		20.827631	-12.527381	-118.352206
48494		20.861816	-12.529217	-118.327450
48495		20.823389	-12.539339	-118.285382
48496		20.740668	-12.553796	-118.238678
48497		20.664395	-12.570142	-118.195243
48498		20.637906	-12.578103	-118.162680
48499		20.660669	-12.572368	-118.136613
48500		20.707322	-12.561381	-118.104022
48501		20.735381	-12.552425	-118.060827
48502		20.715101	-12.562065	-118.009835
48503		20.665465	-12.598563	-117.956382
48504		20.609186	-12.663682	-117.903251
48505		20.555976	-12.747966	-117.856360
48506		20.510103	-12.826375	-117.813045
48507		20.467154	-12.880540	-117.765004
48508		20.442953	-12.905183	-117.705741
48509		20.441911	-12.902947	-117.633520
48510		20.459948	-12.885133	-117.554899
48511		20.484260	-12.863767	-117.474890
48512		20.501363	-12.860939	-117.403795
48513		20.487428	-12.874452	-117.342819
48514		20.456879	-12.907517	-117.285139
48515		20.429742	-12.958707	-117.229531
48516		20.424831	-13.012929	-117.183971
48517		20.452551	-13.060189	-117.149689
48518		20.513241	-13.087980	-117.121658
48519		20.598687	-13.079464	-117.090432
48520		20.688956	-13.027462	-117.047687
48521		20.770957	-12.948577	-116.983715
48522		20.844887	-12.868120	-116.894137
48523		20.899026	-12.828088	-116.781921
48524		20.914864	-12.845091	-116.660876
48525		20.898523	-12.922249	-116.545211
48526		20.867609	-13.049312	-116.438474
48527		20.842726	-13.197430	-116.331304
48528		20.822462	-13.341778	-116.218178
48529		20.793781	-13.455592	-116.105146
48530		20.757470	-13.528139	-115.987659
48531		20.742606	-13.559368	-115.854562
48532		20.736463	-13.574227	-115.706247
48533		20.741296	-13.595635	-115.541098
48534		20.757098	-13.634610	-115.358691
48535		20.786368	-13.683566	-115.163059
48536		20.822464	-13.738365	-114.958523
48537		20.840166	-13.796062	-114.759475
48538		20.822686	-13.858240	-114.573196
48539		20.797905	-13.909251	-114.401548
48540		20.811246	-13.941873	-114.242676
48541		20.885339	-13.951395	-114.098915
48542		21.007221	-13.948949	-113.963272
48543		21.155193	-13.947443	-113.827695
48544		21.292501	-13.955368	-113.675863
48545		21.418258	-13.973076	-113.487430
48546		21.491618	-14.001532	-113.256021
48547		21.516440	-14.045658	-112.981982
48548		21.508065	-14.111807	-112.679533
48549		21.487959	-14.198115	-112.364915
48550		21.466947	-14.293541	-112.042696
48551		21.449973	-14.381029	-111.720364
48552		21.445808	-14.449820	-111.399847
48553		21.454619	-14.491131	-111.086171
48554		21.473079	-14.504391	-110.777920
48555		21.501350	-14.492531	-110.457484
48556		21.530162	-14.463506	-110.111559
48557		21.553967	-14.430945	-109.739487
48558		21.585785	-14.409447	-109.349456
48559		21.627806	-14.402322	-108.946962
48560		21.656086	-14.416580	-108.550529
48561		21.676924	-14.442470	-108.182855
48562		21.712596	-14.469411	-107.850448
48563		21.780075	-14.478069	-107.523110
48564		21.853641	-14.453951	-107.162176
48565		21.903891	-14.390246	-106.754974
48566		21.894819	-14.309818	-106.308798
48567		21.843167	-14.219242	-105.831798
48568		21.776870	-14.145909	-105.333014
48569		21.704048	-14.103890	-104.835117
48570		21.639037	-14.095242	-104.357720
48571		21.595057	-14.107818	-103.904828
48572		21.556797	-14.131972	-103.480139
48573		21.551293	-14.140361	-103.082413
48574		21.576422	-14.121979	-102.693830
48575		21.631011	-14.077399	-102.290260
48576		21.695652	-14.025500	-101.847016
48577		21.750310	-13.965246	-101.362921
48578		21.776712	-13.898718	-100.850644
48579		21.772868	-13.837403	-100.339408
48580		21.726270	-13.799073	-99.848982
48581		21.648121	-13.780768	-99.395306
48582		21.549610	-13.778008	-98.971958
48583		21.463612	-13.777734	-98.574032
48584		21.416663	-13.774249	-98.197517
48585		21.408515	-13.769596	-97.835406
48586		21.425316	-13.774517	-97.480136
48587		21.463782	-13.786628	-97.126164
48588		21.522547	-13.809972	-96.765854
48589		21.622034	-13.841445	-96.399752
48590		21.752900	-13.882050	-96.027933
48591		21.912765	-13.921934	-95.649396
48592		22.067284	-13.953726	-95.237735
48593		22.187676	-13.968634	-94.782746
48594		22.262999	-13.977167	-94.289414
48595		22.288646	-13.989841	-93.771182
48596		22.278041	-14.012802	-93.251733
48597		22.258340	-14.054832	-92.742851
48598		22.249037	-14.123510	-92.251377
48599		22.266866	-14.205942	-91.770780
48600		22.293289	-14.282003	-91.290365
48601		22.322518	-14.351658	-90.809905
48602		22.355980	-14.414416	-90.335866
48603		22.437707	-14.468964	-89.873406
48604		22.589722	-14.516979	-89.415370
48605		22.782259	-14.554375	-88.940469
48606		22.941524	-14.585451	-88.435014
48607		23.033696	-14.606729	-87.908373
48608		23.049648	-14.624902	-87.368260
48609		23.048282	-14.644396	-86.831920
48610		23.096855	-14.677657	-86.312919
48611		23.215057	-14.720994	-85.813999
48612		23.355438	-14.764914	-85.322524
48613		23.488965	-14.800188	-84.819223
48614		23.594517	-14.839025	-84.290622
48615		23.689217	-14.893642	-83.755242
48616		23.808888	-14.962659	-83.223272
48617		23.960510	-15.040927	-82.688734
48618		24.139891	-15.127953	-82.157991
48619		24.340055	-15.215389	-81.619811
48620		24.497780	-15.303824	-81.050747
48621		24.584499	-15.389990	-80.445732
48622		24.605505	-15.480129	-79.804580
48623		24.598816	-15.585655	-79.142448
48624		24.556956	-15.722520	-78.475783
48625		24.486711	-15.886296	-77.816178
48626		24.382037	-16.076108	-77.153911
48627		24.252608	-16.282492	-76.473871
48628		24.081753	-16.490292	-75.753006
48629		23.836653	-16.674754	-74.984213
48630		23.446637	-16.835751	-74.169925
48631		22.906624	-16.981785	-73.324256
48632		22.285843	-17.136326	-72.473197
48633		21.597549	-17.289370	-71.662102
48634		20.835796	-17.437365	-70.878506
48635		20.451143	-17.591765	-69.847481
48636		20.385332	-17.766509	-68.555521
48637		20.222212	-18.024624	-67.120511
48638		19.897864	-18.294339	-65.686975
48639		19.329441	-18.548852	-64.268959
48640		18.558116	-18.743772	-62.872017
48641		17.741765	-18.899238	-61.544998
48642		17.015804	-19.040429	-60.311656
48643		16.515178	-19.151220	-59.195879
48644		16.235533	-19.233799	-58.215239
48645		16.159405	-19.290414	-57.365146
48646		16.253857	-19.328633	-56.618109
48647		16.425608	-19.351674	-55.938388
48648		16.608921	-19.369299	-55.292772
48649		16.851836	-19.386303	-54.673557
48650		17.161032	-19.404858	-54.055910
48651		17.538915	-19.419927	-53.438843
48652		17.915307	-19.433771	-52.811162
48653		18.255405	-19.445484	-52.175890
48654		18.502551	-19.457125	-51.510580
48655		18.610180	-19.464856	-50.783187
48656		18.511625	-19.476859	-49.966805
48657		18.255262	-19.513148	-49.057967
48658		17.915828	-19.571258	-48.062947
48659		17.549801	-19.654006	-47.000442
48660		17.175638	-19.761293	-45.892963
48661		16.782960	-19.865942	-44.764861
48662		16.294007	-19.955513	-43.639806
48663		15.729323	-20.057192	-42.566519
48664		15.236351	-20.201138	-41.539279
48665		14.943134	-20.366722	-40.544716
48666		14.876423	-20.524102	-39.578541
48667		14.966593	-20.647914	-38.652628
48668		15.114113	-20.739401	-37.780323
48669		15.263195	-20.798586	-36.968449
48670		15.385401	-20.819973	-36.214729
48671		15.513488	-20.809065	-35.528393
48672		15.657618	-20.771279	-34.893063
48673		15.862823	-20.708995	-34.284618
48674		16.102684	-20.637892	-33.663846
48675		16.353628	-20.577528	-33.021212
48676		16.563439	-20.546720	-32.342439
48677		16.701667	-20.531786	-31.627192
48678		16.732765	-20.547670	-30.894167
48679		16.698689	-20.611342	-30.178736
48680		16.659740	-20.747317	-29.481771
48681		16.696841	-20.928433	-28.784679
48682		16.805090	-21.117572	-28.085319
48683		16.965894	-21.278132	-27.384177
48684		17.140447	-21.394907	-26.674700
48685		17.296964	-21.473845	-25.968743
48686		17.416671	-21.526694	-25.281307
48687		17.508165	-21.549909	-24.629389
48688		17.576872	-21.538686	-23.977150
48689		17.658265	-21.478149	-23.310467
48690		17.761784	-21.387873	-22.598716
48691		17.892712	-21.277720	-21.827081
48692		18.010265	-21.185586	-21.017469
48693		18.072912	-21.105066	-20.192660
48694		18.029150	-21.040956	-19.372505
48695		17.900480	-21.003242	-18.571882
48696		17.740957	-20.990933	-17.783525
48697		17.580483	-21.001092	-16.986517
48698		17.442052	-21.025075	-16.155032
48699		17.410697	-21.042949	-15.275528
48700		17.489277	-21.053929	-14.349636
48701		17.643345	-21.052031	-13.407359
48702		17.819867	-21.024557	-12.468071
48703		17.986872	-20.961030	-11.555853
48704		18.109947	-20.858448	-10.669633
48705		18.179681	-20.679493	-9.800358
48706		18.146938	-20.445220	-8.949302
48707		17.995251	-20.204186	-8.102016
48708		17.732935	-19.963102	-7.231369
48709		17.395739	-19.754673	-6.350801
48710		16.997868	-19.607564	-5.484550
48711		16.630764	-19.505940	-4.631269
48712		16.370581	-19.416419	-3.788526
48713		16.229050	-19.332043	-2.956005
48714		16.154904	-19.245489	-2.147793
48715		16.076023	-19.150710	-1.380429
48716		15.962401	-19.051383	-0.662274
48717		15.847502	-18.965722	-0.006169
48718		15.780390	-18.891666	0.598589
48719		15.765178	-18.807339	1.157174
48720		15.751657	-18.695985	1.690432
48721		15.692033	-18.557732	2.211198
48722		15.569495	-18.392697	2.728889
48723		15.389276	-18.216409	3.243741
48724		15.154462	-18.035698	3.768697
48725		14.913359	-17.846839	4.300061
48726		14.692234	-17.681037	4.831573
48727		14.533362	-17.553098	5.367256
48728		14.431990	-17.464488	5.906270
48729		14.369829	-17.386795	6.438912
48730		14.317657	-17.294355	6.945630
48731		14.272435	-17.171360	7.423118
48732		14.236457	-17.012706	7.880343
48733		14.214928	-16.821838	8.338038
48734		14.189950	-16.616261	8.817107
48735		14.149652	-16.412568	9.305624
48736		14.076459	-16.244179	9.789830
48737		13.999354	-16.119938	10.258972
48738		13.941049	-16.035617	10.690909
48739		13.892456	-15.956892	11.072579
48740		13.854632	-15.860205	11.408565
48741		13.816923	-15.750549	11.699339
48742		13.762851	-15.641173	11.941434
48743		13.712594	-15.530919	12.136687
48744		13.674488	-15.433100	12.292892
48745		13.656563	-15.345165	12.422104
48746		13.656361	-15.253757	12.541104
48747		13.663077	-15.152756	12.672733
48748		13.657662	-15.040215	12.833390
48749		13.608803	-14.920424	13.018217
48750		13.513632	-14.788341	13.230926
48751		13.354759	-14.654229	13.454223
48752		13.107316	-14.543206	13.667882
48753		12.774501	-14.458239	13.875489
48754		12.408878	-14.392311	14.086718
48755		12.058279	-14.330567	14.305501
48756		11.749469	-14.267394	14.519934
48757		11.506924	-14.181807	14.717245
48758		11.330478	-14.078588	14.894714
48759		11.217029	-13.974245	15.046966
48760		11.148253	-13.889105	15.176059
48761		11.107759	-13.809020	15.287233
48762		11.078312	-13.742755	15.384173
48763		11.063603	-13.693793	15.466087
48764		11.056450	-13.663332	15.524312
48765		11.047655	-13.656833	15.561915
48766		11.040817	-13.673817	15.584996
48767		11.032371	-13.711385	15.597688
48768		11.012919	-13.764542	15.597134
48769		10.971117	-13.808349	15.584355
48770		10.920816	-13.827835	15.562944
48771		10.858512	-13.808381	15.544462
48772		10.772154	-13.767449	15.524967
48773		10.651907	-13.716629	15.504267
48774		10.515467	-13.668677	15.479692
48775		10.362087	-13.633110	15.450917
48776		10.221388	-13.617255	15.415814
48777		10.103459	-13.617814	15.370645
48778		10.008277	-13.640886	15.311929
48779		9.935795	-13.676254	15.238389
48780		9.877598	-13.711595	15.153024
48781		9.808056	-13.743555	15.063066
48782		9.736104	-13.766564	14.973441
48783		9.657988	-13.782508	14.891932
48784		9.586998	-13.804915	14.807883
48785		9.537838	-13.821025	14.709908
48786		9.499718	-13.836483	14.597695
48787		9.449500	-13.853824	14.476791
48788		9.385039	-13.870825	14.348868
48789		9.290164	-13.874680	14.226192
48790		9.182454	-13.870661	14.112415
48791		9.068281	-13.867182	14.018466
48792		8.965974	-13.881654	13.942661
48793		8.898348	-13.905914	13.888033
48794		8.885562	-13.947372	13.856816
48795		8.926376	-14.009954	13.838488
48796		9.010435	-14.090513	13.822896
48797		9.102486	-14.166828	13.803379
48798		9.169253	-14.225004	13.766977
48799		9.200277	-14.251411	13.694094
48800		9.217953	-14.261590	13.575399
48801		9.255827	-14.257658	13.414096
48802		9.319606	-14.256334	13.228120
48803		9.396865	-14.261346	13.025730
48804		9.488934	-14.293009	12.824482
48805		9.579931	-14.353110	12.621696
48806		9.667854	-14.432006	12.407787
48807		9.750076	-14.504414	12.179430
48808		9.832063	-14.561677	11.948256
48809		9.901079	-14.593544	11.715939
48810		9.952902	-14.611418	11.478345
48811		9.960947	-14.612506	11.235562
48812		9.920277	-14.613598	10.955525
48813		9.841476	-14.619596	10.625757
48814		9.766272	-14.644988	10.239151
48815		9.716799	-14.685727	9.813317
48816		9.715497	-14.734979	9.361586
48817		9.748791	-14.779704	8.897066
48818		9.819675	-14.836801	8.425566
48819		9.917071	-14.893629	7.966210
48820		10.009831	-14.949485	7.520450
48821		10.069511	-15.011503	7.078870
48822		10.108522	-15.067575	6.636693
48823		10.120860	-15.117230	6.194202
48824		10.133075	-15.167057	5.758780
48825		10.171580	-15.198920	5.339819
48826		10.236304	-15.226332	4.944202
48827		10.293644	-15.253001	4.570408
48828		10.352745	-15.296971	4.200626
48829		10.384796	-15.337017	3.818329
48830		10.388683	-15.371279	3.403807
48831		10.381211	-15.390528	2.956630
48832		10.379619	-15.405933	2.497843
48833		10.384252	-15.406830	2.044422
48834		10.373797	-15.399022	1.602231
48835		10.348506	-15.380209	1.171370
48836		10.331027	-15.360340	0.747790
48837		10.283719	-15.361636	0.329919
48838		10.241128	-15.393247	-0.088502
48839		10.210545	-15.455951	-0.504072
48840		10.213847	-15.545098	-0.919414
48841		10.244456	-15.642771	-1.326843
48842		10.287075	-15.734715	-1.740708
48843		10.314224	-15.810632	-2.168880
48844		10.339225	-15.875879	-2.615389
48845		10.358310	-15.937877	-3.073947
48846		10.386542	-16.008963	-3.549981
48847		10.425556	-16.081544	-4.047065
48848		10.486890	-16.154107	-4.560709
48849		10.551124	-16.221267	-5.072496
48850		10.614272	-16.286214	-5.569717
48851		10.673112	-16.345508	-6.049789
48852		10.742398	-16.414033	-6.499397
48853		10.808565	-16.485518	-6.932544
48854		10.852512	-16.557062	-7.375460
48855		10.859686	-16.624230	-7.853059
48856		10.857604	-16.689559	-8.364911
48857		10.850245	-16.744440	-8.903231
48858		10.862693	-16.785994	-9.459396
48859		10.885528	-16.809502	-10.024162
48860		10.937237	-16.825105	-10.593461
48861		11.014182	-16.848727	-11.159841
48862		11.138300	-16.877303	-11.707301
48863		11.265246	-16.913427	-12.234367
48864		11.363033	-16.963566	-12.769662
48865		11.427048	-17.012295	-13.315178
48866		11.484925	-17.057583	-13.882314
48867		11.520289	-17.104426	-14.453151
48868		11.549955	-17.156517	-15.017787
48869		11.571456	-17.208948	-15.566149
48870		11.594983	-17.259092	-16.100636
48871		11.622466	-17.294811	-16.622775
48872		11.661185	-17.325113	-17.145161
48873		11.690318	-17.357997	-17.680450
48874		11.725909	-17.400311	-18.241048
48875		11.766984	-17.445969	-18.820727
48876		11.845770	-17.491018	-19.408983
48877		11.955442	-17.528903	-19.990252
48878		12.092156	-17.571528	-20.561077
48879		12.230882	-17.614207	-21.125888
48880		12.372913	-17.649841	-21.701024
48881		12.480949	-17.685890	-22.304070
48882		12.589429	-17.712876	-22.937547
48883		12.700374	-17.712821	-23.582515
48884		12.809296	-17.710090	-24.222577
48885		12.911671	-17.716929	-24.843254
48886		13.036280	-17.744261	-25.446224
48887		13.161613	-17.782494	-26.036347
48888		13.282406	-17.842748	-26.645793
48889		13.400359	-17.894187	-27.284038
48890		13.533231	-17.935077	-27.940660
48891		13.638379	-17.977037	-28.597910
48892		13.729074	-18.021636	-29.250707
48893		13.809883	-18.067638	-29.890910
48894		13.895534	-18.102762	-30.512226
48895		13.970778	-18.131061	-31.135240
48896		14.049207	-18.161718	-31.767158
48897		14.119662	-18.204899	-32.421248
48898		14.200307	-18.263877	-33.111447
48899		14.299794	-18.334032	-33.827552
48900		14.427765	-18.410496	-34.567261
48901		14.556024	-18.493979	-35.306623
48902		14.690988	-18.582491	-36.036898
48903		14.819820	-18.660848	-36.748197
48904		14.948306	-18.740000	-37.454531
48905		15.071924	-18.816441	-38.162160
48906		15.235394	-18.896927	-38.887373
48907		15.390174	-18.982637	-39.641186
48908		15.517949	-19.086032	-40.422428
48909		15.612393	-19.203941	-41.236739
48910		15.683586	-19.351748	-42.085139
48911		15.754025	-19.527746	-42.961894
48912		15.849924	-19.725145	-43.883763
48913		15.976623	-19.909653	-44.851295
48914		16.149644	-20.064467	-45.858787
48915		16.361392	-20.197473	-46.875035
48916		16.630495	-20.333620	-47.876446
48917		16.922603	-20.465062	-48.858899
48918		17.196857	-20.588575	-49.828370
48919		17.415337	-20.697317	-50.791612
48920		17.586899	-20.808318	-51.765289
48921		17.724516	-20.931456	-52.737598
48922		17.873418	-21.059743	-53.711035
48923		18.022673	-21.175114	-54.674599
48924		18.179880	-21.260512	-55.637893
48925		18.320533	-21.316428	-56.594178
48926		18.441694	-21.349742	-57.539520
48927		18.523361	-21.369648	-58.469559
48928		18.606966	-21.385960	-59.395895
48929		18.710994	-21.378040	-60.338742
48930		18.856862	-21.350542	-61.335383
48931		19.038438	-21.298558	-62.382253
48932		19.265116	-21.225967	-63.448293
48933		19.537302	-21.150194	-64.502337
48934		19.852915	-21.092183	-65.540120
48935		20.159026	-21.056575	-66.549563
48936		20.438990	-21.022249	-67.548889
48937		20.683889	-20.979775	-68.529939
48938		20.893347	-20.940320	-69.488793
48939		21.047750	-20.900305	-70.400232
48940		21.153307	-20.856724	-71.252672
48941		21.193598	-20.801266	-72.036178
48942		21.174144	-20.731065	-72.765613
48943		21.133651	-20.661764	-73.459735
48944		21.084145	-20.608558	-74.142759
48945		21.005363	-20.574022	-74.820535
48946		20.947073	-20.560114	-75.514631
48947		20.910889	-20.559762	-76.231688
48948		20.892972	-20.551030	-76.989545
48949		20.894536	-20.516275	-77.771428
48950		20.934537	-20.464842	-78.550687
48951		21.001151	-20.401347	-79.305709
48952		21.066723	-20.345414	-80.024950
48953		21.111853	-20.311964	-80.715128
48954		21.176863	-20.312079	-81.409368
48955		21.283165	-20.353119	-82.141136
48956		21.491588	-20.416302	-82.956255
48957		21.775152	-20.456914	-83.848628
48958		22.121611	-20.443244	-84.794425
48959		22.511333	-20.359818	-85.758925
48960		22.931366	-20.216196	-86.741865
48961		23.321403	-20.034023	-87.710146
48962		23.659481	-19.845823	-88.638786
48963		23.934519	-19.696724	-89.510590
48964		24.152361	-19.604452	-90.328108
48965		24.319676	-19.546884	-91.095721
48966		24.420127	-19.496647	-91.812555
48967		24.455076	-19.432425	-92.469512
48968		24.422617	-19.359473	-93.060134
48969		24.322760	-19.267412	-93.580893
48970		24.184021	-19.146126	-94.036163
48971		23.977930	-19.001123	-94.419826
48972		23.679687	-18.848104	-94.729803
48973		23.249437	-18.732529	-94.973314
48974		22.735488	-18.700956	-95.182928
48975		22.233412	-18.750420	-95.387975
48976		21.792391	-18.836769	-95.620412
48977		21.413540	-18.900015	-95.894685
48978		21.106850	-18.906339	-96.197063
48979		20.852048	-18.854389	-96.499496
48980		20.617780	-18.760543	-96.800429
48981		20.396151	-18.644579	-97.099875
48982		20.238550	-18.528767	-97.409658
48983		20.182748	-18.417354	-97.744790
48984		20.211919	-18.320967	-98.112392
48985		20.277513	-18.220236	-98.493297
48986		20.325043	-18.106865	-98.862924
48987		20.315840	-17.965468	-99.184292
48988		20.250352	-17.817151	-99.458785
48989		20.137074	-17.695134	-99.690870
48990		20.049769	-17.612094	-99.895641
48991		20.019195	-17.551220	-100.079443
48992		20.022403	-17.490494	-100.246541
48993		20.024514	-17.412839	-100.387418
48994		20.006340	-17.316875	-100.498409
48995		19.962962	-17.202447	-100.583367
48996		19.919666	-17.081952	-100.650307
48997		19.913196	-16.958136	-100.715558
48998		19.901726	-16.845310	-100.790601
48999		19.843911	-16.727420	-100.883413
49000		19.704634	-16.602374	-100.996381
49001		19.513833	-16.462855	-101.116569
49002		19.302475	-16.340377	-101.252474
49003		19.138058	-16.251759	-101.417241
49004		19.067073	-16.195117	-101.618142
49005		19.106683	-16.156913	-101.864304
49006		19.233026	-16.123826	-102.155892
49007		19.419550	-16.074506	-102.468486
49008		19.634490	-15.998180	-102.773662
49009		19.822992	-15.888707	-103.034608
49010		19.971988	-15.749246	-103.250711
49011		20.044068	-15.579905	-103.421931
49012		20.018252	-15.401238	-103.565836
49013		19.915360	-15.225130	-103.694083
49014		19.785163	-15.064282	-103.826480
49015		19.661568	-14.939318	-103.992308
49016		19.595382	-14.861437	-104.209962
49017		19.611462	-14.794534	-104.478180
49018		19.695780	-14.713882	-104.790287
49019		19.851694	-14.598941	-105.114376
49020		20.039738	-14.454178	-105.379610
49021		20.200340	-14.284340	-105.554832
49022		20.300207	-14.122327	-105.651721
49023		20.351293	-13.988508	-105.701560
49024		20.370879	-13.890206	-105.748316
49025		20.351025	-13.822267	-105.813993
49026		20.273751	-13.780049	-105.919693
49027		20.145332	-13.720087	-106.046882
49028		19.995620	-13.627843	-106.190200
49029		19.853606	-13.496047	-106.344774
49030		19.759006	-13.341732	-106.511589
49031		19.734038	-13.202441	-106.679068
49032		19.754235	-13.097750	-106.832147
49033		19.813091	-13.023036	-106.957080
49034		19.879883	-12.972976	-107.060526
49035		19.928850	-12.932101	-107.139218
49036		19.945646	-12.890098	-107.186592
49037		19.929045	-12.842765	-107.213995
49038		19.889928	-12.795154	-107.234377
49039		19.857588	-12.746844	-107.267602
49040		19.857097	-12.699403	-107.321236
49041		19.896472	-12.638761	-107.402751
49042		19.954545	-12.558876	-107.504087
49043		20.017179	-12.457789	-107.608176
49044		20.050358	-12.348587	-107.703823
49045		20.059976	-12.240651	-107.801677
49046		20.069581	-12.152080	-107.898623
49047		20.090807	-12.072453	-107.997897
49048		20.110286	-11.992060	-108.103125
49049		20.119215	-11.910984	-108.209795
49050		20.111480	-11.817373	-108.316768
49051		20.115457	-11.705361	-108.429467
49052		20.145410	-11.578539	-108.528737
49053		20.170882	-11.435455	-108.603333
49054		20.159430	-11.295569	-108.658620
49055		20.111346	-11.162977	-108.715897
49056		20.056123	-11.039954	-108.799693
49057		20.054231	-10.924033	-108.937917
49058		20.148534	-10.809693	-109.137443
49059		20.351138	-10.672709	-109.385144
49060		20.572171	-10.499061	-109.651434
49061		20.769773	-10.310225	-109.893959
49062		20.950011	-10.120667	-110.087827
49063		21.123453	-9.954603	-110.239111
49064		21.313742	-9.838514	-110.365140
49065		21.502377	-9.775105	-110.495942
49066		21.635346	-9.743056	-110.648012
49067		21.711638	-9.721075	-110.808200
49068		21.749949	-9.680783	-110.979471
49069		21.769278	-9.599064	-111.172030
49070		21.798801	-9.474146	-111.382048
49071		21.854251	-9.306676	-111.598576
49072		21.936964	-9.124514	-111.789867
49073		22.050094	-8.963526	-111.926772
49074		22.159554	-8.870436	-111.990420
49075		22.240186	-8.858357	-111.984896
49076		22.236929	-8.912033	-111.940114
49077		22.145489	-8.994659	-111.888396
49078		22.011765	-9.073162	-111.842555
49079		21.894013	-9.114425	-111.804150
49080		21.809089	-9.115267	-111.777130
49081		21.774825	-9.077402	-111.760329
49082		21.783997	-9.014683	-111.753686
49083		21.824588	-8.931516	-111.753159
49084		21.897118	-8.847547	-111.752734
49085		21.979704	-8.771289	-111.748435
49086		22.035658	-8.709255	-111.743094
49087		22.063601	-8.654622	-111.731392
49088		22.075823	-8.613266	-111.705151
49089		22.086270	-8.581703	-111.657418
49090		22.087903	-8.568621	-111.588474
49091		22.082974	-8.551955	-111.508667
49092		22.079590	-8.532684	-111.425784
49093		22.063754	-8.501940	-111.350885
49094		22.032353	-8.464431	-111.285318
49095		21.999807	-8.423126	-111.234999
49096		21.954043	-8.386986	-111.179181
49097		21.914328	-8.364591	-111.108480
49098		21.878176	-8.369663	-111.028949
49099		21.846305	-8.397279	-110.945531
49100		21.821933	-8.458639	-110.866930
49101		21.832265	-8.550338	-110.801007
49102		21.877559	-8.664632	-110.742400
49103		21.948477	-8.785687	-110.688738
49104		22.013910	-8.907451	-110.631017
49105		22.063869	-9.033706	-110.566383
49106		22.108697	-9.157411	-110.495984
49107		22.149615	-9.267768	-110.423256
49108		22.173938	-9.345985	-110.364239
49109		22.172005	-9.385808	-110.321447
49110		22.163080	-9.393993	-110.295132
49111		22.143935	-9.393892	-110.281442
49112		22.130650	-9.395692	-110.268609
49113		22.160339	-9.387194	-110.254369
49114		22.182136	-9.386426	-110.238135
49115		22.189863	-9.399402	-110.211678
49116		22.182580	-9.433883	-110.159321
49117		22.167611	-9.472102	-110.088082
49118		22.145073	-9.514679	-110.010701
49119		22.124955	-9.571159	-109.934385
49120		22.109699	-9.645599	-109.859976
49121		22.106484	-9.721849	-109.788805
49122		22.110437	-9.789323	-109.719870
49123		22.127228	-9.834211	-109.649123
49124		22.138808	-9.856664	-109.570105
49125		22.143429	-9.864881	-109.487277
49126		22.156714	-9.876040	-109.411584
49127		22.195191	-9.880863	-109.343265
49128		22.254862	-9.878494	-109.268696
49129		22.305976	-9.861144	-109.186776
49130		22.324707	-9.842302	-109.087445
49131		22.333803	-9.819411	-108.982042
49132		22.332396	-9.804315	-108.876492
49133		22.338260	-9.794960	-108.770513
49134		22.341975	-9.797644	-108.661842
49135		22.336206	-9.821867	-108.550013
49136		22.327112	-9.877234	-108.434558
49137		22.328897	-9.952031	-108.313923
49138		22.344855	-10.039573	-108.184188
49139		22.365120	-10.121687	-108.043153
49140		22.365944	-10.197686	-107.889748
49141		22.335451	-10.277554	-107.722874
49142		22.279701	-10.370564	-107.538288
49143		22.211517	-10.472885	-107.336347
49144		22.127986	-10.580169	-107.117566
49145		22.056139	-10.704440	-106.890201
49146		21.993164	-10.840243	-106.663427
49147		21.933741	-10.973590	-106.444641
49148		21.891787	-11.087640	-106.246028
49149		21.895562	-11.178377	-106.068865
49150		21.961594	-11.243306	-105.911086
49151		22.073384	-11.296104	-105.769068
49152		22.206938	-11.342479	-105.637927
49153		22.322404	-11.386530	-105.497880
49154		22.404238	-11.435865	-105.338203
49155		22.469070	-11.499285	-105.162011
49156		22.540875	-11.582839	-104.976544
49157		22.631736	-11.678824	-104.790534
49158		22.735698	-11.789244	-104.602257
49159		22.833129	-11.905673	-104.397065
49160		22.910307	-12.022938	-104.169828
49161		22.968890	-12.138832	-103.936931
49162		23.042682	-12.249929	-103.713607
49163		23.144781	-12.352901	-103.514264
49164		23.266003	-12.435924	-103.336637
49165		23.394712	-12.498699	-103.175807
49166		23.513135	-12.562836	-103.009951
49167		23.614862	-12.640036	-102.813293
49168		23.651579	-12.749917	-102.571757
49169		23.677289	-12.891399	-102.283587
49170		23.688684	-13.066096	-101.950353
49171		23.679871	-13.244376	-101.601344
49172		23.705540	-13.403621	-101.266681
49173		23.787746	-13.535416	-100.964273
49174		23.917621	-13.627848	-100.696682
49175		24.108050	-13.671136	-100.466238
49176		24.362179	-13.670778	-100.269068
49177		24.659314	-13.646846	-100.061726
49178		24.977314	-13.615883	-99.796973
49179		25.236678	-13.586774	-99.443123
49180		25.374771	-13.589785	-99.004498
49181		25.425457	-13.635360	-98.508413
49182		25.398464	-13.730561	-97.985552
49183		25.324391	-13.864058	-97.475007
49184		25.229935	-14.025902	-96.997964
49185		25.178329	-14.193843	-96.578607
49186		25.178305	-14.351644	-96.188724
49187		25.232434	-14.455174	-95.777559
49188		25.287557	-14.533367	-95.306770
49189		25.330847	-14.602116	-94.767616
49190		25.350183	-14.677949	-94.161587
49191		25.342567	-14.749730	-93.515178
49192		25.256334	-14.822444	-92.833476
49193		25.114265	-14.897081	-92.134234
49194		24.926340	-14.979638	-91.430289
49195		24.739062	-15.052391	-90.739366
49196		24.573261	-15.112405	-90.070302
49197		24.472758	-15.143518	-89.422677
49198		24.439386	-15.145423	-88.791460
49199		24.482710	-15.113998	-88.165103
49200		24.588097	-15.071775	-87.535051
49201		24.753008	-15.041820	-86.908664
49202		24.954713	-15.029243	-86.283369
49203		25.160114	-15.023699	-85.641018
49204		25.312501	-15.017250	-84.971934
49205		25.387607	-15.008165	-84.293458
49206		25.396205	-15.013184	-83.626482
49207		25.399692	-15.047413	-82.977198
49208		25.441936	-15.106302	-82.345951
49209		25.551202	-15.169982	-81.734687
49210		25.705401	-15.232560	-81.119166
49211		25.866201	-15.254576	-80.463413
49212		25.997782	-15.244823	-79.752926
49213		26.101420	-15.221920	-78.991764
49214		26.173206	-15.199529	-78.189983
49215		26.207905	-15.185819	-77.380237
49216		26.160646	-15.200994	-76.592322
49217		26.067112	-15.253790	-75.838051
49218		25.965851	-15.346756	-75.128430
49219		25.918951	-15.452086	-74.473652
49220		25.933763	-15.561848	-73.848726
49221		26.003419	-15.645123	-73.227772
49222		26.063788	-15.706270	-72.595995
49223		26.101476	-15.748586	-71.952183
49224		26.105765	-15.788011	-71.285216
49225		26.091861	-15.834148	-70.598926
49226		26.028070	-15.878890	-69.892951
49227		25.888964	-15.928029	-69.180992
49228		25.672513	-15.989800	-68.462857
49229		25.408568	-16.060217	-67.725356
49230		25.053603	-16.132697	-66.945225
49231		24.546412	-16.205006	-66.125570
49232		23.951118	-16.292328	-65.159083
49233		23.481765	-16.416448	-63.963868
49234		23.023084	-16.622530	-62.581744
49235		22.598714	-16.901933	-61.120500
49236		22.202221	-17.230326	-59.693074
49237		21.825094	-17.582876	-58.354710
49238		21.458605	-17.918444	-57.140376
49239		21.163085	-18.217204	-56.107692
49240		21.005937	-18.450625	-55.250518
49241		21.041785	-18.606749	-54.542618
49242		21.274151	-18.699206	-53.933575
49243		21.658866	-18.744054	-53.380687
49244		22.137268	-18.763792	-52.853096
49245		22.646198	-18.767385	-52.314725
49246		23.073431	-18.746856	-51.734017
49247		23.384499	-18.709734	-51.119981
49248		23.604067	-18.660666	-50.459630
49249		23.735841	-18.612486	-49.741146
49250		23.779939	-18.593085	-48.982322
49251		23.774482	-18.595716	-48.194934
49252		23.668475	-18.634520	-47.379793
49253		23.420126	-18.695573	-46.528976
49254		23.068170	-18.764525	-45.626497
49255		22.675493	-18.842118	-44.667306
49256		22.294427	-18.931597	-43.659024
49257		21.988885	-19.022074	-42.602874
49258		21.715457	-19.109766	-41.517734
49259		21.415095	-19.177850	-40.419233
49260		21.025320	-19.219460	-39.321946
49261		20.506758	-19.249560	-38.242737
49262		19.930599	-19.299233	-37.192046
49263		19.446172	-19.370975	-36.145780
49264		19.070456	-19.458021	-35.098060
49265		18.797345	-19.536501	-34.075263
49266		18.549753	-19.599759	-33.106437
49267		18.246638	-19.649064	-32.207472
49268		17.887407	-19.671548	-31.385216
49269		17.531999	-19.703812	-30.639613
49270		17.274665	-19.745149	-29.904161
49271		17.126215	-19.780637	-29.130837
49272		17.051429	-19.800832	-28.310777
49273		17.030990	-19.814487	-27.463512
49274		16.991901	-19.827171	-26.589373
49275		16.916150	-19.822659	-25.715690
49276		16.817519	-19.815976	-24.869929
49277		16.721056	-19.829138	-24.068502
49278		16.636635	-19.834418	-23.283726
49279		16.547257	-19.792504	-22.471945
49280		16.444859	-19.695775	-21.619468
49281		16.320395	-19.562302	-20.736660
49282		16.150074	-19.432614	-19.832571
49283		15.950642	-19.313040	-18.956818
49284		15.730709	-19.219282	-18.145942
49285		15.538494	-19.201080	-17.415224
49286		15.476025	-19.235753	-16.741920
49287		15.629955	-19.263567	-16.075443
49288		15.894529	-19.257388	-15.387904
49289		16.157410	-19.216193	-14.690413
49290		16.366714	-19.159390	-13.989780
49291		16.540290	-19.088828	-13.297100
49292		16.709161	-18.997857	-12.624531
49293		16.893815	-18.895857	-11.979571
49294		17.065672	-18.772447	-11.325489
49295		17.171912	-18.601460	-10.621160
49296		17.159071	-18.396298	-9.846004
49297		17.044193	-18.159967	-8.994674
49298		16.832321	-17.900214	-8.065371
49299		16.562830	-17.654390	-7.085979
49300		16.244081	-17.448401	-6.088653
49301		15.899802	-17.274846	-5.114597
49302		15.517735	-17.159377	-4.195198
49303		15.125592	-17.082283	-3.333518
49304		14.745201	-17.054951	-2.492837
49305		14.473299	-17.041055	-1.622029
49306		14.318697	-16.993647	-0.678185
49307		14.228138	-16.903356	0.323793
49308		14.134639	-16.823836	1.372001
49309		14.013815	-16.769207	2.426355
49310		13.862373	-16.728899	3.456136
49311		13.670206	-16.672516	4.421515
49312		13.437266	-16.583675	5.305506
49313		13.209052	-16.454804	6.120614
49314		13.023621	-16.307167	6.893402
49315		13.029072	-16.128130	7.660997
49316		13.212804	-15.928162	8.426223
49317		13.497210	-15.752583	9.167512
49318		13.792446	-15.618439	9.864217
49319		14.038565	-15.522586	10.504110
49320		14.228522	-15.478449	11.061116
49321		14.382474	-15.515871	11.510366
49322		14.515963	-15.615046	11.860413
49323		14.621152	-15.720350	12.139779
49324		14.670656	-15.789985	12.401132
49325		14.664230	-15.794552	12.687569
49326		14.613470	-15.735778	13.029202
49327		14.579593	-15.628543	13.430360
49328		14.578445	-15.511059	13.871785
49329		14.604983	-15.404498	14.322044
49330		14.626767	-15.311340	14.749647
49331		14.612686	-15.214231	15.125389
49332		14.548893	-15.115534	15.429583
49333		14.463876	-15.024392	15.657804
49334		14.399955	-14.938043	15.825691
49335		14.385132	-14.833600	15.956554
49336		14.405243	-14.724196	16.070332
49337		14.454613	-14.607335	16.183636
49338		14.499980	-14.498768	16.318533
49339		14.529776	-14.413155	16.472216
49340		14.559367	-14.361421	16.640064
49341		14.603225	-14.326760	16.818274
49342		14.644220	-14.290882	17.002793
49343		14.642108	-14.244565	17.176874
49344		14.586546	-14.179061	17.337916
49345		14.456677	-14.095280	17.489925
49346		14.276803	-13.995442	17.631506
49347		14.080599	-13.866875	17.764378
49348		13.879110	-13.742537	17.893949
49349		13.701621	-13.618472	18.015431
49350		13.550813	-13.495295	18.128951
49351		13.416936	-13.372710	18.243951
49352		13.291642	-13.275558	18.374690
49353		13.141469	-13.207660	18.538992
49354		12.985004	-13.167675	18.732675
49355		12.821743	-13.133143	18.936025
49356		12.648529	-13.107462	19.133191
49357		12.499715	-13.085184	19.297905
49358		12.389621	-13.051432	19.435206
49359		12.309218	-13.007363	19.552000
49360		12.257617	-12.983207	19.668896
49361		12.209916	-12.997728	19.787338
49362		12.158381	-13.051919	19.897746
49363		12.092904	-13.125178	19.989013
49364		12.007422	-13.213887	20.061257
49365		11.922279	-13.295070	20.120640
49366		11.845399	-13.338084	20.177438
49367		11.772450	-13.340432	20.231965
49368		11.702844	-13.321580	20.284284
49369		11.651002	-13.312215	20.339037
49370		11.619485	-13.340825	20.400655
49371		11.592910	-13.393601	20.463543
49372		11.553801	-13.467216	20.521325
49373		11.506620	-13.555292	20.567774
49374		11.459328	-13.656361	20.601804
49375		11.418007	-13.752016	20.629629
49376		11.376524	-13.838177	20.657521
49377		11.327164	-13.898616	20.689967
49378		11.260782	-13.950522	20.721672
49379		11.174093	-13.979636	20.739113
49380		11.091237	-13.988987	20.739282
49381		11.052574	-13.980967	20.714389
49382		11.079835	-13.962869	20.672424
49383		11.138427	-13.941379	20.617395
49384		11.200650	-13.945912	20.546825
49385		11.253444	-13.993254	20.456540
49386		11.290520	-14.065894	20.351656
49387		11.321441	-14.156483	20.241714
49388		11.337902	-14.242363	20.122658
49389		11.324722	-14.315390	19.986347
49390		11.294662	-14.383511	19.830086
49391		11.265047	-14.444300	19.657800
49392		11.241251	-14.499914	19.478016
49393		11.207071	-14.545615	19.281750
49394		11.175441	-14.576768	19.070103
49395		11.142356	-14.601367	18.851278
49396		11.111190	-14.634064	18.624074
49397		11.074612	-14.673982	18.384834
49398		11.030537	-14.735958	18.123843
49399		10.974406	-14.803711	17.837093
49400		10.903051	-14.871003	17.525501
49401		10.819592	-14.931142	17.185345
49402		10.747683	-14.985597	16.829946
49403		10.722720	-15.026016	16.484841
49404		10.736919	-15.077166	16.154353
49405		10.764905	-15.142182	15.849102
49406		10.789001	-15.218096	15.556618
49407		10.773058	-15.278153	15.262170
49408		10.696152	-15.316575	14.947625
49409		10.570535	-15.333871	14.601308
49410		10.405685	-15.346468	14.229379
49411		10.253353	-15.351946	13.838854
49412		10.155205	-15.366292	13.446853
49413		10.105575	-15.392353	13.059930
49414		10.084865	-15.446767	12.678338
49415		10.082431	-15.533144	12.308288
49416		10.105757	-15.654288	11.943579
49417		10.129874	-15.786907	11.570529
49418		10.141044	-15.950830	11.179832
49419		10.146827	-16.109365	10.766718
49420		10.157150	-16.253454	10.333906
49421		10.132042	-16.383353	9.887438
49422		10.100874	-16.475098	9.423665
49423		10.069073	-16.542433	8.963281
49424		10.023987	-16.588715	8.488107
49425		9.934706	-16.639946	7.975780
49426		9.832254	-16.705472	7.390529
49427		9.733679	-16.781714	6.726696
49428		9.683124	-16.856690	5.990510
49429		9.674838	-16.926835	5.209680
49430		9.725054	-16.988735	4.403030
49431		9.812181	-17.025477	3.589812
49432		9.915348	-17.050865	2.785935
49433		10.013430	-17.072034	1.989429
49434		10.134420	-17.094813	1.216752
49435		10.260652	-17.131628	0.474945
49436		10.391624	-17.184340	-0.243522
49437		10.518138	-17.215231	-0.941544
49438		10.615039	-17.240528	-1.624821
49439		10.663816	-17.270179	-2.289409
49440		10.658422	-17.322308	-2.935403
49441		10.585878	-17.410129	-3.596092
49442		10.492927	-17.517115	-4.304552
49443		10.417331	-17.635033	-5.068319
49444		10.396919	-17.766234	-5.877386
49445		10.439537	-17.903129	-6.712312
49446		10.551161	-18.036538	-7.554338
49447		10.659330	-18.157498	-8.376116
49448		10.767035	-18.275328	-9.162445
49449		10.844844	-18.389615	-9.904165
49450		10.895989	-18.498246	-10.636822
49451		10.918370	-18.601646	-11.390401
49452		10.957818	-18.704265	-12.176630
49453		11.004873	-18.815957	-12.983549
49454		11.079451	-18.957639	-13.807235
49455		11.187748	-19.110965	-14.633783
49456		11.306960	-19.265465	-15.462692
49457		11.395625	-19.419958	-16.288225
49458		11.490719	-19.579767	-17.111927
49459		11.587665	-19.756511	-17.943105
49460		11.710878	-19.941131	-18.808173
49461		11.848686	-20.099640	-19.693976
49462		12.005151	-20.232132	-20.576960
49463		12.154540	-20.338411	-21.416176
49464		12.278865	-20.422667	-22.200527
49465		12.341233	-20.477980	-22.956442
49466		12.355510	-20.519108	-23.719957
49467		12.336953	-20.550970	-24.499688
49468		12.347701	-20.593357	-25.303354
49469		12.397619	-20.650953	-26.121064
49470		12.489517	-20.724889	-26.940729
49471		12.595765	-20.816729	-27.755059
49472		12.717241	-20.919386	-28.556569
49473		12.815343	-21.014517	-29.326095
49474		12.907951	-21.091392	-30.086226
49475		12.988858	-21.144220	-30.859849
49476		13.077011	-21.157089	-31.662440
49477		13.178746	-21.126855	-32.486723
49478		13.317678	-21.070967	-33.333313
49479		13.498792	-21.006186	-34.180398
49480		13.703109	-20.954249	-35.017693
49481		13.887207	-20.938588	-35.839543
49482		14.049521	-20.952321	-36.641979
49483		14.178017	-20.985210	-37.444944
49484		14.288020	-21.035557	-38.302005
49485		14.403859	-21.076320	-39.222760
49486		14.551670	-21.094828	-40.190740
49487		14.726838	-21.105415	-41.178215
49488		14.937689	-21.104268	-42.175549
49489		15.161001	-21.085728	-43.146212
49490		15.373953	-21.078152	-44.077550
49491		15.580701	-21.096700	-44.956447
49492		15.802587	-21.160651	-45.785298
49493		15.998461	-21.271627	-46.587382
49494		16.149833	-21.414635	-47.404063
49495		16.227833	-21.560045	-48.252038
49496		16.266522	-21.671859	-49.141828
49497		16.313351	-21.719759	-50.056240
49498		16.395082	-21.722594	-50.999731
49499		16.508840	-21.686407	-51.963650
49500		16.684091	-21.617702	-52.928086
49501		16.904910	-21.547626	-53.867773
49502		17.153744	-21.492586	-54.783642
49503		17.408806	-21.460011	-55.662047
49504		17.667948	-21.435935	-56.511158
49505		17.876292	-21.421908	-57.361725
49506		18.053230	-21.417547	-58.267873
49507		18.211042	-21.404780	-59.222286
49508		18.364329	-21.380383	-60.212982
49509		18.515050	-21.348360	-61.209153
49510		18.677844	-21.320140	-62.188980
49511		18.855365	-21.317427	-63.144955
49512		19.081389	-21.350979	-64.077553
49513		19.342676	-21.399216	-64.995927
49514		19.611677	-21.449910	-65.931589
49515		19.853699	-21.485096	-66.876410
49516		20.014385	-21.496429	-67.783527
49517		20.065813	-21.466471	-68.607328
49518		20.004163	-21.416142	-69.332024
49519		19.810141	-21.371993	-69.950452
49520		19.518070	-21.352657	-70.492462
49521		19.182360	-21.361886	-71.011236
49522		18.896249	-21.388030	-71.545369
49523		18.626675	-21.423569	-72.091936
49524		18.382696	-21.475633	-72.647859
49525		18.138369	-21.538957	-73.178121
49526		17.910751	-21.620880	-73.688503
49527		17.726403	-21.719031	-74.199161
49528		17.665419	-21.828506	-74.746336
49529		17.736412	-21.904394	-75.350280
49530		17.938796	-21.947984	-76.016597
49531		18.230530	-21.967056	-76.739202
49532		18.578860	-21.970801	-77.502738
49533		18.972033	-21.981159	-78.310542
49534		19.424406	-21.979023	-79.177934
49535		19.914513	-21.944185	-80.125040
49536		20.448074	-21.886106	-81.168689
49537		20.986274	-21.782612	-82.266992
49538		21.502888	-21.613639	-83.405307
49539		21.972064	-21.371668	-84.541434
49540		22.389870	-21.078546	-85.630122
49541		22.721454	-20.775259	-86.646831
49542		23.022088	-20.507831	-87.593245
49543		23.323039	-20.288535	-88.464519
49544		23.617782	-20.106906	-89.258440
49545		23.778424	-19.925046	-89.956427
49546		23.728856	-19.730760	-90.545414
49547		23.458937	-19.518751	-91.012523
49548		23.021459	-19.311559	-91.366416
49549		22.501783	-19.138391	-91.635227
49550		22.036173	-19.031702	-91.870414
49551		21.724290	-18.991265	-92.122957
49552		21.553774	-18.974403	-92.425697
49553		21.403465	-18.906010	-92.748615
49554		21.215509	-18.755187	-93.058857
49555		20.939207	-18.522894	-93.321629
49556		20.578152	-18.248134	-93.530655
49557		20.139360	-17.983654	-93.704499
49558		19.663201	-17.788248	-93.860959
49559		19.230667	-17.698852	-94.008545
49560		18.929531	-17.732814	-94.173198
49561		18.773846	-17.822275	-94.384861
49562		18.714897	-17.861021	-94.646380
49563		18.667979	-17.760477	-94.939645
49564		18.597547	-17.520325	-95.257507
49565		18.541024	-17.179822	-95.591961
49566		18.523381	-16.794667	-95.917672
49567		18.550269	-16.427360	-96.217818
49568		18.632781	-16.141737	-96.499991
49569		18.734879	-15.972905	-96.790181
49570		18.836678	-15.883376	-97.124111
49571		18.936371	-15.810077	-97.494726
49572		19.016792	-15.696818	-97.880876
49573		19.056838	-15.499296	-98.252337
49574		19.028594	-15.227946	-98.584488
49575		18.944391	-14.917316	-98.870062
49576		18.841644	-14.619245	-99.120208
49577		18.795902	-14.381366	-99.355775
49578		18.805869	-14.246880	-99.589328
49579		18.832923	-14.188592	-99.848255
49580		18.845149	-14.147082	-100.130644
49581		18.832613	-14.069048	-100.434560
49582		18.834814	-13.940433	-100.762922
49583		18.883362	-13.776191	-101.119814
49584		18.982078	-13.614576	-101.489279
49585		19.156354	-13.459914	-101.878348
49586		19.355814	-13.307493	-102.267616
49587		19.502819	-13.148637	-102.671226
49588		19.565327	-12.946906	-103.098765
49589		19.583052	-12.669909	-103.545447
49590		19.639551	-12.359782	-103.987417
49591		19.760528	-12.074444	-104.418241
49592		19.928538	-11.876843	-104.851858
49593		20.152652	-11.773472	-105.292113
49594		20.391086	-11.765452	-105.724159
49595		20.610561	-11.806110	-106.141533
49596		20.822507	-11.836388	-106.547557
49597		21.054635	-11.827470	-106.943546
49598		21.349894	-11.778612	-107.327716
49599		21.740180	-11.686872	-107.709148
49600		22.193978	-11.556839	-108.127405
49601		22.669384	-11.415151	-108.624114
49602		23.147774	-11.266977	-109.182572
49603		23.621145	-11.085026	-109.759504
49604		24.062674	-10.850496	-110.299916
49605		24.398640	-10.568455	-110.747042
49606		24.616158	-10.275186	-111.052598
49607		24.747510	-10.000714	-111.239113
49608		24.784365	-9.760110	-111.351039
49609		24.745162	-9.545908	-111.443563
49610		24.672876	-9.348406	-111.557999
49611		24.584159	-9.139172	-111.699249
49612		24.466836	-8.933987	-111.851504
49613		24.308601	-8.775857	-111.998250
49614		24.139615	-8.706577	-112.135503
49615		24.042729	-8.722923	-112.274106
49616		24.052121	-8.782579	-112.430822
49617		24.123957	-8.850476	-112.621264
49618		24.202615	-8.890926	-112.831260
49619		24.257191	-8.871233	-113.022752
49620		24.259833	-8.791332	-113.163255
49621		24.195124	-8.687267	-113.251654
49622		24.101667	-8.609416	-113.310804
49623		24.048600	-8.585745	-113.354904
49624		24.055566	-8.612727	-113.397378
49625		24.091743	-8.660992	-113.453067
49626		24.117964	-8.702818	-113.535202
49627		24.124028	-8.733874	-113.636295
49628		24.129919	-8.756104	-113.753101
49629		24.149655	-8.770495	-113.900508
49630		24.179549	-8.784329	-114.080205
49631		24.229961	-8.772941	-114.297943
49632		24.294849	-8.741262	-114.561075
49633		24.402060	-8.677903	-114.851258
49634		24.548296	-8.596301	-115.144597
49635		24.708938	-8.495227	-115.399697
49636		24.824929	-8.395087	-115.599579
49637		24.868590	-8.309176	-115.716527
49638		24.848229	-8.271822	-115.761677
49639		24.826807	-8.275526	-115.768759
49640		24.793188	-8.308640	-115.770897
49641		24.732669	-8.353800	-115.782095
49642		24.651290	-8.390336	-115.801049
49643		24.557328	-8.404423	-115.823465
49644		24.483350	-8.394865	-115.842230
49645		24.436172	-8.363152	-115.853766
49646		24.412576	-8.345649	-115.859473
49647		24.422069	-8.354698	-115.863003
49648		24.457433	-8.391005	-115.879673
49649		24.494802	-8.423074	-115.927236
49650		24.498838	-8.440437	-116.020837
49651		24.464253	-8.438322	-116.163460
49652		24.413068	-8.431547	-116.342820
49653		24.352659	-8.418910	-116.531247
49654		24.302970	-8.396131	-116.716249
49655		24.287503	-8.346879	-116.902080
49656		24.314792	-8.281940	-117.080137
49657		24.395118	-8.210564	-117.229957
49658		24.494699	-8.161212	-117.334131
49659		24.591894	-8.134762	-117.373191
49660		24.622033	-8.125442	-117.346984
49661		24.553856	-8.145419	-117.286525
49662		24.436132	-8.193349	-117.212509
49663		24.343012	-8.246785	-117.136379
49664		24.311312	-8.287194	-117.061608
49665		24.337733	-8.307818	-116.991083
49666		24.392143	-8.305623	-116.925028
49667		24.435526	-8.299481	-116.863203
49668		24.461593	-8.305567	-116.800447
49669		24.469035	-8.320732	-116.738731
49670		24.465617	-8.356583	-116.674968
49671		24.457774	-8.408036	-116.602980
49672		24.428501	-8.472115	-116.512311
49673		24.383211	-8.542311	-116.417045
49674		24.337423	-8.617751	-116.312992
49675		24.298050	-8.690371	-116.203451
49676		24.272345	-8.764328	-116.086653
49677		24.239861	-8.839763	-115.952541
49678		24.188605	-8.936423	-115.800148
49679		24.118447	-9.059372	-115.634569
49680		24.029200	-9.201970	-115.468530
49681		23.955458	-9.331469	-115.315399
49682		23.923755	-9.455865	-115.176213
49683		23.927119	-9.569575	-115.047940
49684		23.950884	-9.663366	-114.929489
49685		23.998672	-9.729584	-114.807909
49686		24.058878	-9.775945	-114.680585
49687		24.130744	-9.807577	-114.553739
49688		24.204793	-9.841021	-114.426375
49689		24.286236	-9.879811	-114.303739
49690		24.362372	-9.937236	-114.177322
49691		24.421405	-10.015213	-114.040190
49692		24.467049	-10.117195	-113.897295
49693		24.508876	-10.241289	-113.753776
49694		24.537722	-10.367793	-113.612268
49695		24.563039	-10.469718	-113.467595
49696		24.585612	-10.540236	-113.309142
49697		24.622115	-10.577331	-113.143826
49698		24.673024	-10.599441	-112.978736
49699		24.753794	-10.613591	-112.816714
49700		24.860828	-10.633751	-112.655821
49701		24.995975	-10.660875	-112.494372
49702		25.149591	-10.693814	-112.334049
49703		25.294015	-10.733134	-112.160147
49704		25.414842	-10.780862	-111.953978
49705		25.512876	-10.831888	-111.700534
49706		25.585984	-10.894485	-111.395214
49707		25.632090	-10.952711	-111.041532
49708		25.649563	-11.019304	-110.639319
49709		25.629381	-11.100314	-110.200750
49710		25.562390	-11.208336	-109.746185
49711		25.450479	-11.342610	-109.295376
49712		25.300444	-11.492066	-108.861955
49713		25.162184	-11.634554	-108.456567
49714		25.066524	-11.758913	-108.088073
49715		25.032831	-11.834872	-107.761450
49716		25.059862	-11.849910	-107.455324
49717		25.135251	-11.805047	-107.132509
49718		25.205100	-11.734313	-106.773101
49719		25.269771	-11.657033	-106.382196
49720		25.316360	-11.587487	-105.961939
49721		25.374445	-11.544700	-105.528842
49722		25.432007	-11.526655	-105.103166
49723		25.497298	-11.526376	-104.702620
49724		25.556028	-11.529444	-104.313714
49725		25.620502	-11.515275	-103.917745
49726		25.670856	-11.483561	-103.490963
49727		25.718575	-11.436476	-103.028013
49728		25.768974	-11.404663	-102.533250
49729		25.827518	-11.405015	-102.033714
49730		25.864499	-11.436082	-101.552403
49731		25.889447	-11.472300	-101.111060
49732		25.909408	-11.514090	-100.713478
49733		25.962136	-11.565975	-100.353946
49734		26.068838	-11.642535	-100.014992
49735		26.242562	-11.711973	-99.663332
49736		26.420696	-11.742910	-99.268274
49737		26.560451	-11.715419	-98.828595
49738		26.631050	-11.647701	-98.349632
49739		26.680526	-11.543712	-97.850745
49740		26.745232	-11.423767	-97.346727
49741		26.862799	-11.296564	-96.846062
49742		27.000723	-11.166806	-96.341788
49743		27.131845	-11.028878	-95.812049
49744		27.218444	-10.888480	-95.241839
49745		27.254110	-10.760244	-94.648478
49746		27.242612	-10.673392	-94.043197
49747		27.235306	-10.640245	-93.449996
49748		27.248523	-10.659580	-92.877040
49749		27.285420	-10.699450	-92.325289
49750		27.331570	-10.741469	-91.793547
49751		27.388866	-10.763671	-91.256410
49752		27.449314	-10.766613	-90.694160
49753		27.541499	-10.763062	-90.086426
49754		27.678556	-10.779890	-89.423231
49755		27.871562	-10.826872	-88.718804
49756		28.105903	-10.908615	-87.987352
49757		28.343370	-11.013486	-87.271632
49758		28.504729	-11.125626	-86.583007
49759		28.597563	-11.207837	-85.938552
49760		28.647792	-11.251653	-85.340503
49761		28.721735	-11.260091	-84.794904
49762		28.844855	-11.268782	-84.285359
49763		29.044053	-11.299597	-83.801216
49764		29.332638	-11.383147	-83.320375
49765		29.676452	-11.517605	-82.810413
49766		29.994629	-11.678107	-82.237656
49767		30.226713	-11.856313	-81.586602
49768		30.366414	-12.052591	-80.854393
49769		30.448163	-12.256446	-80.062298
49770		30.478624	-12.468019	-79.244770
49771		30.519241	-12.683778	-78.432774
49772		30.549053	-12.911469	-77.654806
49773		30.558846	-13.143764	-76.920847
49774		30.523827	-13.381092	-76.216454
49775		30.440945	-13.618409	-75.518684
49776		30.262969	-13.852916	-74.797335
49777		29.957227	-14.081586	-74.025635
49778		29.509467	-14.324779	-73.204541
49779		28.923849	-14.578762	-72.335147
49780		28.113475	-14.849013	-71.398656
49781		27.048075	-15.140398	-70.382845
49782		26.080984	-15.496351	-69.111369
49783		25.265080	-15.977498	-67.620165
49784		24.372446	-16.604674	-65.995921
49785		23.469096	-17.313674	-64.415182
49786		22.616344	-18.023814	-62.904829
49787		21.860075	-18.688664	-61.488701
49788		21.219462	-19.270747	-60.208686
49789		20.744081	-19.754537	-59.082721
49790		20.419163	-20.137701	-58.108034
49791		20.316717	-20.416784	-57.293365
49792		20.402359	-20.589705	-56.597536
49793		20.580146	-20.668784	-55.971684
49794		20.789869	-20.683766	-55.384755
49795		20.975559	-20.658483	-54.802902
49796		21.064130	-20.598754	-54.183905
49797		21.072235	-20.501561	-53.515115
49798		21.019720	-20.405154	-52.790882
49799		20.966413	-20.358457	-52.029917
49800		20.952903	-20.401230	-51.251083
49801		20.998230	-20.526087	-50.469769
49802		21.045612	-20.711101	-49.680769
49803		21.044110	-20.913582	-48.867228
49804		20.946690	-21.108841	-48.009924
49805		20.753842	-21.272830	-47.109672
49806		20.471651	-21.419774	-46.173510
49807		20.172769	-21.554650	-45.217069
49808		19.869741	-21.707936	-44.255056
49809		19.658985	-21.880183	-43.310732
49810		19.540216	-22.058411	-42.377651
49811		19.457614	-22.217956	-41.470316
49812		19.317258	-22.340496	-40.574831
49813		19.089641	-22.418919	-39.687648
49814		18.776531	-22.456159	-38.788950
49815		18.467677	-22.472389	-37.880116
49816		18.229420	-22.492472	-36.936033
49817		18.066326	-22.508415	-35.937116
49818		17.879778	-22.535033	-34.882280
49819		17.631414	-22.582990	-33.792348
49820		17.310668	-22.661501	-32.686311
49821		16.998047	-22.797197	-31.579049
49822		16.790202	-22.988621	-30.466625
49823		16.697877	-23.203718	-29.362140
49824		16.659864	-23.442434	-28.304893
49825		16.646348	-23.686958	-27.323062
49826		16.613769	-23.934639	-26.423297
49827		16.600679	-24.193393	-25.628665
49828		16.627052	-24.460655	-24.928259
49829		16.768628	-24.704547	-24.257027
49830		17.035570	-24.872544	-23.541504
49831		17.380679	-24.981306	-22.761655
49832		17.750508	-25.053871	-21.919466
49833		18.116343	-25.119527	-21.023715
49834		18.439408	-25.190025	-20.079126
49835		18.648134	-25.259333	-19.149002
49836		18.688443	-25.326550	-18.276470
49837		18.600873	-25.408251	-17.468116
49838		18.470759	-25.497754	-16.659182
49839		18.366405	-25.542277	-15.790386
49840		18.236656	-25.543687	-14.852768
49841		18.100802	-25.510422	-13.859312
49842		17.910057	-25.462648	-12.832979
49843		17.661426	-25.416386	-11.792213
49844		17.363221	-25.367673	-10.772739
49845		17.054778	-25.321544	-9.801077
49846		16.759976	-25.261424	-8.866843
49847		16.533020	-25.162362	-7.953476
49848		16.349447	-25.022771	-7.070780
49849		16.216945	-24.840371	-6.232019
49850		16.104219	-24.643244	-5.423204
49851		16.000084	-24.464798	-4.660172
49852		15.891875	-24.325487	-3.937995
49853		15.812826	-24.188880	-3.223495
49854		15.735665	-24.011950	-2.481241
49855		15.625028	-23.798599	-1.718034
49856		15.492017	-23.581814	-0.939787
49857		15.349638	-23.385527	-0.150221
49858		15.192136	-23.224423	0.624760
49859		15.042920	-23.115717	1.359507
49860		14.884122	-23.038905	2.051356
49861		14.732809	-22.960290	2.698377
49862		14.588677	-22.869213	3.299753
49863		14.486601	-22.756140	3.874890
49864		14.414049	-22.605622	4.464489
49865		14.356997	-22.407063	5.063773
49866		14.320314	-22.204411	5.656735
49867		14.252504	-22.001424	6.228931
49868		14.120620	-21.812507	6.780352
49869		13.923890	-21.648735	7.313937
49870		13.651308	-21.506191	7.844735
49871		13.333281	-21.370306	8.387247
49872		13.009025	-21.225499	8.948341
49873		12.689095	-21.080919	9.520058
49874		12.375857	-20.926819	10.093828
49875		12.066369	-20.771514	10.653686
49876		11.761132	-20.615009	11.179212
49877		11.448616	-20.439208	11.665621
49878		11.074076	-20.232364	12.124332
49879		10.651562	-19.975433	12.545362
49880		10.209504	-19.668523	12.920816
49881		9.798886	-19.324850	13.243705
49882		9.498234	-18.953621	13.502027
49883		9.302210	-18.571924	13.693085
49884		9.186780	-18.210388	13.837755
49885		9.136954	-17.908203	13.961965
49886		9.145725	-17.694019	14.088806
49887		9.198560	-17.576895	14.220648
49888		9.260479	-17.563352	14.341873
49889		9.309680	-17.613693	14.450153
49890		9.343158	-17.692057	14.539837
49891		9.350652	-17.767806	14.617058
49892		9.351815	-17.827657	14.682300
49893		9.357291	-17.860076	14.735195
49894		9.365481	-17.859400	14.775697
49895		9.365087	-17.825749	14.799390
49896		9.368392	-17.767402	14.811711
49897		9.383418	-17.710227	14.815597
49898		9.402730	-17.650305	14.822446
49899		9.426027	-17.571522	14.822799
49900		9.445837	-17.485280	14.812704
49901		9.439918	-17.399934	14.788380
49902		9.409431	-17.322727	14.755819
49903		9.355762	-17.252309	14.731739
49904		9.300767	-17.190344	14.718851
49905		9.250085	-17.131783	14.717478
49906		9.224549	-17.088098	14.721110
49907		9.213150	-17.065433	14.730836
49908		9.211344	-17.060136	14.735141
49909		9.229925	-17.066789	14.734559
49910		9.251430	-17.089643	14.733154
49911		9.265819	-17.119441	14.728658
49912		9.258232	-17.149154	14.720365
49913		9.230871	-17.168887	14.699997
49914		9.203576	-17.172632	14.666690
49915		9.197338	-17.165973	14.628314
49916		9.204198	-17.163499	14.597745
49917		9.207414	-17.160400	14.579663
49918		9.195621	-17.151475	14.565715
49919		9.168557	-17.131595	14.551072
49920		9.143967	-17.102750	14.528044
49921		9.115467	-17.064448	14.501172
49922		9.090650	-17.028353	14.471725
49923		9.057306	-16.999060	14.441072
49924		9.028726	-16.978453	14.410648
49925		9.001649	-16.959649	14.382371
49926		8.984247	-16.948907	14.353169
49927		8.975634	-16.939453	14.324590
49928		8.977364	-16.939906	14.297151
49929		8.984174	-16.944363	14.265697
49930		8.978911	-16.957741	14.221367
49931		8.956655	-16.973534	14.150800
49932		8.936249	-16.989392	14.062035
49933		8.926169	-17.003946	13.964144
49934		8.926889	-17.013512	13.863840
49935		8.935555	-17.020967	13.762826
49936		8.954416	-17.034377	13.654047
49937		8.984768	-17.063720	13.537393
49938		9.068310	-17.115822	13.414450
49939		9.193553	-17.194803	13.294276
49940		9.301108	-17.275043	13.181658
49941		9.351485	-17.348526	13.075513
49942		9.365627	-17.405742	12.955564
49943		9.365295	-17.450005	12.824300
49944		9.394466	-17.480565	12.674922
49945		9.441163	-17.485213	12.518926
49946		9.492954	-17.473703	12.352043
49947		9.535928	-17.445518	12.182651
49948		9.564949	-17.402879	12.009140
49949		9.576859	-17.336758	11.827048
49950		9.576863	-17.268757	11.622391
49951		9.572000	-17.211997	11.383240
49952		9.584692	-17.161370	11.109505
49953		9.604682	-17.100036	10.813449
49954		9.634079	-17.033217	10.503086
49955		9.678916	-16.972740	10.185281
49956		9.747253	-16.947356	9.874659
49957		9.810948	-16.971195	9.570549
49958		9.868134	-17.033961	9.256620
49959		9.930410	-17.105916	8.930243
49960		10.006663	-17.166633	8.590452
49961		10.070336	-17.195474	8.241973
49962		10.114412	-17.195016	7.878633
49963		10.148024	-17.176307	7.499180
49964		10.211846	-17.167715	7.114345
49965		10.290575	-17.174710	6.737095
49966		10.366560	-17.196038	6.361835
49967		10.405939	-17.232382	5.979421
49968		10.419105	-17.295990	5.592490
49969		10.432352	-17.372951	5.205686
49970		10.469228	-17.461493	4.815822
49971		10.510486	-17.536260	4.424572
49972		10.540154	-17.584476	4.030069
49973		10.522065	-17.589178	3.624168
49974		10.469522	-17.568642	3.183022
49975		10.425879	-17.535531	2.699684
49976		10.428152	-17.526270	2.185039
49977		10.491775	-17.545939	1.668596
49978		10.583602	-17.585794	1.170194
49979		10.668663	-17.638260	0.697638
49980		10.752827	-17.702845	0.248828
49981		10.813232	-17.783512	-0.187977
49982		10.850704	-17.881397	-0.636470
49983		10.853481	-17.985243	-1.108112
49984		10.839598	-18.088329	-1.619458
49985		10.829885	-18.172708	-2.178118
49986		10.868912	-18.236970	-2.786728
49987		10.977285	-18.277747	-3.419618
49988		11.143432	-18.306417	-4.060659
49989		11.322812	-18.335599	-4.681886
49990		11.486272	-18.382261	-5.275501
49991		11.614687	-18.440192	-5.844176
49992		11.712644	-18.514049	-6.403262
49993		11.790045	-18.591072	-6.971970
49994		11.868883	-18.669686	-7.563433
49995		11.922481	-18.748069	-8.170368
49996		11.949503	-18.824966	-8.812943
49997		11.956754	-18.888488	-9.482075
49998		11.987364	-18.940081	-10.171391
49999		12.036295	-18.982923	-10.858588
50000		12.111314	-19.042173	-11.543063
50001		12.195078	-19.126969	-12.210419
50002		12.257279	-19.243708	-12.877348
50003		12.295539	-19.376811	-13.561556
50004		12.322272	-19.516478	-14.281518
50005		12.339109	-19.645826	-15.032369
50006		12.373848	-19.780929	-15.815962
50007		12.430788	-19.919144	-16.615950
50008		12.526115	-20.056340	-17.414759
50009		12.637694	-20.194325	-18.204793
50010		12.787372	-20.329587	-18.999555
50011		12.954627	-20.454257	-19.805546
50012		13.120066	-20.579932	-20.641890
50013		13.297045	-20.707287	-21.498380
50014		13.505404	-20.847448	-22.360001
50015		13.734593	-20.995599	-23.207293
50016		13.978344	-21.149355	-24.031816
50017		14.200143	-21.306164	-24.834546
50018		14.388812	-21.454152	-25.648177
50019		14.518482	-21.574591	-26.492054
50020		14.642931	-21.673169	-27.390647
50021		14.799565	-21.765956	-28.322582
50022		15.007448	-21.871159	-29.261534
50023		15.250847	-21.981021	-30.184446
50024		15.537344	-22.098825	-31.090174
50025		15.845796	-22.215192	-31.978610
50026		16.166155	-22.334995	-32.860327
50027		16.452843	-22.468065	-33.743873
50028		16.720931	-22.617936	-34.644949
50029		16.956985	-22.779871	-35.558434
50030		17.176510	-22.945896	-36.481798
50031		17.391578	-23.108094	-37.409795
50032		17.633168	-23.261311	-38.334102
50033		17.905737	-23.410667	-39.237419
50034		18.200856	-23.556825	-40.129603
50035		18.467787	-23.691676	-41.018878
50036		18.689693	-23.801781	-41.922729
50037		18.854049	-23.879567	-42.850251
50038		19.000375	-23.930526	-43.820637
50039		19.154870	-23.964621	-44.826459
50040		19.363947	-23.990157	-45.837113
50041		19.629862	-24.002090	-46.817522
50042		19.936899	-24.003451	-47.759901
50043		20.217930	-23.996841	-48.657637
50044		20.462330	-23.981298	-49.523219
50045		20.639963	-23.954074	-50.364519
50046		20.763846	-23.938496	-51.200543
50047		20.862021	-23.966180	-52.025156
50048		20.942434	-24.008096	-52.832304
50049		21.018276	-24.056300	-53.609857
50050		21.080854	-24.081387	-54.365849
50051		21.121671	-24.062781	-55.113318
50052		21.175908	-24.002617	-55.881126
50053		21.234793	-23.921645	-56.681549
50054		21.329440	-23.834365	-57.518011
50055		21.463738	-23.747504	-58.373112
50056		21.636832	-23.668350	-59.243613
50057		21.812793	-23.585390	-60.120948
50058		21.979793	-23.498970	-61.012527
50059		22.140706	-23.412294	-61.927655
50060		22.320401	-23.333457	-62.882768
50061		22.515840	-23.260563	-63.862718
50062		22.718669	-23.204299	-64.856871
50063		22.906600	-23.163659	-65.828083
50064		23.085250	-23.120816	-66.772309
50065		23.209159	-23.075686	-67.687605
50066		23.285830	-23.038090	-68.590916
50067		23.346491	-23.022694	-69.449400
50068		23.422940	-23.005648	-70.267374
50069		23.435345	-22.994470	-71.046059
50070		23.425444	-22.980854	-71.783570
50071		23.390871	-22.964649	-72.467246
50072		23.378954	-22.953109	-73.125719
50073		23.465722	-22.933227	-73.786663
50074		23.628283	-22.895634	-74.478151
50075		23.813800	-22.819586	-75.207701
50076		24.039996	-22.688431	-75.979196
50077		24.272443	-22.513025	-76.763725
50078		24.511123	-22.333871	-77.554830
50079		24.783915	-22.193436	-78.333878
50080		25.099083	-22.121236	-79.101530
50081		25.469100	-22.096394	-79.863870
50082		25.855179	-22.092616	-80.661290
50083		26.221868	-22.077977	-81.510026
50084		26.599890	-22.025204	-82.396820
50085		26.984361	-21.912842	-83.276262
50086		27.384898	-21.764063	-84.123579
50087		27.787015	-21.599156	-84.928638
50088		28.227721	-21.450536	-85.703628
50089		28.703599	-21.338166	-86.470804
50090		29.181792	-21.263029	-87.260920
50091		29.651486	-21.182681	-88.086912
50092		30.119929	-21.061320	-88.940957
50093		30.575509	-20.871281	-89.793330
50094		31.012666	-20.631591	-90.620984
50095		31.426204	-20.370003	-91.409966
50096		31.841479	-20.126939	-92.161385
50097		32.262520	-19.924515	-92.859945
50098		32.658262	-19.779311	-93.511756
50099		32.973781	-19.663806	-94.132202
50100		33.207632	-19.557610	-94.733727
50101		33.363150	-19.431886	-95.304434
50102		33.468163	-19.277829	-95.831898
50103		33.515720	-19.093653	-96.312771
50104		33.500284	-18.892916	-96.746385
50105		33.415304	-18.691817	-97.122252
50106		33.285946	-18.525608	-97.432771
50107		33.136690	-18.418092	-97.691254
50108		32.990617	-18.379227	-97.940986
50109		32.856728	-18.376535	-98.205055
50110		32.734292	-18.360500	-98.491585
50111		32.619875	-18.287870	-98.799383
50112		32.519090	-18.159268	-99.120834
50113		32.438522	-17.982684	-99.442493
50114		32.359311	-17.792718	-99.749972
50115		32.278216	-17.628110	-100.036159
50116		32.227476	-17.529684	-100.318296
50117		32.189299	-17.498740	-100.609132
50118		32.182758	-17.517724	-100.911342
50119		32.200773	-17.565673	-101.216659
50120		32.193702	-17.633510	-101.519054
50121		32.138049	-17.689027	-101.810027
50122		32.034756	-17.707426	-102.087502
50123		31.905809	-17.670450	-102.356799
50124		31.801408	-17.599252	-102.621608
50125		31.736066	-17.519023	-102.883740
50126		31.708573	-17.459687	-103.147461
50127		31.722059	-17.426337	-103.420988
50128		31.744323	-17.405291	-103.715186
50129		31.740027	-17.359966	-104.031513
50130		31.719145	-17.273370	-104.362566
50131		31.678273	-17.159602	-104.684102
50132		31.614514	-17.028139	-104.978299
50133		31.508441	-16.889573	-105.256259
50134		31.368578	-16.753886	-105.539705
50135		31.226755	-16.611029	-105.834253
50136		31.098986	-16.436807	-106.143927
50137		30.963306	-16.233074	-106.465554
50138		30.833987	-16.013293	-106.802174
50139		30.731945	-15.782974	-107.151147
50140		30.688723	-15.563429	-107.519443
50141		30.708484	-15.365834	-107.902517
50142		30.801758	-15.195277	-108.283432
50143		30.921808	-15.032203	-108.637642
50144		30.999054	-14.881733	-108.949983
50145		31.005048	-14.746429	-109.193523
50146		30.917451	-14.654982	-109.354067
50147		30.746763	-14.614147	-109.438339
50148		30.546912	-14.624135	-109.476433
50149		30.352389	-14.667405	-109.512060
50150		30.194465	-14.713992	-109.573645
50151		30.083270	-14.733094	-109.679025
50152		30.022812	-14.716634	-109.832057
50153		30.008629	-14.657280	-110.024513
50154		30.045371	-14.551131	-110.251793
50155		30.104284	-14.400828	-110.501447
50156		30.173409	-14.231394	-110.752952
50157		30.266875	-14.075040	-110.990186
50158		30.384296	-13.972863	-111.194924
50159		30.500437	-13.942211	-111.366057
50160		30.583127	-13.973785	-111.511418
50161		30.603655	-14.037394	-111.629075
50162		30.564850	-14.108121	-111.728917
50163		30.476873	-14.161266	-111.820755
50164		30.382808	-14.176479	-111.918223
50165		30.316950	-14.143788	-112.020328
50166		30.290683	-14.075535	-112.123356
50167		30.292800	-13.988905	-112.231216
50168		30.312096	-13.910518	-112.349818
50169		30.338916	-13.846888	-112.491718
50170		30.371102	-13.806126	-112.647248
50171		30.418163	-13.772982	-112.824729
50172		30.491698	-13.735220	-113.036000
50173		30.614885	-13.687248	-113.283102
50174		30.811698	-13.627785	-113.557005
50175		31.055701	-13.560211	-113.846779
50176		31.306818	-13.485104	-114.145312
50177		31.516611	-13.402291	-114.439788
50178		31.650496	-13.307913	-114.699747
50179		31.719864	-13.184472	-114.894760
50180		31.744182	-13.050180	-114.987816
50181		31.738871	-12.932478	-114.968230
50182		31.679004	-12.866946	-114.864596
50183		31.553692	-12.861416	-114.735261
50184		31.385393	-12.910232	-114.628646
50185		31.226539	-12.974290	-114.574359
50186		31.105704	-13.024738	-114.582984
50187		31.051681	-13.020306	-114.642573
50188		31.073157	-12.943889	-114.737862
50189		31.153675	-12.792987	-114.850514
50190		31.269259	-12.610949	-114.962190
50191		31.410199	-12.433253	-115.069572
50192		31.571606	-12.292257	-115.185331
50193		31.759823	-12.196771	-115.329873
50194		31.967352	-12.148392	-115.523026
50195		32.157551	-12.133586	-115.749497
50196		32.243018	-12.137044	-115.982888
50197		32.232682	-12.128030	-116.186651
50198		32.166663	-12.099437	-116.343094
50199		32.081055	-12.056522	-116.438889
50200		31.998568	-12.001394	-116.495690
50201		31.919071	-11.936755	-116.518749
50202		31.856671	-11.874127	-116.525421
50203		31.816544	-11.821882	-116.523255
50204		31.784457	-11.776074	-116.522332
50205		31.751217	-11.718542	-116.519284
50206		31.722589	-11.652653	-116.507034
50207		31.694358	-11.583932	-116.493580
50208		31.670408	-11.534316	-116.487267
50209		31.673739	-11.508202	-116.487703
50210		31.703789	-11.505568	-116.496468
50211		31.743907	-11.500604	-116.512793
50212		31.781275	-11.494979	-116.537604
50213		31.813652	-11.478979	-116.560560
50214		31.831701	-11.453273	-116.562959
50215		31.820251	-11.421244	-116.538004
50216		31.770803	-11.398660	-116.496676
50217		31.712265	-11.388521	-116.449380
50218		31.667356	-11.397149	-116.409172
50219		31.654189	-11.417808	-116.384270
50220		31.658600	-11.448073	-116.368218
50221		31.669414	-11.472227	-116.361023
50222		31.674449	-11.488488	-116.354911
50223		31.678678	-11.493771	-116.343675
50224		31.681369	-11.484774	-116.330556
50225		31.688454	-11.455753	-116.310694
50226		31.684616	-11.429206	-116.280580
50227		31.677460	-11.401145	-116.237761
50228		31.668404	-11.378948	-116.188516
50229		31.651416	-11.352850	-116.138261
50230		31.627427	-11.321992	-116.090819
50231		31.604581	-11.291982	-116.045024
50232		31.592449	-11.276944	-116.007809
50233		31.594724	-11.268339	-115.969197
50234		31.607987	-11.272278	-115.936608
50235		31.629357	-11.292997	-115.905278
50236		31.659876	-11.330963	-115.876668
50237		31.686391	-11.381548	-115.849024
50238		31.703081	-11.444618	-115.814519
50239		31.704195	-11.509906	-115.764915
50240		31.681122	-11.573435	-115.704422
50241		31.659317	-11.636633	-115.632490
50242		31.642408	-11.697864	-115.551750
50243		31.637323	-11.755277	-115.472114
50244		31.646304	-11.810340	-115.400397
50245		31.654755	-11.856493	-115.333644
50246		31.708249	-11.895522	-115.269830
50247		31.766586	-11.927369	-115.202645
50248		31.807934	-11.955780	-115.128821
50249		31.819040	-11.985510	-115.047659
50250		31.801110	-12.028204	-114.956954
50251		31.768325	-12.078647	-114.864008
50252		31.761727	-12.134699	-114.760983
50253		31.770328	-12.193916	-114.649252
50254		31.771179	-12.257627	-114.523883
50255		31.778575	-12.320738	-114.380438
50256		31.784581	-12.389522	-114.223914
50257		31.804702	-12.456881	-114.051952
50258		31.835397	-12.526528	-113.870601
50259		31.866496	-12.604043	-113.684943
50260		31.887657	-12.701650	-113.495330
50261		31.899988	-12.826023	-113.306160
50262		31.910171	-12.980850	-113.123932
50263		31.931436	-13.153604	-112.951575
50264		31.961848	-13.348772	-112.791200
50265		31.991384	-13.540915	-112.643537
50266		32.010746	-13.719778	-112.492300
50267		32.026733	-13.860617	-112.326794
50268		32.024888	-13.966587	-112.137243
50269		32.001173	-14.029274	-111.917090
50270		31.972141	-14.054300	-111.678839
50271		31.945653	-14.056073	-111.433668
50272		31.923326	-14.057222	-111.188385
50273		31.919197	-14.068807	-110.949492
50274		31.927933	-14.098288	-110.709163
50275		31.932602	-14.140512	-110.454215
50276		31.920330	-14.207874	-110.177413
50277		31.892528	-14.298354	-109.878388
50278		31.850870	-14.412695	-109.558255
50279		31.793908	-14.534684	-109.212391
50280		31.727505	-14.667483	-108.848290
50281		31.659092	-14.791955	-108.473840
50282		31.573493	-14.905942	-108.097199
50283		31.487528	-14.994685	-107.733573
50284		31.417298	-15.075674	-107.390147
50285		31.404468	-15.146695	-107.073855
50286		31.450204	-15.213001	-106.784789
50287		31.535916	-15.270025	-106.505283
50288		31.629405	-15.322133	-106.219330
50289		31.706647	-15.366071	-105.916369
50290		31.751835	-15.405906	-105.590103
50291		31.764777	-15.449698	-105.247194
50292		31.739558	-15.514078	-104.885658
50293		31.659883	-15.587367	-104.496007
50294		31.539681	-15.650060	-104.085840
50295		31.433581	-15.687082	-103.679929
50296		31.394144	-15.702098	-103.297725
50297		31.464399	-15.698811	-102.947281
50298		31.640860	-15.691619	-102.629757
50299		31.884097	-15.688639	-102.318284
50300		32.100282	-15.698680	-101.976903
50301		32.237935	-15.715550	-101.586147
50302		32.291254	-15.741580	-101.155577
50303		32.324476	-15.772979	-100.713316
50304		32.367390	-15.820978	-100.283955
50305		32.449923	-15.868161	-99.874751
50306		32.568753	-15.904466	-99.488212
50307		32.702527	-15.921204	-99.120518
50308		32.835221	-15.923607	-98.768293
50309		32.982593	-15.896341	-98.419061
50310		33.141665	-15.839233	-98.036885
50311		33.293833	-15.762923	-97.605905
50312		33.393750	-15.710313	-97.137055
50313		33.446288	-15.688782	-96.648417
50314		33.437065	-15.719880	-96.148351
50315		33.386223	-15.794191	-95.645117
50316		33.288616	-15.902982	-95.129417
50317		33.171583	-16.012852	-94.591816
50318		33.027233	-16.109679	-94.009060
50319		32.838386	-16.168370	-93.371373
50320		32.600802	-16.213702	-92.690961
50321		32.332121	-16.259957	-91.977375
50322		32.052583	-16.319602	-91.241980
50323		31.797113	-16.401354	-90.497083
50324		31.568600	-16.509742	-89.754375
50325		31.376781	-16.634333	-89.022408
50326		31.202244	-16.773769	-88.295087
50327		31.047739	-16.931029	-87.574673
50328		30.901798	-17.106136	-86.868083
50329		30.783311	-17.301031	-86.179090
50330		30.681221	-17.507341	-85.501936
50331		30.591261	-17.700789	-84.827797
50332		30.503204	-17.870935	-84.144602
50333		30.432180	-18.015323	-83.457010
50334		30.374244	-18.152295	-82.776201
50335		30.355521	-18.287079	-82.120267
50336		30.382296	-18.424880	-81.503004
50337		30.474536	-18.563286	-80.939183
50338		30.640789	-18.703847	-80.423188
50339		30.868449	-18.831602	-79.919740
50340		31.066015	-18.941468	-79.389654
50341		31.185511	-19.033387	-78.816218
50342		31.208398	-19.115339	-78.200833
50343		31.186983	-19.189191	-77.566419
50344		31.149170	-19.273335	-76.928782
50345		31.139141	-19.365600	-76.307660
50346		31.159046	-19.475023	-75.700691
50347		31.209082	-19.590017	-75.110928
50348		31.278894	-19.699799	-74.532983
50349		31.374551	-19.793232	-73.957961
50350		31.458381	-19.881956	-73.374348
50351		31.520405	-19.962680	-72.784427
50352		31.541706	-20.038842	-72.177437
50353		31.513757	-20.108228	-71.531638
50354		31.428859	-20.172932	-70.843470
50355		31.305841	-20.236935	-70.122550
50356		31.172197	-20.319166	-69.385255
50357		31.043962	-20.421332	-68.640921
50358		30.912669	-20.544220	-67.899766
50359		30.794826	-20.672382	-67.173315
50360		30.691890	-20.792342	-66.466468
50361		30.622719	-20.888832	-65.770917
50362		30.549489	-20.960374	-65.066744
50363		30.428462	-21.017803	-64.339458
50364		30.254242	-21.068414	-63.580961
50365		30.079159	-21.106917	-62.798505
50366		29.930014	-21.154680	-62.002330
50367		29.844735	-21.217970	-61.212658
50368		29.778016	-21.300282	-60.425487
50369		29.665263	-21.392355	-59.638575
50370		29.435252	-21.513707	-58.842132
50371		29.117423	-21.657673	-58.039188
50372		28.789757	-21.808028	-57.230978
50373		28.501855	-21.940107	-56.421699
50374		28.234098	-22.068152	-55.609167
50375		28.008994	-22.191305	-54.788574
50376		27.796379	-22.313233	-53.945169
50377		27.610609	-22.427196	-53.085237
50378		27.449936	-22.538219	-52.217026
50379		27.304040	-22.647690	-51.351596
50380		27.142732	-22.774285	-50.488458
50381		26.965432	-22.930821	-49.639217
50382		26.784992	-23.126084	-48.802800
50383		26.639084	-23.352904	-47.976428
50384		26.508424	-23.599900	-47.144179
50385		26.359197	-23.843455	-46.294329
50386		26.153622	-24.078163	-45.401698
50387		25.864214	-24.296355	-44.458284
50388		25.485964	-24.510896	-43.465218
50389		25.112387	-24.710212	-42.423192
50390		24.735573	-24.899976	-41.310758
50391		24.344188	-25.082221	-40.146240
50392		23.891174	-25.278893	-38.951017
50393		23.277823	-25.500250	-37.730426
50394		22.513839	-25.762139	-36.519603
50395		21.738654	-26.057077	-35.323412
50396		20.989803	-26.316659	-34.121219
50397		20.302720	-26.532799	-32.925321
50398		19.721572	-26.718889	-31.758752
50399		19.199408	-26.883031	-30.630766
50400		18.688865	-27.040617	-29.546851
50401		18.222615	-27.196200	-28.494511
50402		17.768525	-27.327850	-27.434186
50403		17.323102	-27.421295	-26.348840
50404		16.865264	-27.504179	-25.253814
50405		16.458368	-27.581145	-24.182114
50406		16.126052	-27.665623	-23.145689
50407		15.869083	-27.773033	-22.178999
50408		15.679688	-27.891306	-21.285702
50409		15.568997	-27.994608	-20.464457
50410		15.516192	-28.080210	-19.691251
50411		15.522110	-28.136245	-18.963954
50412		15.550420	-28.178047	-18.287686
50413		15.596164	-28.214516	-17.684961
50414		15.663016	-28.231964	-17.155706
50415		15.796643	-28.227715	-16.704578
50416		16.013443	-28.216199	-16.323646
50417		16.308309	-28.198022	-16.002810
50418		16.663093	-28.170915	-15.723854
50419		17.039556	-28.122024	-15.469948
50420		17.434285	-28.052636	-15.227935
50421		17.845322	-27.962540	-14.993283
50422		18.238963	-27.857436	-14.741025
50423		18.613330	-27.737832	-14.452089
50424		18.968088	-27.624229	-14.110296
50425		19.331317	-27.516712	-13.719404
50426		19.701502	-27.403159	-13.264621
50427		20.048733	-27.293475	-12.773615
50428		20.333684	-27.190563	-12.268797
50429		20.548390	-27.095820	-11.771552
50430		20.661605	-26.996743	-11.267454
50431		20.696409	-26.885187	-10.754814
50432		20.685031	-26.750289	-10.228226
50433		20.660813	-26.580996	-9.672330
50434		20.618481	-26.384514	-9.073532
50435		20.562937	-26.185647	-8.441103
50436		20.491228	-25.996202	-7.770569
50437		20.370989	-25.814892	-7.059675
50438		20.157597	-25.665230	-6.310549
50439		19.868793	-25.538448	-5.538330
50440		19.525739	-25.418283	-4.740581
50441		19.176998	-25.293361	-3.929067
50442		18.883125	-25.147306	-3.109948
50443		18.661633	-24.978352	-2.276175
50444		18.465212	-24.783030	-1.436045
50445		18.274251	-24.582284	-0.595338
50446		18.082004	-24.380124	0.230109
50447		17.886238	-24.194676	1.037369
50448		17.677997	-24.030980	1.826287
50449		17.472692	-23.895177	2.605353
50450		17.275211	-23.791009	3.368937
50451		17.082054	-23.701996	4.139025
50452		16.864740	-23.613794	4.921242
50453		16.625960	-23.523293	5.702185
50454		16.354473	-23.419530	6.478466
50455		16.050389	-23.292516	7.236767
50456		15.704698	-23.155594	7.976559
50457		15.338469	-23.004478	8.691466
50458		14.959313	-22.847068	9.377472
50459		14.585230	-22.684775	10.027207
50460		14.236899	-22.516716	10.637270
50461		13.934318	-22.344096	11.216807
50462		13.681727	-22.163712	11.762230
50463		13.457264	-21.982702	12.272509
50464		13.246910	-21.810987	12.742515
50465		13.050530	-21.659805	13.164287
50466		12.859570	-21.510376	13.537270
50467		12.685647	-21.355782	13.863402
50468		12.530773	-21.196804	14.151685
50469		12.403002	-21.026194	14.405650
50470		12.296595	-20.846200	14.627781
50471		12.216746	-20.655910	14.816376
50472		12.147817	-20.474204	14.978336
50473		12.104540	-20.303074	15.115727
50474		12.089026	-20.153609	15.235713
50475		12.086227	-20.026525	15.339798
50476		12.093341	-19.922753	15.436924
50477		12.113724	-19.840710	15.524213
50478		12.153949	-19.778912	15.601376
50479		12.198967	-19.731802	15.670067
50480		12.230420	-19.696158	15.733439
50481		12.245217	-19.662504	15.789902
50482		12.255225	-19.627361	15.852682
50483		12.259362	-19.581941	15.921861
50484		12.255665	-19.530879	16.011302
50485		12.243274	-19.472547	16.115915
50486		12.208861	-19.411262	16.233153
50487		12.141835	-19.346775	16.355571
50488		12.049457	-19.299021	16.486127
50489		11.951519	-19.262846	16.595543
50490		11.872583	-19.239742	16.688569
50491		11.827695	-19.219681	16.750153
50492		11.830835	-19.206261	16.781628
50493		11.873575	-19.189285	16.780092
50494		11.941976	-19.167232	16.757637
50495		12.024317	-19.141987	16.718677
50496		12.119135	-19.119603	16.666971
50497		12.203234	-19.104670	16.616244
50498		12.269562	-19.096062	16.562560
50499		12.316669	-19.096190	16.508226
50500		12.338147	-19.105063	16.457833
50501		12.338173	-19.112398	16.414036
50502		12.329833	-19.109312	16.378379
50503		12.308585	-19.092049	16.353802
50504		12.264910	-19.078694	16.339022
50505		12.200496	-19.071290	16.329153
50506		12.143273	-19.069404	16.322037
50507		12.095817	-19.077666	16.305987
50508		12.054337	-19.091223	16.280730
50509		12.024559	-19.100549	16.236046
50510		12.018773	-19.100474	16.163882
50511		12.031831	-19.100268	16.062627
50512		12.064358	-19.101323	15.943826
50513		12.109023	-19.101980	15.814190
50514		12.148355	-19.106287	15.685500
50515		12.181263	-19.108300	15.561444
50516		12.215173	-19.105379	15.440268
50517		12.234665	-19.098269	15.317575
50518		12.246805	-19.096798	15.186642
50519		12.253384	-19.112342	15.045525
50520		12.265305	-19.145989	14.896798
50521		12.282186	-19.184623	14.743183
50522		12.312799	-19.225585	14.586473
50523		12.352764	-19.263655	14.426698
50524		12.390414	-19.300747	14.264277
50525		12.414623	-19.335363	14.093066
50526		12.443496	-19.370978	13.909992
50527		12.480094	-19.410524	13.718879
50528		12.533024	-19.451511	13.518997
50529		12.591552	-19.489993	13.309799
50530		12.661310	-19.528667	13.094308
50531		12.740271	-19.565415	12.863295
50532		12.831489	-19.601003	12.628411
50533		12.923332	-19.632127	12.392517
50534		13.006418	-19.660631	12.154916
50535		13.072496	-19.679339	11.912276
50536		13.133325	-19.692413	11.652506
50537		13.194811	-19.704450	11.378873
50538		13.277945	-19.720214	11.091228
50539		13.386195	-19.744386	10.789937
50540		13.527999	-19.785877	10.461992
50541		13.680795	-19.840449	10.107194
50542		13.826379	-19.912495	9.727223
50543		13.954314	-20.001172	9.332229
50544		14.090445	-20.100023	8.926367
50545		14.230501	-20.210133	8.524746
50546		14.368604	-20.327097	8.129611
50547		14.507803	-20.444315	7.746465
50548		14.648322	-20.557701	7.377063
50549		14.762620	-20.658777	7.021925
50550		14.859435	-20.741908	6.666718
50551		14.945008	-20.806577	6.312875
50552		15.009268	-20.861463	5.952053
50553		15.049775	-20.912729	5.580267
50554		15.082856	-20.961240	5.195062
50555		15.121744	-21.016804	4.795429
50556		15.175142	-21.082772	4.382145
50557		15.250549	-21.147030	3.956401
50558		15.351193	-21.200720	3.522667
50559		15.439066	-21.231992	3.085718
50560		15.519561	-21.243129	2.636423
50561		15.589157	-21.237421	2.172671
50562		15.668373	-21.222979	1.690952
50563		15.757773	-21.211248	1.191181
50564		15.863895	-21.204999	0.678995
50565		15.981576	-21.194819	0.162269
50566		16.133484	-21.185261	-0.357816
50567		16.317240	-21.175975	-0.866277
50568		16.516729	-21.173884	-1.355659
50569		16.692695	-21.182159	-1.821505
50570		16.837359	-21.201009	-2.282033
50571		16.955185	-21.225217	-2.736551
50572		17.069420	-21.258487	-3.187889
50573		17.180856	-21.299030	-3.636854
50574		17.281579	-21.342223	-4.081391
50575		17.346433	-21.386541	-4.525279
50576		17.385030	-21.432983	-4.986578
50577		17.420245	-21.478356	-5.468346
50578		17.474387	-21.538808	-5.963873
50579		17.539066	-21.616011	-6.474831
50580		17.634273	-21.710401	-7.002602
