// General information: 
//  MT Manager version: 2022.2.0 
//  XDA version: 2022.2.0 build 7381 rev 124627 built on 2023-07-19
// Device information: 
//  DeviceId: 00B447F1
//  ProductCode: MTW2-3A7G6
//  Firmware Version: 4.3.5
//  Hardware Version: 2.0.0
// Device settings: 
//  Filter Profile: human(46.1)
//  Option Flags: Orientation Smoother Disabled, Position/Velocity Smoother Disabled, Continuous Zero Rotation Update Disabled, AHS Disabled, ICC Disabled
// Coordinate system: ENU
PacketCounter	SampleTimeFine	Roll	Pitch	Yaw
47489		6.008366	12.261342	7.707982
47490		5.960958	12.263794	7.690283
47491		5.898584	12.269820	7.670736
47492		5.842355	12.274982	7.651366
47493		5.818411	12.276511	7.638541
47494		5.837630	12.280397	7.633473
47495		5.877781	12.283263	7.631107
47496		5.914063	12.285866	7.627852
47497		5.936847	12.281498	7.619963
47498		5.937834	12.276989	7.606640
47499		5.923990	12.278138	7.594877
47500		5.909213	12.280621	7.585722
47501		5.912730	12.281164	7.581756
47502		5.936484	12.278871	7.580260
47503		5.969813	12.279537	7.580308
47504		5.994339	12.280640	7.574631
47505		6.002896	12.278925	7.558575
47506		5.987943	12.286649	7.538897
47507		5.962950	12.296182	7.518360
47508		5.952067	12.304465	7.503481
47509		5.962178	12.309142	7.493729
47510		5.984220	12.317352	7.484081
47511		5.999442	12.323813	7.473469
47512		5.988939	12.328843	7.458594
47513		5.959263	12.331264	7.432274
47514		5.914251	12.336323	7.394895
47515		5.861339	12.344891	7.351531
47516		5.819654	12.356848	7.304870
47517		5.793279	12.362168	7.257988
47518		5.777278	12.360290	7.208331
47519		5.769362	12.358821	7.150945
47520		5.763861	12.361282	7.090503
47521		5.765311	12.363582	7.027236
47522		5.769038	12.357830	6.956274
47523		5.764719	12.352242	6.878093
47524		5.746135	12.348905	6.788832
47525		5.709452	12.348685	6.688512
47526		5.657953	12.352980	6.573488
47527		5.589821	12.358325	6.443424
47528		5.517530	12.358058	6.304752
47529		5.458457	12.345090	6.157579
47530		5.400580	12.327980	5.997825
47531		5.344097	12.309626	5.830363
47532		5.278862	12.296451	5.642372
47533		5.204027	12.291408	5.438655
47534		5.118975	12.292398	5.217248
47535		5.021503	12.298618	4.975216
47536		4.913161	12.306911	4.710827
47537		4.819516	12.303047	4.436390
47538		4.764710	12.285998	4.146526
47539		4.754906	12.259207	3.847067
47540		4.787517	12.226101	3.543901
47541		4.830677	12.197825	3.232560
47542		4.857066	12.169764	2.905057
47543		4.853403	12.139829	2.556514
47544		4.832316	12.116654	2.184652
47545		4.810040	12.108791	1.791189
47546		4.807534	12.110619	1.381601
47547		4.852153	12.111842	0.966353
47548		4.957987	12.094688	0.561055
47549		5.104383	12.049023	0.172022
47550		5.241394	11.980603	-0.209471
47551		5.341037	11.902054	-0.592791
47552		5.373844	11.839481	-0.991577
47553		5.334628	11.792734	-1.418791
47554		5.243601	11.762666	-1.877266
47555		5.124356	11.752699	-2.364825
47556		4.992943	11.753478	-2.868833
47557		4.888998	11.746597	-3.377564
47558		4.825556	11.716024	-3.876236
47559		4.800558	11.660957	-4.364480
47560		4.794598	11.598310	-4.851403
47561		4.793575	11.540614	-5.339391
47562		4.792974	11.490288	-5.843552
47563		4.779425	11.436584	-6.365869
47564		4.756186	11.375379	-6.909398
47565		4.718056	11.304184	-7.474425
47566		4.677765	11.222029	-8.048396
47567		4.655256	11.141561	-8.625069
47568		4.643681	11.066689	-9.208903
47569		4.655832	11.003824	-9.798698
47570		4.701539	10.943380	-10.389964
47571		4.777021	10.886891	-10.990863
47572		4.887801	10.835217	-11.604333
47573		5.033784	10.785656	-12.231235
47574		5.214641	10.738030	-12.876924
47575		5.422035	10.687985	-13.535217
47576		5.653701	10.623667	-14.184461
47577		5.886397	10.543410	-14.812600
47578		6.080502	10.441414	-15.428929
47579		6.205711	10.343485	-16.051561
47580		6.278496	10.265337	-16.684151
47581		6.324823	10.209074	-17.334418
47582		6.359458	10.170450	-18.007789
47583		6.394266	10.143232	-18.707934
47584		6.453172	10.116940	-19.429054
47585		6.557849	10.081415	-20.150238
47586		6.708421	10.029832	-20.848409
47587		6.890617	9.958070	-21.497641
47588		7.069318	9.869805	-22.096422
47589		7.191719	9.773235	-22.676182
47590		7.271638	9.686293	-23.263453
47591		7.329981	9.629305	-23.874392
47592		7.372265	9.612557	-24.524048
47593		7.397893	9.630583	-25.215740
47594		7.450960	9.660779	-25.922148
47595		7.544686	9.688412	-26.634743
47596		7.669498	9.692850	-27.329245
47597		7.807139	9.664361	-27.983191
47598		7.939548	9.622498	-28.590745
47599		8.038178	9.566815	-29.176279
47600		8.131477	9.497426	-29.765855
47601		8.223909	9.430359	-30.375620
47602		8.315916	9.379581	-31.023986
47603		8.420816	9.346067	-31.696160
47604		8.547049	9.334050	-32.366321
47605		8.663768	9.331029	-33.025322
47606		8.775253	9.313394	-33.680131
47607		8.883338	9.294509	-34.343911
47608		8.996727	9.295258	-35.020083
47609		9.130079	9.318913	-35.712493
47610		9.300157	9.348164	-36.411965
47611		9.511144	9.363325	-37.125693
47612		9.763088	9.362070	-37.852855
47613		10.046289	9.349213	-38.593345
47614		10.349094	9.327777	-39.332525
47615		10.660686	9.300177	-40.062910
47616		10.981855	9.264153	-40.772072
47617		11.276479	9.208441	-41.475764
47618		11.543275	9.141100	-42.185888
47619		11.788821	9.069710	-42.910016
47620		12.019007	9.004749	-43.664448
47621		12.246699	8.968638	-44.452189
47622		12.496988	8.950824	-45.261936
47623		12.767001	8.941821	-46.078199
47624		13.058471	8.940874	-46.883572
47625		13.345245	8.935875	-47.657483
47626		13.616795	8.905978	-48.395425
47627		13.869941	8.853627	-49.106307
47628		14.123847	8.777955	-49.805178
47629		14.370544	8.703202	-50.514276
47630		14.620971	8.651142	-51.236152
47631		14.854303	8.624863	-51.963197
47632		15.045607	8.616979	-52.683035
47633		15.192589	8.615814	-53.399981
47634		15.286278	8.613122	-54.110979
47635		15.325630	8.611387	-54.822099
47636		15.327228	8.617059	-55.542764
47637		15.306357	8.630136	-56.264179
47638		15.285212	8.642143	-56.962554
47639		15.239067	8.656543	-57.609206
47640		15.170990	8.657606	-58.219881
47641		15.091408	8.650791	-58.815534
47642		15.024965	8.655408	-59.415613
47643		14.987845	8.673039	-60.037827
47644		14.992412	8.693800	-60.681633
47645		15.033020	8.714308	-61.334628
47646		15.116014	8.725064	-61.981361
47647		15.212664	8.733137	-62.610771
47648		15.305774	8.746122	-63.217229
47649		15.429177	8.753866	-63.792521
47650		15.580534	8.741367	-64.350092
47651		15.749896	8.708704	-64.905097
47652		15.940082	8.655425	-65.464893
47653		16.149857	8.602828	-66.021878
47654		16.361091	8.564346	-66.553712
47655		16.556127	8.532838	-67.072187
47656		16.755220	8.515911	-67.579544
47657		16.958399	8.517937	-68.085554
47658		17.172797	8.535710	-68.593057
47659		17.399589	8.552242	-69.107823
47660		17.651751	8.560255	-69.637400
47661		17.902351	8.573337	-70.170827
47662		18.136736	8.606159	-70.702588
47663		18.351671	8.661109	-71.222417
47664		18.535891	8.730646	-71.728554
47665		18.696654	8.821368	-72.216957
47666		18.843058	8.922466	-72.695760
47667		18.966016	9.036109	-73.171556
47668		19.060375	9.155092	-73.652186
47669		19.112958	9.278971	-74.136623
47670		19.109762	9.421591	-74.619018
47671		19.039625	9.597494	-75.090651
47672		18.908498	9.789345	-75.559854
47673		18.742424	9.980080	-76.029110
47674		18.576661	10.145239	-76.508422
47675		18.432043	10.285012	-76.988348
47676		18.291853	10.421805	-77.453765
47677		18.143253	10.582196	-77.894264
47678		17.995871	10.761259	-78.307961
47679		17.875430	10.935640	-78.702352
47680		17.789785	11.076891	-79.093859
47681		17.744143	11.180839	-79.492479
47682		17.738670	11.272161	-79.886928
47683		17.728661	11.377263	-80.256088
47684		17.703299	11.502404	-80.604788
47685		17.674905	11.639128	-80.934032
47686		17.644350	11.778461	-81.253310
47687		17.607831	11.900516	-81.574918
47688		17.573289	11.998820	-81.903303
47689		17.528925	12.078660	-82.243340
47690		17.443666	12.172524	-82.575231
47691		17.309707	12.299028	-82.886013
47692		17.138721	12.434412	-83.183437
47693		16.961189	12.555374	-83.474101
47694		16.797153	12.641500	-83.760463
47695		16.646626	12.704867	-84.036796
47696		16.519910	12.762228	-84.293296
47697		16.421962	12.823887	-84.523048
47698		16.358499	12.889192	-84.731597
47699		16.320466	12.952146	-84.922908
47700		16.301528	13.004580	-85.110307
47701		16.295332	13.039793	-85.302859
47702		16.298829	13.066419	-85.494001
47703		16.282522	13.102476	-85.670941
47704		16.245190	13.154914	-85.831017
47705		16.200453	13.215643	-85.971079
47706		16.153778	13.280311	-86.104912
47707		16.101155	13.341924	-86.228248
47708		16.037003	13.395874	-86.356295
47709		15.958883	13.450060	-86.489538
47710		15.875031	13.506039	-86.624703
47711		15.794351	13.564214	-86.758944
47712		15.718193	13.620998	-86.879450
47713		15.648938	13.674339	-86.987158
47714		15.582358	13.728964	-87.078891
47715		15.520757	13.780361	-87.170006
47716		15.479165	13.828119	-87.266365
47717		15.449603	13.872072	-87.379646
47718		15.421184	13.918619	-87.508259
47719		15.390564	13.976492	-87.644138
47720		15.351013	14.034300	-87.780578
47721		15.308300	14.089979	-87.917202
47722		15.255666	14.148787	-88.043121
47723		15.202017	14.205487	-88.164154
47724		15.161358	14.251541	-88.281465
47725		15.151070	14.280745	-88.401548
47726		15.171650	14.293745	-88.521176
47727		15.217362	14.304699	-88.631326
47728		15.270438	14.316008	-88.733713
47729		15.333101	14.335087	-88.823285
47730		15.389127	14.349308	-88.912329
47731		15.422403	14.365683	-89.000911
47732		15.428417	14.394882	-89.089382
47733		15.398468	14.433037	-89.186724
47734		15.341723	14.471647	-89.294927
47735		15.268761	14.513012	-89.406048
47736		15.175829	14.557982	-89.510825
47737		15.078897	14.602298	-89.609841
47738		15.005443	14.634884	-89.708595
47739		14.964369	14.645027	-89.817345
47740		14.968252	14.641877	-89.934608
47741		14.999470	14.634362	-90.057000
47742		15.041475	14.620765	-90.181329
47743		15.083677	14.605497	-90.303332
47744		15.120093	14.592044	-90.421658
47745		15.149015	14.584372	-90.530409
47746		15.161669	14.591055	-90.624977
47747		15.167127	14.606250	-90.716569
47748		15.166378	14.618090	-90.806329
47749		15.157372	14.619224	-90.899284
47750		15.139284	14.608016	-90.992041
47751		15.103234	14.596091	-91.077605
47752		15.044551	14.589076	-91.149031
47753		14.970753	14.594167	-91.198512
47754		14.888572	14.603491	-91.223677
47755		14.817804	14.609099	-91.238546
47756		14.777709	14.601187	-91.250678
47757		14.760238	14.584762	-91.263954
47758		14.763016	14.563925	-91.274287
47759		14.762024	14.546274	-91.277161
47760		14.746948	14.542043	-91.267439
47761		14.725468	14.539760	-91.255469
47762		14.696883	14.538026	-91.240555
47763		14.668481	14.536880	-91.236521
47764		14.650419	14.531634	-91.239655
47765		14.642222	14.528572	-91.250329
47766		14.632742	14.533269	-91.261299
47767		14.619946	14.542368	-91.268700
47768		14.598369	14.551443	-91.267394
47769		14.571141	14.561721	-91.262757
47770		14.540285	14.572172	-91.262250
47771		14.517038	14.583447	-91.265059
47772		14.505619	14.591439	-91.269094
47773		14.506938	14.601506	-91.276772
47774		14.518042	14.611770	-91.283648
47775		14.529108	14.622852	-91.289723
47776		14.541150	14.632371	-91.291831
47777		14.536195	14.645740	-91.288104
47778		14.527446	14.655401	-91.283079
47779		14.513092	14.666194	-91.275526
47780		14.492752	14.675036	-91.272308
47781		14.471815	14.686124	-91.272755
47782		14.467014	14.685142	-91.280686
47783		14.460533	14.681388	-91.295717
47784		14.451557	14.684568	-91.307731
47785		14.431204	14.690903	-91.316816
47786		14.406679	14.694253	-91.326346
47787		14.390159	14.686250	-91.332399
47788		14.393838	14.669302	-91.339959
47789		14.416279	14.654918	-91.345605
47790		14.441931	14.645362	-91.346230
47791		14.462397	14.638016	-91.345582
47792		14.475946	14.629751	-91.348167
47793		14.477762	14.614045	-91.356639
47794		14.474905	14.603198	-91.365973
47795		14.458772	14.598166	-91.368482
47796		14.433901	14.598579	-91.366308
47797		14.403263	14.600627	-91.360609
47798		14.374080	14.596012	-91.356663
47799		14.351929	14.583910	-91.355444
47800		14.340139	14.567878	-91.357373
47801		14.340789	14.556049	-91.361379
47802		14.345736	14.549159	-91.359479
47803		14.344382	14.543910	-91.355059
47804		14.334722	14.537600	-91.352472
47805		14.323556	14.531351	-91.352547
47806		14.318337	14.521282	-91.352959
47807		14.316340	14.515994	-91.351283
47808		14.316477	14.511084	-91.341289
47809		14.316188	14.508541	-91.329710
47810		14.314329	14.501948	-91.323515
47811		14.314469	14.494887	-91.321405
47812		14.318578	14.484713	-91.323316
47813		14.322047	14.478400	-91.322740
47814		14.313586	14.477154	-91.321433
47815		14.304977	14.474971	-91.318816
47816		14.294720	14.464004	-91.319388
47817		14.288890	14.453068	-91.320194
47818		14.301015	14.440602	-91.316705
47819		14.312834	14.431778	-91.315879
47820		14.315102	14.427450	-91.315440
47821		14.311315	14.431356	-91.314097
47822		14.302236	14.435108	-91.307317
47823		14.295177	14.435948	-91.293699
47824		14.281687	14.431640	-91.275122
47825		14.266960	14.424752	-91.249497
47826		14.254335	14.418451	-91.223871
47827		14.257728	14.413040	-91.204191
47828		14.264165	14.408923	-91.187801
47829		14.267465	14.412152	-91.168210
47830		14.265913	14.414193	-91.139925
47831		14.250121	14.414379	-91.107182
47832		14.229406	14.417760	-91.065234
47833		14.207105	14.422932	-91.028042
47834		14.194236	14.427800	-90.990230
47835		14.185578	14.430925	-90.959827
47836		14.188426	14.428567	-90.933424
47837		14.197844	14.425181	-90.906413
47838		14.204936	14.425420	-90.872947
47839		14.212088	14.433466	-90.831784
47840		14.223365	14.435027	-90.788974
47841		14.237739	14.427319	-90.749221
47842		14.269127	14.411391	-90.711018
47843		14.314227	14.393229	-90.667217
47844		14.345400	14.378840	-90.621190
47845		14.364078	14.369645	-90.574209
47846		14.368461	14.361270	-90.530418
47847		14.362258	14.349561	-90.491213
47848		14.357126	14.334461	-90.453232
47849		14.358650	14.323951	-90.409332
47850		14.360250	14.316344	-90.359369
47851		14.362942	14.309860	-90.305056
47852		14.370215	14.298418	-90.247662
47853		14.357086	14.286278	-90.188529
47854		14.326022	14.275696	-90.128835
47855		14.290615	14.264661	-90.067595
47856		14.255399	14.248907	-90.012098
47857		14.222790	14.235254	-89.955254
47858		14.197855	14.224609	-89.896669
47859		14.193736	14.214076	-89.831306
47860		14.212115	14.194096	-89.766549
47861		14.238379	14.170160	-89.707108
47862		14.271307	14.145114	-89.650644
47863		14.301184	14.120793	-89.592777
47864		14.323899	14.102262	-89.530121
47865		14.328395	14.090605	-89.465654
47866		14.322257	14.083668	-89.400095
47867		14.309170	14.079355	-89.332300
47868		14.297228	14.070445	-89.265685
47869		14.301170	14.055446	-89.200890
47870		14.312639	14.034754	-89.136969
47871		14.316556	14.015629	-89.070816
47872		14.324013	13.996679	-88.999643
47873		14.329764	13.979941	-88.924165
47874		14.330549	13.964724	-88.846046
47875		14.333811	13.951092	-88.760742
47876		14.348519	13.927835	-88.675270
47877		14.367604	13.906370	-88.585549
47878		14.390549	13.886608	-88.488210
47879		14.419435	13.870403	-88.380718
47880		14.447529	13.859082	-88.260491
47881		14.467221	13.842766	-88.131583
47882		14.476476	13.821990	-87.996719
47883		14.475069	13.796909	-87.864209
47884		14.463000	13.777275	-87.730488
47885		14.438979	13.765399	-87.597369
47886		14.406940	13.758227	-87.464411
47887		14.366245	13.755249	-87.329742
47888		14.323542	13.749512	-87.194444
47889		14.281725	13.744743	-87.053321
47890		14.254994	13.735792	-86.904463
47891		14.236345	13.722302	-86.753964
47892		14.229203	13.704834	-86.601585
47893		14.216784	13.685629	-86.452928
47894		14.212135	13.662445	-86.313231
47895		14.218422	13.637317	-86.179871
47896		14.229180	13.618624	-86.048433
47897		14.242693	13.609054	-85.907547
47898		14.263809	13.603239	-85.758424
47899		14.277277	13.592270	-85.600589
47900		14.298372	13.567303	-85.433821
47901		14.338958	13.526865	-85.265015
47902		14.396182	13.480688	-85.096644
47903		14.467401	13.439189	-84.925243
47904		14.529700	13.406744	-84.745467
47905		14.557461	13.390682	-84.560625
47906		14.563964	13.385076	-84.360141
47907		14.556481	13.384652	-84.157313
47908		14.540070	13.375720	-83.957080
47909		14.525851	13.361339	-83.751040
47910		14.512214	13.348703	-83.526668
47911		14.486906	13.339708	-83.278125
47912		14.453301	13.326483	-83.013369
47913		14.435486	13.323857	-82.739149
47914		14.445614	13.325502	-82.462374
47915		14.478248	13.331016	-82.192540
47916		14.538794	13.334002	-81.921494
47917		14.600892	13.338089	-81.644287
47918		14.655426	13.345248	-81.357901
47919		14.694952	13.355200	-81.062950
47920		14.704378	13.374673	-80.761807
47921		14.681277	13.397070	-80.468682
47922		14.638344	13.415551	-80.182472
47923		14.576976	13.436374	-79.906865
47924		14.520737	13.456551	-79.641577
47925		14.479945	13.471882	-79.389800
47926		14.461674	13.483438	-79.147802
47927		14.460646	13.494776	-78.914853
47928		14.471204	13.498229	-78.692100
47929		14.489393	13.501140	-78.481286
47930		14.515373	13.508385	-78.277737
47931		14.527659	13.524971	-78.092759
47932		14.530741	13.537434	-77.927313
47933		14.537611	13.545000	-77.778002
47934		14.555602	13.548580	-77.641533
47935		14.577973	13.556212	-77.514168
47936		14.601785	13.572421	-77.387127
47937		14.630450	13.586449	-77.259838
47938		14.685637	13.582688	-77.136569
47939		14.749608	13.564117	-77.023034
47940		14.837146	13.535050	-76.909459
47941		14.926068	13.507332	-76.782137
47942		15.006346	13.491692	-76.622026
47943		15.065933	13.486186	-76.422224
47944		15.102470	13.479676	-76.182013
47945		15.137964	13.454520	-75.928170
47946		15.192871	13.400497	-75.680048
47947		15.263251	13.348192	-75.451931
47948		15.349802	13.314062	-75.229797
47949		15.428918	13.309512	-75.000223
47950		15.488091	13.325727	-74.752444
47951		15.514995	13.348496	-74.487286
47952		15.500204	13.360643	-74.204200
47953		15.449257	13.358445	-73.908383
47954		15.386950	13.328568	-73.597270
47955		15.333401	13.278759	-73.281540
47956		15.285225	13.234381	-72.962338
47957		15.248769	13.212634	-72.645943
47958		15.223353	13.205126	-72.327631
47959		15.214698	13.205799	-71.997973
47960		15.233740	13.195878	-71.649449
47961		15.289770	13.171615	-71.274466
47962		15.371485	13.130415	-70.873180
47963		15.482726	13.067475	-70.456289
47964		15.594038	13.008981	-70.022862
47965		15.710734	12.985862	-69.580400
47966		15.844557	12.977264	-69.136580
47967		15.990664	12.971777	-68.704197
47968		16.131427	12.952706	-68.286118
47969		16.256281	12.922482	-67.870293
47970		16.337205	12.894919	-67.445614
47971		16.356618	12.875593	-67.000192
47972		16.307160	12.866699	-66.529193
47973		16.213081	12.858399	-66.037690
47974		16.099551	12.839654	-65.531182
47975		16.009770	12.820854	-65.018987
47976		15.976842	12.783260	-64.523060
47977		16.000597	12.747926	-64.045090
47978		16.069828	12.718122	-63.585647
47979		16.175240	12.692182	-63.142448
47980		16.302654	12.677379	-62.703298
47981		16.444016	12.663788	-62.259475
47982		16.582674	12.644157	-61.801369
47983		16.702830	12.622868	-61.325115
47984		16.797953	12.586568	-60.837760
47985		16.868219	12.540259	-60.342790
47986		16.927743	12.489301	-59.837590
47987		16.983387	12.436645	-59.317994
47988		17.032549	12.371396	-58.787002
47989		17.085986	12.302946	-58.256522
47990		17.180080	12.217704	-57.742218
47991		17.304026	12.136267	-57.247063
47992		17.442740	12.094385	-56.757254
47993		17.579752	12.068436	-56.265152
47994		17.714284	12.024565	-55.769748
47995		17.827364	11.968738	-55.266026
47996		17.894985	11.914093	-54.746263
47997		17.911939	11.860177	-54.214818
47998		17.892070	11.803675	-53.681745
47999		17.842048	11.763313	-53.156903
48000		17.777741	11.724095	-52.642649
48001		17.695166	11.679748	-52.140880
48002		17.590934	11.638568	-51.641931
48003		17.472701	11.601481	-51.138675
48004		17.334885	11.560818	-50.629084
48005		17.196690	11.513649	-50.124738
48006		17.100077	11.450338	-49.644868
48007		17.045239	11.398979	-49.183179
48008		17.030866	11.361106	-48.725603
48009		17.029056	11.318472	-48.265592
48010		17.024860	11.271001	-47.796793
48011		17.007298	11.217214	-47.310466
48012		16.959727	11.154929	-46.806308
48013		16.866793	11.084411	-46.286899
48014		16.741762	11.000969	-45.766819
48015		16.603873	10.923152	-45.247916
48016		16.466574	10.872322	-44.721346
48017		16.348578	10.850888	-44.165368
48018		16.234525	10.859979	-43.557360
48019		16.095426	10.928621	-42.863076
48020		16.011209	11.050199	-42.090367
48021		15.936311	11.166746	-41.293096
48022		15.813944	11.166776	-40.497287
48023		15.685215	11.038038	-39.783757
48024		15.499271	10.934043	-39.179552
48025		15.157720	10.939294	-38.632864
48026		14.623952	11.006586	-38.097591
48027		13.949765	11.092956	-37.538569
48028		13.214525	11.190489	-36.923516
48029		12.521498	11.283811	-36.230008
48030		11.944689	11.329578	-35.459993
48031		11.518937	11.291494	-34.635836
48032		11.263314	11.169395	-33.799772
48033		11.194702	11.005800	-32.985810
48034		11.311259	10.859446	-32.211418
48035		11.567895	10.758406	-31.467047
48036		11.919028	10.693731	-30.734975
48037		12.315929	10.649735	-29.989161
48038		12.699017	10.592576	-29.216761
48039		13.026266	10.501505	-28.423592
48040		13.256562	10.383266	-27.629820
48041		13.389197	10.273742	-26.855389
48042		13.419518	10.199087	-26.105547
48043		13.332991	10.178932	-25.372120
48044		13.126454	10.196136	-24.648273
48045		12.837101	10.215868	-23.936688
48046		12.499114	10.209730	-23.229942
48047		12.132430	10.176134	-22.530731
48048		11.778830	10.124427	-21.837721
48049		11.450801	10.088309	-21.147279
48050		11.151281	10.097502	-20.453846
48051		10.887574	10.159652	-19.757306
48052		10.667733	10.232131	-19.065048
48053		10.479780	10.282058	-18.375182
48054		10.298733	10.290128	-17.697654
48055		10.126886	10.257285	-17.040192
48056		9.958829	10.218568	-16.394408
48057		9.796789	10.220062	-15.745552
48058		9.653080	10.261619	-15.088681
48059		9.511195	10.338018	-14.422290
48060		9.355610	10.426132	-13.749301
48061		9.187984	10.503940	-13.078950
48062		8.983979	10.536383	-12.427538
48063		8.765268	10.520311	-11.814707
48064		8.556980	10.501091	-11.246017
48065		8.359453	10.541199	-10.697929
48066		8.190148	10.631163	-10.134196
48067		8.060196	10.724245	-9.540967
48068		7.973639	10.793505	-8.916739
48069		7.924517	10.845027	-8.271865
48070		7.889853	10.879586	-7.634800
48071		7.852313	10.904936	-7.023407
48072		7.791742	10.943043	-6.455789
48073		7.705905	11.015490	-5.929728
48074		7.571488	11.123557	-5.432280
48075		7.386246	11.257941	-4.940514
48076		7.152561	11.391903	-4.436971
48077		6.883177	11.503266	-3.918442
48078		6.598227	11.578610	-3.390578
48079		6.304547	11.624142	-2.862706
48080		6.007895	11.656288	-2.358185
48081		5.745242	11.699296	-1.891983
48082		5.520322	11.781236	-1.450895
48083		5.332373	11.907035	-1.009972
48084		5.178276	12.027855	-0.551545
48085		5.048594	12.109186	-0.074639
48086		4.938045	12.161173	0.423003
48087		4.831927	12.196395	0.926090
48088		4.727134	12.221371	1.416980
48089		4.643109	12.255051	1.875926
48090		4.586333	12.310687	2.291873
48091		4.567518	12.392780	2.678543
48092		4.595682	12.467295	3.057625
48093		4.655675	12.512528	3.438526
48094		4.712858	12.528350	3.821201
48095		4.748578	12.532564	4.205429
48096		4.755265	12.545563	4.590516
48097		4.733290	12.583118	4.964282
48098		4.676898	12.645306	5.298953
48099		4.577508	12.726989	5.602470
48100		4.447205	12.802041	5.880571
48101		4.310459	12.852915	6.143120
48102		4.199356	12.870839	6.396754
48103		4.129587	12.876909	6.648558
48104		4.090889	12.881952	6.904583
48105		4.095162	12.892709	7.162594
48106		4.128882	12.904735	7.411852
48107		4.183889	12.914861	7.639150
48108		4.267704	12.915129	7.826853
48109		4.377228	12.922874	7.976941
48110		4.501479	12.948185	8.103890
48111		4.623290	12.982649	8.219006
48112		4.728895	12.995827	8.319768
48113		4.809323	12.979934	8.411183
48114		4.858550	12.952591	8.490034
48115		4.882461	12.936619	8.551575
48116		4.909147	12.929670	8.593519
48117		4.950398	12.930119	8.611951
48118		5.014094	12.933363	8.613998
48119		5.085912	12.934911	8.611343
48120		5.148980	12.918123	8.609998
48121		5.189238	12.890567	8.605071
48122		5.211043	12.863631	8.597452
48123		5.217191	12.848814	8.585040
48124		5.216972	12.842590	8.562108
48125		5.220797	12.838663	8.533410
48126		5.226067	12.824155	8.501043
48127		5.222952	12.805476	8.458068
48128		5.205209	12.786643	8.404818
48129		5.176017	12.771937	8.345641
48130		5.144085	12.757216	8.277430
48131		5.133717	12.742072	8.208267
48132		5.155221	12.721503	8.148069
48133		5.201087	12.693524	8.098960
48134		5.257403	12.653731	8.056473
48135		5.301569	12.616119	8.010163
48136		5.330324	12.591400	7.960297
48137		5.342847	12.576997	7.910021
48138		5.347084	12.571566	7.858918
48139		5.345239	12.563796	7.811187
48140		5.334731	12.552412	7.771730
48141		5.315079	12.540137	7.736375
48142		5.276492	12.523449	7.701052
48143		5.219981	12.507519	7.662372
48144		5.146354	12.496773	7.615862
48145		5.067561	12.493255	7.561890
48146		5.007023	12.488913	7.505142
48147		4.974700	12.483928	7.447213
48148		4.980780	12.473347	7.395149
48149		5.018382	12.461123	7.351853
48150		5.058807	12.433104	7.313134
48151		5.078556	12.402117	7.271234
48152		5.084701	12.378187	7.216954
48153		5.073508	12.361718	7.154518
48154		5.065148	12.354963	7.091670
48155		5.064702	12.346666	7.030394
48156		5.063147	12.332139	6.978766
48157		5.052592	12.316941	6.929143
48158		5.020779	12.306333	6.877041
48159		4.966763	12.304150	6.818804
48160		4.899863	12.305505	6.750023
48161		4.824061	12.303727	6.668637
48162		4.750980	12.301984	6.572324
48163		4.685343	12.304604	6.472469
48164		4.635847	12.305660	6.372363
48165		4.596424	12.299544	6.277677
48166		4.564791	12.282314	6.183530
48167		4.538317	12.255609	6.086697
48168		4.524971	12.225788	5.990428
48169		4.529098	12.208851	5.893873
48170		4.554328	12.202607	5.800716
48171		4.599265	12.196452	5.715307
48172		4.645695	12.183719	5.634369
48173		4.670771	12.160913	5.550793
48174		4.667710	12.127813	5.459086
48175		4.637983	12.110022	5.354365
48176		4.589486	12.108717	5.242787
48177		4.528968	12.127762	5.130772
48178		4.468919	12.142177	5.018463
48179		4.420714	12.149181	4.904313
48180		4.385441	12.149963	4.793508
48181		4.358773	12.144723	4.688074
48182		4.331945	12.123979	4.577759
48183		4.297798	12.107342	4.453640
48184		4.272348	12.103061	4.313636
48185		4.268593	12.110281	4.158760
48186		4.297671	12.113498	4.004134
48187		4.364531	12.118782	3.866277
48188		4.445730	12.114272	3.740073
48189		4.507315	12.091860	3.618428
48190		4.544573	12.068275	3.491336
48191		4.562350	12.060440	3.346071
48192		4.563290	12.067479	3.180794
48193		4.556698	12.086894	2.999453
48194		4.547956	12.098413	2.810591
48195		4.540980	12.101822	2.618022
48196		4.543780	12.099491	2.424906
48197		4.559418	12.100933	2.236765
48198		4.586425	12.110856	2.057747
48199		4.602077	12.119444	1.875648
48200		4.590368	12.115672	1.674360
48201		4.545572	12.116689	1.445665
48202		4.481289	12.128245	1.195186
48203		4.422840	12.144930	0.937292
48204		4.402794	12.156901	0.679950
48205		4.434227	12.160585	0.432533
48206		4.509979	12.157157	0.196794
48207		4.602055	12.158860	-0.035266
48208		4.690120	12.162101	-0.273540
48209		4.763863	12.176800	-0.532568
48210		4.817446	12.194284	-0.809289
48211		4.843839	12.208128	-1.106217
48212		4.853660	12.214686	-1.410244
48213		4.854840	12.217122	-1.709468
48214		4.836280	12.223467	-2.005665
48215		4.783322	12.225306	-2.310796
48216		4.719088	12.221056	-2.631174
48217		4.660123	12.216103	-2.983448
48218		4.625601	12.215336	-3.353150
48219		4.634890	12.219573	-3.724294
48220		4.693425	12.212236	-4.085425
48221		4.778978	12.193839	-4.437630
48222		4.878047	12.174003	-4.779536
48223		4.966719	12.159025	-5.119506
48224		5.046361	12.136191	-5.464099
48225		5.115637	12.114389	-5.822513
48226		5.183894	12.099055	-6.199184
48227		5.249321	12.091790	-6.590444
48228		5.331213	12.086462	-6.979755
48229		5.420585	12.076480	-7.359274
48230		5.501661	12.049796	-7.730503
48231		5.556449	12.013636	-8.098860
48232		5.576453	11.975489	-8.476443
48233		5.559651	11.942797	-8.872588
48234		5.522061	11.915125	-9.296072
48235		5.467390	11.899041	-9.752076
48236		5.413362	11.886764	-10.221235
48237		5.361869	11.878942	-10.687067
48238		5.287437	11.863347	-11.150903
48239		5.187759	11.830505	-11.624591
48240		5.088907	11.793742	-12.111786
48241		5.007034	11.777630	-12.621745
48242		4.976298	11.779260	-13.138290
48243		5.017182	11.784497	-13.655221
48244		5.132619	11.777286	-14.157208
48245		5.299052	11.749656	-14.649277
48246		5.484465	11.707702	-15.138142
48247		5.662384	11.661605	-15.632798
48248		5.828230	11.620531	-16.144277
48249		5.976371	11.588995	-16.671971
48250		6.110311	11.565947	-17.207105
48251		6.226985	11.541004	-17.740171
48252		6.309601	11.517263	-18.267634
48253		6.357318	11.492967	-18.794337
48254		6.376731	11.476024	-19.325359
48255		6.368890	11.474132	-19.866971
48256		6.351015	11.473163	-20.424540
48257		6.331903	11.471035	-20.991385
48258		6.332094	11.459080	-21.569132
48259		6.344617	11.441543	-22.148893
48260		6.384830	11.432157	-22.718959
48261		6.437880	11.436601	-23.275202
48262		6.496824	11.442627	-23.819683
48263		6.559982	11.446341	-24.360563
48264		6.635161	11.446277	-24.905549
48265		6.699573	11.448283	-25.462626
48266		6.766057	11.450671	-26.030510
48267		6.836988	11.449426	-26.609497
48268		6.925615	11.448956	-27.191119
48269		7.033108	11.455188	-27.761891
48270		7.153111	11.460866	-28.310586
48271		7.268969	11.455996	-28.835483
48272		7.380000	11.440428	-29.343653
48273		7.479157	11.423741	-29.845948
48274		7.576903	11.413368	-30.359067
48275		7.655120	11.417124	-30.892139
48276		7.730874	11.422028	-31.445512
48277		7.805876	11.417738	-32.012095
48278		7.891123	11.408583	-32.571527
48279		7.973390	11.404493	-33.107998
48280		8.048967	11.400507	-33.618302
48281		8.104561	11.395778	-34.121538
48282		8.144836	11.395837	-34.628454
48283		8.179955	11.401003	-35.154484
48284		8.214248	11.410705	-35.693621
48285		8.252123	11.421567	-36.238069
48286		8.297982	11.431575	-36.771066
48287		8.348106	11.436666	-37.283950
48288		8.398047	11.436027	-37.782034
48289		8.458271	11.432244	-38.269800
48290		8.524765	11.428884	-38.764635
48291		8.603607	11.426635	-39.278645
48292		8.709387	11.424162	-39.819238
48293		8.844918	11.426363	-40.382195
48294		9.015230	11.429714	-40.947751
48295		9.203468	11.439405	-41.499203
48296		9.394856	11.449177	-42.016999
48297		9.568431	11.435575	-42.507786
48298		9.723889	11.404691	-42.993512
48299		9.871847	11.377564	-43.483635
48300		10.027696	11.353449	-43.988120
48301		10.202505	11.329598	-44.517056
48302		10.395849	11.303053	-45.069953
48303		10.592903	11.274900	-45.635181
48304		10.787222	11.252975	-46.190668
48305		10.972960	11.229264	-46.733133
48306		11.141598	11.198059	-47.262726
48307		11.301173	11.155259	-47.795725
48308		11.467563	11.105941	-48.341733
48309		11.645426	11.045905	-48.907183
48310		11.833111	10.982249	-49.487019
48311		12.014693	10.927498	-50.071604
48312		12.183517	10.878358	-50.661880
48313		12.338902	10.833303	-51.253828
48314		12.490657	10.798395	-51.853890
48315		12.648747	10.766937	-52.451919
48316		12.807454	10.733241	-53.047251
48317		12.966864	10.688185	-53.634907
48318		13.120941	10.631437	-54.217357
48319		13.261856	10.588139	-54.790099
48320		13.412114	10.553455	-55.353132
48321		13.551565	10.508806	-55.917602
48322		13.678781	10.449440	-56.492818
48323		13.805677	10.381819	-57.081953
48324		13.922023	10.320819	-57.677458
48325		14.007433	10.278759	-58.266162
48326		14.046570	10.249778	-58.840206
48327		14.036898	10.224911	-59.403900
48328		13.999145	10.193327	-59.966606
48329		13.939620	10.158583	-60.537140
48330		13.874066	10.134572	-61.119024
48331		13.817953	10.109371	-61.714697
48332		13.768962	10.083957	-62.319381
48333		13.739888	10.056248	-62.923005
48334		13.751816	10.020099	-63.518501
48335		13.800311	9.990671	-64.100220
48336		13.907394	9.958039	-64.668874
48337		14.057303	9.926020	-65.228806
48338		14.229617	9.898706	-65.785193
48339		14.418231	9.867593	-66.338437
48340		14.610228	9.808155	-66.894627
48341		14.790457	9.728295	-67.464345
48342		14.991252	9.654680	-68.040885
48343		15.210825	9.597798	-68.614942
48344		15.442226	9.564808	-69.189397
48345		15.689679	9.544811	-69.756611
48346		15.917452	9.522101	-70.318676
48347		16.110049	9.495834	-70.876880
48348		16.284486	9.448730	-71.437789
48349		16.442624	9.387164	-71.995485
48350		16.598885	9.334098	-72.549467
48351		16.753142	9.293460	-73.096376
48352		16.889911	9.273068	-73.629185
48353		17.011643	9.270246	-74.148333
48354		17.106057	9.273903	-74.656339
48355		17.174026	9.284913	-75.165650
48356		17.224507	9.301794	-75.675964
48357		17.248758	9.331033	-76.187262
48358		17.228878	9.376655	-76.699654
48359		17.152517	9.441329	-77.215947
48360		17.041889	9.514335	-77.731422
48361		16.938366	9.578836	-78.238876
48362		16.845068	9.629911	-78.730948
48363		16.784697	9.677349	-79.195796
48364		16.747169	9.727421	-79.624517
48365		16.692762	9.791288	-80.035752
48366		16.608316	9.859680	-80.452936
48367		16.515418	9.905812	-80.897611
48368		16.438988	9.921344	-81.372947
48369		16.381997	9.926059	-81.859015
48370		16.314285	9.964319	-82.325414
48371		16.194948	10.040747	-82.754015
48372		16.024906	10.128024	-83.155988
48373		15.837900	10.194616	-83.543933
48374		15.658973	10.223603	-83.933163
48375		15.482379	10.224663	-84.335425
48376		15.339930	10.230363	-84.750507
48377		15.242753	10.249555	-85.147718
48378		15.173154	10.283338	-85.521987
48379		15.121891	10.333668	-85.865461
48380		15.081834	10.376513	-86.184856
48381		15.049273	10.397272	-86.491136
48382		15.045677	10.389455	-86.798113
48383		15.067490	10.370120	-87.108625
48384		15.083173	10.362860	-87.415844
48385		15.074888	10.382397	-87.718663
48386		15.055559	10.419727	-88.017988
48387		15.020232	10.460250	-88.312636
48388		14.972546	10.502383	-88.593789
48389		14.914280	10.547589	-88.864149
48390		14.857613	10.587544	-89.120301
48391		14.789663	10.620036	-89.369122
48392		14.729569	10.653064	-89.613783
48393		14.704895	10.688496	-89.844809
48394		14.692532	10.722601	-90.065876
48395		14.685307	10.770441	-90.274852
48396		14.686524	10.822992	-90.469048
48397		14.691568	10.869145	-90.663054
48398		14.710647	10.906307	-90.865403
48399		14.748564	10.948164	-91.068795
48400		14.776894	11.008316	-91.257360
48401		14.778878	11.079563	-91.439850
48402		14.777554	11.151004	-91.616493
48403		14.776960	11.218515	-91.786820
48404		14.788949	11.285390	-91.960927
48405		14.809247	11.344784	-92.138301
48406		14.840605	11.399945	-92.304445
48407		14.854906	11.452065	-92.449616
48408		14.865325	11.515035	-92.577131
48409		14.894580	11.582599	-92.695630
48410		14.920473	11.634770	-92.821695
48411		14.934786	11.674718	-92.955345
48412		14.955432	11.720792	-93.099615
48413		14.962550	11.783087	-93.245527
48414		14.924417	11.868911	-93.385111
48415		14.865032	11.962190	-93.505684
48416		14.820866	12.045562	-93.612169
48417		14.807965	12.101888	-93.705143
48418		14.814450	12.139511	-93.794672
48419		14.828243	12.180284	-93.883092
48420		14.848598	12.221104	-93.971856
48421		14.855611	12.262494	-94.068329
48422		14.859769	12.310069	-94.175116
48423		14.850217	12.356619	-94.281559
48424		14.827171	12.407216	-94.372537
48425		14.806287	12.447769	-94.445667
48426		14.781632	12.489347	-94.505665
48427		14.772351	12.532297	-94.557496
48428		14.790165	12.559637	-94.610172
48429		14.814101	12.572319	-94.659369
48430		14.840973	12.584786	-94.701806
48431		14.864987	12.604006	-94.734372
48432		14.865662	12.624742	-94.760384
48433		14.836263	12.644781	-94.783730
48434		14.805149	12.672803	-94.794410
48435		14.763206	12.704495	-94.800800
48436		14.722265	12.738006	-94.802721
48437		14.689814	12.768392	-94.801682
48438		14.647329	12.792352	-94.796910
48439		14.586045	12.811966	-94.789869
48440		14.539848	12.825232	-94.786088
48441		14.515613	12.839289	-94.782419
48442		14.497896	12.862241	-94.784220
48443		14.486416	12.885700	-94.791816
48444		14.476866	12.899993	-94.805613
48445		14.466072	12.900356	-94.823096
48446		14.450471	12.897145	-94.834992
48447		14.420317	12.904765	-94.841310
48448		14.387906	12.924583	-94.840805
48449		14.359355	12.944309	-94.844216
48450		14.327921	12.965647	-94.852313
48451		14.297888	12.990205	-94.858780
48452		14.257248	13.016816	-94.861558
48453		14.205135	13.040096	-94.860130
48454		14.133191	13.070321	-94.854209
48455		14.060954	13.104861	-94.842174
48456		14.013956	13.141581	-94.819518
48457		13.984286	13.179894	-94.799548
48458		13.976575	13.209883	-94.773511
48459		13.980619	13.237086	-94.750554
48460		13.977755	13.261421	-94.725777
48461		13.958243	13.287009	-94.704366
48462		13.927237	13.316448	-94.688102
48463		13.903773	13.346310	-94.680388
48464		13.902107	13.380552	-94.670726
48465		13.915889	13.411323	-94.656693
48466		13.946305	13.434999	-94.639052
48467		13.980016	13.442552	-94.626925
48468		13.996533	13.445668	-94.623679
48469		14.003321	13.450924	-94.633655
48470		14.003193	13.460500	-94.651411
48471		13.993920	13.476080	-94.674550
48472		13.991658	13.500147	-94.690416
48473		13.983052	13.518641	-94.703010
48474		13.983497	13.526882	-94.717435
48475		13.998457	13.527976	-94.739390
48476		14.028860	13.528847	-94.761734
48477		14.066611	13.531826	-94.779115
48478		14.089567	13.544864	-94.781417
48479		14.081428	13.559689	-94.772849
48480		14.048703	13.570423	-94.765092
48481		14.020733	13.573199	-94.763525
48482		14.007588	13.571322	-94.760789
48483		14.002255	13.574845	-94.760859
48484		14.003667	13.583043	-94.752977
48485		14.009625	13.582818	-94.740550
48486		14.009515	13.578891	-94.725471
48487		14.008013	13.575953	-94.711090
48488		14.019347	13.569317	-94.691549
48489		14.040302	13.565402	-94.674679
48490		14.074945	13.558814	-94.658464
48491		14.121850	13.545172	-94.644340
48492		14.174929	13.530910	-94.630318
48493		14.214505	13.525355	-94.612025
48494		14.233484	13.526672	-94.588185
48495		14.236601	13.527362	-94.559052
48496		14.223080	13.521838	-94.529000
48497		14.205368	13.508612	-94.499809
48498		14.187888	13.495200	-94.469283
48499		14.172840	13.486765	-94.433814
48500		14.157843	13.485111	-94.396905
48501		14.151562	13.487725	-94.355161
48502		14.141220	13.486119	-94.309772
48503		14.127039	13.475891	-94.266019
48504		14.122900	13.463813	-94.217739
48505		14.121205	13.452644	-94.163055
48506		14.105037	13.445249	-94.105201
48507		14.070517	13.439990	-94.041471
48508		14.021889	13.430573	-93.977016
48509		13.974828	13.419596	-93.915472
48510		13.954486	13.400955	-93.860109
48511		13.956701	13.380292	-93.803280
48512		13.971331	13.358162	-93.742987
48513		13.981550	13.340867	-93.666669
48514		13.980507	13.328580	-93.583858
48515		13.973087	13.316358	-93.501068
48516		13.967631	13.295376	-93.423711
48517		13.958688	13.270879	-93.354670
48518		13.954692	13.247760	-93.292037
48519		13.973301	13.221645	-93.226934
48520		14.021093	13.188677	-93.159915
48521		14.090274	13.141601	-93.085086
48522		14.154409	13.095364	-93.006065
48523		14.208269	13.045664	-92.927556
48524		14.244615	12.994252	-92.847969
48525		14.259591	12.945592	-92.771506
48526		14.252296	12.903208	-92.690621
48527		14.218411	12.874770	-92.604265
48528		14.176324	12.854280	-92.504932
48529		14.131392	12.830554	-92.394453
48530		14.082485	12.791101	-92.281479
48531		14.031565	12.741652	-92.158821
48532		13.980806	12.689120	-92.023045
48533		13.929372	12.644304	-91.880268
48534		13.900716	12.602097	-91.733032
48535		13.894402	12.553882	-91.583050
48536		13.910623	12.511468	-91.423419
48537		13.938710	12.469400	-91.254160
48538		13.964024	12.431238	-91.070962
48539		13.983130	12.389647	-90.880500
48540		13.995712	12.342707	-90.685990
48541		14.007716	12.283385	-90.489967
48542		14.027596	12.219541	-90.293205
48543		14.054761	12.154563	-90.093756
48544		14.085486	12.094647	-89.884735
48545		14.132808	12.045253	-89.660921
48546		14.198563	12.003273	-89.418844
48547		14.276780	11.958923	-89.165476
48548		14.367550	11.907956	-88.909232
48549		14.462981	11.853445	-88.654204
48550		14.553267	11.803903	-88.403483
48551		14.613779	11.772257	-88.152844
48552		14.634072	11.755520	-87.891163
48553		14.631571	11.747486	-87.613452
48554		14.616201	11.736012	-87.318703
48555		14.618548	11.726904	-87.015536
48556		14.646696	11.716500	-86.702183
48557		14.705899	11.698212	-86.385476
48558		14.789658	11.673888	-86.070174
48559		14.879829	11.649403	-85.753470
48560		14.970663	11.633075	-85.428603
48561		15.054671	11.627600	-85.086488
48562		15.121330	11.628961	-84.718933
48563		15.181957	11.633814	-84.325956
48564		15.283702	11.634550	-83.921056
48565		15.418546	11.624206	-83.519422
48566		15.564592	11.608973	-83.138887
48567		15.692542	11.595562	-82.783524
48568		15.780018	11.602243	-82.436986
48569		15.807589	11.630581	-82.097175
48570		15.787903	11.675177	-81.756473
48571		15.734413	11.723928	-81.411429
48572		15.677958	11.759299	-81.055716
48573		15.650420	11.765398	-80.688899
48574		15.659411	11.763690	-80.310351
48575		15.713407	11.770165	-79.925708
48576		15.799965	11.784625	-79.537790
48577		15.910115	11.796321	-79.160861
48578		16.020937	11.799359	-78.798688
48579		16.104984	11.803766	-78.449855
48580		16.164332	11.816548	-78.100590
48581		16.201881	11.833863	-77.744765
48582		16.230431	11.852031	-77.384173
48583		16.262876	11.875115	-77.015735
48584		16.295905	11.891854	-76.637278
48585		16.330076	11.893256	-76.257757
48586		16.361614	11.882940	-75.873808
48587		16.403785	11.866705	-75.491416
48588		16.453894	11.852765	-75.103296
48589		16.522714	11.842028	-74.703959
48590		16.621972	11.821266	-74.292572
48591		16.741627	11.792728	-73.872255
48592		16.890934	11.766545	-73.443457
48593		17.074102	11.735115	-73.014719
48594		17.261415	11.713384	-72.582196
48595		17.419368	11.700339	-72.149288
48596		17.538469	11.685325	-71.720356
48597		17.612538	11.666490	-71.293659
48598		17.655893	11.646079	-70.862327
48599		17.673368	11.630667	-70.421285
48600		17.687764	11.615589	-69.963845
48601		17.705222	11.592578	-69.501851
48602		17.723315	11.564664	-69.026804
48603		17.751355	11.529150	-68.548054
48604		17.787094	11.481383	-68.067324
48605		17.839526	11.427487	-67.586777
48606		17.931618	11.368409	-67.106339
48607		18.060613	11.319395	-66.617302
48608		18.201999	11.286490	-66.114798
48609		18.341943	11.256543	-65.605528
48610		18.456781	11.221891	-65.086357
48611		18.549476	11.176707	-64.565028
48612		18.622063	11.122855	-64.038697
48613		18.678873	11.067247	-63.507315
48614		18.731415	11.008185	-62.971815
48615		18.778291	10.957883	-62.430199
48616		18.815423	10.915760	-61.887420
48617		18.857318	10.867171	-61.347166
48618		18.894111	10.813008	-60.810330
48619		18.927487	10.763360	-60.265626
48620		18.968007	10.706753	-59.715980
48621		19.016008	10.643414	-59.163377
48622		19.057148	10.581741	-58.611041
48623		19.082894	10.530577	-58.063949
48624		19.094704	10.487083	-57.516157
48625		19.096261	10.452572	-56.967850
48626		19.079255	10.437776	-56.412174
48627		19.038928	10.442614	-55.852251
48628		18.978132	10.461433	-55.290901
48629		18.898854	10.488348	-54.736271
48630		18.791448	10.536727	-54.186775
48631		18.625540	10.625670	-53.626538
48632		18.347904	10.760971	-53.032712
48633		17.924897	10.941944	-52.371190
48634		17.560134	11.155564	-51.673715
48635		17.223875	11.325481	-50.958949
48636		16.885871	11.403825	-50.205702
48637		16.750171	11.370940	-49.509353
48638		16.761757	11.360442	-48.844866
48639		16.846597	11.368511	-48.201176
48640		16.879328	11.353487	-47.591344
48641		16.781079	11.366755	-46.987665
48642		16.558632	11.461950	-46.346534
48643		16.264074	11.607650	-45.655948
48644		15.943680	11.744345	-44.922080
48645		15.653413	11.834403	-44.166814
48646		15.440580	11.874054	-43.402987
48647		15.316810	11.888140	-42.640038
48648		15.281653	11.899633	-41.878215
48649		15.341067	11.903900	-41.107198
48650		15.483295	11.871576	-40.349283
48651		15.691510	11.797430	-39.615372
48652		15.951296	11.720548	-38.896863
48653		16.243270	11.680566	-38.173999
48654		16.521758	11.692753	-37.430220
48655		16.736862	11.742685	-36.672596
48656		16.856739	11.801090	-35.914557
48657		16.858303	11.859450	-35.169789
48658		16.722610	11.902756	-34.443002
48659		16.471149	11.927833	-33.738581
48660		16.119573	11.959964	-33.056503
48661		15.689091	12.019963	-32.377414
48662		15.218335	12.103957	-31.691461
48663		14.730512	12.218117	-30.986936
48664		14.213209	12.335875	-30.273449
48665		13.718664	12.415522	-29.565242
48666		13.270543	12.440295	-28.874189
48667		12.893595	12.437048	-28.211188
48668		12.624943	12.443075	-27.563618
48669		12.470307	12.471444	-26.906736
48670		12.398370	12.507804	-26.220813
48671		12.398666	12.524995	-25.501536
48672		12.460440	12.500564	-24.759556
48673		12.560195	12.431132	-24.007561
48674		12.667216	12.336438	-23.259208
48675		12.777870	12.241654	-22.531805
48676		12.859505	12.170921	-21.837609
48677		12.902900	12.137516	-21.171679
48678		12.883714	12.150953	-20.526909
48679		12.795461	12.192077	-19.897799
48680		12.659336	12.220895	-19.286775
48681		12.507403	12.207234	-18.686742
48682		12.369715	12.157910	-18.093415
48683		12.257662	12.110144	-17.504871
48684		12.172809	12.093073	-16.920855
48685		12.110971	12.117758	-16.327050
48686		12.060366	12.162222	-15.715027
48687		12.017354	12.193783	-15.094071
48688		11.965495	12.191626	-14.467977
48689		11.889953	12.171531	-13.852132
48690		11.777492	12.159640	-13.259265
48691		11.620225	12.181636	-12.690431
48692		11.431970	12.240186	-12.139189
48693		11.230992	12.319131	-11.594708
48694		11.037605	12.397215	-11.041151
48695		10.853102	12.462471	-10.468974
48696		10.671730	12.508427	-9.885687
48697		10.496993	12.539695	-9.305847
48698		10.319843	12.570615	-8.738948
48699		10.134559	12.606684	-8.193322
48700		9.934711	12.657930	-7.676350
48701		9.732074	12.733388	-7.181816
48702		9.556487	12.816004	-6.700538
48703		9.420241	12.891585	-6.208723
48704		9.322175	12.940685	-5.697974
48705		9.246817	12.959625	-5.184581
48706		9.187442	12.966295	-4.671779
48707		9.131163	12.986325	-4.167617
48708		9.076627	13.027524	-3.669855
48709		9.022098	13.096054	-3.174876
48710		8.951354	13.186504	-2.693952
48711		8.857083	13.277170	-2.231310
48712		8.722270	13.343727	-1.792257
48713		8.549560	13.385555	-1.375534
48714		8.349746	13.418335	-0.982646
48715		8.158115	13.469386	-0.597888
48716		7.997533	13.540398	-0.209780
48717		7.877523	13.611235	0.186835
48718		7.780336	13.663378	0.586232
48719		7.703552	13.689961	0.980495
48720		7.638743	13.696697	1.368703
48721		7.582066	13.713060	1.751258
48722		7.532283	13.751005	2.137698
48723		7.493105	13.801085	2.521752
48724		7.449631	13.853665	2.900920
48725		7.395176	13.898761	3.267158
48726		7.323373	13.941063	3.617224
48727		7.232259	13.984526	3.948598
48728		7.134541	14.025274	4.270701
48729		7.048036	14.066532	4.587585
48730		6.966251	14.106253	4.901850
48731		6.881349	14.147349	5.212219
48732		6.776153	14.181338	5.521369
48733		6.649248	14.209356	5.822103
48734		6.506299	14.239202	6.110149
48735		6.365786	14.273968	6.381644
48736		6.225753	14.321126	6.637723
48737		6.097490	14.373343	6.878935
48738		5.992053	14.419976	7.119972
48739		5.925502	14.448966	7.359696
48740		5.889526	14.452647	7.592579
48741		5.863112	14.445739	7.808847
48742		5.850338	14.447810	8.009990
48743		5.852047	14.460198	8.193510
48744		5.866825	14.469407	8.360433
48745		5.903917	14.474886	8.512060
48746		5.958789	14.473201	8.653162
48747		6.009035	14.468319	8.782344
48748		6.042831	14.467525	8.893877
48749		6.058336	14.480376	8.994327
48750		6.068240	14.502550	9.085114
48751		6.074485	14.533419	9.168436
48752		6.092716	14.565800	9.251548
48753		6.103540	14.584686	9.328178
48754		6.077199	14.585792	9.398374
48755		5.999921	14.585542	9.457477
48756		5.889508	14.595703	9.508360
48757		5.767043	14.628774	9.550281
48758		5.649001	14.674222	9.584993
48759		5.554814	14.721863	9.613975
48760		5.496839	14.756789	9.640556
48761		5.472130	14.765590	9.657424
48762		5.461542	14.755485	9.661171
48763		5.458873	14.746268	9.651196
48764		5.466883	14.749990	9.635284
48765		5.489044	14.765308	9.619760
48766		5.512087	14.779963	9.603489
48767		5.520352	14.787796	9.580827
48768		5.520956	14.789721	9.550342
48769		5.519821	14.788795	9.508859
48770		5.525011	14.786414	9.456593
48771		5.535419	14.779825	9.392180
48772		5.547135	14.768167	9.322526
48773		5.546696	14.754632	9.250583
48774		5.533012	14.741781	9.175186
48775		5.507016	14.735993	9.094271
48776		5.467431	14.735407	9.008024
48777		5.418317	14.732786	8.916463
48778		5.370457	14.721206	8.815141
48779		5.333212	14.710027	8.709546
48780		5.307054	14.691272	8.604090
48781		5.287644	14.667953	8.499286
48782		5.271147	14.647079	8.394270
48783		5.252705	14.627242	8.288704
48784		5.240526	14.602950	8.188261
48785		5.240820	14.570516	8.091854
48786		5.254366	14.530788	7.999110
48787		5.268269	14.488591	7.913751
48788		5.281696	14.447424	7.840362
48789		5.262870	14.411036	7.770113
48790		5.200812	14.377948	7.699715
48791		5.108359	14.349523	7.629495
48792		5.001359	14.319863	7.560055
48793		4.895028	14.288334	7.494342
48794		4.797825	14.245023	7.430893
48795		4.691102	14.202962	7.360655
48796		4.570170	14.169826	7.284705
48797		4.444764	14.152025	7.201971
48798		4.329526	14.139199	7.117255
48799		4.224296	14.130716	7.032522
48800		4.125798	14.107095	6.946407
48801		4.039995	14.051823	6.854211
48802		3.968567	13.980329	6.746172
48803		3.902484	13.919278	6.616815
48804		3.852450	13.879285	6.465366
48805		3.824035	13.852559	6.294239
48806		3.826674	13.827620	6.115656
48807		3.859361	13.795550	5.935361
48808		3.904036	13.752245	5.749280
48809		3.949296	13.696303	5.546550
48810		3.993069	13.644763	5.325741
48811		4.040626	13.599772	5.090723
48812		4.094048	13.563135	4.844662
48813		4.142534	13.536642	4.591086
48814		4.161101	13.513857	4.327146
48815		4.142067	13.480633	4.050237
48816		4.095993	13.442894	3.760698
48817		4.038462	13.416523	3.455795
48818		3.992659	13.403646	3.139099
48819		3.971889	13.397009	2.813475
48820		3.993112	13.383613	2.481647
48821		4.061573	13.348875	2.151061
48822		4.179793	13.301482	1.831725
48823		4.312375	13.249919	1.515728
48824		4.421513	13.196205	1.193922
48825		4.490745	13.141091	0.859921
48826		4.526814	13.094092	0.509613
48827		4.528992	13.063777	0.131285
48828		4.513667	13.049416	-0.264218
48829		4.500955	13.031363	-0.661206
48830		4.502238	12.992435	-1.049117
48831		4.510215	12.931185	-1.425867
48832		4.505827	12.858319	-1.795175
48833		4.475686	12.784156	-2.175418
48834		4.431321	12.715948	-2.566042
48835		4.386498	12.662236	-2.967353
48836		4.362674	12.613676	-3.375809
48837		4.365240	12.562866	-3.781870
48838		4.406478	12.502642	-4.175984
48839		4.460264	12.434847	-4.559548
48840		4.512212	12.366029	-4.940256
48841		4.545440	12.297814	-5.330313
48842		4.564708	12.235335	-5.733433
48843		4.587246	12.172508	-6.140263
48844		4.626239	12.105404	-6.542382
48845		4.673466	12.033110	-6.940933
48846		4.720205	11.961110	-7.335816
48847		4.775716	11.893451	-7.722467
48848		4.824110	11.829043	-8.102605
48849		4.859172	11.754669	-8.480342
48850		4.884870	11.675595	-8.861847
48851		4.899518	11.607108	-9.261200
48852		4.908722	11.559221	-9.677393
48853		4.918526	11.536361	-10.113846
48854		4.926762	11.524905	-10.561453
48855		4.947663	11.505060	-11.006028
48856		4.980238	11.456026	-11.432324
48857		5.010699	11.383056	-11.842074
48858		5.024503	11.306079	-12.239728
48859		5.035658	11.246948	-12.639430
48860		5.048359	11.211920	-13.052964
48861		5.075505	11.192228	-13.486045
48862		5.121959	11.178480	-13.942837
48863		5.194770	11.163270	-14.419192
48864		5.298263	11.143358	-14.897146
48865		5.412579	11.121878	-15.357918
48866		5.519058	11.083923	-15.791354
48867		5.590935	11.029059	-16.215620
48868		5.636206	10.979112	-16.642787
48869		5.668080	10.946425	-17.082946
48870		5.702718	10.928646	-17.542850
48871		5.747124	10.922197	-18.022224
48872		5.810115	10.919628	-18.517293
48873		5.885959	10.911112	-19.013684
48874		5.963192	10.902966	-19.496529
48875		6.035422	10.885592	-19.960818
48876		6.087565	10.861381	-20.418532
48877		6.119971	10.835316	-20.889821
48878		6.152437	10.817390	-21.383902
48879		6.192730	10.816725	-21.896566
48880		6.256723	10.821395	-22.415616
48881		6.341751	10.825110	-22.926119
48882		6.442193	10.815313	-23.415170
48883		6.538304	10.784526	-23.893800
48884		6.633240	10.746425	-24.372231
48885		6.725865	10.719783	-24.861349
48886		6.827948	10.713030	-25.362922
48887		6.934502	10.714916	-25.879990
48888		7.051200	10.722422	-26.401198
48889		7.165918	10.731096	-26.921848
48890		7.262911	10.732406	-27.434775
48891		7.333557	10.718054	-27.945305
48892		7.389799	10.707718	-28.459884
48893		7.436467	10.708274	-28.984554
48894		7.481181	10.713730	-29.524247
48895		7.538405	10.711656	-30.072463
48896		7.613889	10.706231	-30.618324
48897		7.687705	10.690041	-31.154371
48898		7.769002	10.666925	-31.678778
48899		7.847817	10.650502	-32.194890
48900		7.933270	10.638802	-32.708686
48901		8.025157	10.632393	-33.230123
48902		8.131432	10.629213	-33.761653
48903		8.246590	10.630517	-34.312745
48904		8.365689	10.639079	-34.889173
48905		8.477510	10.653468	-35.483571
48906		8.575096	10.667943	-36.080559
48907		8.657863	10.668740	-36.680205
48908		8.725686	10.661697	-37.277976
48909		8.789969	10.651720	-37.868860
48910		8.859198	10.645516	-38.456583
48911		8.928586	10.640819	-39.051113
48912		9.014644	10.633115	-39.646526
48913		9.114553	10.624846	-40.246428
48914		9.237851	10.622565	-40.844306
48915		9.356927	10.633282	-41.450786
48916		9.475198	10.647916	-42.073651
48917		9.609883	10.663599	-42.713606
48918		9.752700	10.684775	-43.374931
48919		9.894467	10.707808	-44.047064
48920		10.026331	10.720878	-44.716427
48921		10.140128	10.724755	-45.372826
48922		10.235364	10.723300	-46.023721
48923		10.311101	10.712956	-46.672475
48924		10.386841	10.700320	-47.319855
48925		10.472095	10.688545	-47.975639
48926		10.569252	10.674335	-48.652930
48927		10.677204	10.659465	-49.356759
48928		10.810176	10.650953	-50.076240
48929		10.943026	10.645710	-50.806366
48930		11.075101	10.643057	-51.533957
48931		11.202979	10.635287	-52.249582
48932		11.331581	10.612370	-52.946068
48933		11.459493	10.588225	-53.636545
48934		11.582681	10.577607	-54.325780
48935		11.714953	10.561908	-55.021935
48936		11.867293	10.533282	-55.727421
48937		12.029893	10.503181	-56.432009
48938		12.194953	10.473749	-57.129323
48939		12.344868	10.445542	-57.829390
48940		12.469385	10.426679	-58.528454
48941		12.551229	10.415530	-59.231244
48942		12.592009	10.408404	-59.938191
48943		12.600134	10.401610	-60.644063
48944		12.571765	10.390255	-61.350395
48945		12.514110	10.383275	-62.067732
48946		12.435942	10.384801	-62.779414
48947		12.343057	10.385311	-63.478253
48948		12.270539	10.373042	-64.162090
48949		12.227185	10.342815	-64.834698
48950		12.205672	10.292410	-65.497422
48951		12.213213	10.223634	-66.156531
48952		12.261167	10.158638	-66.822004
48953		12.356877	10.107919	-67.496511
48954		12.489140	10.057408	-68.186265
48955		12.645728	9.996323	-68.894140
48956		12.822048	9.917665	-69.610141
48957		13.013321	9.831510	-70.321440
48958		13.231015	9.754269	-71.006163
48959		13.481249	9.688741	-71.655909
48960		13.759785	9.622308	-72.268811
48961		14.064136	9.543279	-72.867501
48962		14.400943	9.454557	-73.465909
48963		14.748417	9.359410	-74.085589
48964		15.082574	9.276169	-74.723490
48965		15.390125	9.211899	-75.368162
48966		15.656821	9.188105	-75.999550
48967		15.847517	9.219116	-76.600858
48968		15.975562	9.288577	-77.161180
48969		16.048624	9.357443	-77.691462
48970		16.071071	9.394607	-78.206455
48971		16.042326	9.402093	-78.724833
48972		15.967969	9.407121	-79.238228
48973		15.830348	9.436908	-79.742218
48974		15.631622	9.507402	-80.242605
48975		15.397265	9.608168	-80.730514
48976		15.158000	9.705700	-81.213191
48977		14.934717	9.791565	-81.684465
48978		14.715141	9.881003	-82.135583
48979		14.498870	9.977116	-82.560140
48980		14.294926	10.057295	-82.971140
48981		14.128304	10.114802	-83.376770
48982		14.001847	10.150675	-83.783522
48983		13.908330	10.169118	-84.191838
48984		13.859817	10.186719	-84.595762
48985		13.836229	10.221788	-84.970535
48986		13.850032	10.261067	-85.320406
48987		13.905214	10.293421	-85.638610
48988		13.972544	10.316286	-85.938651
48989		14.041698	10.326645	-86.226261
48990		14.102814	10.320930	-86.515621
48991		14.142681	10.298744	-86.810642
48992		14.150658	10.279912	-87.107686
48993		14.116163	10.293772	-87.396493
48994		14.022145	10.336063	-87.663737
48995		13.906542	10.385574	-87.912982
48996		13.788707	10.430307	-88.148821
48997		13.664140	10.466368	-88.373219
48998		13.554407	10.488805	-88.588733
48999		13.479943	10.503606	-88.795880
49000		13.433362	10.533452	-88.980797
49001		13.389174	10.582359	-89.147550
49002		13.344575	10.649046	-89.291638
49003		13.304922	10.706348	-89.423952
49004		13.289435	10.739527	-89.559157
49005		13.308533	10.755714	-89.699233
49006		13.361611	10.781914	-89.828274
49007		13.444276	10.824796	-89.940994
49008		13.544114	10.876690	-90.045693
49009		13.671224	10.919221	-90.147851
49010		13.803879	10.945534	-90.253053
49011		13.922441	10.956156	-90.362533
49012		14.018936	10.975165	-90.478703
49013		14.063654	11.017413	-90.593734
49014		14.034150	11.085104	-90.706462
49015		13.957508	11.173398	-90.816082
49016		13.871906	11.265418	-90.921485
49017		13.820426	11.335147	-91.027335
49018		13.841119	11.381190	-91.128949
49019		13.904312	11.417230	-91.223650
49020		14.002559	11.455943	-91.316552
49021		14.130704	11.493023	-91.413232
49022		14.261661	11.525981	-91.516670
49023		14.395317	11.560747	-91.629021
49024		14.532852	11.592848	-91.758294
49025		14.635469	11.640342	-91.888190
49026		14.665071	11.720999	-91.998829
49027		14.641359	11.822197	-92.082508
49028		14.590075	11.909707	-92.153228
49029		14.519441	11.967363	-92.219779
49030		14.445156	12.017798	-92.289563
49031		14.378481	12.067664	-92.365467
49032		14.330829	12.123571	-92.441062
49033		14.301535	12.176421	-92.510736
49034		14.289694	12.222938	-92.572313
49035		14.284107	12.267317	-92.616251
49036		14.273917	12.317341	-92.648027
49037		14.272128	12.360388	-92.674932
49038		14.282068	12.389482	-92.704789
49039		14.304669	12.403794	-92.741501
49040		14.331014	12.413906	-92.780238
49041		14.349340	12.432274	-92.808460
49042		14.357083	12.456865	-92.816626
49043		14.354145	12.482986	-92.817278
49044		14.354823	12.505821	-92.817686
49045		14.356478	12.523848	-92.825329
49046		14.355188	12.538751	-92.840747
49047		14.348286	12.552790	-92.855614
49048		14.328616	12.579745	-92.858532
49049		14.289681	12.618607	-92.850473
49050		14.239687	12.656794	-92.836820
49051		14.194136	12.695838	-92.820213
49052		14.167755	12.731095	-92.811212
49053		14.171690	12.757923	-92.810454
49054		14.179174	12.785232	-92.817323
49055		14.172864	12.821980	-92.826660
49056		14.157915	12.863869	-92.835814
49057		14.131811	12.904661	-92.843255
49058		14.108443	12.946161	-92.855955
49059		14.118670	12.982698	-92.874290
49060		14.178005	13.008435	-92.896694
49061		14.274037	13.032101	-92.926541
49062		14.397992	13.058512	-92.958704
49063		14.532612	13.083847	-93.000000
49064		14.655230	13.100493	-93.069931
49065		14.770482	13.100664	-93.156862
49066		14.871407	13.110133	-93.248224
49067		14.932515	13.158154	-93.325728
49068		14.944120	13.240820	-93.367018
49069		14.926243	13.318738	-93.388281
49070		14.917942	13.358907	-93.412402
49071		14.947931	13.359408	-93.447957
49072		15.009636	13.353042	-93.492607
49073		15.086142	13.364718	-93.530338
49074		15.144618	13.402775	-93.555810
49075		15.170673	13.455804	-93.562705
49076		15.165587	13.506496	-93.557015
49077		15.136444	13.550168	-93.543914
49078		15.089829	13.591483	-93.520925
49079		15.030641	13.625748	-93.490976
49080		14.976492	13.658804	-93.455770
49081		14.927208	13.691324	-93.416150
49082		14.893751	13.719611	-93.378930
49083		14.882582	13.742276	-93.344660
49084		14.884135	13.764115	-93.310635
49085		14.902788	13.783847	-93.277835
49086		14.942057	13.796663	-93.245480
49087		14.997259	13.805884	-93.211060
49088		15.054056	13.812412	-93.178093
49089		15.100960	13.828131	-93.137874
49090		15.130254	13.848957	-93.099961
49091		15.142093	13.871421	-93.064947
49092		15.143286	13.889101	-93.039625
49093		15.139413	13.904353	-93.015023
49094		15.123452	13.914299	-92.984077
49095		15.088415	13.921384	-92.941815
49096		15.039413	13.919257	-92.881852
49097		14.972855	13.913125	-92.821710
49098		14.905198	13.906241	-92.761189
49099		14.853444	13.894587	-92.716336
49100		14.816631	13.876869	-92.685346
49101		14.788769	13.859521	-92.659214
49102		14.767379	13.845261	-92.630423
49103		14.755692	13.829770	-92.598063
49104		14.762235	13.813134	-92.564682
49105		14.791268	13.789115	-92.537070
49106		14.840966	13.758506	-92.520717
49107		14.898925	13.719800	-92.500970
49108		14.943775	13.681644	-92.472467
49109		14.951499	13.650606	-92.433092
49110		14.924191	13.621088	-92.387926
49111		14.878046	13.594520	-92.343546
49112		14.832911	13.571390	-92.301686
49113		14.799614	13.552080	-92.261846
49114		14.778758	13.536650	-92.214359
49115		14.769663	13.522378	-92.157994
49116		14.766372	13.506104	-92.097633
49117		14.768103	13.483922	-92.030210
49118		14.771163	13.461791	-91.955333
49119		14.769541	13.442136	-91.875161
49120		14.770965	13.423147	-91.788164
49121		14.777197	13.403925	-91.692784
49122		14.783074	13.386102	-91.591258
49123		14.777298	13.369922	-91.480274
49124		14.766875	13.351047	-91.364076
49125		14.751809	13.326455	-91.248606
49126		14.739019	13.299204	-91.142107
49127		14.746683	13.269311	-91.045277
49128		14.759356	13.246359	-90.943827
49129		14.763315	13.232520	-90.839966
49130		14.749447	13.218805	-90.731252
49131		14.732876	13.195907	-90.630584
49132		14.734636	13.161057	-90.534141
49133		14.760406	13.125605	-90.437136
49134		14.797135	13.089464	-90.337180
49135		14.827056	13.054106	-90.231671
49136		14.849753	13.013597	-90.125732
49137		14.872743	12.967009	-90.016262
49138		14.903699	12.914308	-89.908728
49139		14.936484	12.860813	-89.795044
49140		14.978085	12.804776	-89.670854
49141		15.012452	12.741574	-89.534730
49142		15.035471	12.674106	-89.390376
49143		15.056671	12.603737	-89.233516
49144		15.071656	12.537179	-89.061338
49145		15.050736	12.476809	-88.883338
49146		15.014795	12.412078	-88.703354
49147		14.973231	12.335452	-88.523623
49148		14.917253	12.261956	-88.346662
49149		14.862712	12.190355	-88.166928
49150		14.822388	12.113599	-87.982436
49151		14.796884	12.031438	-87.789366
49152		14.793581	11.941091	-87.586171
49153		14.811916	11.851011	-87.374033
49154		14.844506	11.759722	-87.147063
49155		14.899314	11.655894	-86.917312
49156		14.979891	11.536900	-86.682644
49157		15.073067	11.415300	-86.444892
49158		15.162085	11.310939	-86.198825
49159		15.249464	11.229157	-85.944323
49160		15.320349	11.153356	-85.688743
49161		15.383688	11.072518	-85.433609
49162		15.445852	10.976835	-85.189614
49163		15.495441	10.878472	-84.948171
49164		15.530075	10.786991	-84.692044
49165		15.541866	10.705891	-84.410301
49166		15.528665	10.633274	-84.098525
49167		15.515896	10.556705	-83.768455
49168		15.527261	10.476142	-83.431546
49169		15.567403	10.396879	-83.096494
49170		15.631706	10.327962	-82.772768
49171		15.707440	10.277107	-82.444287
49172		15.764907	10.243559	-82.111873
49173		15.803610	10.215994	-81.764112
49174		15.833372	10.178652	-81.399324
49175		15.866718	10.127220	-81.014118
49176		15.881020	10.065405	-80.613066
49177		15.897493	10.012196	-80.196199
49178		15.939251	9.963511	-79.779339
49179		16.009362	9.915373	-79.370672
49180		16.088998	9.867871	-78.980007
49181		16.158511	9.824624	-78.604368
49182		16.222505	9.784060	-78.234022
49183		16.288088	9.755730	-77.850090
49184		16.336938	9.748099	-77.431572
49185		16.367190	9.744543	-76.962324
49186		16.390807	9.728878	-76.446141
49187		16.425400	9.680943	-75.910945
49188		16.470082	9.625130	-75.382168
49189		16.536009	9.589530	-74.874441
49190		16.620439	9.579775	-74.389972
49191		16.698348	9.599991	-73.922664
49192		16.746082	9.641258	-73.454464
49193		16.756374	9.689930	-72.964265
49194		16.729342	9.736783	-72.441274
49195		16.670729	9.763822	-71.878179
49196		16.591817	9.768189	-71.284762
49197		16.519809	9.737451	-70.677324
49198		16.482824	9.685193	-70.061933
49199		16.485487	9.633815	-69.444735
49200		16.535603	9.603326	-68.824768
49201		16.614665	9.584951	-68.205449
49202		16.719213	9.579487	-67.586899
49203		16.862760	9.562720	-66.971382
49204		17.040101	9.521789	-66.360644
49205		17.245993	9.468178	-65.745537
49206		17.438034	9.423041	-65.117356
49207		17.607588	9.381575	-64.477856
49208		17.753311	9.334886	-63.835126
49209		17.870831	9.298200	-63.181331
49210		17.951322	9.280764	-62.522383
49211		18.036959	9.264141	-61.865586
49212		18.137061	9.229383	-61.218939
49213		18.234814	9.199391	-60.587763
49214		18.334365	9.169162	-59.972142
49215		18.435728	9.130940	-59.368885
49216		18.507559	9.087221	-58.775049
49217		18.544053	9.047271	-58.178858
49218		18.550108	9.020516	-57.570247
49219		18.523791	9.009528	-56.943572
49220		18.473010	9.014845	-56.298651
49221		18.427180	9.002606	-55.655118
49222		18.398479	8.970947	-55.022589
49223		18.374656	8.940206	-54.405579
49224		18.347787	8.913544	-53.801483
49225		18.311914	8.897254	-53.204022
49226		18.263876	8.898579	-52.596020
49227		18.195264	8.914923	-51.959128
49228		18.093762	8.949819	-51.274167
49229		17.951029	8.991844	-50.540792
49230		17.754442	9.042303	-49.769983
49231		17.516106	9.122934	-48.970628
49232		17.322541	9.231701	-48.174881
49233		17.107809	9.324568	-47.380805
49234		16.874764	9.375031	-46.603129
49235		16.636836	9.419586	-45.873278
49236		16.361242	9.473873	-45.178305
49237		16.018231	9.496315	-44.525258
49238		15.594547	9.497341	-43.897729
49239		15.144147	9.520238	-43.255912
49240		14.716373	9.575279	-42.570286
49241		14.356158	9.631624	-41.819969
49242		14.086841	9.652994	-41.024376
49243		13.943256	9.619109	-40.217864
49244		13.942622	9.548781	-39.421314
49245		14.085790	9.465373	-38.648415
49246		14.370598	9.377570	-37.901330
49247		14.759382	9.308248	-37.165282
49248		15.175181	9.266843	-36.428893
49249		15.584925	9.214217	-35.698437
49250		15.963010	9.156159	-34.975127
49251		16.276413	9.124800	-34.251622
49252		16.517240	9.127558	-33.522967
49253		16.669170	9.168583	-32.787544
49254		16.699703	9.236953	-32.055801
49255		16.589218	9.315275	-31.340805
49256		16.349466	9.392455	-30.663183
49257		15.993249	9.474381	-30.024207
49258		15.567966	9.568791	-29.406710
49259		15.123282	9.688945	-28.799184
49260		14.683248	9.823083	-28.184126
49261		14.265613	9.967848	-27.547061
49262		13.867613	10.114065	-26.892512
49263		13.475429	10.236912	-26.239858
49264		13.119655	10.312762	-25.598924
49265		12.804828	10.365983	-24.986122
49266		12.521781	10.443052	-24.399226
49267		12.284797	10.562974	-23.806428
49268		12.087847	10.710767	-23.187100
49269		11.915579	10.868044	-22.538692
49270		11.757060	11.011224	-21.875312
49271		11.621171	11.102767	-21.210363
49272		11.491690	11.144116	-20.566725
49273		11.363974	11.169373	-19.956373
49274		11.238673	11.229194	-19.382543
49275		11.133371	11.345279	-18.814593
49276		11.037092	11.507212	-18.227383
49277		10.927064	11.668796	-17.618214
49278		10.819837	11.779371	-16.996450
49279		10.712985	11.835882	-16.377987
49280		10.594243	11.877928	-15.783075
49281		10.462189	11.948494	-15.220813
49282		10.323115	12.067684	-14.676064
49283		10.186193	12.210603	-14.131739
49284		10.047862	12.353502	-13.576747
49285		9.920083	12.474775	-13.000444
49286		9.808654	12.565242	-12.406092
49287		9.697151	12.621870	-11.814503
49288		9.591356	12.659909	-11.251631
49289		9.523760	12.729066	-10.720930
49290		9.509800	12.853226	-10.207550
49291		9.547607	13.008312	-9.684757
49292		9.619681	13.142396	-9.126322
49293		9.700334	13.230382	-8.533541
49294		9.771844	13.286514	-7.927356
49295		9.826375	13.333825	-7.321380
49296		9.854430	13.391017	-6.728224
49297		9.849632	13.472994	-6.171426
49298		9.797270	13.580971	-5.653575
49299		9.685772	13.711980	-5.170579
49300		9.510730	13.849349	-4.709606
49301		9.305423	13.976474	-4.246269
49302		9.085721	14.105699	-3.769234
49303		8.867945	14.248041	-3.283493
49304		8.650436	14.406157	-2.800632
49305		8.420164	14.566153	-2.339152
49306		8.172434	14.706281	-1.915649
49307		7.899622	14.849743	-1.534890
49308		7.616901	15.016202	-1.186278
49309		7.372602	15.201018	-0.832681
49310		7.187858	15.373442	-0.447746
49311		7.061433	15.504133	-0.032235
49312		6.975007	15.606938	0.412873
49313		6.916760	15.706879	0.880119
49314		6.882529	15.805287	1.352346
49315		6.864207	15.895834	1.804363
49316		6.845780	15.979880	2.214364
49317		6.805279	16.069603	2.576132
49318		6.760052	16.171676	2.907040
49319		6.731324	16.277504	3.234834
49320		6.730229	16.371269	3.575061
49321		6.761838	16.447893	3.928648
49322		6.829652	16.505364	4.299829
49323		6.934241	16.547316	4.680885
49324		7.060066	16.595392	5.060057
49325		7.169109	16.660970	5.419483
49326		7.231682	16.743394	5.750400
49327		7.222517	16.834945	6.042217
49328		7.151306	16.920659	6.294076
49329		7.046538	17.001673	6.507453
49330		6.971175	17.076713	6.703300
49331		6.972763	17.144452	6.907556
49332		7.053046	17.195596	7.137028
49333		7.171787	17.232533	7.381526
49334		7.283254	17.264703	7.626919
49335		7.365191	17.298422	7.858523
49336		7.417306	17.337078	8.068833
49337		7.454183	17.383531	8.260743
49338		7.482194	17.431648	8.445219
49339		7.504897	17.483119	8.622579
49340		7.509303	17.545900	8.783465
49341		7.501382	17.617971	8.927876
49342		7.498848	17.691736	9.050176
49343		7.514537	17.757886	9.151092
49344		7.565210	17.820319	9.251080
49345		7.637872	17.868038	9.348254
49346		7.705493	17.891226	9.444390
49347		7.741365	17.909232	9.530281
49348		7.731139	17.938488	9.601421
49349		7.688043	17.973552	9.656769
49350		7.643654	18.007945	9.700413
49351		7.624923	18.034042	9.738088
49352		7.650632	18.052354	9.776573
49353		7.710942	18.057142	9.811217
49354		7.773371	18.054638	9.840872
49355		7.814965	18.054233	9.852141
49356		7.831782	18.061953	9.856426
49357		7.830260	18.071091	9.863211
49358		7.816068	18.069857	9.868677
49359		7.784565	18.061363	9.864472
49360		7.742430	18.055987	9.850888
49361		7.700776	18.053555	9.835791
49362		7.666874	18.060270	9.822723
49363		7.634759	18.063031	9.810980
49364		7.588275	18.056860	9.796400
49365		7.532310	18.035822	9.783246
49366		7.480215	18.011781	9.775460
49367		7.426607	17.993278	9.768286
49368		7.372409	17.980872	9.759530
49369		7.330991	17.968264	9.748112
49370		7.299462	17.955290	9.735070
49371		7.270128	17.930164	9.714008
49372		7.250238	17.895612	9.686668
49373		7.236367	17.862657	9.651217
49374		7.217481	17.836185	9.613259
49375		7.188483	17.819828	9.574709
49376		7.150954	17.807104	9.535355
49377		7.111519	17.794977	9.493142
49378		7.085148	17.776161	9.455297
49379		7.065936	17.752209	9.421105
49380		7.044795	17.720303	9.385895
49381		7.000524	17.688095	9.347053
49382		6.931391	17.659054	9.303305
49383		6.837779	17.627703	9.257289
49384		6.738486	17.599411	9.206732
49385		6.639482	17.569064	9.153535
49386		6.556758	17.531650	9.091375
49387		6.484024	17.489232	9.019380
49388		6.429952	17.442804	8.928662
49389		6.397767	17.396781	8.822733
49390		6.396883	17.349466	8.713365
49391		6.399810	17.284569	8.602076
49392		6.373800	17.203866	8.481244
49393		6.311275	17.120568	8.348338
49394		6.228587	17.050289	8.200377
49395		6.133954	16.995200	8.042023
49396		6.038729	16.945742	7.879302
49397		5.942960	16.884480	7.713074
49398		5.853058	16.809634	7.539310
49399		5.780271	16.723424	7.353623
49400		5.732456	16.638607	7.153224
49401		5.698964	16.557579	6.941955
49402		5.651537	16.471587	6.721176
49403		5.566673	16.379557	6.481256
49404		5.444302	16.287199	6.216365
49405		5.305589	16.214360	5.922061
49406		5.172496	16.163831	5.615474
49407		5.061799	16.118737	5.313001
49408		4.993776	16.062984	5.026901
49409		4.985331	15.985338	4.766810
49410		5.013555	15.887405	4.522453
49411		5.029343	15.774921	4.274941
49412		5.008696	15.650071	4.004698
49413		4.937728	15.532759	3.701566
49414		4.827790	15.441042	3.363626
49415		4.692846	15.379575	2.995590
49416		4.571223	15.334961	2.614164
49417		4.481876	15.290889	2.242214
49418		4.434984	15.222771	1.896327
49419		4.414545	15.122264	1.570891
49420		4.394278	14.999403	1.240744
49421		4.351089	14.876264	0.887480
49422		4.290028	14.769065	0.503572
49423		4.206236	14.689867	0.079365
49424		4.115408	14.624065	-0.383511
49425		4.033708	14.549214	-0.867793
49426		3.994869	14.464394	-1.344418
49427		3.974351	14.359665	-1.812952
49428		3.953920	14.246853	-2.285975
49429		3.926512	14.147067	-2.775602
49430		3.918557	14.076175	-3.287151
49431		3.939371	14.026226	-3.822176
49432		4.025413	13.979660	-4.369473
49433		4.182937	13.917804	-4.908060
49434		4.411477	13.830004	-5.424709
49435		4.660674	13.717457	-5.913184
49436		4.896661	13.590131	-6.387925
49437		5.082232	13.465114	-6.868931
49438		5.217603	13.355013	-7.368312
49439		5.297320	13.269051	-7.903964
49440		5.337360	13.204436	-8.480231
49441		5.358133	13.151275	-9.078561
49442		5.370075	13.100684	-9.673689
49443		5.357087	13.032202	-10.246046
49444		5.301920	12.933605	-10.797618
49445		5.194384	12.819788	-11.345986
49446		5.070335	12.717022	-11.902445
49447		4.967663	12.633905	-12.480428
49448		4.911830	12.576686	-13.085585
49449		4.916794	12.539257	-13.710083
49450		4.995826	12.505984	-14.333498
49451		5.142915	12.459570	-14.933825
49452		5.325599	12.388035	-15.499828
49453		5.497566	12.284857	-16.046626
49454		5.637288	12.173546	-16.583478
49455		5.747280	12.075911	-17.117757
49456		5.837623	11.993537	-17.662542
49457		5.906418	11.932572	-18.233106
49458		5.959294	11.894568	-18.830302
49459		6.008587	11.866434	-19.436553
49460		6.058075	11.842616	-20.026063
49461		6.110880	11.802174	-20.594020
49462		6.148339	11.747910	-21.155538
49463		6.164435	11.699078	-21.725869
49464		6.192712	11.672606	-22.304497
49465		6.234618	11.663149	-22.889593
49466		6.304059	11.669125	-23.470876
49467		6.386860	11.670352	-24.052211
49468		6.466427	11.646593	-24.625552
49469		6.530159	11.606482	-25.190016
49470		6.596254	11.572029	-25.742761
49471		6.667424	11.559496	-26.295747
49472		6.738189	11.570366	-26.871013
49473		6.810613	11.592609	-27.470357
49474		6.891935	11.613769	-28.094341
49475		6.984519	11.630877	-28.730745
49476		7.087016	11.648081	-29.357732
49477		7.178055	11.647775	-29.973078
49478		7.247038	11.627984	-30.578786
49479		7.306752	11.601713	-31.178404
49480		7.382535	11.576983	-31.780005
49481		7.483119	11.558379	-32.401473
49482		7.607219	11.555056	-33.057222
49483		7.755612	11.557130	-33.738624
49484		7.913512	11.565884	-34.427379
49485		8.063040	11.575631	-35.103447
49486		8.203450	11.562902	-35.756617
49487		8.320236	11.531840	-36.401205
49488		8.435360	11.511741	-37.037576
49489		8.558270	11.496361	-37.675949
49490		8.702336	11.482885	-38.326872
49491		8.853257	11.468683	-38.998534
49492		9.010988	11.457377	-39.691311
49493		9.163462	11.452851	-40.396772
49494		9.287182	11.464710	-41.108305
49495		9.374305	11.482962	-41.812203
49496		9.441646	11.494254	-42.500227
49497		9.487723	11.492012	-43.176625
49498		9.519198	11.485744	-43.847265
49499		9.548883	11.476406	-44.515260
49500		9.592040	11.466881	-45.189572
49501		9.665390	11.449161	-45.878186
49502		9.779460	11.429600	-46.583703
49503		9.931323	11.413779	-47.300165
49504		10.113357	11.401181	-48.022398
49505		10.323454	11.384741	-48.742381
49506		10.558837	11.368697	-49.444108
49507		10.804321	11.345536	-50.122924
49508		11.053370	11.297954	-50.783919
49509		11.302515	11.230876	-51.439403
49510		11.547096	11.172088	-52.096906
49511		11.781271	11.138184	-52.764186
49512		12.003336	11.114901	-53.450122
49513		12.219024	11.086495	-54.147439
49514		12.426113	11.045976	-54.846979
49515		12.637535	10.999145	-55.534058
49516		12.853406	10.944146	-56.209518
49517		13.045224	10.890569	-56.879011
49518		13.187962	10.867889	-57.549282
49519		13.273475	10.867343	-58.239873
49520		13.273866	10.872737	-58.956256
49521		13.181217	10.867573	-59.699249
49522		12.985783	10.857734	-60.451824
49523		12.724345	10.836199	-61.193555
49524		12.448818	10.822068	-61.912333
49525		12.204221	10.819586	-62.609690
49526		11.985510	10.819104	-63.297536
49527		11.800385	10.803243	-63.988696
49528		11.660586	10.746078	-64.682248
49529		11.583410	10.635388	-65.385528
49530		11.617155	10.506236	-66.083232
49531		11.751473	10.388309	-66.760781
49532		11.980414	10.296549	-67.417858
49533		12.277174	10.211403	-68.058822
49534		12.639980	10.106759	-68.696200
49535		13.058618	9.963630	-69.339450
49536		13.529462	9.788615	-69.981002
49537		14.037834	9.605157	-70.611937
49538		14.572896	9.434068	-71.226431
49539		15.134054	9.299845	-71.816260
49540		15.706882	9.203980	-72.389602
49541		16.276984	9.128129	-72.957312
49542		16.815772	9.063431	-73.525873
49543		17.303431	9.000843	-74.104982
49544		17.731294	8.934542	-74.703603
49545		18.055580	8.886907	-75.309203
49546		18.260438	8.892743	-75.892912
49547		18.326965	8.961382	-76.434437
49548		18.260586	9.078251	-76.937676
49549		18.086959	9.215122	-77.413800
49550		17.824003	9.351229	-77.879804
49551		17.503588	9.468357	-78.346495
49552		17.157026	9.562337	-78.823206
49553		16.828230	9.644625	-79.286698
49554		16.504559	9.731043	-79.721440
49555		16.178200	9.842871	-80.122501
49556		15.896583	9.959304	-80.504038
49557		15.679469	10.069347	-80.884862
49558		15.528225	10.181814	-81.263369
49559		15.432001	10.304781	-81.642903
49560		15.346402	10.435194	-82.027443
49561		15.272548	10.571145	-82.417229
49562		15.233372	10.709415	-82.803343
49563		15.232238	10.842836	-83.161762
49564		15.245582	10.960250	-83.484761
49565		15.270463	11.050615	-83.778167
49566		15.307877	11.119536	-84.061715
49567		15.352937	11.180035	-84.349114
49568		15.399014	11.247952	-84.648860
49569		15.431161	11.330775	-84.962368
49570		15.453216	11.430421	-85.280222
49571		15.446221	11.548380	-85.586219
49572		15.403694	11.678952	-85.860479
49573		15.352565	11.799053	-86.104955
49574		15.312242	11.892391	-86.340292
49575		15.289984	11.968178	-86.576715
49576		15.287465	12.032685	-86.813588
49577		15.310384	12.097645	-87.051242
49578		15.342970	12.164492	-87.297133
49579		15.380761	12.224227	-87.541850
49580		15.424123	12.285182	-87.770908
49581		15.461345	12.353301	-87.969595
49582		15.475222	12.421948	-88.143738
49583		15.482919	12.478093	-88.303799
49584		15.496218	12.517474	-88.466539
49585		15.510705	12.548076	-88.638045
49586		15.533383	12.576502	-88.821693
49587		15.571647	12.597228	-89.007115
49588		15.601614	12.614321	-89.183246
49589		15.617011	12.642027	-89.338572
49590		15.604002	12.682777	-89.466363
49591		15.570126	12.721049	-89.578417
49592		15.545760	12.742572	-89.693930
49593		15.546117	12.750695	-89.815823
49594		15.551060	12.770103	-89.940058
49595		15.573926	12.798801	-90.058595
49596		15.589911	12.826973	-90.170176
49597		15.605343	12.852023	-90.282952
49598		15.642094	12.875471	-90.395442
49599		15.705097	12.887888	-90.504047
49600		15.794778	12.890009	-90.595757
49601		15.913352	12.889412	-90.668658
49602		16.082749	12.890463	-90.734902
49603		16.360385	12.893520	-90.793488
49604		16.738265	12.892172	-90.856020
49605		17.180000	12.893439	-90.929068
49606		17.628988	12.914395	-91.007305
49607		18.017233	12.956171	-91.099735
49608		18.275414	13.014674	-91.218862
49609		18.376519	13.104992	-91.342779
49610		18.362719	13.210731	-91.449241
49611		18.284170	13.315952	-91.534594
49612		18.179257	13.415334	-91.600720
49613		18.076885	13.514276	-91.656800
49614		17.997192	13.606243	-91.718862
49615		17.946127	13.677401	-91.803045
49616		17.938030	13.733105	-91.892567
49617		17.944160	13.777209	-91.974666
49618		17.938974	13.825743	-92.039704
49619		17.937456	13.873990	-92.079755
49620		17.950185	13.916034	-92.111945
49621		17.978615	13.942956	-92.146212
49622		18.023446	13.962223	-92.191195
49623		18.079411	13.976349	-92.249431
49624		18.146902	13.992593	-92.323283
49625		18.198881	14.019105	-92.380640
49626		18.203737	14.055649	-92.420940
49627		18.178938	14.087593	-92.455427
49628		18.140935	14.106628	-92.497720
49629		18.118830	14.118725	-92.550411
49630		18.104869	14.132839	-92.610379
49631		18.094091	14.147988	-92.667254
49632		18.083850	14.157707	-92.712998
49633		18.075936	14.165009	-92.746268
49634		18.077179	14.163320	-92.773080
49635		18.104682	14.161317	-92.787995
49636		18.148644	14.156573	-92.812955
49637		18.191507	14.143616	-92.848554
49638		18.218871	14.127405	-92.894845
49639		18.220485	14.118930	-92.940470
49640		18.181857	14.119909	-92.984193
49641		18.126428	14.134516	-93.015601
49642		18.071756	14.140448	-93.036551
49643		18.049752	14.132480	-93.051129
49644		18.052936	14.120131	-93.061262
49645		18.065749	14.108110	-93.067721
49646		18.069918	14.103611	-93.081867
49647		18.071844	14.105287	-93.102027
49648		18.072060	14.108476	-93.130190
49649		18.079226	14.115361	-93.150563
49650		18.071766	14.121971	-93.166362
49651		18.054634	14.132293	-93.166100
49652		18.051141	14.139135	-93.162535
49653		18.073092	14.144391	-93.159599
49654		18.106727	14.147547	-93.159687
49655		18.150067	14.146839	-93.161174
49656		18.185801	14.140932	-93.164188
49657		18.193977	14.138275	-93.160998
49658		18.183983	14.146336	-93.148318
49659		18.178482	14.157143	-93.128865
49660		18.170415	14.153323	-93.105860
49661		18.142733	14.145888	-93.077884
49662		18.103203	14.147889	-93.048001
49663		18.062840	14.144775	-93.023910
49664		18.032342	14.140284	-92.997212
49665		18.015663	14.138706	-92.957188
49666		18.012497	14.128947	-92.915649
49667		18.027593	14.110848	-92.870824
49668		18.063430	14.084857	-92.830147
49669		18.124358	14.052769	-92.788300
49670		18.178177	14.022647	-92.733663
49671		18.204899	14.000678	-92.663131
49672		18.198211	13.976915	-92.584552
49673		18.175795	13.949149	-92.502066
49674		18.151143	13.916488	-92.421093
49675		18.128593	13.881222	-92.338724
49676		18.113565	13.845737	-92.253901
49677		18.105611	13.811909	-92.162789
49678		18.089870	13.774898	-92.061274
49679		18.064210	13.736961	-91.951153
49680		18.028657	13.691877	-91.831595
49681		17.977603	13.641090	-91.709615
49682		17.904576	13.592898	-91.588815
49683		17.830871	13.545651	-91.459826
49684		17.774135	13.495834	-91.333361
49685		17.744248	13.438398	-91.205481
49686		17.756804	13.374880	-91.072177
49687		17.811835	13.298140	-90.933247
49688		17.894003	13.210801	-90.788657
49689		17.991605	13.122877	-90.636690
49690		18.082729	13.049089	-90.474675
49691		18.155281	12.988778	-90.306463
49692		18.196423	12.935705	-90.132249
49693		18.216089	12.877584	-89.958925
49694		18.227433	12.815582	-89.783046
49695		18.233423	12.753452	-89.606171
49696		18.224133	12.703239	-89.422292
49697		18.198242	12.659163	-89.233080
49698		18.181180	12.613757	-89.041431
49699		18.182540	12.555985	-88.844616
49700		18.210306	12.491498	-88.644643
49701		18.265258	12.425461	-88.431304
49702		18.331305	12.362436	-88.200292
49703		18.410797	12.304624	-87.952317
49704		18.512955	12.247071	-87.692578
49705		18.642988	12.196737	-87.421429
49706		18.787883	12.156296	-87.147287
49707		18.935280	12.124096	-86.879981
49708		19.070459	12.102820	-86.623617
49709		19.161737	12.092047	-86.377440
49710		19.193897	12.096081	-86.135164
49711		19.162087	12.113707	-85.892170
49712		19.098366	12.139157	-85.637823
49713		19.010086	12.169648	-85.359344
49714		18.909001	12.195706	-85.054481
49715		18.815684	12.201175	-84.725639
49716		18.741050	12.194889	-84.371147
49717		18.721206	12.187758	-84.004375
49718		18.761432	12.179655	-83.633523
49719		18.856581	12.170425	-83.268037
49720		18.993984	12.161261	-82.911181
49721		19.155966	12.157633	-82.555191
49722		19.311358	12.170210	-82.180673
49723		19.456327	12.200594	-81.779765
49724		19.598334	12.225912	-81.358933
49725		19.738813	12.240331	-80.920350
49726		19.885067	12.255269	-80.474827
49727		20.034302	12.275840	-80.027579
49728		20.176726	12.305829	-79.587865
49729		20.301086	12.338141	-79.162674
49730		20.415374	12.366478	-78.749190
49731		20.505821	12.401706	-78.332308
49732		20.560114	12.459001	-77.885530
49733		20.582633	12.531149	-77.406205
49734		20.591464	12.603965	-76.898941
49735		20.622154	12.658447	-76.380763
49736		20.713872	12.681067	-75.865329
49737		20.854922	12.692666	-75.358259
49738		21.017840	12.719415	-74.840111
49739		21.206052	12.758744	-74.309673
49740		21.401901	12.801883	-73.774307
49741		21.603214	12.845037	-73.232682
49742		21.796577	12.879345	-72.685624
49743		21.992328	12.899626	-72.137332
49744		22.195982	12.907067	-71.587326
49745		22.400735	12.921966	-71.039681
49746		22.579241	12.961500	-70.492461
49747		22.720796	13.011867	-69.951842
49748		22.833815	13.058552	-69.418716
49749		22.929459	13.095006	-68.887674
49750		23.012719	13.124547	-68.341119
49751		23.089320	13.148904	-67.779644
49752		23.188986	13.162577	-67.205713
49753		23.320146	13.175825	-66.627645
49754		23.465332	13.192128	-66.058727
49755		23.605265	13.198716	-65.521128
49756		23.741524	13.198045	-65.004865
49757		23.892273	13.187336	-64.499241
49758		24.077707	13.153759	-63.990915
49759		24.282049	13.092183	-63.462582
49760		24.470881	13.021794	-62.897837
49761		24.612276	12.943295	-62.299104
49762		24.701730	12.837937	-61.675373
49763		24.757922	12.702735	-61.045499
49764		24.805522	12.538867	-60.432117
49765		24.871956	12.362799	-59.848627
49766		24.976740	12.195280	-59.289976
49767		25.108214	12.061398	-58.734257
49768		25.228876	11.959938	-58.162826
49769		25.333029	11.861581	-57.583126
49770		25.410421	11.748096	-56.991112
49771		25.442385	11.614734	-56.394612
49772		25.437727	11.458999	-55.791918
49773		25.407460	11.292912	-55.179209
49774		25.354868	11.131315	-54.555344
49775		25.267109	10.986561	-53.917365
49776		25.122854	10.877093	-53.269341
49777		24.911637	10.793291	-52.611130
49778		24.590631	10.751380	-51.940161
49779		24.134232	10.750158	-51.245194
49780		23.530527	10.796861	-50.503795
49781		22.888477	10.895743	-49.728520
49782		22.261452	10.992926	-48.969208
49783		21.599664	11.015455	-48.209786
49784		21.037718	10.942140	-47.511947
49785		20.594502	10.878652	-46.859696
49786		20.181243	10.847626	-46.230413
49787		19.725764	10.794561	-45.640653
49788		19.193949	10.755051	-45.061513
49789		18.638027	10.775771	-44.441914
49790		18.142147	10.836611	-43.761936
49791		17.737320	10.875008	-43.024873
49792		17.429637	10.837250	-42.252648
49793		17.265980	10.719177	-41.483724
49794		17.233298	10.581903	-40.715144
49795		17.307432	10.463514	-39.944959
49796		17.474466	10.342986	-39.190555
49797		17.690519	10.222820	-38.445389
49798		17.883898	10.126559	-37.704126
49799		18.044801	10.047679	-36.974097
49800		18.177959	9.980237	-36.252018
49801		18.290717	9.924665	-35.535603
49802		18.393887	9.882242	-34.835270
49803		18.489337	9.869082	-34.146765
49804		18.545962	9.885652	-33.469353
49805		18.532615	9.926103	-32.797015
49806		18.435578	9.983012	-32.124053
49807		18.247297	10.043956	-31.447969
49808		17.979326	10.105907	-30.770148
49809		17.649749	10.165904	-30.092083
49810		17.294283	10.219140	-29.420091
49811		16.949304	10.269634	-28.749393
49812		16.650223	10.333849	-28.078300
49813		16.400814	10.420615	-27.386984
49814		16.177997	10.513579	-26.669789
49815		15.956859	10.596465	-25.942810
49816		15.733312	10.660164	-25.223514
49817		15.513434	10.702706	-24.535354
49818		15.309719	10.753428	-23.877457
49819		15.128424	10.842559	-23.223438
49820		14.973603	10.968276	-22.554316
49821		14.834953	11.098880	-21.871750
49822		14.685114	11.189755	-21.189906
49823		14.528326	11.227237	-20.522437
49824		14.383992	11.239482	-19.873351
49825		14.256597	11.265647	-19.229632
49826		14.141389	11.326148	-18.569640
49827		14.021769	11.406945	-17.884603
49828		13.890316	11.499526	-17.178910
49829		13.738308	11.589044	-16.467063
49830		13.547918	11.654969	-15.768438
49831		13.334290	11.703640	-15.104801
49832		13.107235	11.760094	-14.487507
49833		12.915660	11.842051	-13.906070
49834		12.774717	11.945794	-13.331866
49835		12.684183	12.046553	-12.738670
49836		12.616959	12.121601	-12.105698
49837		12.549341	12.169347	-11.443338
49838		12.461487	12.197640	-10.778932
49839		12.347302	12.220162	-10.138347
49840		12.215305	12.274177	-9.532711
49841		12.061886	12.376005	-8.969730
49842		11.895081	12.503892	-8.432614
49843		11.719943	12.633932	-7.905396
49844		11.536039	12.743663	-7.379791
49845		11.347691	12.837723	-6.845092
49846		11.168381	12.910748	-6.304072
49847		10.992480	12.959978	-5.761615
49848		10.835912	13.002123	-5.228888
49849		10.712210	13.060372	-4.716936
49850		10.619784	13.157643	-4.219348
49851		10.540165	13.275119	-3.721482
49852		10.448249	13.386533	-3.228934
49853		10.337531	13.469307	-2.745191
49854		10.224983	13.517574	-2.278176
49855		10.115413	13.567843	-1.824939
49856		10.018366	13.644774	-1.384230
49857		9.937655	13.741528	-0.947454
49858		9.871370	13.828022	-0.511696
49859		9.834070	13.891834	-0.080026
49860		9.818944	13.939211	0.341334
49861		9.814756	13.979637	0.751115
49862		9.804011	14.025988	1.153098
49863		9.782068	14.086084	1.544650
49864		9.751475	14.155299	1.911988
49865		9.721282	14.230945	2.258593
49866		9.687808	14.308590	2.596207
49867		9.644044	14.379234	2.923947
49868		9.584477	14.434362	3.253724
49869		9.513249	14.475418	3.584131
49870		9.432167	14.513208	3.912668
49871		9.330684	14.561539	4.234003
49872		9.210374	14.617699	4.541867
49873		9.082463	14.671633	4.828034
49874		8.958843	14.729482	5.095432
49875		8.841260	14.788978	5.357310
49876		8.718413	14.847395	5.625628
49877		8.573943	14.899414	5.907808
49878		8.396627	14.942985	6.199050
49879		8.180526	14.993817	6.488537
49880		7.934873	15.061550	6.761489
49881		7.703691	15.131372	7.014291
49882		7.507715	15.182453	7.239502
49883		7.350031	15.206483	7.425980
49884		7.226829	15.215414	7.582056
49885		7.133395	15.228193	7.713923
49886		7.063962	15.255414	7.831758
49887		7.013360	15.294315	7.937260
49888		6.983523	15.341343	8.030703
49889		6.991767	15.381025	8.113184
49890		7.041513	15.402597	8.189564
49891		7.118519	15.417853	8.262448
49892		7.200263	15.430000	8.330342
49893		7.265616	15.441073	8.398233
49894		7.301476	15.446121	8.459645
49895		7.309545	15.449145	8.513207
49896		7.295574	15.449968	8.560951
49897		7.271628	15.453862	8.600780
49898		7.248709	15.461730	8.637341
49899		7.231656	15.469399	8.662663
49900		7.223221	15.484821	8.672330
49901		7.229204	15.506435	8.673095
49902		7.252497	15.521149	8.670239
49903		7.274854	15.518421	8.664825
49904		7.278827	15.511830	8.653708
49905		7.261298	15.515477	8.631568
49906		7.239372	15.529584	8.596347
49907		7.237670	15.540812	8.560352
49908		7.279064	15.540052	8.525471
49909		7.348829	15.527522	8.493739
49910		7.420810	15.509238	8.465093
49911		7.472102	15.496419	8.437178
49912		7.497593	15.497614	8.409569
49913		7.504331	15.507095	8.380029
49914		7.506599	15.513302	8.354670
49915		7.498151	15.509685	8.330384
49916		7.468241	15.497532	8.302880
49917		7.416562	15.488130	8.272878
49918		7.361070	15.491791	8.246003
49919		7.297050	15.507650	8.216705
49920		7.231862	15.522706	8.185758
49921		7.161431	15.530705	8.152272
49922		7.090851	15.530865	8.117559
49923		7.029242	15.531365	8.073163
49924		6.978504	15.535064	8.022304
49925		6.938045	15.540846	7.964829
49926		6.902814	15.544486	7.903622
49927		6.868844	15.542859	7.834828
49928		6.838904	15.539004	7.762882
49929		6.816978	15.538930	7.683324
49930		6.809572	15.537029	7.595471
49931		6.821105	15.540027	7.501492
49932		6.845268	15.542745	7.410829
49933		6.858146	15.531488	7.317665
49934		6.846292	15.514065	7.221571
49935		6.815929	15.506149	7.121648
49936		6.778579	15.514811	7.014818
49937		6.761098	15.524133	6.902391
49938		6.775203	15.524401	6.785947
49939		6.805958	15.509581	6.657148
49940		6.851215	15.483204	6.514324
49941		6.911213	15.458584	6.370273
49942		6.977662	15.446886	6.238502
49943		7.028056	15.445991	6.116059
49944		7.055157	15.441105	5.992969
49945		7.052487	15.429484	5.855746
49946		7.035090	15.424461	5.699393
49947		7.000864	15.431789	5.521278
49948		6.955041	15.437215	5.335680
49949		6.903231	15.434903	5.148340
49950		6.837818	15.430830	4.956572
49951		6.770356	15.426953	4.766204
49952		6.727406	15.423874	4.579136
49953		6.702655	15.412001	4.375946
49954		6.691331	15.389153	4.151145
49955		6.686862	15.367582	3.907669
49956		6.680945	15.348673	3.648889
49957		6.670636	15.329494	3.376747
49958		6.675495	15.313731	3.100770
49959		6.698109	15.303299	2.816817
49960		6.751200	15.293427	2.525335
49961		6.837136	15.273329	2.227467
49962		6.965536	15.241437	1.932386
49963		7.114141	15.197340	1.643507
49964		7.262527	15.139152	1.351149
49965		7.386391	15.073129	1.042141
49966		7.488620	15.012651	0.716733
49967		7.566944	14.972988	0.379581
49968		7.629801	14.956181	0.041688
49969		7.656849	14.953054	-0.294109
49970		7.649983	14.939076	-0.639499
49971		7.611551	14.919029	-1.005973
49972		7.555258	14.900369	-1.392720
49973		7.499962	14.877101	-1.785471
49974		7.456127	14.841423	-2.166936
49975		7.407865	14.788370	-2.544539
49976		7.346826	14.721236	-2.921109
49977		7.287425	14.644199	-3.315325
49978		7.259093	14.579851	-3.727348
49979		7.278786	14.537839	-4.158556
49980		7.341621	14.531278	-4.598965
49981		7.437079	14.536111	-5.046725
49982		7.567035	14.523922	-5.493376
49983		7.715172	14.481223	-5.930874
49984		7.867786	14.413774	-6.352679
49985		8.002392	14.336499	-6.761526
49986		8.105496	14.259072	-7.163380
49987		8.156424	14.184857	-7.582600
49988		8.156851	14.115566	-8.033267
49989		8.126614	14.051878	-8.522321
49990		8.093820	14.001862	-9.040221
49991		8.075785	13.956755	-9.574178
49992		8.097126	13.913034	-10.106254
49993		8.131990	13.866417	-10.639150
49994		8.177609	13.820454	-11.163656
49995		8.230215	13.766676	-11.682520
49996		8.287545	13.709675	-12.200708
49997		8.353425	13.645349	-12.720285
49998		8.431454	13.571099	-13.238593
49999		8.502239	13.497374	-13.770924
50000		8.557343	13.435765	-14.325429
50001		8.603128	13.387096	-14.905461
50002		8.649220	13.348504	-15.500773
50003		8.707672	13.310197	-16.105633
50004		8.777199	13.269337	-16.705266
50005		8.840547	13.213935	-17.295385
50006		8.889117	13.136612	-17.878591
50007		8.919785	13.047112	-18.459515
50008		8.944555	12.952759	-19.047443
50009		8.971422	12.865060	-19.651285
50010		9.016747	12.791434	-20.269707
50011		9.074517	12.730589	-20.893249
50012		9.150033	12.676149	-21.505626
50013		9.239144	12.606081	-22.107426
50014		9.327230	12.525630	-22.708130
50015		9.403168	12.448806	-23.319147
50016		9.479908	12.383283	-23.938617
50017		9.551011	12.326785	-24.580314
50018		9.629866	12.269221	-25.240105
50019		9.714713	12.205105	-25.898953
50020		9.800039	12.129677	-26.535583
50021		9.876033	12.031886	-27.145814
50022		9.946411	11.918259	-27.738693
50023		10.024130	11.808106	-28.328002
50024		10.123128	11.717936	-28.924871
50025		10.237431	11.648236	-29.539731
50026		10.374112	11.595367	-30.169925
50027		10.526636	11.541036	-30.812403
50028		10.693461	11.484914	-31.458343
50029		10.858052	11.420675	-32.102099
50030		11.005396	11.354238	-32.740355
50031		11.127694	11.293335	-33.370612
50032		11.225801	11.248021	-33.996239
50033		11.293210	11.211035	-34.629935
50034		11.359287	11.174457	-35.277107
50035		11.427853	11.138960	-35.939612
50036		11.514555	11.108508	-36.617247
50037		11.619127	11.083529	-37.289071
50038		11.739924	11.062165	-37.940351
50039		11.859648	11.042577	-38.571702
50040		11.979867	11.019550	-39.192096
50041		12.110958	10.996444	-39.813992
50042		12.264196	10.974469	-40.447131
50043		12.433400	10.961028	-41.097119
50044		12.618733	10.963023	-41.757808
50045		12.800300	10.970587	-42.417120
50046		12.961298	10.995925	-43.068553
50047		13.092499	11.026042	-43.712651
50048		13.191221	11.050458	-44.360707
50049		13.273412	11.068649	-45.021492
50050		13.353850	11.087190	-45.702081
50051		13.427119	11.105633	-46.398439
50052		13.493114	11.129398	-47.101620
50053		13.547597	11.154097	-47.797376
50054		13.594941	11.178622	-48.483171
50055		13.662328	11.195937	-49.171250
50056		13.756142	11.212785	-49.868689
50057		13.880296	11.234891	-50.581307
50058		14.040408	11.265589	-51.305242
50059		14.235114	11.293385	-52.031072
50060		14.449527	11.324231	-52.744964
50061		14.667251	11.350516	-53.444582
50062		14.877759	11.367548	-54.133182
50063		15.082137	11.386472	-54.814747
50064		15.281259	11.419192	-55.494782
50065		15.456616	11.470746	-56.181167
50066		15.587948	11.550873	-56.858569
50067		15.667275	11.630333	-57.532987
50068		15.675755	11.685782	-58.201461
50069		15.624757	11.728115	-58.869148
50070		15.543108	11.775043	-59.529769
50071		15.433554	11.824117	-60.185530
50072		15.325796	11.879095	-60.832757
50073		15.223815	11.934530	-61.476792
50074		15.127840	11.978419	-62.119291
50075		15.070182	12.009792	-62.755122
50076		15.064794	12.037665	-63.363323
50077		15.111494	12.057346	-63.936928
50078		15.211944	12.071420	-64.487382
50079		15.350907	12.083206	-65.026272
50080		15.531571	12.092643	-65.569156
50081		15.756450	12.084353	-66.127906
50082		16.014389	12.056129	-66.699583
50083		16.300269	12.026259	-67.275782
50084		16.590120	12.019701	-67.830366
50085		16.881074	12.027623	-68.353208
50086		17.171437	12.038985	-68.855336
50087		17.443642	12.052167	-69.351985
50088		17.710681	12.062053	-69.863826
50089		17.966238	12.060032	-70.395121
50090		18.203138	12.048617	-70.943862
50091		18.422428	12.037182	-71.496528
50092		18.605447	12.048597	-72.021580
50093		18.756348	12.088790	-72.500762
50094		18.898639	12.145377	-72.934796
50095		19.033329	12.193464	-73.346006
50096		19.170205	12.233490	-73.752495
50097		19.324062	12.255304	-74.176499
50098		19.502335	12.265396	-74.625057
50099		19.696490	12.281713	-75.089669
50100		19.886477	12.326150	-75.548979
50101		20.052220	12.408208	-75.981736
50102		20.191367	12.513700	-76.381873
50103		20.304815	12.615060	-76.754551
50104		20.387547	12.703525	-77.111074
50105		20.451160	12.781388	-77.456571
50106		20.485115	12.865235	-77.802937
50107		20.464906	12.967444	-78.152279
50108		20.396373	13.081483	-78.513113
50109		20.300593	13.194142	-78.885200
50110		20.212818	13.289712	-79.258578
50111		20.143272	13.366143	-79.615276
50112		20.082295	13.432099	-79.945318
50113		20.031115	13.506807	-80.236696
50114		19.974944	13.586168	-80.502575
50115		19.916010	13.659858	-80.756428
50116		19.858192	13.712180	-81.019156
50117		19.819230	13.743735	-81.295061
50118		19.806387	13.772994	-81.578057
50119		19.790069	13.823064	-81.856523
50120		19.761385	13.896288	-82.131962
50121		19.734855	13.972228	-82.400266
50122		19.701727	14.026559	-82.663456
50123		19.653358	14.063778	-82.917961
50124		19.564739	14.101524	-83.161365
50125		19.427886	14.156699	-83.387639
50126		19.274996	14.226039	-83.609674
50127		19.126511	14.296867	-83.839175
50128		19.013820	14.354505	-84.073919
50129		18.956260	14.391603	-84.307820
50130		18.929337	14.430350	-84.519128
50131		18.893828	14.487668	-84.702532
50132		18.846044	14.554889	-84.865709
50133		18.788216	14.618513	-85.026254
50134		18.728363	14.670216	-85.204233
50135		18.685502	14.702318	-85.400443
50136		18.660186	14.734818	-85.595789
50137		18.611557	14.787649	-85.772648
50138		18.535550	14.856257	-85.928405
50139		18.438658	14.922433	-86.071917
50140		18.336349	14.977860	-86.216531
50141		18.251185	15.020249	-86.365606
50142		18.192308	15.046760	-86.523340
50143		18.157127	15.060176	-86.677069
50144		18.133156	15.081501	-86.820879
50145		18.107486	15.120251	-86.952389
50146		18.076974	15.176602	-87.078984
50147		18.047393	15.242357	-87.211673
50148		18.005140	15.301586	-87.364415
50149		17.947499	15.342743	-87.541596
50150		17.877629	15.382054	-87.731863
50151		17.773875	15.438759	-87.907625
50152		17.639332	15.503374	-88.064911
50153		17.510268	15.558804	-88.206884
50154		17.403680	15.588986	-88.339954
50155		17.336257	15.594352	-88.473979
50156		17.319358	15.587207	-88.602784
50157		17.317199	15.586622	-88.720525
50158		17.321287	15.600737	-88.833763
50159		17.337020	15.629486	-88.943388
50160		17.351888	15.654534	-89.063228
50161		17.365787	15.676146	-89.190941
50162		17.372355	15.693141	-89.314657
50163		17.347180	15.715676	-89.430028
50164		17.313510	15.740672	-89.534230
50165		17.272132	15.765016	-89.625754
50166		17.215681	15.790708	-89.716807
50167		17.162014	15.811666	-89.807545
50168		17.115801	15.832223	-89.902853
50169		17.080874	15.854931	-89.999862
50170		17.067859	15.889828	-90.095902
50171		17.063368	15.925575	-90.180109
50172		17.061495	15.965439	-90.253157
50173		17.058092	16.004516	-90.316058
50174		17.055009	16.031768	-90.378957
50175		17.067664	16.042144	-90.442868
50176		17.113090	16.045273	-90.499586
50177		17.191329	16.053538	-90.539346
50178		17.299526	16.055014	-90.568619
50179		17.417498	16.048489	-90.585490
50180		17.517207	16.040376	-90.606158
50181		17.579165	16.028841	-90.632887
50182		17.611043	16.027389	-90.668573
50183		17.599197	16.056675	-90.703251
50184		17.494386	16.124121	-90.722138
50185		17.317460	16.201836	-90.708341
50186		17.116095	16.259384	-90.674098
50187		16.945588	16.292611	-90.629679
50188		16.849325	16.297922	-90.591217
50189		16.829160	16.294789	-90.561296
50190		16.868505	16.294142	-90.550178
50191		16.935467	16.289386	-90.555281
50192		17.020842	16.296130	-90.558371
50193		17.104594	16.310662	-90.559277
50194		17.167236	16.326830	-90.551999
50195		17.213898	16.341263	-90.535460
50196		17.253065	16.353792	-90.520767
50197		17.276781	16.355318	-90.511830
50198		17.274086	16.358127	-90.515228
50199		17.258389	16.362652	-90.525723
50200		17.241550	16.372183	-90.545084
50201		17.211003	16.389442	-90.568145
50202		17.161776	16.421257	-90.584039
50203		17.120590	16.455832	-90.590081
50204		17.095542	16.474674	-90.585885
50205		17.101852	16.483351	-90.572299
50206		17.119961	16.485270	-90.557815
50207		17.135769	16.479686	-90.548815
50208		17.147742	16.479803	-90.544654
50209		17.146349	16.495818	-90.546922
50210		17.142005	16.524069	-90.542835
50211		17.122843	16.551910	-90.529627
50212		17.103294	16.571957	-90.510747
50213		17.097937	16.579811	-90.487810
50214		17.113609	16.572354	-90.476440
50215		17.137325	16.561852	-90.472265
50216		17.158914	16.565279	-90.474862
50217		17.157806	16.578246	-90.462459
50218		17.128267	16.594577	-90.446878
50219		17.098901	16.606100	-90.419635
50220		17.087871	16.609587	-90.394939
50221		17.094638	16.610455	-90.369178
50222		17.119963	16.615879	-90.344109
50223		17.145359	16.622207	-90.316034
50224		17.150200	16.622143	-90.289152
50225		17.134894	16.619787	-90.261803
50226		17.108516	16.619271	-90.231790
50227		17.091870	16.622754	-90.193067
50228		17.092111	16.629552	-90.158838
50229		17.108679	16.634682	-90.125580
50230		17.131952	16.631763	-90.094755
50231		17.145206	16.622855	-90.060562
50232		17.155148	16.608183	-90.025034
50233		17.175970	16.585270	-89.988751
50234		17.201174	16.558688	-89.961966
50235		17.229077	16.531673	-89.935052
50236		17.259798	16.503031	-89.902420
50237		17.290511	16.470102	-89.858318
50238		17.306028	16.440399	-89.804769
50239		17.306128	16.414880	-89.744334
50240		17.293989	16.387195	-89.681404
50241		17.269803	16.357809	-89.620508
50242		17.236001	16.328003	-89.570813
50243		17.211461	16.306178	-89.516436
50244		17.195588	16.281536	-89.462995
50245		17.188389	16.257261	-89.404262
50246		17.187362	16.234268	-89.338500
50247		17.204477	16.209852	-89.260331
50248		17.237311	16.176843	-89.187292
50249		17.279229	16.141108	-89.110929
50250		17.325064	16.106822	-89.033185
50251		17.370704	16.072170	-88.956993
50252		17.408956	16.039456	-88.878666
50253		17.436525	16.010382	-88.796990
50254		17.457116	15.987583	-88.715363
50255		17.472771	15.964019	-88.634939
50256		17.488826	15.940867	-88.553927
50257		17.521675	15.906902	-88.475309
50258		17.567334	15.864242	-88.406576
50259		17.625307	15.823470	-88.335978
50260		17.694126	15.788997	-88.263561
50261		17.767700	15.761740	-88.184617
50262		17.833456	15.743192	-88.092745
50263		17.882199	15.723526	-87.982880
50264		17.917734	15.698881	-87.856212
50265		17.946850	15.665192	-87.703859
50266		17.967514	15.625722	-87.534543
50267		17.990953	15.585666	-87.353417
50268		18.018531	15.541639	-87.171173
50269		18.048901	15.494249	-86.987516
50270		18.084782	15.450188	-86.800709
50271		18.125826	15.413376	-86.605390
50272		18.170422	15.381927	-86.399324
50273		18.209959	15.347281	-86.183138
50274		18.254013	15.315133	-85.955508
50275		18.319781	15.277177	-85.726136
50276		18.395621	15.246529	-85.496246
50277		18.467957	15.228727	-85.268136
50278		18.532481	15.222313	-85.049037
50279		18.579468	15.227331	-84.834134
50280		18.599488	15.248179	-84.619935
50281		18.613485	15.269802	-84.401637
50282		18.628837	15.286727	-84.184642
50283		18.648644	15.301746	-83.963442
50284		18.676483	15.320234	-83.733336
50285		18.710783	15.335456	-83.490901
50286		18.741564	15.344597	-83.237550
50287		18.777211	15.356158	-82.972869
50288		18.833839	15.358033	-82.710013
50289		18.911326	15.362113	-82.450792
50290		19.006434	15.385497	-82.195145
50291		19.109985	15.422807	-81.936686
50292		19.194007	15.471545	-81.680549
50293		19.249377	15.518647	-81.423108
50294		19.267789	15.564379	-81.162504
50295		19.245789	15.626615	-80.887728
50296		19.187824	15.702282	-80.593151
50297		19.121505	15.779912	-80.274041
50298		19.053411	15.861152	-79.938779
50299		18.996847	15.938326	-79.596725
50300		18.994948	15.995634	-79.255615
50301		19.052314	16.029269	-78.921720
50302		19.140322	16.052534	-78.588198
50303		19.244269	16.071106	-78.245529
50304		19.350067	16.088188	-77.890725
50305		19.452804	16.112452	-77.520385
50306		19.555952	16.133324	-77.127782
50307		19.648181	16.151526	-76.704427
50308		19.735727	16.162792	-76.253405
50309		19.821276	16.164885	-75.772749
50310		19.921653	16.155384	-75.289080
50311		20.042781	16.132847	-74.817718
50312		20.175882	16.121247	-74.360748
50313		20.297537	16.130690	-73.913621
50314		20.394834	16.155045	-73.469189
50315		20.457510	16.199607	-73.018269
50316		20.470477	16.262174	-72.549174
50317		20.426513	16.330450	-72.053701
50318		20.338387	16.387416	-71.542756
50319		20.228830	16.420276	-71.022231
50320		20.106493	16.448630	-70.502246
50321		19.978932	16.480499	-69.980475
50322		19.844222	16.510992	-69.461050
50323		19.683988	16.536113	-68.944048
50324		19.486865	16.565929	-68.420531
50325		19.264093	16.598833	-67.887239
50326		19.042091	16.622283	-67.356050
50327		18.845660	16.631554	-66.832531
50328		18.682153	16.635638	-66.313488
50329		18.548071	16.638111	-65.799134
50330		18.443256	16.634524	-65.273769
50331		18.359500	16.618643	-64.743384
50332		18.297742	16.587326	-64.200921
50333		18.263537	16.546506	-63.646219
50334		18.269202	16.505666	-63.085100
50335		18.313213	16.456573	-62.517776
50336		18.391571	16.400268	-61.952363
50337		18.496873	16.342350	-61.378377
50338		18.608315	16.288255	-60.796511
50339		18.722275	16.234862	-60.200692
50340		18.853907	16.170264	-59.605685
50341		19.007566	16.104898	-59.018317
50342		19.153494	16.046533	-58.443027
50343		19.265457	15.998140	-57.877764
50344		19.320044	15.961925	-57.320570
50345		19.313711	15.940899	-56.758768
50346		19.261253	15.927108	-56.192754
50347		19.177632	15.912123	-55.619427
50348		19.084685	15.897930	-55.040441
50349		19.002621	15.881295	-54.459687
50350		18.947186	15.859451	-53.881839
50351		18.929437	15.842051	-53.303500
50352		18.950786	15.828388	-52.719319
50353		18.986556	15.806195	-52.125443
50354		19.027745	15.780352	-51.530198
50355		19.068148	15.761562	-50.933684
50356		19.088611	15.753788	-50.335224
50357		19.092843	15.753959	-49.735407
50358		19.077858	15.755640	-49.134628
50359		19.048669	15.759623	-48.523957
50360		19.011261	15.765765	-47.900803
50361		18.965107	15.759573	-47.265148
50362		18.913073	15.746599	-46.619954
50363		18.859599	15.735176	-45.968772
50364		18.816253	15.729970	-45.309621
50365		18.772834	15.722210	-44.642244
50366		18.720956	15.706605	-43.971419
50367		18.662954	15.683755	-43.306930
50368		18.595144	15.667060	-42.642681
50369		18.520660	15.649810	-41.985741
50370		18.445951	15.641297	-41.316973
50371		18.375540	15.632743	-40.625330
50372		18.296641	15.598219	-39.922486
50373		18.197181	15.537341	-39.216916
50374		18.068392	15.479903	-38.518843
50375		17.930219	15.440455	-37.831418
50376		17.800213	15.421876	-37.150550
50377		17.691902	15.411352	-36.480881
50378		17.613504	15.398687	-35.820557
50379		17.577509	15.385496	-35.163946
50380		17.567502	15.365943	-34.508677
50381		17.566785	15.338676	-33.847683
50382		17.565721	15.301240	-33.181547
50383		17.537341	15.254155	-32.518204
50384		17.462768	15.211479	-31.863499
50385		17.332287	15.187024	-31.225151
50386		17.144069	15.198107	-30.599145
50387		16.911072	15.244503	-29.981382
50388		16.635828	15.316680	-29.372172
50389		16.340129	15.390411	-28.778008
50390		16.031069	15.440815	-28.211702
50391		15.717696	15.481729	-27.673285
50392		15.402018	15.530677	-27.161134
50393		15.089263	15.601407	-26.654850
50394		14.772467	15.701931	-26.139038
50395		14.464374	15.806475	-25.610519
50396		14.144448	15.868358	-25.074196
50397		13.797853	15.902627	-24.543731
50398		13.415352	15.940217	-24.032290
50399		13.017889	16.001445	-23.548989
50400		12.613799	16.098339	-23.084257
50401		12.222652	16.208478	-22.625899
50402		11.850106	16.298637	-22.172805
50403		11.478889	16.366344	-21.731654
50404		11.110798	16.423766	-21.306088
50405		10.758688	16.483076	-20.887298
50406		10.435304	16.539132	-20.458038
50407		10.146535	16.588626	-20.003058
50408		9.891735	16.627378	-19.526475
50409		9.665721	16.642626	-19.035336
50410		9.451646	16.641915	-18.544313
50411		9.229651	16.635017	-18.062213
50412		9.006706	16.633613	-17.584489
50413		8.827219	16.645687	-17.096602
50414		8.707394	16.665788	-16.583925
50415		8.630052	16.676234	-16.042343
50416		8.559597	16.669046	-15.483642
50417		8.494369	16.645647	-14.926380
50418		8.440802	16.611431	-14.377773
50419		8.398918	16.572516	-13.853582
50420		8.367071	16.534853	-13.354421
50421		8.333557	16.512912	-12.873428
50422		8.298643	16.505766	-12.402684
50423		8.258429	16.505610	-11.938964
50424		8.208347	16.505049	-11.482610
50425		8.149645	16.498193	-11.036069
50426		8.091963	16.480997	-10.600945
50427		8.043653	16.465792	-10.177369
50428		8.006242	16.466997	-9.759681
50429		7.985548	16.484513	-9.334988
50430		7.957925	16.508422	-8.899243
50431		7.900373	16.533718	-8.452310
50432		7.811327	16.560668	-7.994176
50433		7.702074	16.596428	-7.534904
50434		7.582564	16.639602	-7.081058
50435		7.450685	16.692696	-6.628534
50436		7.309182	16.753016	-6.183799
50437		7.170972	16.815590	-5.753016
50438		7.039308	16.876629	-5.335897
50439		6.912687	16.937661	-4.927584
50440		6.788731	16.987571	-4.526259
50441		6.655522	17.029270	-4.125223
50442		6.511517	17.072868	-3.732725
50443		6.360047	17.124506	-3.352992
50444		6.210463	17.186743	-2.990304
50445		6.083654	17.255541	-2.635564
50446		5.984762	17.324335	-2.292074
50447		5.906070	17.392814	-1.958481
50448		5.838376	17.455962	-1.636864
50449		5.774769	17.518369	-1.324818
50450		5.704314	17.590452	-1.023343
50451		5.621494	17.671019	-0.733784
50452		5.527701	17.757751	-0.448392
50453		5.421640	17.848098	-0.168042
50454		5.313944	17.941941	0.106540
50455		5.212649	18.026748	0.376507
50456		5.124164	18.090707	0.635016
50457		5.046524	18.140762	0.883010
50458		4.963616	18.187339	1.113308
50459		4.872838	18.237115	1.333216
50460		4.772686	18.302320	1.542645
50461		4.674619	18.376387	1.746291
50462		4.588933	18.455206	1.945942
50463		4.514726	18.531251	2.141956
50464		4.463321	18.591639	2.330130
50465		4.448236	18.636622	2.514732
50466		4.452940	18.674295	2.694317
50467		4.458334	18.706551	2.869769
50468		4.437635	18.739700	3.040155
50469		4.376258	18.779658	3.204336
50470		4.289233	18.824364	3.363728
50471		4.200131	18.872177	3.520546
50472		4.129510	18.908691	3.675303
50473		4.087532	18.929002	3.843307
50474		4.066387	18.947136	4.016944
50475		4.053910	18.968767	4.192643
50476		4.039860	18.996160	4.359005
50477		4.020667	19.028103	4.509534
50478		3.993684	19.065768	4.637815
50479		3.975048	19.100363	4.749974
50480		3.983566	19.128768	4.850207
50481		4.015347	19.146408	4.950480
50482		4.057436	19.157923	5.047316
50483		4.092103	19.169502	5.134460
50484		4.110463	19.187277	5.203247
50485		4.108857	19.215257	5.250169
50486		4.103575	19.245197	5.279714
50487		4.109040	19.268056	5.299458
50488		4.141057	19.278336	5.318010
50489		4.199918	19.274632	5.343544
50490		4.273804	19.270304	5.375712
50491		4.342853	19.271623	5.407884
50492		4.385873	19.282038	5.435175
50493		4.400138	19.300444	5.452266
50494		4.401092	19.322123	5.458649
50495		4.402303	19.339526	5.458653
50496		4.418498	19.348937	5.457130
50497		4.461327	19.349477	5.458292
50498		4.525026	19.345807	5.456198
50499		4.596940	19.341480	5.449028
50500		4.662426	19.338447	5.429625
50501		4.708116	19.335707	5.397763
50502		4.734159	19.334668	5.353016
50503		4.740259	19.335696	5.299778
50504		4.738362	19.336536	5.244626
50505		4.740575	19.338182	5.187580
50506		4.749149	19.336896	5.128081
50507		4.753710	19.335913	5.059334
50508		4.764181	19.334859	4.983345
50509		4.780668	19.333889	4.903131
50510		4.803675	19.329947	4.827793
50511		4.824509	19.322703	4.758790
50512		4.831753	19.315637	4.689261
50513		4.826862	19.309862	4.614535
50514		4.805040	19.308004	4.528226
50515		4.779367	19.311194	4.430692
50516		4.761531	19.312813	4.327017
50517		4.764049	19.307639	4.222191
50518		4.799212	19.299499	4.119273
50519		4.846327	19.288732	4.017893
50520		4.883032	19.271862	3.913934
50521		4.895456	19.257762	3.802847
50522		4.889524	19.250140	3.681154
50523		4.868271	19.245191	3.546904
50524		4.852881	19.243421	3.400558
50525		4.856316	19.239207	3.253623
50526		4.889356	19.231609	3.116050
50527		4.929092	19.221343	2.981079
50528		4.965299	19.213761	2.849038
50529		4.979496	19.205979	2.710994
50530		4.978548	19.200529	2.567095
50531		4.969222	19.200344	2.412371
50532		4.954945	19.204478	2.251022
50533		4.942003	19.203690	2.086635
50534		4.939082	19.196343	1.921566
50535		4.960856	19.184566	1.755107
50536		5.014721	19.172128	1.593362
50537		5.078809	19.157337	1.429567
50538		5.129846	19.142152	1.262607
50539		5.157876	19.124300	1.082844
50540		5.170010	19.119278	0.894321
50541		5.175251	19.125023	0.699207
50542		5.186655	19.132583	0.504647
50543		5.219367	19.134588	0.316879
50544		5.286990	19.131291	0.134238
50545		5.368264	19.119132	-0.049393
50546		5.447871	19.105781	-0.244683
50547		5.501136	19.094529	-0.452000
50548		5.530531	19.091691	-0.677839
50549		5.540970	19.090656	-0.915663
50550		5.548830	19.090180	-1.159689
50551		5.558991	19.086520	-1.410938
50552		5.577450	19.075687	-1.661425
50553		5.589151	19.063559	-1.915570
50554		5.590187	19.055542	-2.168798
50555		5.573855	19.056410	-2.431884
50556		5.546970	19.069310	-2.705890
50557		5.515801	19.086404	-2.989334
50558		5.495393	19.100428	-3.279852
50559		5.502213	19.100171	-3.570406
50560		5.551392	19.082493	-3.847849
50561		5.622459	19.054376	-4.116801
50562		5.696129	19.019712	-4.384185
50563		5.754544	18.989786	-4.661165
50564		5.801738	18.967464	-4.948241
50565		5.850588	18.948228	-5.243080
50566		5.909445	18.937905	-5.546587
50567		5.974440	18.930106	-5.860727
50568		6.050669	18.918072	-6.181379
50569		6.143247	18.888842	-6.501375
50570		6.248540	18.854358	-6.815525
50571		6.345473	18.812106	-7.128789
50572		6.423873	18.768484	-7.447171
50573		6.464310	18.730513	-7.783644
50574		6.471423	18.706787	-8.140892
50575		6.457072	18.687994	-8.513414
50576		6.446436	18.669189	-8.890392
50577		6.434050	18.640852	-9.264379
50578		6.412146	18.606620	-9.644435
50579		6.377734	18.569533	-10.033150
50580		6.337236	18.547227	-10.435760
50581		6.302347	18.537402	-10.850186
50582		6.290758	18.534599	-11.270552
50583		6.313272	18.523284	-11.694351
50584		6.375315	18.498915	-12.113077
50585		6.463987	18.458657	-12.538315
50586		6.555660	18.419936	-12.979156
50587		6.636233	18.386053	-13.437459
50588		6.720802	18.357838	-13.906694
50589		6.796681	18.331899	-14.379233
50590		6.868264	18.305887	-14.849170
50591		6.917353	18.278102	-15.325432
50592		6.942661	18.252646	-15.809554
50593		6.955828	18.230854	-16.298509
50594		6.974609	18.211073	-16.798581
50595		6.995812	18.189205	-17.310181
50596		7.021249	18.166920	-17.830040
50597		7.043415	18.145509	-18.351575
50598		7.064666	18.126840	-18.876081
50599		7.084636	18.110308	-19.409517
50600		7.109055	18.097873	-19.950006
50601		7.152704	18.083308	-20.495419
50602		7.219913	18.064660	-21.042311
50603		7.303169	18.039245	-21.594162
50604		7.393490	18.014273	-22.156152
50605		7.486750	17.994869	-22.730904
50606		7.590191	17.987640	-23.321948
50607		7.704799	17.984918	-23.923207
50608		7.838315	17.978290	-24.518310
50609		7.968620	17.956496	-25.097629
50610		8.087984	17.921380	-25.669094
50611		8.164950	17.893729	-26.245224
50612		8.201952	17.891112	-26.829540
50613		8.209726	17.910783	-27.427705
50614		8.202549	17.938597	-28.042450
50615		8.189525	17.961333	-28.670034
50616		8.189214	17.967315	-29.298747
50617		8.208900	17.954780	-29.918478
50618		8.242126	17.935061	-30.523505
50619		8.271994	17.916225	-31.115349
50620		8.300742	17.895468	-31.688615
50621		8.327566	17.877514	-32.255028
50622		8.356893	17.869381	-32.823687
50623		8.390430	17.871270	-33.396825
50624		8.444012	17.883819	-33.970790
50625		8.510340	17.894599	-34.550166
50626		8.597709	17.892265	-35.134542
50627		8.686820	17.876855	-35.733645
50628		8.773269	17.859192	-36.345120
50629		8.855890	17.843443	-36.970725
50630		8.927725	17.832345	-37.605655
50631		9.000053	17.808395	-38.240929
50632		9.094319	17.761957	-38.855732
50633		9.208344	17.687041	-39.448862
50634		9.349446	17.589879	-40.022369
50635		9.520672	17.480916	-40.593609
50636		9.733046	17.374343	-41.167940
50637		9.964238	17.276131	-41.748568
50638		10.217798	17.184394	-42.327638
50639		10.479842	17.090175	-42.903895
50640		10.751632	16.993143	-43.477423
50641		11.035521	16.891195	-44.040286
50642		11.331766	16.785119	-44.592929
50643		11.610378	16.665728	-45.145104
50644		11.853597	16.540181	-45.706009
50645		12.058032	16.416556	-46.286648
50646		12.223954	16.303813	-46.885593
50647		12.350995	16.212282	-47.488905
50648		12.427246	16.138163	-48.085535
50649		12.467308	16.073286	-48.664835
50650		12.478900	16.002148	-49.239364
50651		12.465877	15.938793	-49.827372
50652		12.418544	15.894860	-50.432139
50653		12.346785	15.859745	-51.052018
50654		12.279033	15.817161	-51.687914
50655		12.215051	15.772279	-52.337566
50656		12.147068	15.735795	-52.989542
50657		12.058419	15.709832	-53.631264
50658		11.965304	15.676753	-54.259291
50659		11.873318	15.634050	-54.887961
50660		11.805125	15.590981	-55.521667
50661		11.782831	15.550318	-56.159866
50662		11.830369	15.504870	-56.791747
50663		11.950943	15.452861	-57.406194
50664		12.124313	15.397668	-57.995655
50665		12.331368	15.340011	-58.571665
50666		12.569295	15.281792	-59.136641
50667		12.839067	15.220768	-59.702777
50668		13.131349	15.161926	-60.274633
50669		13.446279	15.099250	-60.852728
50670		13.790023	15.035559	-61.429927
50671		14.165629	14.979493	-61.997444
50672		14.574988	14.915922	-62.558376
50673		14.994798	14.841386	-63.114430
50674		15.424161	14.778321	-63.644190
50675		15.850428	14.722583	-64.162964
50676		16.251549	14.680797	-64.671876
50677		16.591354	14.649340	-65.171124
50678		16.850381	14.631565	-65.669126
50679		17.046587	14.627863	-66.159757
50680		17.184924	14.642189	-66.646214
50681		17.284625	14.676394	-67.133470
50682		17.362325	14.720609	-67.627446
50683		17.423252	14.774871	-68.127372
50684		17.480035	14.830309	-68.634330
50685		17.543802	14.871991	-69.145668
50686		17.638071	14.897066	-69.664426
50687		17.773549	14.918752	-70.184263
50688		17.952704	14.953526	-70.693944
50689		18.184716	14.989230	-71.185759
50690		18.456651	15.014667	-71.654959
50691		18.756793	15.033331	-72.100504
50692		19.059513	15.048272	-72.529211
50693		19.327077	15.068430	-72.946028
50694		19.553258	15.092026	-73.357794
50695		19.763456	15.111234	-73.768701
50696		19.977478	15.112367	-74.190293
50697		20.191874	15.103840	-74.612559
50698		20.388511	15.109202	-75.033681
50699		20.542998	15.132463	-75.434669
50700		20.639555	15.175746	-75.814858
50701		20.683853	15.220866	-76.181880
50702		20.688556	15.247612	-76.551262
50703		20.672491	15.250480	-76.927020
50704		20.653511	15.248408	-77.303749
50705		20.626316	15.271341	-77.665724
50706		20.597900	15.306669	-78.013432
50707		20.571686	15.329580	-78.349211
50708		20.529805	15.335422	-78.676526
