// General information: 
//  MT Manager version: 2022.2.0 
//  XDA version: 2022.2.0 build 7381 rev 124627 built on 2023-07-19
// Device information: 
//  DeviceId: 00B447FA
//  ProductCode: MTW2-3A7G6
//  Firmware Version: 4.3.5
//  Hardware Version: 2.0.0
// Device settings: 
//  Filter Profile: human(46.1)
//  Option Flags: Orientation Smoother Disabled, Position/Velocity Smoother Disabled, Continuous Zero Rotation Update Disabled, AHS Disabled, ICC Disabled
// Coordinate system: ENU
PacketCounter	SampleTimeFine	Roll	Pitch	Yaw
47489		18.199380	5.782260	1.622137
47490		18.190798	5.780071	1.619943
47491		18.210425	5.775378	1.621067
47492		18.246681	5.770853	1.623689
47493		18.281940	5.766594	1.619607
47494		18.284034	5.759893	1.606413
47495		18.251169	5.761328	1.589166
47496		18.205574	5.768726	1.570970
47497		18.171704	5.782009	1.557372
47498		18.165827	5.793564	1.546003
47499		18.177897	5.804518	1.541820
47500		18.207067	5.812983	1.535913
47501		18.247261	5.818492	1.525948
47502		18.277355	5.822416	1.514065
47503		18.285186	5.822635	1.497159
47504		18.284285	5.821660	1.483702
47505		18.284936	5.820291	1.472687
47506		18.298667	5.821061	1.464465
47507		18.329672	5.822533	1.464902
47508		18.380699	5.823954	1.462573
47509		18.415024	5.826908	1.456009
47510		18.422363	5.836174	1.443303
47511		18.424580	5.851138	1.428062
47512		18.431605	5.867787	1.408144
47513		18.445076	5.883553	1.384936
47514		18.465262	5.895582	1.354209
47515		18.493235	5.904105	1.319986
47516		18.522835	5.908707	1.282263
47517		18.572320	5.909950	1.243143
47518		18.635037	5.907735	1.204802
47519		18.690000	5.906419	1.160830
47520		18.724759	5.900316	1.109273
47521		18.750721	5.897497	1.052933
47522		18.776271	5.898036	0.994805
47523		18.823116	5.897948	0.937546
47524		18.913058	5.898598	0.885081
47525		19.064517	5.895113	0.833581
47526		19.269238	5.883937	0.772036
47527		19.502563	5.870573	0.692610
47528		19.743850	5.849113	0.587864
47529		19.958819	5.826987	0.454526
47530		20.124853	5.813627	0.296705
47531		20.240184	5.800964	0.113822
47532		20.290794	5.793747	-0.090316
47533		20.288660	5.786600	-0.309951
47534		20.265470	5.779435	-0.538184
47535		20.258045	5.770961	-0.765776
47536		20.311002	5.765287	-0.998631
47537		20.428168	5.756897	-1.237427
47538		20.593954	5.747713	-1.495516
47539		20.802117	5.734066	-1.787445
47540		20.987657	5.713853	-2.127849
47541		21.124905	5.702126	-2.508277
47542		21.219532	5.701194	-2.915532
47543		21.289727	5.703488	-3.336913
47544		21.354259	5.713344	-3.768867
47545		21.428740	5.728684	-4.195930
47546		21.539444	5.746470	-4.622509
47547		21.660896	5.758086	-5.063075
47548		21.745940	5.763224	-5.528951
47549		21.762716	5.765287	-6.030817
47550		21.686360	5.772648	-6.561080
47551		21.571802	5.790805	-7.101513
47552		21.427479	5.807669	-7.641089
47553		21.299442	5.816585	-8.177439
47554		21.210887	5.810688	-8.698943
47555		21.209145	5.783142	-9.195057
47556		21.307718	5.744947	-9.674276
47557		21.466762	5.694945	-10.134847
47558		21.627799	5.643369	-10.589118
47559		21.745033	5.594386	-11.053889
47560		21.790201	5.553346	-11.536868
47561		21.788684	5.515553	-12.040959
47562		21.748028	5.469722	-12.562718
47563		21.739747	5.422464	-13.106871
47564		21.764639	5.366811	-13.670688
47565		21.854010	5.315741	-14.253616
47566		21.974090	5.266797	-14.862642
47567		22.107528	5.219537	-15.492604
47568		22.254917	5.184494	-16.143876
47569		22.384639	5.156811	-16.808883
47570		22.527419	5.138674	-17.478336
47571		22.695906	5.126409	-18.147481
47572		22.885489	5.107683	-18.808526
47573		23.096968	5.084412	-19.466085
47574		23.299992	5.066555	-20.119635
47575		23.556100	5.048811	-20.780110
47576		23.810186	5.014127	-21.466565
47577		23.980629	4.974603	-22.180028
47578		24.081128	4.948834	-22.910076
47579		24.145559	4.935547	-23.643636
47580		24.203997	4.923179	-24.380071
47581		24.280489	4.908652	-25.104150
47582		24.372999	4.890884	-25.817985
47583		24.473004	4.870540	-26.518239
47584		24.599601	4.847732	-27.216799
47585		24.740228	4.816626	-27.916913
47586		24.885782	4.780642	-28.637831
47587		25.003724	4.744798	-29.388732
47588		25.065073	4.723985	-30.159152
47589		25.131494	4.724713	-30.918184
47590		25.191143	4.738286	-31.656125
47591		25.292463	4.747240	-32.372408
47592		25.434375	4.749741	-33.061177
47593		25.628523	4.742738	-33.722995
47594		25.865589	4.734266	-34.366541
47595		26.078606	4.724110	-35.001968
47596		26.235117	4.725671	-35.642383
47597		26.349676	4.740785	-36.300842
47598		26.394267	4.770151	-36.966716
47599		26.436210	4.819867	-37.639098
47600		26.516644	4.877133	-38.306265
47601		26.683243	4.914862	-38.973145
47602		26.935543	4.936844	-39.640370
47603		27.265204	4.953545	-40.327395
47604		27.552681	4.961474	-41.036515
47605		27.774993	4.980717	-41.753867
47606		27.950674	5.018503	-42.473011
47607		28.098219	5.066359	-43.195515
47608		28.253202	5.124512	-43.919766
47609		28.426169	5.191602	-44.642560
47610		28.603131	5.263367	-45.359575
47611		28.800271	5.341823	-46.083624
47612		29.029667	5.429011	-46.816757
47613		29.310579	5.518058	-47.563407
47614		29.636937	5.605755	-48.340019
47615		29.933590	5.693024	-49.152017
47616		30.207013	5.786228	-49.994826
47617		30.496656	5.873292	-50.852132
47618		30.802496	5.959992	-51.711948
47619		31.175511	6.042885	-52.571628
47620		31.550593	6.116159	-53.420791
47621		31.903880	6.189095	-54.267144
47622		32.254645	6.253587	-55.118031
47623		32.616907	6.314530	-55.969950
47624		32.946310	6.361824	-56.818627
47625		33.236288	6.407506	-57.673369
47626		33.461679	6.460721	-58.529284
47627		33.630981	6.528044	-59.364344
47628		33.782623	6.602673	-60.184631
47629		33.914056	6.671379	-60.993349
47630		34.042074	6.731299	-61.791865
47631		34.188187	6.776899	-62.587203
47632		34.315653	6.811050	-63.369164
47633		34.386999	6.852177	-64.122893
47634		34.436819	6.894450	-64.860101
47635		34.481856	6.936281	-65.583315
47636		34.539010	6.971392	-66.292200
47637		34.640598	6.995907	-67.004361
47638		34.711026	7.019564	-67.718809
47639		34.713935	7.054076	-68.429532
47640		34.673244	7.104857	-69.139096
47641		34.562145	7.171790	-69.830031
47642		34.373318	7.243043	-70.511073
47643		34.193947	7.310185	-71.187881
47644		34.079827	7.367907	-71.843648
47645		34.044576	7.420929	-72.475919
47646		34.058218	7.465821	-73.096738
47647		34.128647	7.516490	-73.709961
47648		34.247301	7.577042	-74.313810
47649		34.439115	7.627107	-74.922362
47650		34.662330	7.670502	-75.538181
47651		34.920626	7.713008	-76.158969
47652		35.222929	7.750332	-76.791630
47653		35.500988	7.796167	-77.425455
47654		35.729654	7.853547	-78.057680
47655		35.926915	7.919443	-78.683328
47656		36.094839	8.005674	-79.278746
47657		36.294049	8.094619	-79.873366
47658		36.535631	8.186207	-80.449083
47659		36.849922	8.280790	-81.009038
47660		37.232111	8.376496	-81.549255
47661		37.661132	8.474404	-82.084452
47662		38.075386	8.578615	-82.614030
47663		38.445879	8.699352	-83.141731
47664		38.765285	8.829618	-83.672532
47665		39.016479	8.975097	-84.191697
47666		39.193398	9.128429	-84.714910
47667		39.282896	9.293937	-85.233616
47668		39.269084	9.462321	-85.750560
47669		39.137259	9.629073	-86.272596
47670		38.864520	9.803658	-86.781119
47671		38.505735	9.983670	-87.279015
47672		38.144775	10.153676	-87.773588
47673		37.832612	10.310635	-88.254397
47674		37.603227	10.472670	-88.715876
47675		37.468918	10.626073	-89.165519
47676		37.379178	10.769672	-89.616063
47677		37.283427	10.910788	-90.062071
47678		37.171353	11.049065	-90.499906
47679		37.064310	11.182080	-90.931155
47680		36.972549	11.310944	-91.353042
47681		36.892521	11.443106	-91.754564
47682		36.810949	11.570965	-92.145526
47683		36.697894	11.686933	-92.527121
47684		36.555579	11.792520	-92.896893
47685		36.386743	11.890662	-93.248914
47686		36.205346	11.982370	-93.583218
47687		36.038534	12.062167	-93.903091
47688		35.924569	12.133443	-94.203616
47689		35.853837	12.199832	-94.499017
47690		35.754405	12.265044	-94.795325
47691		35.610509	12.332721	-95.096917
47692		35.446693	12.398946	-95.400991
47693		35.297367	12.470856	-95.699426
47694		35.193013	12.536167	-95.990896
47695		35.148864	12.598543	-96.270241
47696		35.122639	12.662315	-96.534650
47697		35.080016	12.721501	-96.782607
47698		35.020451	12.772017	-97.012557
47699		34.957141	12.809043	-97.237993
47700		34.867706	12.840299	-97.448995
47701		34.790777	12.875019	-97.642471
47702		34.758151	12.911592	-97.819806
47703		34.731507	12.944467	-97.987928
47704		34.686931	12.979897	-98.140823
47705		34.628343	13.005520	-98.286084
47706		34.569191	13.027062	-98.419836
47707		34.540630	13.042152	-98.536811
47708		34.546146	13.060008	-98.635860
47709		34.580308	13.085363	-98.721686
47710		34.642452	13.120894	-98.801331
47711		34.727196	13.165480	-98.893892
47712		34.809795	13.219199	-99.000307
47713		34.845480	13.279611	-99.115818
47714		34.835849	13.341646	-99.242371
47715		34.788314	13.401744	-99.385251
47716		34.722765	13.456206	-99.525904
47717		34.653332	13.504701	-99.659612
47718		34.578570	13.548093	-99.790923
47719		34.526735	13.593325	-99.921657
47720		34.519412	13.630033	-100.054011
47721		34.507935	13.672502	-100.191361
47722		34.474564	13.721669	-100.334846
47723		34.442278	13.761826	-100.491486
47724		34.438029	13.790771	-100.648612
47725		34.468342	13.812984	-100.796243
47726		34.524521	13.833073	-100.934479
47727		34.614283	13.853745	-101.058954
47728		34.730595	13.875525	-101.163533
47729		34.858557	13.900047	-101.251126
47730		34.974392	13.919946	-101.336030
47731		35.015060	13.948186	-101.408150
47732		34.989346	13.979240	-101.490175
47733		34.902454	14.010507	-101.582236
47734		34.781279	14.036205	-101.685786
47735		34.675967	14.059360	-101.794881
47736		34.629385	14.075769	-101.907315
47737		34.617864	14.093815	-102.022031
47738		34.657920	14.112292	-102.135361
47739		34.742877	14.121306	-102.255873
47740		34.862235	14.128132	-102.379158
47741		34.980390	14.128271	-102.504471
47742		35.072472	14.115740	-102.631695
47743		35.120904	14.105260	-102.753895
47744		35.162251	14.091397	-102.871375
47745		35.199131	14.072458	-102.982376
47746		35.202533	14.058008	-103.081979
47747		35.165591	14.049873	-103.175804
47748		35.105313	14.037901	-103.254003
47749		35.038670	14.018428	-103.325743
47750		34.972061	13.991904	-103.385416
47751		34.925950	13.960484	-103.431375
47752		34.896116	13.923448	-103.467387
47753		34.894815	13.886012	-103.488948
47754		34.904102	13.857463	-103.491693
47755		34.918990	13.836552	-103.488450
47756		34.915819	13.816410	-103.481724
47757		34.901643	13.807831	-103.471389
47758		34.891121	13.796615	-103.462837
47759		34.875065	13.786882	-103.451415
47760		34.838840	13.778936	-103.440202
47761		34.813758	13.767429	-103.424765
47762		34.807086	13.752359	-103.404280
47763		34.814420	13.737680	-103.372164
47764		34.836177	13.720220	-103.341419
47765		34.850111	13.700146	-103.310104
47766		34.842020	13.683699	-103.284444
47767		34.818134	13.667419	-103.268976
47768		34.786304	13.654115	-103.257446
47769		34.757003	13.643564	-103.250427
47770		34.731354	13.638726	-103.239468
47771		34.729912	13.635371	-103.233231
47772		34.751815	13.636373	-103.220139
47773		34.788467	13.645760	-103.206097
47774		34.808327	13.660335	-103.194437
47775		34.810174	13.684819	-103.185112
47776		34.812067	13.705063	-103.178174
47777		34.799204	13.719992	-103.171819
47778		34.785890	13.740306	-103.171016
47779		34.791078	13.749302	-103.173598
47780		34.786921	13.760735	-103.178761
47781		34.777830	13.772529	-103.186844
47782		34.770296	13.771786	-103.201412
47783		34.762551	13.772299	-103.215930
47784		34.746547	13.768335	-103.231299
47785		34.731449	13.759918	-103.242822
47786		34.741484	13.749433	-103.251213
47787		34.780107	13.743993	-103.253406
47788		34.827666	13.738207	-103.250040
47789		34.856776	13.730194	-103.247533
47790		34.867506	13.716331	-103.243267
47791		34.891136	13.696397	-103.234386
47792		34.916245	13.673368	-103.224221
47793		34.926496	13.651627	-103.216061
47794		34.917497	13.630638	-103.212676
47795		34.883510	13.622229	-103.215245
47796		34.834860	13.615466	-103.220631
47797		34.774773	13.611495	-103.228417
47798		34.729848	13.601819	-103.234507
47799		34.723764	13.587997	-103.238992
47800		34.742821	13.566706	-103.237928
47801		34.770568	13.550931	-103.237727
47802		34.784959	13.538193	-103.238695
47803		34.777603	13.529294	-103.236372
47804		34.754637	13.524571	-103.232100
47805		34.742913	13.522075	-103.227001
47806		34.751770	13.515261	-103.222772
47807		34.765927	13.510389	-103.224066
47808		34.783406	13.504407	-103.229959
47809		34.786042	13.505114	-103.240261
47810		34.775272	13.508794	-103.251745
47811		34.772635	13.517328	-103.264390
47812		34.778207	13.525516	-103.276630
47813		34.797576	13.534756	-103.289086
47814		34.818818	13.535196	-103.301588
47815		34.834419	13.532667	-103.312809
47816		34.856616	13.524233	-103.322857
47817		34.872160	13.516509	-103.332656
47818		34.895695	13.508533	-103.336244
47819		34.909697	13.498528	-103.337117
47820		34.874470	13.491130	-103.338092
47821		34.820036	13.483313	-103.337170
47822		34.789342	13.474770	-103.334458
47823		34.793635	13.467552	-103.326273
47824		34.806979	13.460504	-103.315332
47825		34.812603	13.457904	-103.305177
47826		34.814257	13.455669	-103.284815
47827		34.826082	13.453358	-103.258419
47828		34.834401	13.447993	-103.225874
47829		34.843276	13.446195	-103.189857
47830		34.850575	13.440293	-103.153863
47831		34.830030	13.435102	-103.122293
47832		34.789277	13.431850	-103.093806
47833		34.762266	13.433012	-103.065206
47834		34.749584	13.433864	-103.028818
47835		34.749071	13.436771	-102.991232
47836		34.760527	13.438323	-102.948885
47837		34.784262	13.438758	-102.904605
47838		34.807518	13.436579	-102.860719
47839		34.840026	13.435794	-102.815906
47840		34.874351	13.438587	-102.770905
47841		34.896080	13.439938	-102.729272
47842		34.898186	13.437597	-102.691057
47843		34.905611	13.434465	-102.650785
47844		34.927834	13.424170	-102.606127
47845		34.956826	13.409337	-102.555245
47846		34.974727	13.388674	-102.503490
47847		34.973802	13.369849	-102.448524
47848		34.973402	13.346790	-102.387819
47849		34.976955	13.320590	-102.321896
47850		34.978418	13.295603	-102.254666
47851		34.963510	13.273424	-102.187987
47852		34.930694	13.248745	-102.126819
47853		34.863879	13.230583	-102.066131
47854		34.796339	13.216208	-102.008203
47855		34.763510	13.199917	-101.954033
47856		34.765444	13.184099	-101.897396
47857		34.787474	13.169536	-101.846234
47858		34.837717	13.159879	-101.786955
47859		34.920167	13.151680	-101.726232
47860		35.010371	13.136446	-101.661928
47861		35.065010	13.125423	-101.597039
47862		35.099909	13.114955	-101.533183
47863		35.115474	13.100482	-101.470806
47864		35.091884	13.083729	-101.411838
47865		35.050529	13.068658	-101.356043
47866		35.028425	13.050248	-101.294554
47867		35.021913	13.027040	-101.230149
47868		35.027581	13.002948	-101.163702
47869		35.054490	12.982768	-101.093170
47870		35.089503	12.961560	-101.023291
47871		35.110327	12.949825	-100.948475
47872		35.123896	12.937502	-100.873662
47873		35.146512	12.919554	-100.795698
47874		35.152335	12.905880	-100.718271
47875		35.147701	12.893659	-100.634076
47876		35.145372	12.870782	-100.547855
47877		35.135455	12.853006	-100.454414
47878		35.140974	12.833635	-100.358619
47879		35.160886	12.815295	-100.257843
47880		35.172207	12.795093	-100.153843
47881		35.152998	12.779231	-100.051968
47882		35.115813	12.766632	-99.939295
47883		35.062256	12.754504	-99.819303
47884		34.999201	12.737356	-99.685631
47885		34.955346	12.718793	-99.541181
47886		34.946665	12.697737	-99.390380
47887		34.947779	12.681253	-99.233988
47888		34.957790	12.660028	-99.079248
47889		34.968151	12.641797	-98.925967
47890		34.982851	12.629908	-98.774106
47891		34.988031	12.618825	-98.621102
47892		34.960416	12.609384	-98.473500
47893		34.921825	12.598600	-98.328326
47894		34.899965	12.581185	-98.178534
47895		34.894727	12.563266	-98.027018
47896		34.900364	12.540306	-97.879400
47897		34.920320	12.519211	-97.731575
47898		34.959092	12.491841	-97.586273
47899		34.987317	12.468293	-97.437056
47900		35.020212	12.443550	-97.281599
47901		35.069392	12.416035	-97.121831
47902		35.120116	12.390680	-96.955386
47903		35.159563	12.372104	-96.781505
47904		35.188270	12.350674	-96.604481
47905		35.189291	12.337996	-96.417532
47906		35.177713	12.326291	-96.221593
47907		35.168606	12.313514	-96.022361
47908		35.152578	12.303722	-95.819634
47909		35.137336	12.296014	-95.617071
47910		35.129082	12.284530	-95.413802
47911		35.122775	12.277739	-95.201960
47912		35.118553	12.277169	-94.973231
47913		35.107823	12.286834	-94.719701
47914		35.105739	12.289181	-94.447785
47915		35.103946	12.296801	-94.153360
47916		35.104891	12.300567	-93.842705
47917		35.118438	12.308725	-93.514347
47918		35.147867	12.315789	-93.179870
47919		35.177383	12.327324	-92.843440
47920		35.168194	12.339685	-92.511823
47921		35.131317	12.353552	-92.194067
47922		35.072957	12.361541	-91.883377
47923		34.999373	12.370149	-91.582737
47924		34.939244	12.377585	-91.287400
47925		34.927123	12.382267	-91.003462
47926		34.941655	12.382346	-90.725755
47927		34.962537	12.390009	-90.460959
47928		34.985201	12.387210	-90.205281
47929		34.986471	12.384371	-89.961515
47930		34.978420	12.371654	-89.738596
47931		34.954633	12.360088	-89.528629
47932		34.916855	12.349910	-89.334136
47933		34.881456	12.337071	-89.149690
47934		34.860539	12.309407	-88.975666
47935		34.844498	12.281074	-88.803579
47936		34.842246	12.254801	-88.627269
47937		34.878769	12.225690	-88.450123
47938		34.954586	12.193941	-88.263559
47939		35.066596	12.162222	-88.072646
47940		35.176648	12.122243	-87.894365
47941		35.271824	12.086462	-87.724341
47942		35.338221	12.040750	-87.574423
47943		35.372905	11.999479	-87.436024
47944		35.389378	11.967016	-87.294392
47945		35.422448	11.951596	-87.121718
47946		35.484898	11.950581	-86.918957
47947		35.542970	11.968361	-86.686927
47948		35.604820	11.992521	-86.435391
47949		35.613794	12.018271	-86.167260
47950		35.554399	12.041395	-85.884129
47951		35.487182	12.055397	-85.594072
47952		35.458018	12.058279	-85.299388
47953		35.442553	12.055562	-84.988965
47954		35.428905	12.046445	-84.672584
47955		35.435175	12.022826	-84.366916
47956		35.446259	11.995557	-84.049323
47957		35.456187	11.962538	-83.731843
47958		35.466297	11.918959	-83.414767
47959		35.460628	11.874733	-83.095047
47960		35.464421	11.833822	-82.779628
47961		35.504566	11.798574	-82.452850
47962		35.583517	11.790699	-82.097794
47963		35.699494	11.799791	-81.721880
47964		35.816850	11.816538	-81.314412
47965		35.918957	11.847212	-80.876665
47966		36.030083	11.863571	-80.433819
47967		36.137820	11.883127	-79.967615
47968		36.240836	11.891315	-79.502152
47969		36.315145	11.888972	-79.044479
47970		36.360270	11.884767	-78.593539
47971		36.388789	11.881391	-78.148788
47972		36.397210	11.879530	-77.705485
47973		36.419984	11.875160	-77.269892
47974		36.471929	11.862256	-76.823692
47975		36.554601	11.859117	-76.352008
47976		36.672070	11.839183	-75.875125
47977		36.799739	11.829473	-75.374554
47978		36.927111	11.822951	-74.862667
47979		37.042693	11.812450	-74.349114
47980		37.121163	11.810247	-73.833000
47981		37.190024	11.806537	-73.337602
47982		37.255098	11.796937	-72.855113
47983		37.300157	11.784897	-72.383826
47984		37.321230	11.766330	-71.935513
47985		37.349888	11.742249	-71.497320
47986		37.449882	11.711593	-71.056095
47987		37.635288	11.679593	-70.613000
47988		37.881651	11.657122	-70.152636
47989		38.130989	11.654120	-69.663669
47990		38.382935	11.650494	-69.179226
47991		38.611977	11.636004	-68.692949
47992		38.779105	11.617786	-68.188160
47993		38.915280	11.587140	-67.677413
47994		39.034350	11.544733	-67.156441
47995		39.142748	11.504348	-66.621610
47996		39.219169	11.461695	-66.069016
47997		39.252222	11.409983	-65.526436
47998		39.238283	11.344154	-64.996414
47999		39.182766	11.282316	-64.472279
48000		39.092058	11.212670	-63.961104
48001		38.990604	11.146220	-63.463023
48002		38.879537	11.078483	-62.976481
48003		38.800840	11.017447	-62.485588
48004		38.755421	10.966304	-61.981862
48005		38.739541	10.928474	-61.463947
48006		38.758093	10.870994	-60.959757
48007		38.760737	10.813528	-60.457943
48008		38.735966	10.745928	-59.973815
48009		38.703973	10.674347	-59.502749
48010		38.675114	10.592411	-59.047995
48011		38.620405	10.510882	-58.603934
48012		38.539692	10.430402	-58.162871
48013		38.429683	10.352936	-57.711084
48014		38.299699	10.268556	-57.248720
48015		38.166230	10.175539	-56.764824
48016		38.050911	10.076120	-56.253084
48017		37.945820	9.963137	-55.720060
48018		37.785929	9.831071	-55.158907
48019		37.444875	9.683552	-54.544921
48020		36.740342	9.544329	-53.823613
48021		35.480348	9.499659	-52.961399
48022		34.464750	9.473064	-52.083342
48023		33.945469	9.343079	-51.221809
48024		33.585807	9.216199	-50.333773
48025		33.117113	9.116306	-49.477894
48026		32.547331	9.036632	-48.664758
48027		31.954726	8.954181	-47.909394
48028		31.422000	8.862148	-47.207891
48029		31.015480	8.768719	-46.525025
48030		30.790340	8.681836	-45.839960
48031		30.748451	8.603547	-45.140120
48032		30.880834	8.540594	-44.416572
48033		31.140735	8.478462	-43.668330
48034		31.467068	8.410873	-42.915081
48035		31.793659	8.340151	-42.161235
48036		32.042691	8.261736	-41.406764
48037		32.154814	8.181103	-40.649205
48038		32.162667	8.110636	-39.884922
48039		32.129793	8.047127	-39.109217
48040		32.167400	7.987590	-38.322440
48041		32.273446	7.914738	-37.549735
48042		32.354440	7.836605	-36.796232
48043		32.326434	7.749973	-36.073196
48044		32.158431	7.667568	-35.363645
48045		31.926063	7.591367	-34.658175
48046		31.715397	7.518010	-33.939308
48047		31.588306	7.441641	-33.202305
48048		31.505042	7.354848	-32.453956
48049		31.388406	7.261684	-31.698116
48050		31.192573	7.167805	-30.936427
48051		30.905901	7.077645	-30.169696
48052		30.570841	6.996145	-29.397178
48053		30.232689	6.919993	-28.624070
48054		29.952674	6.854405	-27.857415
48055		29.751875	6.791773	-27.091804
48056		29.623837	6.730646	-26.332902
48057		29.500986	6.663420	-25.584356
48058		29.322226	6.592996	-24.851323
48059		29.027357	6.529125	-24.134904
48060		28.627136	6.485391	-23.424019
48061		28.152557	6.456067	-22.714921
48062		27.743818	6.449750	-21.993832
48063		27.558637	6.436405	-21.287425
48064		27.546495	6.404717	-20.589298
48065		27.630113	6.354665	-19.909658
48066		27.762432	6.299845	-19.244036
48067		27.912418	6.242662	-18.578452
48068		28.046104	6.184085	-17.906387
48069		28.094878	6.149579	-17.229129
48070		28.051556	6.139812	-16.534703
48071		27.954152	6.128186	-15.836572
48072		27.732905	6.118215	-15.154560
48073		27.440320	6.101147	-14.504223
48074		27.087266	6.069131	-13.866753
48075		26.717500	6.029848	-13.225551
48076		26.272699	6.001418	-12.574035
48077		25.732567	6.002662	-11.911094
48078		25.138915	6.025011	-11.259417
48079		24.596691	6.057978	-10.611674
48080		24.222658	6.073948	-9.977015
48081		24.000140	6.068158	-9.366929
48082		23.882629	6.044368	-8.794897
48083		23.813499	6.010090	-8.253075
48084		23.798909	5.976572	-7.725869
48085		23.838327	5.944144	-7.210938
48086		23.827079	5.926619	-6.697933
48087		23.751748	5.935802	-6.179138
48088		23.685979	5.946894	-5.655618
48089		23.689256	5.945351	-5.136089
48090		23.727032	5.937718	-4.637916
48091		23.779306	5.917955	-4.160243
48092		23.871095	5.904385	-3.699635
48093		23.978230	5.886608	-3.252351
48094		23.997542	5.881535	-2.815899
48095		23.883752	5.900301	-2.394728
48096		23.640519	5.933997	-1.991421
48097		23.342643	5.964684	-1.605590
48098		23.076022	5.992665	-1.246418
48099		22.864540	6.017047	-0.910482
48100		22.729311	6.058929	-0.588579
48101		22.670298	6.091353	-0.293087
48102		22.657728	6.114391	-0.028986
48103		22.627164	6.135878	0.203203
48104		22.585090	6.175020	0.405411
48105		22.547824	6.212561	0.585746
48106		22.499475	6.243773	0.758039
48107		22.488993	6.276220	0.921795
48108		22.533717	6.300634	1.070986
48109		22.653883	6.312274	1.202892
48110		22.815896	6.313729	1.317882
48111		22.954182	6.311227	1.416471
48112		23.003622	6.313800	1.495508
48113		22.998206	6.320399	1.555256
48114		22.981380	6.339273	1.591821
48115		22.981304	6.355555	1.617432
48116		22.990248	6.364891	1.632562
48117		23.008225	6.363614	1.632416
48118		23.032587	6.362064	1.620430
48119		23.064445	6.355810	1.601095
48120		23.094400	6.346121	1.577642
48121		23.096983	6.335165	1.547363
48122		23.040098	6.324329	1.513983
48123		22.961653	6.313087	1.482369
48124		22.911214	6.303396	1.453634
48125		22.884529	6.284406	1.420216
48126		22.860177	6.264892	1.380600
48127		22.830935	6.244916	1.330169
48128		22.793867	6.230626	1.273866
48129		22.763427	6.215461	1.222253
48130		22.742668	6.200306	1.168643
48131		22.741377	6.173728	1.119440
48132		22.749446	6.143514	1.071115
48133		22.748484	6.111975	1.026202
48134		22.725835	6.084868	0.987042
48135		22.707857	6.057573	0.956079
48136		22.683577	6.034711	0.927254
48137		22.657349	6.012879	0.899844
48138		22.645748	5.998273	0.873299
48139		22.614664	5.975539	0.837180
48140		22.546930	5.954701	0.789523
48141		22.467670	5.935166	0.735028
48142		22.389734	5.920532	0.677219
48143		22.323049	5.904627	0.617948
48144		22.255780	5.897323	0.564548
48145		22.206163	5.882307	0.518838
48146		22.167986	5.867633	0.473804
48147		22.155844	5.849173	0.429766
48148		22.154262	5.832562	0.384133
48149		22.134447	5.814474	0.335316
48150		22.086654	5.803927	0.284200
48151		22.055165	5.786805	0.236562
48152		22.055639	5.762383	0.196030
48153		22.085693	5.737046	0.158283
48154		22.129325	5.712124	0.112018
48155		22.168072	5.684305	0.063748
48156		22.190570	5.666811	0.008244
48157		22.176385	5.651637	-0.055504
48158		22.117596	5.643060	-0.126377
48159		22.048950	5.641398	-0.200115
48160		21.993835	5.636880	-0.274563
48161		21.968209	5.628615	-0.348959
48162		21.974578	5.616227	-0.430843
48163		21.986663	5.596337	-0.523338
48164		21.979541	5.573996	-0.622958
48165		21.967188	5.551390	-0.720827
48166		21.928060	5.536400	-0.815420
48167		21.868576	5.519857	-0.907781
48168		21.801604	5.502012	-0.996268
48169		21.738360	5.479558	-1.083450
48170		21.698132	5.458130	-1.166849
48171		21.676983	5.440170	-1.253459
48172		21.646897	5.428987	-1.342326
48173		21.641399	5.417274	-1.433972
48174		21.654703	5.405922	-1.521053
48175		21.660884	5.391866	-1.608524
48176		21.646925	5.385704	-1.698080
48177		21.617428	5.376772	-1.788836
48178		21.576474	5.366248	-1.880548
48179		21.550185	5.355715	-1.984997
48180		21.519943	5.346601	-2.101083
48181		21.486822	5.343208	-2.225975
48182		21.450802	5.350285	-2.357544
48183		21.425665	5.353233	-2.488537
48184		21.416360	5.358582	-2.620518
48185		21.432703	5.362417	-2.752993
48186		21.474038	5.366046	-2.899097
48187		21.491151	5.361831	-3.057054
48188		21.472267	5.370010	-3.223559
48189		21.453544	5.389403	-3.389597
48190		21.424943	5.404249	-3.555889
48191		21.391666	5.414615	-3.718772
48192		21.377826	5.421123	-3.877565
48193		21.377325	5.419892	-4.030542
48194		21.383385	5.416212	-4.185435
48195		21.397389	5.410244	-4.336615
48196		21.409940	5.409544	-4.495441
48197		21.432535	5.408247	-4.680493
48198		21.389819	5.415184	-4.890001
48199		21.316080	5.435629	-5.114638
48200		21.262958	5.460138	-5.347126
48201		21.225252	5.480248	-5.585049
48202		21.211346	5.502475	-5.827342
48203		21.243220	5.519782	-6.065621
48204		21.300321	5.537169	-6.308388
48205		21.364100	5.555809	-6.557766
48206		21.410722	5.580992	-6.815678
48207		21.437283	5.610090	-7.077457
48208		21.419028	5.639789	-7.342879
48209		21.388529	5.668615	-7.614542
48210		21.366993	5.689904	-7.896212
48211		21.382318	5.697624	-8.184304
48212		21.410470	5.700639	-8.486507
48213		21.419087	5.700670	-8.806195
48214		21.372995	5.708715	-9.136905
48215		21.329284	5.727840	-9.473635
48216		21.309621	5.751393	-9.813918
48217		21.319996	5.775758	-10.158347
48218		21.397096	5.798572	-10.510389
48219		21.504292	5.805425	-10.868874
48220		21.610995	5.804302	-11.244222
48221		21.726796	5.802570	-11.633450
48222		21.812437	5.801077	-12.032524
48223		21.874446	5.805517	-12.434174
48224		21.913563	5.812931	-12.835244
48225		21.975599	5.820720	-13.235102
48226		22.076620	5.819271	-13.620782
48227		22.245559	5.818999	-14.005974
48228		22.414283	5.809584	-14.391074
48229		22.538556	5.799402	-14.777339
48230		22.607553	5.793916	-15.173182
48231		22.650088	5.793360	-15.574711
48232		22.672229	5.792693	-15.983022
48233		22.707830	5.791253	-16.393621
48234		22.751591	5.786730	-16.810925
48235		22.811871	5.785075	-17.240625
48236		22.897302	5.778518	-17.699666
48237		22.948630	5.758524	-18.185973
48238		22.948354	5.756745	-18.687715
48239		22.934317	5.768602	-19.196799
48240		22.926135	5.780802	-19.716058
48241		22.965840	5.792100	-20.240766
48242		23.038831	5.804665	-20.765276
48243		23.119030	5.810352	-21.292255
48244		23.186841	5.815734	-21.831499
48245		23.265596	5.821042	-22.371283
48246		23.372401	5.826243	-22.908790
48247		23.503516	5.828814	-23.445360
48248		23.628405	5.826595	-23.985593
48249		23.800989	5.821193	-24.536399
48250		23.965213	5.815125	-25.097514
48251		24.121272	5.826169	-25.670003
48252		24.227975	5.844681	-26.251170
48253		24.311787	5.868403	-26.838579
48254		24.363074	5.894149	-27.430811
48255		24.417187	5.921169	-28.017958
48256		24.497764	5.942481	-28.606252
48257		24.612558	5.962079	-29.186980
48258		24.716862	5.972973	-29.763814
48259		24.818741	5.983429	-30.347365
48260		24.856675	5.994527	-30.932857
48261		24.860793	6.015981	-31.521567
48262		24.852100	6.048412	-32.110553
48263		24.854466	6.084503	-32.695469
48264		24.877540	6.119732	-33.280955
48265		24.942880	6.154979	-33.860408
48266		25.035258	6.191212	-34.432993
48267		25.164404	6.219395	-35.009947
48268		25.297808	6.245617	-35.595005
48269		25.422695	6.269575	-36.185620
48270		25.532722	6.298709	-36.782676
48271		25.631912	6.340891	-37.378320
48272		25.722381	6.392320	-37.969004
48273		25.814980	6.441638	-38.546558
48274		25.902820	6.482521	-39.115107
48275		26.009288	6.516323	-39.676334
48276		26.166856	6.543856	-40.230336
48277		26.380883	6.557282	-40.778495
48278		26.552399	6.560991	-41.328706
48279		26.632771	6.570295	-41.881186
48280		26.657706	6.585472	-42.434961
48281		26.646635	6.612385	-42.983199
48282		26.613295	6.651375	-43.525491
48283		26.589519	6.692299	-44.062878
48284		26.571312	6.736606	-44.606721
48285		26.556771	6.781590	-45.162593
48286		26.521349	6.826559	-45.732035
48287		26.476230	6.871944	-46.304042
48288		26.458267	6.923010	-46.867427
48289		26.531604	6.978148	-47.420275
48290		26.720624	7.035384	-47.962420
48291		27.016147	7.084621	-48.494779
48292		27.356359	7.126018	-49.021939
48293		27.698459	7.168685	-49.560683
48294		28.020340	7.206002	-50.125784
48295		28.267117	7.252734	-50.698889
48296		28.443008	7.311067	-51.277418
48297		28.590551	7.375673	-51.860713
48298		28.729643	7.439412	-52.437204
48299		28.891212	7.502866	-53.006392
48300		29.118916	7.553516	-53.570332
48301		29.389847	7.590730	-54.128999
48302		29.662909	7.619815	-54.694009
48303		29.943362	7.648975	-55.266759
48304		30.181625	7.680796	-55.839702
48305		30.391146	7.717294	-56.418664
48306		30.579236	7.764301	-56.999786
48307		30.780328	7.816546	-57.582071
48308		30.970710	7.857363	-58.177424
48309		31.155186	7.893609	-58.787389
48310		31.310077	7.917909	-59.417586
48311		31.410031	7.939337	-60.058249
48312		31.450883	7.957251	-60.703361
48313		31.479884	7.964660	-61.349779
48314		31.545041	7.972607	-61.995766
48315		31.670905	7.972507	-62.645132
48316		31.815903	7.977105	-63.290504
48317		31.980565	7.985091	-63.928796
48318		32.170274	7.994062	-64.560467
48319		32.367270	8.004531	-65.179061
48320		32.573114	8.019181	-65.795020
48321		32.795104	8.023331	-66.402791
48322		33.046250	8.019353	-67.003602
48323		33.239996	8.009564	-67.607981
48324		33.340319	7.998891	-68.213174
48325		33.368925	7.982090	-68.821006
48326		33.316392	7.975467	-69.418210
48327		33.212718	7.979215	-70.003169
48328		33.080304	7.977488	-70.594902
48329		32.928313	7.975570	-71.178558
48330		32.801247	7.971064	-71.763967
48331		32.734816	7.962430	-72.349350
48332		32.700268	7.953973	-72.933510
48333		32.757125	7.955794	-73.528869
48334		32.872836	7.959491	-74.123944
48335		33.040922	7.970068	-74.718802
48336		33.219208	7.977913	-75.330406
48337		33.428004	7.983595	-75.953215
48338		33.639949	7.992835	-76.584872
48339		33.863614	8.016207	-77.207619
48340		34.138452	8.047449	-77.829057
48341		34.483969	8.083598	-78.445058
48342		34.885936	8.124682	-79.058868
48343		35.323956	8.152118	-79.681483
48344		35.681059	8.182768	-80.298790
48345		35.953826	8.207727	-80.928279
48346		36.176271	8.226446	-81.550808
48347		36.371589	8.254164	-82.139191
48348		36.590845	8.270074	-82.724025
48349		36.838359	8.276327	-83.294814
48350		37.090080	8.284515	-83.860022
48351		37.340577	8.289018	-84.426056
48352		37.529260	8.297324	-84.993079
48353		37.642327	8.313788	-85.553178
48354		37.693421	8.332941	-86.109519
48355		37.695955	8.362284	-86.657788
48356		37.630902	8.392759	-87.203026
48357		37.491851	8.434383	-87.732206
48358		37.302056	8.486688	-88.251211
48359		37.114629	8.547690	-88.762427
48360		36.966895	8.628251	-89.258318
48361		36.872877	8.725591	-89.752972
48362		36.818211	8.817405	-90.261255
48363		36.707724	8.913346	-90.762267
48364		36.542007	8.990613	-91.257448
48365		36.349091	9.042357	-91.736268
48366		36.156473	9.068946	-92.196768
48367		36.020831	9.087947	-92.635573
48368		35.947613	9.098293	-93.048064
48369		35.878870	9.100380	-93.453281
48370		35.734333	9.098690	-93.860394
48371		35.531658	9.088823	-94.289450
48372		35.308795	9.071646	-94.719652
48373		35.095481	9.057682	-95.146204
48374		34.911398	9.038782	-95.567495
48375		34.764349	9.035753	-95.966669
48376		34.667959	9.050804	-96.356998
48377		34.611898	9.068052	-96.750806
48378		34.526956	9.101367	-97.143323
48379		34.402891	9.147612	-97.532294
48380		34.265102	9.187395	-97.923075
48381		34.196191	9.223491	-98.291164
48382		34.226964	9.249859	-98.635615
48383		34.321695	9.264935	-98.961281
48384		34.428201	9.266752	-99.273400
48385		34.513504	9.271244	-99.578947
48386		34.529858	9.269982	-99.880124
48387		34.499435	9.274143	-100.179854
48388		34.446425	9.278596	-100.465917
48389		34.391231	9.295527	-100.733776
48390		34.369375	9.313083	-100.987402
48391		34.385734	9.331720	-101.227654
48392		34.400714	9.364488	-101.461373
48393		34.416632	9.408592	-101.690660
48394		34.456916	9.455385	-101.914165
48395		34.504907	9.510263	-102.133752
48396		34.554567	9.564444	-102.350129
48397		34.633837	9.621490	-102.563140
48398		34.742383	9.681383	-102.767299
48399		34.850266	9.749214	-102.963867
48400		34.924413	9.817562	-103.157647
48401		34.950399	9.895111	-103.347263
48402		34.961263	9.957164	-103.543303
48403		34.959118	10.011629	-103.733752
48404		34.979369	10.060783	-103.918228
48405		35.035796	10.107965	-104.100022
48406		35.104915	10.165902	-104.274937
48407		35.170629	10.236240	-104.452659
48408		35.222409	10.324763	-104.612883
48409		35.300653	10.412869	-104.769099
48410		35.386524	10.488611	-104.927117
48411		35.435326	10.567158	-105.073545
48412		35.456835	10.630427	-105.227815
48413		35.447292	10.690137	-105.387481
48414		35.440970	10.750436	-105.544487
48415		35.455942	10.817408	-105.690938
48416		35.486229	10.897704	-105.821351
48417		35.562659	10.979858	-105.934401
48418		35.663249	11.053431	-106.039208
48419		35.764146	11.122709	-106.139450
48420		35.858195	11.172265	-106.235088
48421		35.926968	11.208698	-106.324446
48422		35.969547	11.242562	-106.421926
48423		35.997792	11.275680	-106.525460
48424		36.005415	11.314254	-106.622165
48425		35.999728	11.353978	-106.712642
48426		35.993102	11.391320	-106.789216
48427		36.001059	11.428505	-106.845238
48428		36.059144	11.452682	-106.898516
48429		36.168191	11.465161	-106.942736
48430		36.274032	11.480775	-106.978113
48431		36.364309	11.499306	-107.004057
48432		36.435563	11.513322	-107.024999
48433		36.470981	11.544717	-107.034316
48434		36.467259	11.586181	-107.038363
48435		36.404717	11.615963	-107.041567
48436		36.304632	11.648305	-107.044799
48437		36.238342	11.672420	-107.047478
48438		36.239743	11.681737	-107.049999
48439		36.276833	11.692167	-107.048897
48440		36.334613	11.705348	-107.045568
48441		36.410894	11.711497	-107.040152
48442		36.499613	11.702945	-107.046092
48443		36.591673	11.690491	-107.063645
48444		36.684924	11.679951	-107.083374
48445		36.743622	11.678889	-107.107553
48446		36.771447	11.683757	-107.133329
48447		36.785224	11.698172	-107.153941
48448		36.789413	11.721413	-107.166776
48449		36.773916	11.738795	-107.172257
48450		36.734471	11.752418	-107.171067
48451		36.681747	11.770241	-107.167090
48452		36.658213	11.786343	-107.162710
48453		36.669067	11.800719	-107.146863
48454		36.681055	11.814650	-107.129711
48455		36.710206	11.836673	-107.109862
48456		36.729204	11.853749	-107.090249
48457		36.720304	11.881426	-107.072168
48458		36.701458	11.911378	-107.055173
48459		36.662317	11.952960	-107.040231
48460		36.617852	11.999913	-107.023990
48461		36.589143	12.046496	-107.008776
48462		36.595570	12.095042	-106.993872
48463		36.614219	12.144679	-106.979330
48464		36.658528	12.187608	-106.979923
48465		36.721828	12.222152	-106.989937
48466		36.779709	12.258619	-107.011599
48467		36.835697	12.285679	-107.034394
48468		36.867119	12.309665	-107.061329
48469		36.917554	12.328893	-107.086593
48470		37.012051	12.330316	-107.106086
48471		37.109551	12.325348	-107.122341
48472		37.193944	12.323715	-107.140747
48473		37.278494	12.325337	-107.157682
48474		37.342619	12.330757	-107.170179
48475		37.370205	12.334555	-107.176506
48476		37.366143	12.339615	-107.180749
48477		37.358795	12.346002	-107.180490
48478		37.363874	12.344575	-107.175964
48479		37.359365	12.333645	-107.167401
48480		37.322102	12.330390	-107.153392
48481		37.276563	12.337147	-107.139601
48482		37.265190	12.335029	-107.131645
48483		37.259034	12.340063	-107.133971
48484		37.237803	12.352092	-107.136870
48485		37.232425	12.359872	-107.138455
48486		37.257901	12.367493	-107.131513
48487		37.307439	12.375491	-107.119030
48488		37.392461	12.373244	-107.100381
48489		37.468111	12.368753	-107.078439
48490		37.561533	12.357248	-107.051690
48491		37.670784	12.339270	-107.021057
48492		37.785621	12.315236	-106.986897
48493		37.859619	12.295301	-106.958284
48494		37.885055	12.284803	-106.931830
48495		37.871932	12.281440	-106.907552
48496		37.818765	12.277817	-106.885150
48497		37.746813	12.282044	-106.858160
48498		37.706019	12.277662	-106.822774
48499		37.713686	12.266443	-106.779039
48500		37.735422	12.252904	-106.731428
48501		37.760933	12.240785	-106.677169
48502		37.768507	12.221344	-106.624982
48503		37.737771	12.208064	-106.575942
48504		37.692400	12.195511	-106.528265
48505		37.659371	12.182097	-106.477299
48506		37.616172	12.165352	-106.425409
48507		37.561495	12.150178	-106.366621
48508		37.514047	12.126395	-106.305913
48509		37.496196	12.105367	-106.233895
48510		37.511593	12.079000	-106.156947
48511		37.536231	12.062322	-106.075502
48512		37.559871	12.054287	-105.997049
48513		37.566070	12.043664	-105.920729
48514		37.543939	12.031938	-105.854934
48515		37.516480	12.019601	-105.787620
48516		37.520305	11.994654	-105.720189
48517		37.546588	11.966452	-105.649290
48518		37.594936	11.935449	-105.574009
48519		37.661096	11.900972	-105.494433
48520		37.739547	11.861609	-105.413123
48521		37.796212	11.818796	-105.322339
48522		37.838238	11.771171	-105.227825
48523		37.875773	11.720233	-105.128994
48524		37.906169	11.660017	-105.025845
48525		37.907483	11.593972	-104.921543
48526		37.869248	11.523926	-104.819300
48527		37.811267	11.454625	-104.716679
48528		37.762180	11.390507	-104.613229
48529		37.718284	11.327671	-104.508164
48530		37.657476	11.274628	-104.395190
48531		37.601426	11.227957	-104.275237
48532		37.581117	11.181040	-104.141758
48533		37.564757	11.131868	-103.992018
48534		37.560482	11.077054	-103.827086
48535		37.571457	11.021314	-103.648530
48536		37.596606	10.972326	-103.466779
48537		37.617813	10.940180	-103.286055
48538		37.611083	10.908034	-103.106576
48539		37.580282	10.876961	-102.932269
48540		37.564802	10.842894	-102.755595
48541		37.615513	10.804422	-102.569254
48542		37.728072	10.755562	-102.376206
48543		37.860009	10.704310	-102.170755
48544		37.975935	10.653750	-101.951463
48545		38.067292	10.609660	-101.719840
48546		38.136143	10.558113	-101.476265
48547		38.151767	10.512122	-101.223114
48548		38.139053	10.470302	-100.956920
48549		38.122065	10.429662	-100.686940
48550		38.101489	10.391876	-100.412994
48551		38.073152	10.359196	-100.138260
48552		38.044243	10.331044	-99.855013
48553		38.024249	10.314309	-99.562777
48554		38.013847	10.303125	-99.256566
48555		38.010544	10.296469	-98.932880
48556		38.032389	10.282661	-98.601953
48557		38.061743	10.276482	-98.260851
48558		38.099668	10.273668	-97.916252
48559		38.153474	10.278026	-97.575949
48560		38.212344	10.287936	-97.238309
48561		38.252700	10.299673	-96.899012
48562		38.283654	10.321863	-96.552283
48563		38.321390	10.356938	-96.181770
48564		38.389281	10.390387	-95.798370
48565		38.459999	10.411365	-95.418672
48566		38.503369	10.438708	-95.032129
48567		38.509875	10.468009	-94.649753
48568		38.489486	10.500449	-94.277962
48569		38.447294	10.531327	-93.906278
48570		38.393540	10.559134	-93.539144
48571		38.339671	10.585855	-93.180462
48572		38.300896	10.611918	-92.823051
48573		38.287653	10.633682	-92.460633
48574		38.293509	10.658042	-92.084127
48575		38.314626	10.680686	-91.704512
48576		38.346812	10.708664	-91.323176
48577		38.406406	10.742913	-90.941491
48578		38.492907	10.766295	-90.570295
48579		38.565229	10.797101	-90.202439
48580		38.593794	10.831288	-89.835202
48581		38.577127	10.870011	-89.467461
48582		38.519586	10.901546	-89.105993
48583		38.446170	10.930161	-88.749536
48584		38.402460	10.954210	-88.394933
48585		38.398680	10.970542	-88.037171
48586		38.419728	10.989148	-87.673281
48587		38.455478	11.000664	-87.299103
48588		38.507737	11.010232	-86.915877
48589		38.589200	11.021354	-86.519362
48590		38.711097	11.022686	-86.110972
48591		38.843355	11.028023	-85.680275
48592		38.977563	11.034581	-85.235260
48593		39.102656	11.030616	-84.794178
48594		39.204082	11.033779	-84.347039
48595		39.279593	11.041491	-83.899883
48596		39.321212	11.046523	-83.453100
48597		39.334442	11.056220	-83.008480
48598		39.333118	11.066994	-82.564771
48599		39.336634	11.073680	-82.111273
48600		39.362816	11.069295	-81.657941
48601		39.396322	11.050251	-81.207510
48602		39.427726	11.030610	-80.744350
48603		39.464901	11.014016	-80.270722
48604		39.545332	10.994795	-79.774534
48605		39.672826	10.981016	-79.262984
48606		39.819131	10.961002	-78.754649
48607		39.942964	10.942692	-78.241065
48608		40.037197	10.913965	-77.733710
48609		40.097008	10.887939	-77.229488
48610		40.147317	10.862548	-76.715541
48611		40.225721	10.839456	-76.190161
48612		40.335975	10.811315	-75.651898
48613		40.434886	10.785324	-75.110153
48614		40.521683	10.749362	-74.572191
48615		40.599354	10.711676	-74.026470
48616		40.678487	10.669981	-73.466286
48617		40.785756	10.615493	-72.899722
48618		40.894526	10.556492	-72.323042
48619		41.013522	10.500584	-71.735702
48620		41.127109	10.439293	-71.147725
48621		41.193184	10.375936	-70.560829
48622		41.197176	10.308929	-69.975102
48623		41.156029	10.242088	-69.386349
48624		41.095037	10.174449	-68.794620
48625		40.985399	10.103553	-68.202635
48626		40.825060	10.030525	-67.601786
48627		40.613344	9.962832	-66.995733
48628		40.368695	9.901015	-66.378952
48629		40.067128	9.838273	-65.763468
48630		39.667909	9.777346	-65.150214
48631		39.154124	9.721219	-64.543941
48632		38.524635	9.672043	-63.931373
48633		37.879376	9.627855	-63.280105
48634		37.029883	9.606450	-62.468322
48635		35.893618	9.678593	-61.487168
48636		35.235376	9.676459	-60.612095
48637		34.990250	9.578007	-59.758135
48638		34.930188	9.511011	-58.876912
48639		34.758329	9.482548	-58.046801
48640		34.432543	9.498200	-57.276861
48641		33.983737	9.531427	-56.552129
48642		33.481815	9.578533	-55.835385
48643		32.993600	9.629004	-55.111534
48644		32.607915	9.673825	-54.381305
48645		32.384119	9.710486	-53.641964
48646		32.296921	9.733474	-52.893378
48647		32.343179	9.740424	-52.149212
48648		32.477454	9.743048	-51.406077
48649		32.652841	9.737614	-50.660205
48650		32.903813	9.735873	-49.900176
48651		33.233413	9.724180	-49.135373
48652		33.596150	9.703698	-48.368252
48653		33.915078	9.682712	-47.598935
48654		34.149115	9.662604	-46.829137
48655		34.240827	9.641824	-46.065779
48656		34.161667	9.627215	-45.313010
48657		33.874598	9.618566	-44.559791
48658		33.488589	9.612417	-43.800067
48659		33.096366	9.593364	-43.041950
48660		32.704532	9.569756	-42.287425
48661		32.307510	9.543728	-41.531700
48662		31.893055	9.506170	-40.785022
48663		31.386241	9.466802	-40.044535
48664		30.810173	9.458117	-39.282681
48665		30.354772	9.458646	-38.511988
48666		30.105551	9.453334	-37.731363
48667		30.049297	9.446003	-36.959962
48668		30.130024	9.426179	-36.201027
48669		30.279618	9.395389	-35.463787
48670		30.458015	9.354594	-34.744350
48671		30.624700	9.308342	-34.038839
48672		30.791641	9.271323	-33.335703
48673		30.933240	9.235602	-32.627103
48674		31.089828	9.205421	-31.921340
48675		31.261663	9.161163	-31.214894
48676		31.409743	9.110161	-30.512168
48677		31.515968	9.041167	-29.830369
48678		31.535186	8.949894	-29.166080
48679		31.459277	8.866600	-28.499586
48680		31.327167	8.789641	-27.826411
48681		31.224222	8.717315	-27.148281
48682		31.179659	8.650347	-26.464823
48683		31.192924	8.580447	-25.779095
48684		31.239019	8.512518	-25.099809
48685		31.312812	8.443722	-24.439626
48686		31.377762	8.381511	-23.797657
48687		31.409818	8.336507	-23.163311
48688		31.405751	8.306394	-22.531689
48689		31.368317	8.286006	-21.906226
48690		31.295192	8.262102	-21.272966
48691		31.250785	8.240131	-20.639108
48692		31.226483	8.205978	-20.010480
48693		31.202607	8.165689	-19.387493
48694		31.131738	8.118245	-18.775969
48695		30.963833	8.075035	-18.166663
48696		30.709761	8.040895	-17.547756
48697		30.408048	8.013442	-16.911970
48698		30.095374	7.996323	-16.262612
48699		29.824004	7.981139	-15.607741
48700		29.644140	7.955122	-14.954120
48701		29.567829	7.920333	-14.307341
48702		29.591004	7.879012	-13.673181
48703		29.657591	7.830653	-13.062054
48704		29.692614	7.796322	-12.467532
48705		29.683098	7.785237	-11.882034
48706		29.603779	7.781324	-11.321021
48707		29.391404	7.786696	-10.774869
48708		29.083416	7.797054	-10.253242
48709		28.718492	7.800629	-9.752337
48710		28.309900	7.810265	-9.250030
48711		27.870501	7.826247	-8.742788
48712		27.478667	7.849518	-8.232346
48713		27.161571	7.862014	-7.728058
48714		26.926078	7.871054	-7.230753
48715		26.772318	7.861927	-6.748232
48716		26.666961	7.847750	-6.281330
48717		26.578703	7.834121	-5.828371
48718		26.491581	7.831461	-5.386049
48719		26.430723	7.834172	-4.953620
48720		26.366485	7.837263	-4.534303
48721		26.253599	7.833765	-4.134149
48722		26.087272	7.837153	-3.747455
48723		25.880921	7.841018	-3.373634
48724		25.633568	7.844985	-3.005765
48725		25.365521	7.853396	-2.642087
48726		25.094852	7.867006	-2.269399
48727		24.852564	7.884500	-1.891803
48728		24.673749	7.897460	-1.517012
48729		24.573875	7.898876	-1.142460
48730		24.531349	7.896268	-0.776437
48731		24.479310	7.892793	-0.424017
48732		24.401361	7.901160	-0.082119
48733		24.300934	7.916018	0.244369
48734		24.190205	7.936347	0.561666
48735		24.099195	7.947338	0.870828
48736		24.015297	7.945466	1.174557
48737		23.939214	7.941964	1.466374
48738		23.873523	7.942504	1.738917
48739		23.813398	7.941255	1.991491
48740		23.739333	7.948706	2.217151
48741		23.653338	7.954814	2.409747
48742		23.555684	7.964810	2.577474
48743		23.472742	7.974063	2.728466
48744		23.423116	7.981879	2.862191
48745		23.406000	7.989441	2.984088
48746		23.409516	7.994650	3.107791
48747		23.418371	8.003529	3.231796
48748		23.401666	8.009308	3.355358
48749		23.352609	8.014916	3.475250
48750		23.267015	8.017832	3.585631
48751		23.151942	8.018120	3.678522
48752		22.970233	8.021498	3.752760
48753		22.696373	8.034996	3.817130
48754		22.358288	8.059448	3.868859
48755		22.002934	8.081899	3.919480
48756		21.692776	8.112043	3.975308
48757		21.448550	8.135632	4.035502
48758		21.258979	8.158371	4.094979
48759		21.137421	8.181776	4.148863
48760		21.064854	8.206025	4.199968
48761		21.027361	8.224814	4.240922
48762		21.000260	8.236915	4.270492
48763		20.979144	8.239853	4.296456
48764		20.976120	8.240277	4.312230
48765		20.975141	8.232888	4.320833
48766		20.965053	8.222888	4.319389
48767		20.957720	8.210821	4.310088
48768		20.945717	8.199623	4.289600
48769		20.921901	8.186566	4.257826
48770		20.863987	8.180649	4.214133
48771		20.798261	8.182304	4.159553
48772		20.717198	8.192052	4.092960
48773		20.613364	8.200499	4.014784
48774		20.495640	8.206480	3.926605
48775		20.374474	8.207194	3.828457
48776		20.254363	8.203812	3.730084
48777		20.166518	8.193311	3.630798
48778		20.101103	8.186819	3.522683
48779		20.049292	8.171284	3.413500
48780		20.002309	8.157109	3.298733
48781		19.946081	8.136620	3.183755
48782		19.873046	8.112555	3.069757
48783		19.802435	8.086646	2.957820
48784		19.751829	8.059601	2.846965
48785		19.723763	8.022484	2.736692
48786		19.707165	7.985943	2.624001
48787		19.683317	7.952653	2.502223
48788		19.637715	7.915185	2.372955
48789		19.573396	7.877555	2.243119
48790		19.485823	7.842945	2.117342
48791		19.389081	7.803752	1.999394
48792		19.294611	7.764952	1.899370
48793		19.230291	7.723831	1.815969
48794		19.196086	7.680782	1.757084
48795		19.207731	7.636748	1.710481
48796		19.254083	7.591409	1.667326
48797		19.321639	7.547426	1.615669
48798		19.406640	7.504694	1.541234
48799		19.484292	7.456445	1.439452
48800		19.531811	7.417488	1.313057
48801		19.556788	7.385553	1.168372
48802		19.583506	7.353217	1.011732
48803		19.633721	7.317394	0.849844
48804		19.699197	7.285665	0.685177
48805		19.793674	7.252371	0.519132
48806		19.908655	7.217651	0.345865
48807		20.006881	7.181398	0.163686
48808		20.097385	7.157762	-0.027719
48809		20.170344	7.136592	-0.234552
48810		20.217568	7.117663	-0.453369
48811		20.258550	7.105716	-0.693059
48812		20.287787	7.096253	-0.962393
48813		20.293043	7.085296	-1.260678
48814		20.271733	7.082179	-1.578251
48815		20.264328	7.085565	-1.911035
48816		20.283566	7.091145	-2.254141
48817		20.350906	7.093544	-2.600702
48818		20.455627	7.095782	-2.944556
48819		20.593779	7.095695	-3.282526
48820		20.767473	7.093358	-3.619914
48821		20.941153	7.084090	-3.967410
48822		21.061454	7.063722	-4.327172
48823		21.148227	7.046674	-4.692338
48824		21.191190	7.033374	-5.061141
48825		21.213548	7.014597	-5.429563
48826		21.251133	6.991409	-5.792826
48827		21.310358	6.958701	-6.151624
48828		21.376423	6.926658	-6.517675
48829		21.457883	6.886585	-6.894869
48830		21.523175	6.853001	-7.296606
48831		21.536225	6.818784	-7.721640
48832		21.519561	6.797965	-8.158494
48833		21.503126	6.778391	-8.597783
48834		21.509355	6.751148	-9.039541
48835		21.509499	6.714478	-9.474489
48836		21.512641	6.676207	-9.902612
48837		21.540970	6.627862	-10.327417
48838		21.539775	6.571812	-10.751546
48839		21.527569	6.513503	-11.168947
48840		21.524348	6.455995	-11.579590
48841		21.545755	6.393522	-11.983858
48842		21.604924	6.337597	-12.387297
48843		21.675238	6.278110	-12.795248
48844		21.732556	6.223974	-13.210281
48845		21.790184	6.171473	-13.631887
48846		21.854858	6.120309	-14.058047
48847		21.925118	6.068652	-14.491789
48848		21.999562	6.021634	-14.925926
48849		22.088595	5.984280	-15.363410
48850		22.178370	5.943894	-15.795789
48851		22.260690	5.902923	-16.219397
48852		22.330275	5.861644	-16.637441
48853		22.412148	5.821178	-17.050068
48854		22.509974	5.779141	-17.470821
48855		22.584536	5.738775	-17.908147
48856		22.617769	5.707290	-18.362312
48857		22.635834	5.690288	-18.825466
48858		22.654676	5.681834	-19.295248
48859		22.686446	5.671766	-19.771445
48860		22.753309	5.664453	-20.242845
48861		22.859234	5.651843	-20.701457
48862		22.995572	5.629399	-21.149342
48863		23.178918	5.599313	-21.594386
48864		23.372788	5.565428	-22.044999
48865		23.505242	5.531040	-22.508134
48866		23.581216	5.509930	-22.982724
48867		23.629851	5.502297	-23.458890
48868		23.641338	5.502407	-23.939182
48869		23.647862	5.502692	-24.420387
48870		23.685225	5.501752	-24.898808
48871		23.750116	5.497587	-25.374664
48872		23.826442	5.487540	-25.856457
48873		23.919887	5.476276	-26.343495
48874		23.988636	5.472353	-26.840936
48875		24.036671	5.474601	-27.339394
48876		24.087783	5.488570	-27.839240
48877		24.160201	5.498477	-28.336241
48878		24.270439	5.508036	-28.833028
48879		24.417595	5.512282	-29.326183
48880		24.601502	5.518792	-29.824942
48881		24.783231	5.520755	-30.340983
48882		24.899833	5.530295	-30.867766
48883		25.011553	5.547847	-31.397543
48884		25.108014	5.568576	-31.929797
48885		25.195768	5.587734	-32.462133
48886		25.293239	5.604945	-32.989548
48887		25.456284	5.619916	-33.517093
48888		25.643678	5.629993	-34.049829
48889		25.798842	5.641855	-34.588773
48890		25.920038	5.664319	-35.139312
48891		26.017759	5.690650	-35.690364
48892		26.077382	5.723563	-36.240478
48893		26.142196	5.751840	-36.786722
48894		26.237967	5.773173	-37.333542
48895		26.377302	5.788371	-37.888693
48896		26.489801	5.802609	-38.451431
48897		26.605709	5.828196	-39.021365
48898		26.710902	5.858764	-39.595461
48899		26.805719	5.896056	-40.167055
48900		26.918638	5.942959	-40.740088
48901		27.055970	5.981285	-41.310894
48902		27.213040	6.012104	-41.878756
48903		27.394555	6.029322	-42.448504
48904		27.575423	6.042331	-43.015868
48905		27.747204	6.055151	-43.588917
48906		27.901996	6.074746	-44.170394
48907		28.073564	6.101724	-44.763492
48908		28.210185	6.136411	-45.372396
48909		28.328307	6.182717	-45.996309
48910		28.433311	6.237357	-46.633861
48911		28.553834	6.293157	-47.282926
48912		28.709494	6.347800	-47.945689
48913		28.890070	6.396067	-48.610602
48914		29.083261	6.438632	-49.279823
48915		29.279516	6.483981	-49.941035
48916		29.492460	6.536421	-50.602222
48917		29.761395	6.578684	-51.261342
48918		30.062769	6.616919	-51.921034
48919		30.342417	6.653034	-52.589524
48920		30.567402	6.694500	-53.272928
48921		30.734420	6.738436	-53.965869
48922		30.878955	6.789075	-54.666613
48923		31.032172	6.839512	-55.368240
48924		31.192169	6.891038	-56.076419
48925		31.355716	6.939146	-56.792055
48926		31.506812	6.984878	-57.516841
48927		31.651356	7.023650	-58.257005
48928		31.777531	7.059274	-59.008733
48929		31.955586	7.089973	-59.783109
48930		32.136534	7.121693	-60.558633
48931		32.301655	7.157935	-61.326119
48932		32.446850	7.202577	-62.093912
48933		32.612914	7.248065	-62.852112
48934		32.842090	7.288152	-63.602207
48935		33.134982	7.318381	-64.344244
48936		33.447565	7.340532	-65.088585
48937		33.724310	7.359728	-65.826625
48938		33.941530	7.375942	-66.572207
48939		34.109258	7.394718	-67.310692
48940		34.228390	7.411447	-68.050026
48941		34.310245	7.426948	-68.788514
48942		34.339565	7.442338	-69.525009
48943		34.314778	7.468757	-70.251435
48944		34.272084	7.491522	-70.973619
48945		34.212556	7.516802	-71.694274
48946		34.148720	7.543242	-72.417156
48947		34.138523	7.564978	-73.145671
48948		34.181996	7.574938	-73.878530
48949		34.220843	7.590716	-74.598256
48950		34.256459	7.600042	-75.316141
48951		34.322222	7.596670	-76.024036
48952		34.393041	7.581104	-76.725730
48953		34.482686	7.553797	-77.432110
48954		34.586138	7.518682	-78.149388
48955		34.734847	7.484857	-78.875818
48956		34.942046	7.464687	-79.602532
48957		35.223516	7.458529	-80.327713
48958		35.554852	7.460906	-81.071152
48959		35.939407	7.475522	-81.821993
48960		36.383743	7.490095	-82.572995
48961		36.827505	7.497246	-83.305584
48962		37.246133	7.506086	-84.040080
48963		37.636205	7.508654	-84.779597
48964		37.958579	7.533814	-85.494040
48965		38.205025	7.573234	-86.180413
48966		38.357905	7.620052	-86.840693
48967		38.416230	7.670491	-87.479639
48968		38.417126	7.733602	-88.094934
48969		38.385319	7.795153	-88.669703
48970		38.325862	7.846545	-89.225373
48971		38.195496	7.895930	-89.749400
48972		37.989688	7.948770	-90.254144
48973		37.690475	7.998906	-90.753401
48974		37.306134	8.055737	-91.240361
48975		36.888270	8.110546	-91.711603
48976		36.521904	8.161319	-92.170114
48977		36.197180	8.202450	-92.608173
48978		35.883261	8.254634	-93.033968
48979		35.616385	8.300307	-93.463681
48980		35.407458	8.337374	-93.891661
48981		35.227298	8.377312	-94.313302
48982		35.100683	8.416279	-94.731443
48983		35.055779	8.446237	-95.136900
48984		35.070243	8.478224	-95.525979
48985		35.135594	8.505274	-95.906369
48986		35.187534	8.529113	-96.281667
48987		35.225030	8.542062	-96.653294
48988		35.229287	8.542316	-97.015687
48989		35.193476	8.539916	-97.353329
48990		35.128475	8.533446	-97.674052
48991		35.069447	8.526986	-97.970949
48992		35.025655	8.518135	-98.246765
48993		34.978187	8.513650	-98.509538
48994		34.907518	8.515577	-98.773901
48995		34.836362	8.522712	-99.016705
48996		34.787268	8.537578	-99.249568
48997		34.758350	8.559479	-99.466843
48998		34.751991	8.596035	-99.666207
48999		34.741867	8.639963	-99.855220
49000		34.668183	8.695549	-100.039776
49001		34.521909	8.758244	-100.227538
49002		34.367612	8.827793	-100.412670
49003		34.244404	8.891861	-100.591052
49004		34.190400	8.956265	-100.758552
49005		34.238150	9.016658	-100.916699
49006		34.379751	9.074364	-101.054631
49007		34.573005	9.128328	-101.182460
49008		34.776876	9.181263	-101.305449
49009		34.984264	9.237210	-101.431045
49010		35.182317	9.284776	-101.569311
49011		35.326252	9.342588	-101.704441
49012		35.392374	9.410064	-101.844962
49013		35.358277	9.482458	-101.990459
49014		35.253174	9.563320	-102.133893
49015		35.150334	9.640072	-102.273817
49016		35.083799	9.717061	-102.407830
49017		35.097506	9.790167	-102.534030
49018		35.200160	9.860527	-102.645543
49019		35.340422	9.930319	-102.738461
49020		35.481291	10.007397	-102.822945
49021		35.663262	10.065666	-102.916382
49022		35.833871	10.112912	-103.006296
49023		35.957889	10.159600	-103.094778
49024		36.043443	10.211927	-103.189363
49025		36.066218	10.274995	-103.299908
49026		36.001082	10.352835	-103.421370
49027		35.875510	10.442512	-103.551804
49028		35.744085	10.532736	-103.693624
49029		35.624213	10.615464	-103.827393
49030		35.564619	10.688804	-103.943949
49031		35.559164	10.752305	-104.040891
49032		35.603422	10.811473	-104.122505
49033		35.666649	10.859065	-104.192360
49034		35.734125	10.903592	-104.252054
49035		35.786914	10.944893	-104.301872
49036		35.810133	10.989229	-104.341948
49037		35.801864	11.031635	-104.378462
49038		35.793667	11.070545	-104.417606
49039		35.787091	11.107375	-104.459072
49040		35.801010	11.143585	-104.504405
49041		35.840601	11.179724	-104.560581
49042		35.896660	11.220791	-104.615638
49043		35.949331	11.260732	-104.669192
49044		35.996722	11.299197	-104.722513
49045		36.050780	11.334433	-104.775074
49046		36.095654	11.370922	-104.827758
49047		36.160387	11.404893	-104.879527
49048		36.216957	11.436552	-104.931529
49049		36.230302	11.471972	-104.991292
49050		36.224805	11.514565	-105.049737
49051		36.216271	11.555693	-105.092999
49052		36.212463	11.609013	-105.125579
49053		36.239419	11.665789	-105.157221
49054		36.292789	11.718984	-105.197178
49055		36.322450	11.779179	-105.244443
49056		36.346354	11.842479	-105.294881
49057		36.393981	11.895046	-105.339044
49058		36.481559	11.947419	-105.373089
49059		36.631942	11.996449	-105.392629
49060		36.839472	12.032943	-105.400932
49061		37.016319	12.066406	-105.422280
49062		37.167610	12.120269	-105.454626
49063		37.351063	12.167491	-105.489618
49064		37.564999	12.209061	-105.534790
49065		37.789755	12.244738	-105.584396
49066		37.991196	12.280459	-105.638607
49067		38.101088	12.324717	-105.710710
49068		38.157199	12.379202	-105.791054
49069		38.183524	12.427499	-105.868588
49070		38.196165	12.474739	-105.932228
49071		38.216727	12.513063	-105.971405
49072		38.271063	12.535554	-105.987241
49073		38.351853	12.549604	-105.983547
49074		38.434721	12.561212	-105.963867
49075		38.518799	12.573579	-105.946261
49076		38.567137	12.581538	-105.920852
49077		38.528210	12.596556	-105.891732
49078		38.414556	12.623310	-105.858372
49079		38.294319	12.655125	-105.827969
49080		38.206545	12.685562	-105.795611
49081		38.160274	12.718062	-105.761935
49082		38.148453	12.750635	-105.728980
49083		38.182404	12.780868	-105.689590
49084		38.252409	12.808429	-105.651557
49085		38.362808	12.827805	-105.611509
49086		38.475574	12.840687	-105.567748
49087		38.554959	12.849838	-105.522504
49088		38.590973	12.857094	-105.472739
49089		38.582824	12.867038	-105.420566
49090		38.566740	12.872293	-105.362447
49091		38.545991	12.871701	-105.301556
49092		38.526976	12.875662	-105.239194
49093		38.516840	12.883550	-105.178584
49094		38.506163	12.892889	-105.119110
49095		38.463421	12.903131	-105.064569
49096		38.409829	12.907598	-105.002720
49097		38.344297	12.898509	-104.945790
49098		38.286375	12.875494	-104.886007
49099		38.259186	12.841008	-104.826334
49100		38.240927	12.795897	-104.760627
49101		38.221820	12.745350	-104.689257
49102		38.222531	12.688561	-104.616651
49103		38.244677	12.632801	-104.536590
49104		38.265813	12.579163	-104.453831
49105		38.289556	12.529041	-104.373906
49106		38.320381	12.478761	-104.302505
49107		38.362279	12.434960	-104.246103
49108		38.412021	12.396994	-104.197791
49109		38.425019	12.366965	-104.159261
49110		38.393796	12.348866	-104.130594
49111		38.359001	12.337067	-104.106243
49112		38.349730	12.323436	-104.076253
49113		38.359185	12.307338	-104.045659
49114		38.406704	12.286173	-103.998288
49115		38.429222	12.266526	-103.944625
49116		38.414876	12.247741	-103.883726
49117		38.410137	12.226005	-103.810883
49118		38.407458	12.203252	-103.726627
49119		38.385842	12.185839	-103.635421
49120		38.358343	12.168273	-103.539315
49121		38.359176	12.146759	-103.437270
49122		38.370628	12.124118	-103.337433
49123		38.369333	12.107616	-103.233459
49124		38.365680	12.099210	-103.127429
49125		38.376390	12.083409	-103.028408
49126		38.397118	12.071323	-102.924219
49127		38.438829	12.062071	-102.822183
49128		38.485846	12.047851	-102.726533
49129		38.531815	12.037830	-102.625488
49130		38.562039	12.023170	-102.527820
49131		38.570191	12.011361	-102.426127
49132		38.584505	11.993470	-102.322719
49133		38.593968	11.970381	-102.220334
49134		38.612505	11.941714	-102.113798
49135		38.616975	11.903282	-102.006509
49136		38.605163	11.855153	-101.890917
49137		38.594162	11.797709	-101.769454
49138		38.599238	11.727669	-101.638777
49139		38.612047	11.655430	-101.494627
49140		38.614473	11.578774	-101.348307
49141		38.589071	11.502223	-101.191993
49142		38.526731	11.430011	-101.030593
49143		38.443347	11.359678	-100.862481
49144		38.359756	11.283525	-100.685474
49145		38.258689	11.208159	-100.506124
49146		38.174070	11.140213	-100.323710
49147		38.125064	11.066249	-100.143902
49148		38.086603	10.991508	-99.962429
49149		38.069623	10.919138	-99.782763
49150		38.108731	10.845547	-99.594984
49151		38.198399	10.773521	-99.401691
49152		38.320473	10.701094	-99.210254
49153		38.440037	10.624455	-99.009296
49154		38.531548	10.543510	-98.808361
49155		38.599655	10.456312	-98.594972
49156		38.673711	10.366637	-98.365348
49157		38.756112	10.276003	-98.122210
49158		38.829233	10.188246	-97.865042
49159		38.889763	10.105582	-97.597121
49160		38.958087	10.013967	-97.333968
49161		39.025559	9.924720	-97.071147
49162		39.103750	9.834333	-96.809563
49163		39.199777	9.746984	-96.550345
49164		39.310284	9.655139	-96.287898
49165		39.415103	9.565628	-96.012975
49166		39.490503	9.476199	-95.720608
49167		39.530925	9.401083	-95.405094
49168		39.554291	9.328350	-95.063645
49169		39.541306	9.263367	-94.708684
49170		39.539626	9.206230	-94.339814
49171		39.564177	9.153199	-93.960526
49172		39.592068	9.106408	-93.576281
49173		39.640575	9.072681	-93.193310
49174		39.730326	9.039750	-92.812559
49175		39.875388	9.003320	-92.428206
49176		40.061322	8.956721	-92.030733
49177		40.248052	8.912567	-91.600689
49178		40.429772	8.859227	-91.159340
49179		40.605428	8.797012	-90.708350
49180		40.727190	8.732213	-90.250441
49181		40.775742	8.677196	-89.780472
49182		40.756861	8.631318	-89.303182
49183		40.703298	8.582506	-88.828096
49184		40.640358	8.535503	-88.364162
49185		40.566720	8.496102	-87.896267
49186		40.496389	8.474753	-87.408201
49187		40.454031	8.448846	-86.905380
49188		40.421857	8.421138	-86.380186
49189		40.405149	8.394175	-85.830918
49190		40.414342	8.368963	-85.255070
49191		40.422129	8.347643	-84.666718
49192		40.405937	8.329717	-84.085965
49193		40.314971	8.326482	-83.507244
49194		40.161216	8.336597	-82.940768
49195		39.986513	8.346717	-82.379007
49196		39.832681	8.367158	-81.808818
49197		39.710289	8.388926	-81.231591
49198		39.642330	8.410994	-80.635565
49199		39.650562	8.423065	-80.030062
49200		39.729379	8.427163	-79.409773
49201		39.858805	8.433343	-78.781674
49202		40.036348	8.440833	-78.130020
49203		40.234594	8.447118	-77.472696
49204		40.429272	8.449430	-76.824884
49205		40.589577	8.444631	-76.193737
49206		40.688352	8.442333	-75.569239
49207		40.718098	8.450798	-74.951170
49208		40.736183	8.460817	-74.335728
49209		40.793085	8.468540	-73.714165
49210		40.877488	8.483336	-73.069685
49211		40.992244	8.498112	-72.417165
49212		41.117404	8.488556	-71.779593
49213		41.218860	8.478444	-71.139807
49214		41.328399	8.471813	-70.500859
49215		41.432298	8.467738	-69.856559
49216		41.479177	8.466552	-69.218582
49217		41.429469	8.463875	-68.591729
49218		41.347308	8.460474	-67.973234
49219		41.274790	8.447131	-67.356121
49220		41.230214	8.424130	-66.728763
49221		41.237775	8.396182	-66.106088
49222		41.259012	8.351414	-65.486754
49223		41.263349	8.312881	-64.857873
49224		41.241472	8.273076	-64.236015
49225		41.211738	8.235695	-63.609068
49226		41.160982	8.197098	-62.980617
49227		41.056259	8.155864	-62.358982
49228		40.859327	8.113620	-61.721822
49229		40.571190	8.066667	-61.060866
49230		40.225051	8.010221	-60.355938
49231		39.783567	7.945700	-59.589510
49232		39.037392	7.890270	-58.695372
49233		38.255471	7.866554	-57.752394
49234		37.675004	7.759503	-56.852392
49235		37.224469	7.669499	-55.925695
49236		36.867424	7.588035	-55.011541
49237		36.566310	7.525924	-54.127495
49238		36.333175	7.473762	-53.293261
49239		36.169604	7.424336	-52.502495
49240		36.071834	7.385867	-51.730756
49241		36.028033	7.356262	-50.963028
49242		36.081158	7.329711	-50.204377
49243		36.277966	7.303692	-49.446461
49244		36.578869	7.277407	-48.674281
49245		36.938186	7.251100	-47.898038
49246		37.350474	7.220261	-47.139052
49247		37.719005	7.182375	-46.394442
49248		37.960315	7.157109	-45.642735
49249		38.118207	7.135510	-44.898545
49250		38.196629	7.110928	-44.156095
49251		38.173714	7.088652	-43.413621
49252		38.081482	7.062395	-42.681630
49253		37.871808	7.040667	-41.956310
49254		37.503512	7.031031	-41.227930
49255		37.043012	7.028999	-40.493012
49256		36.576427	7.033909	-39.739665
49257		36.152835	7.039117	-38.986647
49258		35.808109	7.031443	-38.245635
49259		35.485210	7.020806	-37.503253
49260		35.144478	7.006373	-36.769799
49261		34.709336	6.995873	-36.047437
49262		34.133285	7.012967	-35.316436
49263		33.525875	7.059234	-34.573336
49264		33.029566	7.092161	-33.843186
49265		32.649560	7.108921	-33.117013
49266		32.350136	7.109706	-32.410448
49267		32.089352	7.104583	-31.726851
49268		31.808223	7.098909	-31.059545
49269		31.468049	7.103764	-30.400095
49270		31.073367	7.140668	-29.726182
49271		30.778862	7.188131	-29.044314
49272		30.584103	7.226916	-28.349475
49273		30.444293	7.260649	-27.652110
49274		30.322149	7.288052	-26.969125
49275		30.234398	7.309823	-26.301933
49276		30.154675	7.330925	-25.643316
49277		30.052446	7.373126	-24.983896
49278		29.908281	7.436764	-24.328397
49279		29.739189	7.504160	-23.687151
49280		29.546953	7.565771	-23.061590
49281		29.341302	7.615893	-22.448914
49282		29.126619	7.660370	-21.842286
49283		28.919307	7.698419	-21.239897
49284		28.708053	7.738832	-20.636477
49285		28.473127	7.797361	-20.034898
49286		28.241459	7.869395	-19.419272
49287		28.130419	7.957444	-18.793694
49288		28.189001	8.030689	-18.173222
49289		28.344760	8.080672	-17.564922
49290		28.511558	8.123809	-16.969776
49291		28.678368	8.171464	-16.377802
49292		28.843631	8.218707	-15.791807
49293		28.963763	8.278823	-15.197724
49294		29.026899	8.358030	-14.601175
49295		29.017575	8.433808	-14.015436
49296		28.912904	8.504779	-13.442927
49297		28.694557	8.569047	-12.872115
49298		28.420319	8.621611	-12.310507
49299		28.096301	8.658424	-11.754721
49300		27.740380	8.696484	-11.193726
49301		27.372744	8.729580	-10.635243
49302		26.948231	8.760805	-10.066749
49303		26.457006	8.810401	-9.484475
49304		25.935151	8.875939	-8.889596
49305		25.399541	8.957630	-8.282741
49306		24.960392	9.042849	-7.671714
49307		24.626177	9.100780	-7.079348
49308		24.340671	9.144794	-6.516672
49309		24.101752	9.185608	-5.978177
49310		23.924432	9.223765	-5.454957
49311		23.750563	9.262567	-4.943739
49312		23.502303	9.314565	-4.433439
49313		23.126383	9.384103	-3.926675
49314		22.700010	9.473002	-3.421654
49315		22.331702	9.560303	-2.901139
49316		22.169343	9.637490	-2.374300
49317		22.177595	9.688079	-1.851635
49318		22.281584	9.725466	-1.338702
49319		22.453273	9.748680	-0.850353
49320		22.657175	9.760087	-0.393481
49321		22.848504	9.776762	0.030219
49322		22.987618	9.804261	0.428763
49323		23.083793	9.836630	0.793284
49324		23.102722	9.877406	1.129898
49325		23.026512	9.928771	1.450993
49326		22.904516	9.987382	1.766424
49327		22.761082	10.049026	2.086667
49328		22.662166	10.116111	2.409699
49329		22.616584	10.184643	2.720050
49330		22.599308	10.245174	2.998455
49331		22.604190	10.297089	3.244139
49332		22.588614	10.348614	3.454552
49333		22.516634	10.406159	3.635801
49334		22.408476	10.470432	3.797024
49335		22.353295	10.536903	3.951261
49336		22.355495	10.599777	4.098291
49337		22.377315	10.660050	4.245650
49338		22.428006	10.715818	4.399456
49339		22.474344	10.767138	4.557372
49340		22.501094	10.823784	4.727128
49341		22.524708	10.879018	4.900419
49342		22.552362	10.929143	5.065808
49343		22.571013	10.986087	5.206827
49344		22.542195	11.045620	5.309534
49345		22.446163	11.101973	5.377224
49346		22.298175	11.165677	5.420779
49347		22.118028	11.228937	5.445767
49348		21.912583	11.292742	5.460804
49349		21.718428	11.352439	5.473820
49350		21.571699	11.406396	5.482277
49351		21.461357	11.447368	5.483088
49352		21.364127	11.479125	5.478846
49353		21.260259	11.508270	5.473889
49354		21.136928	11.526691	5.471962
49355		21.016002	11.536138	5.474025
49356		20.879490	11.538594	5.476252
49357		20.732647	11.537168	5.482166
49358		20.611079	11.532907	5.498428
49359		20.515652	11.521971	5.520321
49360		20.424621	11.506201	5.537994
49361		20.339091	11.485753	5.549386
49362		20.273889	11.460902	5.558357
49363		20.216450	11.424401	5.569875
49364		20.139626	11.390423	5.577520
49365		20.055816	11.362948	5.579648
49366		19.991950	11.335374	5.580273
49367		19.925003	11.307271	5.580956
49368		19.853574	11.286683	5.578673
49369		19.781913	11.266576	5.563581
49370		19.726765	11.240423	5.547490
49371		19.717002	11.208275	5.535312
49372		19.712137	11.171820	5.520864
49373		19.677798	11.134804	5.505933
49374		19.634425	11.100066	5.493705
49375		19.596595	11.064622	5.482692
49376		19.558207	11.031765	5.472762
49377		19.520899	10.999534	5.459410
49378		19.472461	10.968916	5.436588
49379		19.409224	10.938414	5.408623
49380		19.337919	10.910778	5.375625
49381		19.281859	10.884902	5.341401
49382		19.272653	10.861340	5.303530
49383		19.320499	10.836855	5.260361
49384		19.384594	10.809127	5.206064
49385		19.451290	10.774974	5.148667
49386		19.515403	10.729606	5.082395
49387		19.583761	10.679478	5.010135
49388		19.629202	10.623760	4.925443
49389		19.665676	10.562233	4.818147
49390		19.660443	10.504929	4.687779
49391		19.643804	10.450416	4.539887
49392		19.626181	10.399900	4.379777
49393		19.614265	10.345713	4.203280
49394		19.590756	10.287901	4.014362
49395		19.595071	10.229273	3.807928
49396		19.615106	10.169242	3.590414
49397		19.641340	10.103366	3.363751
49398		19.660632	10.036944	3.121213
49399		19.665736	9.965650	2.859693
49400		19.656964	9.892486	2.573966
49401		19.625785	9.820175	2.275036
49402		19.579123	9.755867	1.964580
49403		19.542449	9.686886	1.658980
49404		19.559412	9.613683	1.362132
49405		19.602178	9.528135	1.076793
49406		19.663860	9.441288	0.799344
49407		19.732166	9.345424	0.511250
49408		19.762673	9.257220	0.196119
49409		19.709752	9.173905	-0.153140
49410		19.603697	9.104438	-0.526544
49411		19.468802	9.044231	-0.907879
49412		19.346001	8.990708	-1.285059
49413		19.292157	8.933483	-1.639827
49414		19.324357	8.858652	-1.969176
49415		19.397086	8.766008	-2.278881
49416		19.518101	8.665316	-2.587050
49417		19.656467	8.556402	-2.903576
49418		19.767085	8.454981	-3.240954
49419		19.818240	8.366372	-3.603603
49420		19.824556	8.288589	-3.990867
49421		19.804094	8.215263	-4.399712
49422		19.770664	8.137472	-4.825774
49423		19.742915	8.059782	-5.262515
49424		19.765539	7.988941	-5.709152
49425		19.824922	7.922311	-6.189060
49426		19.834618	7.856225	-6.704905
49427		19.844638	7.798226	-7.241609
49428		19.867730	7.750889	-7.797499
49429		19.896700	7.705244	-8.368106
49430		19.951084	7.664150	-8.947595
49431		20.080524	7.613605	-9.520576
49432		20.272919	7.556219	-10.090245
49433		20.496847	7.500593	-10.662200
49434		20.714891	7.443369	-11.239597
49435		20.933657	7.392436	-11.822793
49436		21.126010	7.348126	-12.406949
49437		21.293929	7.305375	-12.988666
49438		21.434091	7.260656	-13.567150
49439		21.541812	7.207613	-14.139115
49440		21.630938	7.150397	-14.712098
49441		21.740119	7.091808	-15.298925
49442		21.803902	7.018960	-15.903459
49443		21.827637	6.939640	-16.523419
49444		21.836811	6.874522	-17.153727
49445		21.833411	6.821812	-17.783869
49446		21.858847	6.772769	-18.407412
49447		21.963672	6.711615	-19.023001
49448		22.105809	6.637113	-19.625178
49449		22.273374	6.557341	-20.224114
49450		22.467281	6.482543	-20.828304
49451		22.641028	6.401893	-21.433051
49452		22.758088	6.331177	-22.045609
49453		22.861904	6.280989	-22.669258
49454		22.959271	6.248464	-23.297934
49455		23.060086	6.225398	-23.924060
49456		23.203476	6.199125	-24.549713
49457		23.373385	6.161799	-25.163676
49458		23.544315	6.122507	-25.778507
49459		23.744302	6.090326	-26.395545
49460		23.929016	6.057162	-27.008271
49461		24.100013	6.033490	-27.617512
49462		24.225472	6.023072	-28.222909
49463		24.324830	6.026174	-28.829454
49464		24.443174	6.032475	-29.438963
49465		24.609496	6.037223	-30.049038
49466		24.743241	6.040001	-30.661295
49467		24.831057	6.049017	-31.271048
49468		24.901409	6.070696	-31.884059
49469		24.961664	6.101568	-32.495851
49470		25.027776	6.138206	-33.111324
49471		25.127683	6.171587	-33.725298
49472		25.239209	6.199157	-34.339018
49473		25.378163	6.229517	-34.952729
49474		25.545223	6.256941	-35.578123
49475		25.719268	6.282414	-36.210910
49476		25.860992	6.313844	-36.853716
49477		25.991574	6.352102	-37.507384
49478		26.109425	6.403655	-38.166752
49479		26.232656	6.463668	-38.829029
49480		26.398565	6.520095	-39.492005
49481		26.596085	6.565960	-40.157618
49482		26.788331	6.600699	-40.829150
49483		27.010889	6.628947	-41.518956
49484		27.228562	6.652676	-42.222182
49485		27.397247	6.683374	-42.927351
49486		27.529076	6.721465	-43.643796
49487		27.647869	6.768763	-44.365640
49488		27.773857	6.820845	-45.076069
49489		27.942671	6.862636	-45.781848
49490		28.141356	6.888846	-46.482307
49491		28.346307	6.910268	-47.173523
49492		28.560345	6.932835	-47.864500
49493		28.800411	6.944651	-48.555722
49494		29.011820	6.964895	-49.258398
49495		29.147000	6.995345	-49.978679
49496		29.211915	7.043973	-50.717855
49497		29.251537	7.096896	-51.469831
49498		29.315451	7.160417	-52.228899
49499		29.405636	7.224101	-52.978844
49500		29.539863	7.285432	-53.724351
49501		29.739963	7.337336	-54.465312
49502		29.996072	7.384933	-55.197989
49503		30.257271	7.426335	-55.921349
49504		30.525970	7.466714	-56.649849
49505		30.817569	7.508882	-57.393288
49506		31.074287	7.556203	-58.145945
49507		31.296358	7.605579	-58.900101
49508		31.497001	7.655878	-59.661140
49509		31.667048	7.699093	-60.418501
49510		31.837684	7.734421	-61.174734
49511		32.022014	7.761196	-61.918058
49512		32.242286	7.782354	-62.651822
49513		32.525546	7.790807	-63.378861
49514		32.828956	7.807180	-64.096067
49515		33.083533	7.827914	-64.803371
49516		33.254039	7.851065	-65.516500
49517		33.340295	7.862944	-66.237593
49518		33.311979	7.866015	-66.961606
49519		33.187291	7.861656	-67.689351
49520		32.984663	7.848686	-68.425310
49521		32.723020	7.834473	-69.159291
49522		32.451037	7.825208	-69.896053
49523		32.206301	7.801265	-70.637707
49524		31.929192	7.799503	-71.365914
49525		31.666609	7.780408	-72.096555
49526		31.448166	7.756719	-72.830355
49527		31.288580	7.714185	-73.556477
49528		31.226654	7.676541	-74.270830
49529		31.283706	7.633499	-74.967344
49530		31.432826	7.593547	-75.661003
49531		31.668380	7.549344	-76.357155
49532		31.978557	7.509624	-77.065034
49533		32.374194	7.473517	-77.794624
49534		32.866441	7.452649	-78.535207
49535		33.456167	7.449569	-79.284049
49536		34.066544	7.469759	-80.039293
49537		34.667971	7.516166	-80.813623
49538		35.271101	7.572098	-81.601711
49539		35.863345	7.637149	-82.372774
49540		36.453205	7.703800	-83.147466
49541		37.022157	7.762048	-83.906323
49542		37.549341	7.823852	-84.631959
49543		38.010702	7.890811	-85.317697
49544		38.377803	7.970823	-85.963765
49545		38.651848	8.047723	-86.584391
49546		38.730266	8.129003	-87.186291
49547		38.595567	8.201251	-87.775186
49548		38.293945	8.265184	-88.353762
49549		37.887180	8.319187	-88.903350
49550		37.445113	8.370044	-89.412230
49551		37.068702	8.431160	-89.873609
49552		36.801465	8.509078	-90.282696
49553		36.627709	8.597619	-90.677817
49554		36.450100	8.666537	-91.088682
49555		36.214770	8.745791	-91.501431
49556		35.944821	8.809575	-91.923220
49557		35.658487	8.859337	-92.335562
49558		35.316685	8.912561	-92.725892
49559		34.904667	8.975047	-93.090792
49560		34.511207	9.051192	-93.435398
49561		34.261140	9.136590	-93.752951
49562		34.150901	9.242987	-94.053493
49563		34.141280	9.352958	-94.386826
49564		34.143424	9.473568	-94.738599
49565		34.147683	9.606772	-95.085048
49566		34.197436	9.724038	-95.420479
49567		34.281634	9.832733	-95.741456
49568		34.385953	9.935698	-96.046702
49569		34.500145	10.048829	-96.329137
49570		34.612471	10.168271	-96.608484
49571		34.708775	10.285587	-96.893094
49572		34.766016	10.419865	-97.189556
49573		34.799211	10.555363	-97.489562
49574		34.803166	10.683512	-97.778589
49575		34.781072	10.792458	-98.065446
49576		34.764700	10.881799	-98.335060
49577		34.759390	10.963738	-98.568399
49578		34.780024	11.043980	-98.791326
49579		34.818547	11.121343	-99.007026
49580		34.841469	11.201187	-99.219341
49581		34.858534	11.268903	-99.438113
49582		34.870823	11.329782	-99.654939
49583		34.925352	11.380007	-99.866206
49584		35.046154	11.427667	-100.065097
49585		35.214635	11.475591	-100.256924
49586		35.419242	11.536002	-100.442984
49587		35.644939	11.604235	-100.637965
49588		35.823798	11.668934	-100.838454
49589		35.929831	11.735088	-101.037351
49590		35.992820	11.805800	-101.240852
49591		36.092343	11.874694	-101.438730
49592		36.259441	11.931557	-101.627846
49593		36.496389	11.977899	-101.808622
49594		36.751301	12.024034	-101.982370
49595		37.027875	12.064457	-102.162937
49596		37.286984	12.102457	-102.342082
49597		37.524502	12.155037	-102.516535
49598		37.787732	12.224730	-102.684685
49599		38.155531	12.304075	-102.861398
49600		38.668352	12.384499	-103.030205
49601		39.253163	12.479213	-103.169995
49602		39.836891	12.600716	-103.276261
49603		40.414903	12.735715	-103.369244
49604		40.991452	12.855654	-103.454308
49605		41.499305	12.969881	-103.523647
49606		41.886186	13.095041	-103.602593
49607		42.147406	13.224756	-103.697251
49608		42.307545	13.356300	-103.796822
49609		42.362958	13.491384	-103.897888
49610		42.355613	13.617972	-103.991573
49611		42.302081	13.724003	-104.080930
49612		42.203093	13.816420	-104.154678
49613		42.070738	13.892022	-104.231518
49614		41.935090	13.952911	-104.305902
49615		41.856057	14.006573	-104.374548
49616		41.864224	14.052575	-104.430271
49617		41.926877	14.089318	-104.487617
49618		41.994958	14.131532	-104.540068
49619		42.043000	14.175366	-104.592287
49620		42.080016	14.217613	-104.651595
49621		42.091150	14.248398	-104.709965
49622		42.062451	14.273016	-104.754143
49623		42.031451	14.290885	-104.795040
49624		42.030967	14.305804	-104.825186
49625		42.065423	14.317496	-104.859576
49626		42.089340	14.334663	-104.900132
49627		42.074376	14.365434	-104.944395
49628		42.066735	14.396920	-104.993683
49629		42.111083	14.428702	-105.040581
49630		42.196026	14.453936	-105.096708
49631		42.303395	14.469527	-105.153226
49632		42.400465	14.478919	-105.210743
49633		42.476096	14.490047	-105.271785
49634		42.550732	14.499107	-105.328105
49635		42.622607	14.505269	-105.375652
49636		42.703356	14.505556	-105.424106
49637		42.773141	14.494797	-105.480718
49638		42.810634	14.482855	-105.534808
49639		42.815437	14.472114	-105.578905
49640		42.799814	14.466767	-105.603057
49641		42.749755	14.466463	-105.629809
49642		42.676194	14.467313	-105.655781
49643		42.597281	14.467564	-105.681537
49644		42.527463	14.466594	-105.705031
49645		42.487693	14.456379	-105.721091
49646		42.455043	14.441902	-105.731785
49647		42.453703	14.430479	-105.740189
49648		42.490344	14.421014	-105.750303
49649		42.561811	14.421492	-105.761473
49650		42.625850	14.432630	-105.773002
49651		42.640448	14.450885	-105.786476
49652		42.620237	14.473856	-105.796321
49653		42.602328	14.494545	-105.812189
49654		42.608362	14.502666	-105.834618
49655		42.645310	14.501048	-105.848301
49656		42.687375	14.495237	-105.852775
49657		42.718609	14.483615	-105.846538
49658		42.738022	14.469962	-105.827564
49659		42.760721	14.466507	-105.807155
49660		42.819553	14.461444	-105.782427
49661		42.822072	14.456388	-105.748414
49662		42.740744	14.456186	-105.709653
49663		42.650230	14.448157	-105.663667
49664		42.601442	14.435993	-105.610155
49665		42.593210	14.410197	-105.551623
49666		42.615360	14.384040	-105.484609
49667		42.648238	14.355499	-105.415391
49668		42.669977	14.326729	-105.345296
49669		42.702702	14.294275	-105.272196
49670		42.712815	14.255753	-105.202613
49671		42.691366	14.219642	-105.124979
49672		42.653222	14.178349	-105.042716
49673		42.593124	14.134847	-104.951455
49674		42.533081	14.086276	-104.853738
49675		42.486250	14.028436	-104.743333
49676		42.441843	13.969442	-104.616482
49677		42.393871	13.903402	-104.484939
49678		42.326444	13.834822	-104.350395
49679		42.234816	13.771046	-104.221747
49680		42.143338	13.704024	-104.089984
49681		42.053567	13.631949	-103.963923
49682		41.970525	13.568740	-103.831477
49683		41.932318	13.506779	-103.693051
49684		41.936660	13.438036	-103.552349
49685		41.952765	13.374345	-103.411881
49686		42.000393	13.315987	-103.265061
49687		42.066979	13.251306	-103.120468
49688		42.142830	13.186795	-102.965430
49689		42.212316	13.124322	-102.802904
49690		42.276670	13.058948	-102.636014
49691		42.326626	12.991529	-102.463699
49692		42.353963	12.921851	-102.287929
49693		42.369275	12.858654	-102.110385
49694		42.384773	12.801221	-101.926661
49695		42.382133	12.751684	-101.741012
49696		42.382309	12.701946	-101.552206
49697		42.400033	12.651635	-101.357926
49698		42.445569	12.598986	-101.156983
49699		42.509816	12.546742	-100.947780
49700		42.605961	12.489244	-100.733519
49701		42.722494	12.433153	-100.515694
49702		42.849620	12.379028	-100.283132
49703		42.951784	12.333273	-100.034010
49704		43.023602	12.289283	-99.769475
49705		43.079845	12.246529	-99.480025
49706		43.133336	12.197004	-99.172750
49707		43.159116	12.149542	-98.831449
49708		43.149471	12.105253	-98.475847
49709		43.098748	12.058846	-98.117113
49710		43.015034	12.021420	-97.754593
49711		42.886707	11.989047	-97.405120
49712		42.721603	11.966215	-97.067743
49713		42.538278	11.956353	-96.739127
49714		42.394477	11.963426	-96.422451
49715		42.316250	11.972896	-96.100320
49716		42.289643	11.994627	-95.757775
49717		42.315257	12.023973	-95.407266
49718		42.387369	12.048122	-95.052868
49719		42.466927	12.076407	-94.682129
49720		42.544003	12.102570	-94.305189
49721		42.614952	12.125684	-93.926755
49722		42.704091	12.154603	-93.540229
49723		42.769961	12.193707	-93.138373
49724		42.834633	12.245868	-92.726198
49725		42.879460	12.295864	-92.307471
49726		42.925319	12.357570	-91.873455
49727		42.975448	12.418936	-91.435674
49728		43.033046	12.490215	-90.983484
49729		43.122704	12.576127	-90.528470
49730		43.222643	12.651036	-90.074513
49731		43.291295	12.718545	-89.627114
49732		43.329491	12.778886	-89.187871
49733		43.362882	12.842619	-88.743824
49734		43.418101	12.918661	-88.270533
49735		43.513322	13.012736	-87.761539
49736		43.666447	13.099208	-87.248904
49737		43.838392	13.183768	-86.728154
49738		43.992011	13.270611	-86.198088
49739		44.113565	13.355949	-85.660165
49740		44.231110	13.441322	-85.120822
49741		44.369147	13.536569	-84.569362
49742		44.546369	13.633040	-84.003430
49743		44.721773	13.732620	-83.427854
49744		44.876910	13.819449	-82.864079
49745		44.994824	13.903430	-82.297052
49746		45.070499	13.985608	-81.731850
49747		45.094581	14.058874	-81.168038
49748		45.106923	14.132484	-80.601999
49749		45.144917	14.202206	-80.038498
49750		45.183315	14.264608	-79.463998
49751		45.220794	14.329992	-78.881416
49752		45.258003	14.381800	-78.297027
49753		45.298950	14.434318	-77.698690
49754		45.375556	14.480191	-77.089639
49755		45.513232	14.508521	-76.472876
49756		45.723304	14.526217	-75.847995
49757		45.978332	14.538808	-75.218739
49758		46.242089	14.537049	-74.607558
49759		46.440747	14.515516	-74.033179
49760		46.553339	14.476020	-73.478899
49761		46.601701	14.414550	-72.930878
49762		46.638775	14.329290	-72.384131
49763		46.712176	14.229072	-71.828426
49764		46.848548	14.118055	-71.238422
49765		47.040378	14.000922	-70.619786
49766		47.251215	13.868079	-69.996916
49767		47.404335	13.734491	-69.382009
49768		47.480371	13.592281	-68.772263
49769		47.500424	13.444441	-68.165670
49770		47.505868	13.288515	-67.551060
49771		47.482801	13.129151	-66.933050
49772		47.457571	12.966520	-66.301707
49773		47.389441	12.799948	-65.657958
49774		47.281416	12.633230	-65.021566
49775		47.115540	12.465562	-64.389626
49776		46.894382	12.294332	-63.761927
49777		46.571070	12.114095	-63.150481
49778		46.099628	11.926909	-62.527417
49779		45.477536	11.734110	-61.883071
49780		44.716073	11.518406	-61.200985
49781		43.670995	11.289680	-60.419539
49782		42.251544	11.092279	-59.488385
49783		41.048704	10.869295	-58.609074
49784		40.104721	10.572376	-57.754007
49785		39.229290	10.320944	-56.864372
49786		38.395479	10.102002	-55.993254
49787		37.649111	9.926006	-55.158918
49788		37.052027	9.765595	-54.354346
49789		36.631617	9.614427	-53.580628
49790		36.379819	9.483646	-52.823004
49791		36.244237	9.371060	-52.069579
49792		36.228128	9.274091	-51.324185
49793		36.308661	9.188974	-50.606570
49794		36.447718	9.114581	-49.898794
49795		36.601532	9.055240	-49.208078
49796		36.728653	9.013386	-48.533550
49797		36.781388	8.971202	-47.864623
49798		36.775391	8.924639	-47.189812
49799		36.733877	8.872218	-46.497024
49800		36.695908	8.814734	-45.776577
49801		36.693780	8.749500	-45.035375
49802		36.713058	8.682569	-44.281030
49803		36.691396	8.619215	-43.526522
49804		36.587381	8.567095	-42.780088
49805		36.395389	8.518684	-42.044377
49806		36.126632	8.485307	-41.313341
49807		35.807687	8.454327	-40.584846
49808		35.480657	8.429924	-39.854114
49809		35.166897	8.422385	-39.108683
49810		34.943078	8.417953	-38.358409
49811		34.781925	8.407772	-37.617685
49812		34.632577	8.402507	-36.888541
49813		34.429233	8.403247	-36.178143
49814		34.165725	8.409790	-35.479815
49815		33.836051	8.424107	-34.773156
49816		33.502679	8.452773	-34.040946
49817		33.240774	8.475738	-33.294886
49818		33.020698	8.478603	-32.543937
49819		32.774703	8.465646	-31.779045
49820		32.486336	8.444410	-31.001896
49821		32.135731	8.431636	-30.209852
49822		31.802501	8.434511	-29.403601
49823		31.561027	8.424201	-28.605806
49824		31.424791	8.397884	-27.820725
49825		31.324059	8.353885	-27.058833
49826		31.270194	8.299873	-26.321490
49827		31.212589	8.241681	-25.594573
49828		31.126592	8.207307	-24.856095
49829		31.002930	8.201238	-24.100094
49830		30.951760	8.211935	-23.326665
49831		31.000868	8.203813	-22.548269
49832		31.123992	8.180773	-21.757836
49833		31.263403	8.138251	-20.992459
49834		31.406850	8.096136	-20.257238
49835		31.566251	8.048499	-19.545169
49836		31.655572	8.011004	-18.839567
49837		31.555034	7.997739	-18.137874
49838		31.281982	8.021089	-17.434249
49839		30.993379	8.050101	-16.738340
49840		30.778524	8.052112	-16.049992
49841		30.557370	8.044914	-15.365596
49842		30.326413	8.037035	-14.706131
49843		30.066064	8.029955	-14.070612
49844		29.799987	8.029598	-13.451758
49845		29.497480	8.046543	-12.838589
49846		29.162080	8.085650	-12.228362
49847		28.823256	8.134965	-11.635027
49848		28.548485	8.177084	-11.059208
49849		28.312714	8.209023	-10.493790
49850		28.141973	8.240899	-9.949003
49851		28.006735	8.268096	-9.409923
49852		27.888580	8.309418	-8.875949
49853		27.751896	8.359306	-8.344702
49854		27.637346	8.404588	-7.832180
49855		27.499812	8.427956	-7.341512
49856		27.318284	8.453722	-6.855265
49857		27.132322	8.476432	-6.379672
49858		26.955674	8.500752	-5.914271
49859		26.769011	8.528013	-5.462637
49860		26.594289	8.563634	-5.024483
49861		26.429581	8.607844	-4.601201
49862		26.261918	8.657896	-4.188855
49863		26.092651	8.708122	-3.783943
49864		25.955501	8.756730	-3.386692
49865		25.865493	8.784178	-3.011047
49866		25.794012	8.808413	-2.649405
49867		25.732741	8.842540	-2.299772
49868		25.629906	8.881144	-1.965052
49869		25.447893	8.924200	-1.650148
49870		25.187520	8.972302	-1.350998
49871		24.866829	9.018862	-1.059529
49872		24.528168	9.061807	-0.772613
49873		24.214208	9.101975	-0.493196
49874		23.925634	9.136874	-0.232933
49875		23.677637	9.170125	0.000180
49876		23.444132	9.207806	0.200331
49877		23.216065	9.255538	0.362835
49878		22.958032	9.313476	0.477849
49879		22.646384	9.373783	0.551458
49880		22.294104	9.441231	0.598518
49881		21.931724	9.506478	0.632561
49882		21.626831	9.571489	0.681404
49883		21.420526	9.625856	0.749820
49884		21.317395	9.669995	0.836813
49885		21.264611	9.706941	0.934380
49886		21.235236	9.734354	1.040241
49887		21.259583	9.757504	1.157510
49888		21.320343	9.767619	1.281501
49889		21.369558	9.764591	1.406421
49890		21.398780	9.755214	1.520099
49891		21.407296	9.744137	1.619332
49892		21.390646	9.731834	1.700596
49893		21.391186	9.726588	1.764083
49894		21.397310	9.725188	1.811066
49895		21.405487	9.725377	1.838120
49896		21.406774	9.740740	1.852263
49897		21.402286	9.760522	1.855466
49898		21.422273	9.781227	1.853686
49899		21.448750	9.796235	1.846271
49900		21.478891	9.812161	1.832769
49901		21.497933	9.821482	1.809808
49902		21.480591	9.830030	1.778938
49903		21.430971	9.840642	1.744740
49904		21.371722	9.852094	1.715097
49905		21.319379	9.857537	1.697987
49906		21.283750	9.864532	1.687301
49907		21.267843	9.868619	1.681959
49908		21.280164	9.864916	1.678060
49909		21.294636	9.858565	1.673892
49910		21.314631	9.853696	1.667127
49911		21.328568	9.843440	1.658629
49912		21.330923	9.831838	1.644228
49913		21.326675	9.820531	1.615637
49914		21.313905	9.810580	1.583774
49915		21.304733	9.803303	1.554034
49916		21.290326	9.798295	1.529078
49917		21.275533	9.791886	1.505545
49918		21.261136	9.790552	1.480196
49919		21.234287	9.789608	1.451568
49920		21.199525	9.791852	1.414067
49921		21.169451	9.795298	1.372419
49922		21.128310	9.801593	1.326390
49923		21.091874	9.805387	1.276614
49924		21.053623	9.807825	1.228379
49925		21.030046	9.806718	1.180736
49926		20.999565	9.801697	1.134438
49927		20.977335	9.793938	1.089353
49928		20.953689	9.783863	1.040763
49929		20.932767	9.773652	0.989269
49930		20.930317	9.764479	0.926408
49931		20.923598	9.752906	0.851342
49932		20.898323	9.746769	0.765239
49933		20.874509	9.745423	0.672465
49934		20.866001	9.742780	0.574407
49935		20.871250	9.740377	0.475852
49936		20.887043	9.747592	0.373664
49937		20.931556	9.752281	0.269121
49938		20.988276	9.759550	0.167195
49939		21.088543	9.765684	0.069374
49940		21.218050	9.764054	-0.029341
49941		21.320567	9.756844	-0.142261
49942		21.353720	9.749999	-0.268066
49943		21.352732	9.748488	-0.404791
49944		21.343090	9.751126	-0.541654
49945		21.355547	9.754272	-0.682765
49946		21.387796	9.755718	-0.826593
49947		21.417177	9.760640	-0.978161
49948		21.448831	9.766609	-1.144482
49949		21.479797	9.771467	-1.327402
49950		21.491785	9.782170	-1.526344
49951		21.493075	9.795016	-1.744880
49952		21.483751	9.803768	-1.978016
49953		21.497200	9.812501	-2.221390
49954		21.533459	9.820923	-2.476990
49955		21.576658	9.823775	-2.741881
49956		21.636953	9.830829	-3.006537
49957		21.725827	9.835144	-3.272530
49958		21.813230	9.827764	-3.544988
49959		21.881329	9.815579	-3.821415
49960		21.957748	9.806546	-4.105558
49961		22.048329	9.795380	-4.399198
49962		22.131949	9.784671	-4.712948
49963		22.195611	9.772531	-5.036775
49964		22.252584	9.770209	-5.364964
49965		22.338319	9.765708	-5.689665
49966		22.436680	9.752930	-6.012302
49967		22.525063	9.738953	-6.340508
49968		22.584095	9.725671	-6.674790
49969		22.618690	9.709163	-7.017207
49970		22.657590	9.695972	-7.367628
49971		22.696077	9.675008	-7.723820
49972		22.728426	9.657423	-8.097263
49973		22.758277	9.633287	-8.499252
49974		22.768155	9.605621	-8.930802
49975		22.764388	9.579786	-9.375286
49976		22.772812	9.562604	-9.821479
49977		22.812005	9.545224	-10.258758
49978		22.883325	9.517835	-10.686662
49979		22.982429	9.479515	-11.103262
49980		23.075706	9.434475	-11.512344
49981		23.173930	9.398134	-11.916677
49982		23.257006	9.367368	-12.331092
49983		23.320796	9.341313	-12.761812
49984		23.366885	9.319318	-13.222964
49985		23.418249	9.300505	-13.705042
49986		23.478027	9.287953	-14.204707
49987		23.577492	9.272756	-14.709298
49988		23.726467	9.250910	-15.214629
49989		23.920030	9.221873	-15.716823
49990		24.101577	9.190802	-16.218689
49991		24.268744	9.157178	-16.725369
49992		24.402838	9.125037	-17.237587
49993		24.507459	9.094197	-17.756813
49994		24.585581	9.072190	-18.288467
49995		24.659663	9.054406	-18.830702
49996		24.724815	9.035172	-19.390650
49997		24.776977	9.010085	-19.958695
49998		24.835203	8.982863	-20.535310
49999		24.918049	8.949264	-21.116038
50000		25.010986	8.911106	-21.703019
50001		25.118600	8.873602	-22.291571
50002		25.241027	8.831345	-22.884965
50003		25.374657	8.785525	-23.483522
50004		25.470609	8.730655	-24.098693
50005		25.556600	8.680769	-24.722061
50006		25.618824	8.634061	-25.351441
50007		25.675959	8.592639	-25.980352
50008		25.750843	8.549026	-26.611917
50009		25.881554	8.503529	-27.242772
50010		26.061683	8.453048	-27.871098
50011		26.285716	8.396151	-28.498136
50012		26.496895	8.336970	-29.131619
50013		26.680726	8.280810	-29.765518
50014		26.846318	8.223839	-30.401801
50015		27.022142	8.168416	-31.037949
50016		27.228936	8.112357	-31.675625
50017		27.466744	8.052923	-32.316540
50018		27.715085	7.989427	-32.971972
50019		27.938409	7.924208	-33.639694
50020		28.106095	7.862121	-34.318199
50021		28.238603	7.816591	-34.995147
50022		28.367162	7.787211	-35.669336
50023		28.540053	7.756970	-36.334501
50024		28.777957	7.719349	-36.993115
50025		29.084420	7.673030	-37.637473
50026		29.416567	7.622168	-38.276950
50027		29.738257	7.573284	-38.922084
50028		30.015336	7.531955	-39.570576
50029		30.268669	7.495719	-40.225876
50030		30.479512	7.464694	-40.888355
50031		30.659390	7.438712	-41.553640
50032		30.824382	7.413687	-42.217866
50033		31.007991	7.400386	-42.881019
50034		31.243007	7.388477	-43.542083
50035		31.510876	7.380038	-44.207587
50036		31.764147	7.388449	-44.888045
50037		31.977970	7.406154	-45.584629
50038		32.151854	7.436531	-46.289940
50039		32.300235	7.475739	-46.989963
50040		32.439910	7.522583	-47.676472
50041		32.622289	7.570969	-48.356299
50042		32.876981	7.616295	-49.032667
50043		33.166511	7.657911	-49.696438
50044		33.435645	7.693572	-50.360157
50045		33.670196	7.730075	-51.030233
50046		33.817798	7.774468	-51.698541
50047		33.906813	7.832616	-52.366391
50048		33.976079	7.891633	-53.041592
50049		34.034770	7.957098	-53.717669
50050		34.109194	8.017234	-54.406511
50051		34.192657	8.077001	-55.105451
50052		34.270658	8.153588	-55.820223
50053		34.360207	8.232920	-56.546577
50054		34.438198	8.321269	-57.277440
50055		34.550372	8.409179	-58.012473
50056		34.707487	8.492826	-58.749343
50057		34.903915	8.570247	-59.488366
50058		35.098081	8.648792	-60.233522
50059		35.296450	8.726807	-60.988139
50060		35.480358	8.807658	-61.743392
50061		35.661013	8.890625	-62.493409
50062		35.820283	8.976374	-63.233050
50063		35.955698	9.058968	-63.961137
50064		36.108910	9.130717	-64.687498
50065		36.269982	9.185718	-65.408701
50066		36.363571	9.239453	-66.112518
50067		36.371363	9.304877	-66.799925
50068		36.358577	9.373700	-67.486606
50069		36.303797	9.445771	-68.150671
50070		36.216023	9.530829	-68.805524
50071		36.144460	9.611257	-69.464688
50072		36.135001	9.692657	-70.104190
50073		36.200289	9.766972	-70.728475
50074		36.364303	9.835013	-71.359115
50075		36.587963	9.898718	-71.987148
50076		36.813831	9.973579	-72.613559
50077		37.044261	10.048676	-73.239602
50078		37.256204	10.124689	-73.849011
50079		37.456939	10.198495	-74.441729
50080		37.715449	10.268320	-75.020361
50081		38.061820	10.328109	-75.589546
50082		38.495204	10.372835	-76.177126
50083		38.906653	10.427333	-76.763307
50084		39.263998	10.507747	-77.346547
50085		39.620102	10.586364	-77.927349
50086		39.971523	10.662034	-78.500670
50087		40.337494	10.730318	-79.062582
50088		40.729651	10.790760	-79.602670
50089		41.176742	10.841045	-80.140400
50090		41.656426	10.886182	-80.678314
50091		42.127416	10.946785	-81.219368
50092		42.548219	11.032817	-81.759041
50093		42.922090	11.139322	-82.293682
50094		43.289063	11.255041	-82.813912
50095		43.674447	11.358804	-83.317464
50096		44.073421	11.453632	-83.790445
50097		44.489898	11.538781	-84.251452
50098		44.909418	11.620546	-84.703311
50099		45.291470	11.706335	-85.149073
50100		45.581621	11.809779	-85.590136
50101		45.775431	11.933027	-86.027702
50102		45.917611	12.067184	-86.462358
50103		46.031540	12.197465	-86.888162
50104		46.092268	12.322119	-87.299652
50105		46.069455	12.439655	-87.686597
50106		45.981076	12.547814	-88.056483
50107		45.855791	12.645624	-88.416563
50108		45.728986	12.737021	-88.755126
50109		45.625650	12.831109	-89.081998
50110		45.555593	12.928383	-89.413835
50111		45.504052	13.027095	-89.757989
50112		45.456577	13.135229	-90.106816
50113		45.406276	13.237186	-90.438641
50114		45.375386	13.321046	-90.761005
50115		45.346391	13.381657	-91.068251
50116		45.328217	13.427795	-91.360002
50117		45.324999	13.455900	-91.630026
50118		45.323452	13.472218	-91.886293
50119		45.328728	13.481224	-92.139341
50120		45.333265	13.497971	-92.384284
50121		45.324045	13.523889	-92.643757
50122		45.278044	13.556573	-92.916016
50123		45.200042	13.598349	-93.187494
50124		45.101310	13.637870	-93.453611
50125		45.009082	13.676831	-93.704590
50126		44.949258	13.710856	-93.947261
50127		44.940821	13.739719	-94.182187
50128		44.984719	13.772361	-94.416682
50129		45.045429	13.811535	-94.647779
50130		45.056764	13.857468	-94.874364
50131		45.024886	13.917802	-95.091886
50132		44.995372	13.974615	-95.311846
50133		44.976243	14.022606	-95.523927
50134		44.958327	14.070200	-95.727174
50135		44.931310	14.117420	-95.927290
50136		44.890310	14.169385	-96.128854
50137		44.822705	14.227428	-96.333408
50138		44.733468	14.286928	-96.541563
50139		44.652729	14.345291	-96.748946
50140		44.617928	14.400707	-96.948269
50141		44.657335	14.453780	-97.139386
50142		44.761531	14.503562	-97.323991
50143		44.902745	14.543794	-97.505088
50144		45.012782	14.575879	-97.668668
50145		45.046249	14.605450	-97.821577
50146		44.993990	14.627784	-97.975542
50147		44.891332	14.644260	-98.127116
50148		44.755279	14.645629	-98.284476
50149		44.604465	14.648617	-98.439330
50150		44.446731	14.662542	-98.593975
50151		44.320266	14.686605	-98.755123
50152		44.230133	14.717582	-98.924042
50153		44.200047	14.757109	-99.098912
50154		44.244534	14.793060	-99.271079
50155		44.331241	14.826865	-99.428082
50156		44.427009	14.846996	-99.575729
50157		44.511203	14.851808	-99.706933
50158		44.590618	14.853561	-99.820754
50159		44.679411	14.842015	-99.931894
50160		44.750455	14.823192	-100.041068
50161		44.778341	14.812134	-100.149120
50162		44.750997	14.804233	-100.268187
50163		44.677377	14.813142	-100.393231
50164		44.591509	14.838118	-100.511714
50165		44.523914	14.870678	-100.627718
50166		44.487451	14.907267	-100.739300
50167		44.494262	14.944974	-100.847260
50168		44.535784	14.979249	-100.952845
50169		44.588356	15.010035	-101.052095
50170		44.644568	15.040840	-101.150356
50171		44.706975	15.064609	-101.253894
50172		44.782697	15.088535	-101.342131
50173		44.872133	15.108581	-101.415725
50174		44.989360	15.119752	-101.478437
50175		45.150590	15.123021	-101.529618
50176		45.344717	15.122116	-101.568715
50177		45.527054	15.122927	-101.589847
50178		45.663682	15.130386	-101.591046
50179		45.727801	15.130963	-101.570993
50180		45.737923	15.128979	-101.532451
50181		45.726583	15.120314	-101.494705
50182		45.705212	15.109519	-101.464396
50183		45.635090	15.102927	-101.443017
50184		45.493407	15.113735	-101.438015
50185		45.324000	15.138692	-101.441198
50186		45.179727	15.178201	-101.460202
50187		45.096108	15.229337	-101.485450
50188		45.092162	15.283998	-101.503192
50189		45.165331	15.337886	-101.502583
50190		45.302049	15.378572	-101.492123
50191		45.475137	15.399911	-101.482289
50192		45.675478	15.407182	-101.473159
50193		45.889037	15.401977	-101.460843
50194		46.114526	15.388236	-101.453292
50195		46.311081	15.376951	-101.449120
50196		46.420750	15.377998	-101.449750
50197		46.449126	15.380304	-101.457945
50198		46.403113	15.386988	-101.477231
50199		46.346007	15.399895	-101.491830
50200		46.294974	15.408293	-101.500514
50201		46.245756	15.416288	-101.506144
50202		46.183482	15.431822	-101.513111
50203		46.146101	15.453697	-101.519918
50204		46.127350	15.478387	-101.524454
50205		46.104704	15.506478	-101.528091
50206		46.081098	15.532389	-101.530053
50207		46.079035	15.553440	-101.526115
50208		46.089359	15.563994	-101.515396
50209		46.096127	15.571216	-101.509509
50210		46.137847	15.571457	-101.504873
50211		46.184266	15.572359	-101.501226
50212		46.210248	15.579959	-101.493399
50213		46.221321	15.591971	-101.480689
50214		46.231226	15.603108	-101.467024
50215		46.239303	15.612726	-101.453729
50216		46.224014	15.619181	-101.437833
50217		46.195490	15.619301	-101.427213
50218		46.156563	15.618455	-101.409977
50219		46.122143	15.618725	-101.384794
50220		46.108072	15.611772	-101.361208
50221		46.105717	15.605439	-101.339627
50222		46.109868	15.606400	-101.316305
50223		46.123792	15.608494	-101.293955
50224		46.144548	15.612013	-101.269391
50225		46.160692	15.620934	-101.240804
50226		46.165800	15.632939	-101.207740
50227		46.162648	15.647216	-101.170668
50228		46.157436	15.658181	-101.135817
50229		46.153905	15.667559	-101.101380
50230		46.141804	15.677130	-101.063887
50231		46.122992	15.678769	-101.024508
50232		46.114211	15.673055	-100.979652
50233		46.124618	15.658217	-100.930426
50234		46.142376	15.627049	-100.881823
50235		46.163979	15.595432	-100.832081
50236		46.190520	15.558268	-100.782186
50237		46.214577	15.516993	-100.728863
50238		46.211610	15.476270	-100.678857
50239		46.189333	15.437971	-100.626144
50240		46.163891	15.398793	-100.569536
50241		46.124521	15.359486	-100.507867
50242		46.089966	15.321581	-100.441083
50243		46.072808	15.283472	-100.371321
50244		46.066335	15.246501	-100.295144
50245		46.062561	15.210774	-100.218003
50246		46.068120	15.183339	-100.134240
50247		46.109249	15.154056	-100.046552
50248		46.154320	15.123772	-99.956907
50249		46.167930	15.097986	-99.867863
50250		46.160715	15.073636	-99.775345
50251		46.142073	15.044377	-99.674674
50252		46.110441	15.010645	-99.567798
50253		46.094426	14.971980	-99.448229
50254		46.088235	14.927595	-99.315733
50255		46.060856	14.881014	-99.168743
50256		46.044138	14.825049	-99.008313
50257		46.033318	14.761679	-98.838357
50258		46.035120	14.689612	-98.651523
50259		46.039130	14.613382	-98.458323
50260		46.036565	14.531391	-98.258384
50261		46.018154	14.447974	-98.056498
50262		45.991448	14.360695	-97.858360
50263		45.959621	14.277959	-97.658420
50264		45.938489	14.204462	-97.463684
50265		45.912077	14.137788	-97.278848
50266		45.885945	14.083083	-97.091482
50267		45.852268	14.046317	-96.902116
50268		45.823912	14.018736	-96.712232
50269		45.790218	14.000812	-96.517362
50270		45.756019	13.988414	-96.314333
50271		45.728693	13.979628	-96.106938
50272		45.711025	13.973794	-95.894327
50273		45.695494	13.969140	-95.666540
50274		45.681052	13.960363	-95.424158
50275		45.663135	13.939899	-95.176304
50276		45.635800	13.910648	-94.918144
50277		45.589729	13.882180	-94.647598
50278		45.534597	13.848293	-94.365479
50279		45.461552	13.813999	-94.076904
50280		45.370586	13.788726	-93.774914
50281		45.277248	13.768169	-93.468266
50282		45.186983	13.741678	-93.162507
50283		45.090201	13.715788	-92.856498
50284		44.998569	13.686400	-92.551518
50285		44.945484	13.653682	-92.241483
50286		44.945177	13.616009	-91.924203
50287		44.968476	13.582165	-91.593492
50288		45.015408	13.545473	-91.263789
50289		45.065986	13.504878	-90.928057
50290		45.106392	13.465401	-90.588693
50291		45.120835	13.429997	-90.249155
50292		45.089469	13.405662	-89.902761
50293		45.011264	13.396607	-89.555489
50294		44.899220	13.382250	-89.212228
50295		44.784059	13.367099	-88.858406
50296		44.711505	13.350182	-88.489978
50297		44.724582	13.325076	-88.104818
50298		44.832476	13.287710	-87.696084
50299		45.002079	13.255879	-87.264194
50300		45.195059	13.218607	-86.826285
50301		45.335888	13.179704	-86.389281
50302		45.403341	13.157528	-85.950142
50303		45.434108	13.138895	-85.515045
50304		45.467179	13.126422	-85.081704
50305		45.514634	13.123805	-84.646571
50306		45.587937	13.120040	-84.216883
50307		45.679995	13.122310	-83.794892
50308		45.792466	13.133748	-83.370250
50309		45.905814	13.150279	-82.926459
50310		46.028743	13.173808	-82.453094
50311		46.162992	13.178675	-81.982897
50312		46.274955	13.181648	-81.501092
50313		46.341529	13.186539	-81.017266
50314		46.356267	13.189910	-80.537062
50315		46.311902	13.198254	-80.060030
50316		46.207290	13.217210	-79.575734
50317		46.050955	13.247054	-79.076061
50318		45.854661	13.278853	-78.557693
50319		45.627694	13.301470	-78.035073
50320		45.375075	13.314115	-77.501216
50321		45.102017	13.326129	-76.955191
50322		44.827126	13.328295	-76.397362
50323		44.551107	13.324912	-75.828926
50324		44.300770	13.307975	-75.253651
50325		44.066501	13.286465	-74.658017
50326		43.867665	13.247539	-74.056095
50327		43.686983	13.185283	-73.460732
50328		43.527176	13.113798	-72.865593
50329		43.374585	13.042175	-72.265575
50330		43.237242	12.966285	-71.665917
50331		43.087446	12.897248	-71.063924
50332		42.940195	12.834618	-70.451433
50333		42.814223	12.763328	-69.847052
50334		42.720674	12.688971	-69.241763
50335		42.666619	12.611954	-68.639632
50336		42.673738	12.529119	-68.037871
50337		42.724882	12.444585	-67.432657
50338		42.818656	12.358338	-66.813770
50339		42.947804	12.280112	-66.184729
50340		43.093795	12.203859	-65.560838
50341		43.206948	12.125409	-64.944871
50342		43.263106	12.047375	-64.342352
50343		43.240791	11.977343	-63.743877
50344		43.178323	11.911184	-63.145383
50345		43.108230	11.844936	-62.547660
50346		43.077471	11.781350	-61.944345
50347		43.064824	11.719652	-61.343374
50348		43.069771	11.656312	-60.732379
50349		43.093132	11.598383	-60.114580
50350		43.139095	11.536200	-59.499589
50351		43.170035	11.481404	-58.879917
50352		43.161071	11.435256	-58.256136
50353		43.113105	11.398410	-57.635556
50354		43.014365	11.364404	-57.012182
50355		42.869764	11.331493	-56.384590
50356		42.706087	11.303251	-55.750054
50357		42.554566	11.273822	-55.116409
50358		42.418512	11.243846	-54.478125
50359		42.285192	11.218958	-53.842898
50360		42.160892	11.200517	-53.199237
50361		42.054205	11.189482	-52.548268
50362		41.954210	11.182051	-51.899997
50363		41.825972	11.181712	-51.246159
50364		41.664369	11.181740	-50.587906
50365		41.486486	11.178560	-49.920236
50366		41.317508	11.170292	-49.240676
50367		41.190528	11.154959	-48.553345
50368		41.098100	11.127665	-47.867275
50369		40.986138	11.100990	-47.190182
50370		40.809732	11.075911	-46.535383
50371		40.557601	11.062737	-45.907337
50372		40.244299	11.064722	-45.278544
50373		39.925795	11.066745	-44.649102
50374		39.618606	11.067774	-44.005315
50375		39.326789	11.066938	-43.339857
50376		39.081810	11.053068	-42.655389
50377		38.883324	11.020846	-41.956826
50378		38.734509	10.966543	-41.243613
50379		38.605404	10.899675	-40.524202
50380		38.470279	10.825835	-39.804840
50381		38.294686	10.747152	-39.088581
50382		38.089814	10.668499	-38.371605
50383		37.883672	10.585286	-37.654072
50384		37.690222	10.506735	-36.930315
50385		37.480576	10.432453	-36.203628
50386		37.235767	10.370125	-35.472756
50387		36.935009	10.309962	-34.742189
50388		36.569293	10.258497	-34.003967
50389		36.143017	10.214661	-33.249297
50390		35.719238	10.171941	-32.492622
50391		35.295257	10.124076	-31.739903
50392		34.843896	10.067746	-30.998385
50393		34.302161	10.024421	-30.280545
50394		33.644180	10.006793	-29.580247
50395		32.865283	10.011576	-28.886461
50396		32.078130	10.018771	-28.195168
50397		31.344735	10.018767	-27.509116
50398		30.648834	10.019350	-26.804339
50399		30.023867	9.999791	-26.104986
50400		29.447005	9.991982	-25.394398
50401		28.866847	9.984842	-24.681684
50402		28.333717	9.970645	-23.974254
50403		27.855063	9.937839	-23.279177
50404		27.392730	9.902623	-22.590147
50405		26.930096	9.863548	-21.900234
50406		26.533072	9.818808	-21.226610
50407		26.192403	9.776879	-20.573442
50408		25.897992	9.748225	-19.924440
50409		25.663895	9.715126	-19.287772
50410		25.500012	9.672444	-18.665509
50411		25.419190	9.618114	-18.061983
50412		25.409588	9.556048	-17.484647
50413		25.426522	9.506675	-16.932621
50414		25.482981	9.472542	-16.411451
50415		25.570801	9.443339	-15.916112
50416		25.697095	9.418462	-15.441018
50417		25.864327	9.388995	-14.977104
50418		26.059003	9.356785	-14.517086
50419		26.259747	9.319866	-14.067509
50420		26.512612	9.278298	-13.624014
50421		26.759090	9.238170	-13.187782
50422		26.993843	9.204594	-12.753500
50423		27.214025	9.174858	-12.317775
50424		27.406943	9.153311	-11.881309
50425		27.582391	9.125890	-11.431846
50426		27.781313	9.082559	-10.973220
50427		27.965766	9.038180	-10.526642
50428		28.103433	9.001558	-10.093705
50429		28.181274	8.989721	-9.673174
50430		28.202729	9.001013	-9.263112
50431		28.165821	9.023081	-8.872695
50432		28.082311	9.064341	-8.483227
50433		27.977854	9.110674	-8.087260
50434		27.891600	9.159137	-7.692792
50435		27.800310	9.199758	-7.299051
50436		27.709511	9.235561	-6.894224
50437		27.600070	9.270006	-6.489515
50438		27.437880	9.309638	-6.085678
50439		27.189050	9.350507	-5.680618
50440		26.875199	9.399178	-5.272392
50441		26.525881	9.451108	-4.858082
50442		26.189766	9.491127	-4.426984
50443		25.904254	9.528546	-3.988351
50444		25.658246	9.557453	-3.542750
50445		25.433929	9.585314	-3.096299
50446		25.214797	9.614843	-2.644300
50447		24.986243	9.639688	-2.192839
50448		24.770612	9.677111	-1.732362
50449		24.559305	9.711734	-1.269713
50450		24.342719	9.747693	-0.804827
50451		24.137221	9.779728	-0.347237
50452		23.940635	9.807259	0.099687
50453		23.724033	9.839376	0.528782
50454		23.460934	9.880620	0.940998
50455		23.166875	9.930581	1.329738
50456		22.835479	9.983246	1.689627
50457		22.468240	10.038178	2.029044
50458		22.092119	10.097060	2.347377
50459		21.725368	10.153601	2.651500
50460		21.380425	10.210872	2.947323
50461		21.068969	10.270291	3.237705
50462		20.818331	10.324379	3.520073
50463		20.615867	10.368471	3.789857
50464		20.425605	10.412778	4.039495
50465		20.232760	10.460375	4.266678
50466		20.034700	10.512701	4.469474
50467		19.842011	10.572180	4.639951
50468		19.660853	10.632688	4.787668
50469		19.501083	10.686056	4.915337
50470		19.370367	10.739574	5.028854
50471		19.272629	10.789933	5.129082
50472		19.207315	10.841566	5.215607
50473		19.155450	10.885660	5.288916
50474		19.121658	10.927974	5.351318
50475		19.099482	10.969128	5.412188
50476		19.083726	11.008299	5.474184
50477		19.077010	11.043851	5.544554
50478		19.095574	11.073024	5.625928
50479		19.141652	11.097842	5.709835
50480		19.186025	11.119327	5.789732
50481		19.212804	11.143652	5.865282
50482		19.214659	11.168119	5.938229
50483		19.203835	11.191918	6.011136
50484		19.184070	11.215239	6.087521
50485		19.157298	11.235345	6.168141
50486		19.131162	11.252595	6.244193
50487		19.101876	11.268575	6.312434
50488		19.052840	11.287873	6.365703
50489		18.980951	11.306777	6.407718
50490		18.906931	11.324303	6.438190
50491		18.847269	11.338471	6.457020
50492		18.820740	11.353134	6.474399
50493		18.841872	11.364466	6.488603
50494		18.905476	11.371552	6.496992
50495		18.997849	11.375158	6.500410
50496		19.100388	11.380480	6.492865
50497		19.201062	11.381733	6.478993
50498		19.280277	11.382530	6.457565
50499		19.319458	11.389008	6.425426
50500		19.328973	11.398341	6.387795
50501		19.322617	11.404106	6.348740
50502		19.311110	11.408562	6.309162
50503		19.301358	11.415851	6.269056
50504		19.275940	11.423963	6.223168
50505		19.228519	11.425161	6.174870
50506		19.174735	11.424949	6.125312
50507		19.133698	11.423396	6.075397
50508		19.099140	11.421925	6.016927
50509		19.079693	11.421631	5.947374
50510		19.079388	11.420697	5.865587
50511		19.098159	11.420196	5.775650
50512		19.122462	11.422298	5.678517
50513		19.153426	11.423853	5.576665
50514		19.191455	11.421460	5.471364
50515		19.223389	11.418661	5.369763
50516		19.261313	11.411530	5.266795
50517		19.310662	11.405071	5.154435
50518		19.339942	11.397620	5.031128
50519		19.353020	11.393152	4.902528
50520		19.354923	11.394894	4.771477
50521		19.359341	11.390122	4.635984
50522		19.377734	11.381769	4.501332
50523		19.417177	11.371991	4.370409
50524		19.480411	11.367720	4.236297
50525		19.535991	11.359858	4.093476
50526		19.577281	11.352834	3.944397
50527		19.618164	11.348202	3.789556
50528		19.657881	11.347122	3.627881
50529		19.710175	11.343604	3.462969
50530		19.772021	11.342053	3.294540
50531		19.854924	11.341772	3.125277
50532		19.949628	11.343712	2.953891
50533		20.053924	11.344827	2.779098
50534		20.154266	11.346218	2.592804
50535		20.240421	11.348118	2.393864
50536		20.304271	11.352162	2.182691
50537		20.354238	11.363527	1.961453
50538		20.421269	11.372991	1.734531
50539		20.531675	11.379125	1.508241
50540		20.674591	11.387533	1.285838
50541		20.851262	11.397274	1.068476
50542		21.036747	11.406587	0.849132
50543		21.208898	11.413277	0.622372
50544		21.373465	11.417906	0.385384
50545		21.536690	11.420303	0.146147
50546		21.681062	11.423219	-0.095778
50547		21.815850	11.425801	-0.337928
50548		21.956182	11.428074	-0.580435
50549		22.101588	11.428601	-0.828464
50550		22.228347	11.430547	-1.080159
50551		22.331427	11.438539	-1.344643
50552		22.421237	11.454174	-1.625907
50553		22.485055	11.473702	-1.922592
50554		22.515090	11.498052	-2.230931
50555		22.552965	11.519178	-2.546434
50556		22.611572	11.539746	-2.867772
50557		22.698909	11.554839	-3.189631
50558		22.806926	11.566912	-3.516773
50559		22.934048	11.581788	-3.862818
50560		23.039111	11.598693	-4.230571
50561		23.135172	11.619005	-4.615687
50562		23.216956	11.646626	-5.011768
50563		23.298499	11.679131	-5.416686
50564		23.394508	11.706140	-5.822247
50565		23.515637	11.726544	-6.219777
50566		23.662629	11.741569	-6.606779
50567		23.840090	11.751168	-6.981065
50568		24.041807	11.756251	-7.350227
50569		24.252914	11.756364	-7.715692
50570		24.422774	11.748242	-8.088237
50571		24.544653	11.738938	-8.463489
50572		24.650341	11.732384	-8.841160
50573		24.757366	11.719088	-9.214224
50574		24.860263	11.704617	-9.588954
50575		24.958718	11.696211	-9.974227
50576		25.028986	11.681542	-10.374903
50577		25.082904	11.671067	-10.782323
50578		25.135928	11.665101	-11.202755
50579		25.201352	11.647961	-11.627446
50580		25.280151	11.630765	-12.050161
50581		25.402382	11.615717	-12.473650
50582		25.529823	11.603358	-12.900051
50583		25.668408	11.588831	-13.335789
50584		25.799115	11.575222	-13.780633
50585		25.926146	11.561296	-14.229845
50586		26.033242	11.548560	-14.688085
50587		26.130220	11.531498	-15.157524
50588		26.213649	11.522371	-15.642086
50589		26.283954	11.516193	-16.142448
50590		26.347092	11.513065	-16.656066
50591		26.421157	11.513816	-17.177618
50592		26.496482	11.518145	-17.710661
50593		26.570148	11.524525	-18.252763
50594		26.657314	11.533672	-18.807581
50595		26.748571	11.541700	-19.367479
50596		26.859626	11.551150	-19.939203
50597		26.991260	11.556239	-20.514509
50598		27.138200	11.556829	-21.087864
50599		27.293183	11.554969	-21.664489
50600		27.432816	11.552162	-22.244106
50601		27.584970	11.550126	-22.824857
50602		27.740883	11.550343	-23.409606
50603		27.881445	11.547190	-23.990176
50604		28.006751	11.541795	-24.571710
50605		28.124522	11.534674	-25.151156
50606		28.238627	11.530173	-25.737724
50607		28.361210	11.536213	-26.339296
50608		28.446333	11.553526	-26.958791
50609		28.492938	11.578980	-27.592931
50610		28.503962	11.608450	-28.236835
50611		28.511187	11.638344	-28.885990
50612		28.549709	11.659951	-29.535638
50613		28.647815	11.677812	-30.177644
50614		28.794757	11.694693	-30.816585
50615		28.965535	11.707541	-31.462044
50616		29.115906	11.730339	-32.110234
50617		29.268140	11.755046	-32.769985
50618		29.402919	11.788538	-33.445365
50619		29.514288	11.830463	-34.127832
50620		29.640166	11.874987	-34.813509
50621		29.789098	11.910995	-35.494440
50622		29.957614	11.941777	-36.165373
50623		30.132892	11.967186	-36.827408
50624		30.285551	11.990576	-37.482300
50625		30.411682	12.001812	-38.126527
50626		30.519971	12.015501	-38.762378
50627		30.606242	12.017835	-39.381983
50628		30.684740	12.015879	-39.991860
50629		30.776766	12.006067	-40.592158
50630		30.890336	11.995552	-41.194351
50631		31.017123	11.987558	-41.802316
50632		31.167266	11.989096	-42.424082
50633		31.357251	11.983842	-43.063461
50634		31.591185	11.979069	-43.719994
50635		31.877751	11.964383	-44.388101
50636		32.195391	11.945078	-45.064309
50637		32.549793	11.914830	-45.749738
50638		32.944900	11.870379	-46.450062
50639		33.361491	11.817946	-47.156217
50640		33.780990	11.770623	-47.867590
50641		34.176491	11.720732	-48.588012
50642		34.547839	11.675207	-49.311647
50643		34.883697	11.636907	-50.032420
50644		35.207480	11.599243	-50.758294
50645		35.492968	11.568310	-51.472644
50646		35.735981	11.539631	-52.183138
50647		35.951794	11.511900	-52.890647
50648		36.147263	11.480093	-53.587073
50649		36.348192	11.441520	-54.265820
50650		36.505759	11.395239	-54.917284
50651		36.611919	11.353839	-55.545953
50652		36.690146	11.307465	-56.148856
50653		36.767979	11.254675	-56.731398
50654		36.831989	11.189480	-57.313105
50655		36.845716	11.127571	-57.906853
50656		36.787108	11.075353	-58.510110
50657		36.704856	11.033960	-59.111007
50658		36.645973	10.991933	-59.715885
50659		36.636740	10.947296	-60.321870
50660		36.672973	10.905548	-60.931945
50661		36.739434	10.871214	-61.555301
50662		36.800120	10.850432	-62.198644
50663		36.838673	10.845368	-62.856700
50664		36.880646	10.853604	-63.522993
50665		36.934225	10.873679	-64.187844
50666		37.018581	10.903173	-64.849503
50667		37.166397	10.930097	-65.500841
50668		37.395026	10.950055	-66.149073
50669		37.714419	10.970874	-66.796717
50670		38.056380	11.012759	-67.438309
50671		38.375620	11.070182	-68.087900
50672		38.676628	11.160472	-68.757333
50673		38.945838	11.272580	-69.440022
50674		39.150731	11.413172	-70.146481
50675		39.276655	11.573759	-70.855950
50676		39.335360	11.754023	-71.557113
50677		39.387639	11.928151	-72.256660
50678		39.433224	12.095621	-72.940990
50679		39.480268	12.263287	-73.597706
50680		39.499367	12.433958	-74.231376
50681		39.562992	12.593289	-74.842289
50682		39.693878	12.737066	-75.440312
50683		39.877542	12.869203	-76.014067
50684		40.082924	12.998375	-76.570231
50685		40.329495	13.113770	-77.116657
50686		40.642024	13.213846	-77.650218
50687		41.016821	13.310566	-78.176019
