// General information: 
//  MT Manager version: 2022.2.0 
//  XDA version: 2022.2.0 build 7381 rev 124627 built on 2023-07-19
// Device information: 
//  DeviceId: 00B44846
//  ProductCode: MTW2-3A7G6
//  Firmware Version: 4.3.5
//  Hardware Version: 2.0.0
// Device settings: 
//  Filter Profile: human(46.1)
//  Option Flags: Orientation Smoother Disabled, Position/Velocity Smoother Disabled, Continuous Zero Rotation Update Disabled, AHS Disabled, ICC Disabled
// Coordinate system: ENU
PacketCounter	SampleTimeFine	Roll	Pitch	Yaw
07922		0.164126	-8.609208	120.326175
07923		0.187734	-8.582477	120.347709
07924		0.209078	-8.548006	120.366622
07925		0.225385	-8.509213	120.383495
07926		0.240358	-8.467643	120.396803
07927		0.252093	-8.422061	120.404701
07928		0.265115	-8.377923	120.410723
07929		0.278236	-8.334666	120.413428
07930		0.288759	-8.292153	120.413671
07931		0.299787	-8.254049	120.413869
07932		0.316037	-8.218200	120.413342
07933		0.334182	-8.183270	120.416407
07934		0.353371	-8.150246	120.423148
07935		0.376725	-8.116642	120.430784
07936		0.400941	-8.082289	120.441165
07937		0.424876	-8.045083	120.455446
07938		0.444642	-8.004543	120.469806
07939		0.459265	-7.963393	120.482229
07940		0.471692	-7.923430	120.494457
07941		0.482465	-7.889787	120.504256
07942		0.487757	-7.854626	120.512516
07943		0.498235	-7.826350	120.515929
07944		0.511538	-7.796283	120.520256
07945		0.531649	-7.766840	120.521222
07946		0.556051	-7.736312	120.520202
07947		0.579874	-7.703626	120.518087
07948		0.599927	-7.667844	120.519261
07949		0.620489	-7.632448	120.520514
07950		0.635573	-7.597969	120.522587
07951		0.652937	-7.564237	120.521705
07952		0.683511	-7.536175	120.518539
07953		0.729717	-7.527231	120.511041
07954		0.788094	-7.525263	120.503445
07955		0.843167	-7.523957	120.493849
07956		0.889165	-7.515878	120.481537
07957		0.922396	-7.504214	120.466343
07958		0.945975	-7.487724	120.448848
07959		0.964028	-7.472804	120.428459
07960		0.981205	-7.451497	120.407026
07961		1.004914	-7.429641	120.385223
07962		1.037026	-7.409299	120.363451
07963		1.083329	-7.390717	120.343175
07964		1.136911	-7.370032	120.322637
07965		1.192083	-7.346165	120.303462
07966		1.244946	-7.316049	120.283959
07967		1.295309	-7.288858	120.264875
07968		1.340301	-7.255518	120.245819
07969		1.381309	-7.219812	120.222403
07970		1.420523	-7.177654	120.196740
07971		1.466506	-7.127405	120.169399
07972		1.521014	-7.068574	120.140363
07973		1.578036	-7.001336	120.109529
07974		1.629512	-6.929266	120.081898
07975		1.671553	-6.853042	120.056932
07976		1.716612	-6.775213	120.036283
07977		1.759465	-6.697341	120.019308
07978		1.808936	-6.612076	120.007980
07979		1.867561	-6.525701	119.998483
07980		1.924013	-6.430221	119.993193
07981		1.984475	-6.329225	119.995308
07982		2.044353	-6.226816	120.003519
07983		2.110703	-6.112622	120.021447
07984		2.178019	-5.986060	120.048235
07985		2.254434	-5.847294	120.083018
07986		2.326985	-5.692841	120.128808
07987		2.389652	-5.530203	120.191113
07988		2.442665	-5.354392	120.268654
07989		2.485497	-5.167086	120.358483
07990		2.531796	-4.962939	120.451809
07991		2.576545	-4.753849	120.547432
07992		2.623640	-4.543986	120.651258
07993		2.675526	-4.336275	120.764826
07994		2.727586	-4.117228	120.896974
07995		2.777345	-3.879051	121.040250
07996		2.824966	-3.626539	121.191362
07997		2.875191	-3.375707	121.341639
07998		2.916225	-3.124357	121.505269
07999		2.948978	-2.881573	121.681548
08000		2.982742	-2.639759	121.878369
08001		3.011368	-2.399522	122.087815
08002		3.042428	-2.165650	122.313998
08003		3.083541	-1.946844	122.554593
08004		3.138597	-1.738504	122.814270
08005		3.215369	-1.539207	123.081508
08006		3.292799	-1.348246	123.354990
08007		3.359690	-1.169083	123.641610
08008		3.417284	-1.013264	123.946699
08009		3.474640	-0.882669	124.268506
08010		3.545610	-0.777345	124.609101
08011		3.619005	-0.698604	124.959292
08012		3.693644	-0.636714	125.318615
08013		3.771168	-0.595446	125.680346
08014		3.839357	-0.569675	126.044786
08015		3.905573	-0.558710	126.410477
08016		3.962871	-0.558049	126.783832
08017		4.012245	-0.572104	127.158961
08018		4.058438	-0.596790	127.538648
08019		4.111418	-0.627124	127.920087
08020		4.156923	-0.660117	128.301695
08021		4.191246	-0.703696	128.678211
08022		4.224595	-0.765072	129.050894
08023		4.252140	-0.849418	129.412754
08024		4.264668	-0.973663	129.772757
08025		4.255279	-1.118577	130.146509
08026		4.240940	-1.273865	130.542093
08027		4.229207	-1.443781	130.941579
08028		4.217837	-1.620843	131.337235
08029		4.204613	-1.806519	131.730740
08030		4.176462	-2.002175	132.133636
08031		4.127748	-2.217087	132.542836
08032		4.054057	-2.470465	132.954430
08033		3.973132	-2.726293	133.363873
08034		3.905729	-3.002911	133.775301
08035		3.837964	-3.288667	134.185108
08036		3.766284	-3.561366	134.596631
08037		3.714805	-3.821490	134.997064
08038		3.667121	-4.070505	135.386434
08039		3.592074	-4.319025	135.767359
08040		3.482790	-4.580813	136.148751
08041		3.366061	-4.869091	136.535639
08042		3.284841	-5.153223	136.910723
08043		3.260092	-5.403879	137.249872
08044		3.261329	-5.646790	137.551787
08045		3.257523	-5.897819	137.822692
08046		3.230016	-6.159561	138.086448
08047		3.154236	-6.444453	138.352690
08048		3.047888	-6.757922	138.630054
08049		2.938316	-7.076641	138.919256
08050		2.819488	-7.391532	139.216253
08051		2.684698	-7.700222	139.518250
08052		2.553024	-7.988593	139.824755
08053		2.439001	-8.254998	140.124147
08054		2.321403	-8.496357	140.413448
08055		2.211916	-8.718884	140.691749
08056		2.117178	-8.916914	140.957488
08057		2.041752	-9.106304	141.203702
08058		1.989119	-9.286008	141.430909
08059		1.961197	-9.455642	141.636963
08060		1.944911	-9.616196	141.818031
08061		1.939094	-9.764404	141.978174
08062		1.958942	-9.889778	142.111389
08063		1.993338	-9.990461	142.213363
08064		2.042319	-10.063737	142.271263
08065		2.112300	-10.108264	142.284850
08066		2.186699	-10.114942	142.254031
08067		2.255208	-10.090645	142.181145
08068		2.310724	-10.048034	142.079149
08069		2.346890	-10.001854	141.959447
08070		2.366993	-9.957157	141.832986
08071		2.375421	-9.915948	141.712941
08072		2.384317	-9.876247	141.596386
08073		2.405685	-9.845226	141.493472
08074		2.440222	-9.817520	141.397087
08075		2.486254	-9.791329	141.311729
08076		2.542252	-9.766322	141.232352
08077		2.607897	-9.746542	141.154739
08078		2.675916	-9.731435	141.077498
08079		2.739478	-9.729906	141.007310
08080		2.795300	-9.739631	140.937637
08081		2.836989	-9.761263	140.876227
08082		2.865745	-9.786208	140.822158
08083		2.885057	-9.811632	140.773377
08084		2.894000	-9.829954	140.724036
08085		2.900037	-9.842696	140.673643
08086		2.905935	-9.849662	140.620589
08087		2.923455	-9.855364	140.560826
08088		2.947901	-9.854989	140.497888
08089		2.959968	-9.856239	140.437510
08090		2.963267	-9.858833	140.382035
08091		2.962321	-9.863705	140.336802
08092		2.958033	-9.866919	140.301168
08093		2.958635	-9.869441	140.270289
08094		2.953920	-9.866114	140.241691
08095		2.956573	-9.857344	140.214485
08096		2.959445	-9.847600	140.192327
08097		2.969846	-9.844850	140.172543
08098		2.990912	-9.843386	140.153816
08099		3.011211	-9.844444	140.138632
08100		3.026137	-9.843674	140.126509
08101		3.034452	-9.847656	140.112454
08102		3.037739	-9.850120	140.100091
08103		3.042657	-9.846997	140.092756
08104		3.049377	-9.839378	140.084761
08105		3.058514	-9.830140	140.080367
08106		3.070588	-9.814947	140.080335
08107		3.084424	-9.799213	140.084226
08108		3.098424	-9.786519	140.093948
08109		3.109925	-9.780576	140.106238
08110		3.125001	-9.776187	140.126269
08111		3.139500	-9.778203	140.147124
08112		3.153017	-9.781857	140.175780
08113		3.165443	-9.795150	140.205274
08114		3.178106	-9.812010	140.236579
08115		3.186435	-9.838103	140.271910
08116		3.192616	-9.870171	140.309202
08117		3.191531	-9.902312	140.352676
08118		3.183195	-9.933440	140.396936
08119		3.170509	-9.963524	140.443975
08120		3.156904	-9.992886	140.489472
08121		3.132051	-10.025323	140.535554
08122		3.103983	-10.059918	140.582394
08123		3.082530	-10.103258	140.631453
08124		3.059967	-10.153956	140.680570
08125		3.030190	-10.214239	140.731604
08126		3.000844	-10.281226	140.782348
08127		2.975032	-10.359210	140.834239
08128		2.947328	-10.434843	140.889282
08129		2.917097	-10.509049	140.945450
08130		2.886875	-10.578867	141.005421
08131		2.861681	-10.644933	141.067521
08132		2.835555	-10.707415	141.128932
08133		2.814070	-10.771137	141.183885
08134		2.788522	-10.829671	141.239721
08135		2.754884	-10.882040	141.291161
08136		2.717874	-10.924826	141.341803
08137		2.678159	-10.965885	141.388697
08138		2.641788	-10.999692	141.434773
08139		2.611381	-11.032599	141.479889
08140		2.590302	-11.064520	141.523696
08141		2.574840	-11.096465	141.563335
08142		2.561943	-11.130833	141.600060
08143		2.546132	-11.165350	141.634112
08144		2.526304	-11.194225	141.666834
08145		2.497675	-11.217449	141.699497
08146		2.464881	-11.235712	141.730303
08147		2.433717	-11.256998	141.757540
08148		2.402716	-11.284774	141.779673
08149		2.372872	-11.317198	141.794510
08150		2.344064	-11.350724	141.811966
08151		2.314892	-11.378751	141.825138
08152		2.280711	-11.395158	141.835910
08153		2.240317	-11.409114	141.847504
08154		2.188183	-11.420768	141.858445
08155		2.129796	-11.433296	141.871609
08156		2.069932	-11.444187	141.888651
08157		2.017109	-11.463106	141.904958
08158		1.966574	-11.483833	141.922450
08159		1.914164	-11.504442	141.943932
08160		1.869093	-11.520991	141.964454
08161		1.827696	-11.534902	141.978444
08162		1.789534	-11.542587	141.982048
08163		1.757277	-11.547972	141.973236
08164		1.732118	-11.547754	141.952076
08165		1.712121	-11.540357	141.915512
08166		1.691967	-11.525331	141.867474
08167		1.666801	-11.505557	141.803618
08168		1.627686	-11.483621	141.729882
08169		1.577333	-11.462271	141.648829
08170		1.523444	-11.443352	141.559756
08171		1.476479	-11.433693	141.460573
08172		1.436455	-11.432293	141.350719
08173		1.407003	-11.427573	141.226738
08174		1.390315	-11.406312	141.098159
08175		1.386800	-11.368272	140.960409
08176		1.389997	-11.310789	140.813736
08177		1.402163	-11.241182	140.656273
08178		1.422677	-11.171597	140.485609
08179		1.446544	-11.106894	140.304728
08180		1.478944	-11.036535	140.117058
08181		1.519423	-10.952525	139.922058
08182		1.563338	-10.855130	139.719620
08183		1.606373	-10.740803	139.516288
08184		1.658354	-10.609067	139.307305
08185		1.718709	-10.465101	139.092893
08186		1.788561	-10.310875	138.873054
08187		1.865228	-10.149172	138.653976
08188		1.939379	-9.985000	138.442035
08189		2.008721	-9.820593	138.243769
08190		2.057946	-9.659040	138.060440
08191		2.090286	-9.506610	137.890886
08192		2.116524	-9.355081	137.744390
08193		2.158837	-9.199570	137.612800
08194		2.222935	-9.033305	137.492313
08195		2.313948	-8.855944	137.375087
08196		2.442592	-8.647588	137.253629
08197		2.591563	-8.423206	137.114931
08198		2.734940	-8.196114	136.954274
08199		2.854369	-7.984469	136.767666
08200		2.956098	-7.791075	136.558996
08201		3.030725	-7.634634	136.337820
08202		3.076627	-7.522041	136.110483
08203		3.107976	-7.414806	135.880419
08204		3.134051	-7.288609	135.645675
08205		3.163330	-7.143465	135.400192
08206		3.190772	-6.960288	135.136156
08207		3.203867	-6.738923	134.864311
08208		3.198775	-6.487060	134.573300
08209		3.184119	-6.230257	134.271031
08210		3.163022	-5.975473	133.961404
08211		3.145214	-5.733237	133.652660
08212		3.125623	-5.499297	133.354040
08213		3.103128	-5.278452	133.059182
08214		3.077416	-5.072123	132.768019
08215		3.049837	-4.864764	132.482488
08216		3.028445	-4.641589	132.207260
08217		3.013765	-4.403742	131.938036
08218		3.018687	-4.146786	131.670530
08219		3.028049	-3.901957	131.406039
08220		3.047777	-3.684498	131.136140
08221		3.080671	-3.505832	130.858106
08222		3.097283	-3.380870	130.572933
08223		3.094882	-3.306282	130.279505
08224		3.082534	-3.264249	129.983930
08225		3.038839	-3.238937	129.681005
08226		2.957182	-3.222861	129.369965
08227		2.851311	-3.212100	129.053150
08228		2.726808	-3.199076	128.738515
08229		2.589889	-3.188232	128.432853
08230		2.468407	-3.184768	128.150372
08231		2.363564	-3.189098	127.889519
08232		2.273046	-3.193691	127.658417
08233		2.196929	-3.205312	127.450885
08234		2.126355	-3.224775	127.267833
08235		2.065186	-3.259151	127.104530
08236		2.014869	-3.302313	126.961780
08237		1.973228	-3.351102	126.833388
08238		1.929628	-3.395244	126.720056
08239		1.886629	-3.440540	126.615169
08240		1.835024	-3.481860	126.525130
08241		1.773061	-3.525619	126.450296
08242		1.698832	-3.568660	126.392125
08243		1.613138	-3.614460	126.348105
08244		1.512354	-3.660579	126.317831
08245		1.405656	-3.708558	126.298563
08246		1.291506	-3.754831	126.290710
08247		1.178250	-3.799216	126.293469
08248		1.064522	-3.837455	126.307373
08249		0.957373	-3.867958	126.325453
08250		0.860658	-3.891630	126.351821
08251		0.778719	-3.910393	126.381002
08252		0.710889	-3.921575	126.413813
08253		0.654966	-3.927911	126.447880
08254		0.611126	-3.930192	126.480246
08255		0.577840	-3.934487	126.510167
08256		0.554721	-3.939284	126.531336
08257		0.535875	-3.949751	126.543821
08258		0.516067	-3.961228	126.547529
08259		0.493639	-3.978823	126.538658
08260		0.469393	-4.001467	126.519202
08261		0.440609	-4.032057	126.492297
08262		0.406847	-4.067313	126.459006
08263		0.368308	-4.108415	126.426644
08264		0.327286	-4.154525	126.390237
08265		0.288218	-4.201828	126.356367
08266		0.251648	-4.246400	126.321972
08267		0.218792	-4.286568	126.290191
08268		0.187890	-4.321722	126.263381
08269		0.166193	-4.357250	126.237273
08270		0.144608	-4.394741	126.214073
08271		0.127102	-4.438343	126.191182
08272		0.112447	-4.484546	126.172406
08273		0.097487	-4.537709	126.152751
08274		0.081809	-4.591934	126.131745
08275		0.065571	-4.648621	126.107859
08276		0.050044	-4.705593	126.082815
08277		0.032469	-4.760796	126.057585
08278		0.007324	-4.818318	126.034927
08279		-0.025098	-4.874663	126.019054
08280		-0.063301	-4.932039	126.004279
08281		-0.099353	-4.993229	125.995496
08282		-0.129162	-5.054291	125.989984
08283		-0.146989	-5.117168	125.989085
08284		-0.156750	-5.178695	125.990355
08285		-0.165450	-5.237784	125.996946
08286		-0.182571	-5.295709	126.009462
08287		-0.201204	-5.356565	126.030012
08288		-0.230834	-5.414136	126.056299
08289		-0.265028	-5.469548	126.088160
08290		-0.296924	-5.522786	126.123775
08291		-0.321495	-5.574253	126.161085
08292		-0.334747	-5.616446	126.198538
08293		-0.336171	-5.651231	126.228491
08294		-0.336104	-5.680661	126.245453
08295		-0.331417	-5.706138	126.252481
08296		-0.323774	-5.735415	126.246178
08297		-0.313712	-5.767380	126.229435
08298		-0.308991	-5.796809	126.205630
08299		-0.309647	-5.828296	126.173036
08300		-0.317282	-5.856961	126.135170
08301		-0.338795	-5.885315	126.090867
08302		-0.368727	-5.907581	126.042120
08303		-0.405346	-5.926160	125.992999
08304		-0.441735	-5.938503	125.944200
08305		-0.473280	-5.945371	125.899470
08306		-0.498295	-5.944002	125.858509
08307		-0.516962	-5.936342	125.821165
08308		-0.527462	-5.923211	125.786127
08309		-0.525035	-5.906399	125.755446
08310		-0.518675	-5.886742	125.723238
08311		-0.502333	-5.864168	125.692975
08312		-0.484261	-5.842127	125.661062
08313		-0.462692	-5.822220	125.631997
08314		-0.440217	-5.802688	125.604809
08315		-0.417570	-5.786524	125.579250
08316		-0.393939	-5.773286	125.555925
08317		-0.368055	-5.761582	125.536893
08318		-0.340928	-5.748082	125.521098
08319		-0.309716	-5.734908	125.508550
08320		-0.279960	-5.716818	125.500797
08321		-0.244766	-5.700665	125.493162
08322		-0.209091	-5.686021	125.487543
08323		-0.173335	-5.673755	125.485233
08324		-0.135677	-5.658840	125.484668
08325		-0.097332	-5.647887	125.482923
08326		-0.055481	-5.637830	125.480999
08327		-0.010399	-5.633841	125.478187
08328		0.047199	-5.637717	125.477602
08329		0.116005	-5.641802	125.477915
08330		0.187516	-5.640019	125.481427
08331		0.257999	-5.639415	125.485309
08332		0.326198	-5.635503	125.495340
08333		0.395921	-5.626516	125.508070
08334		0.474864	-5.613454	125.513945
08335		0.554130	-5.600611	125.516315
08336		0.628026	-5.588548	125.515042
08337		0.694631	-5.578033	125.513206
08338		0.757015	-5.566914	125.512622
08339		0.815172	-5.549229	125.514230
08340		0.872052	-5.525161	125.513635
08341		0.924120	-5.496188	125.519044
08342		0.974495	-5.460459	125.528694
08343		1.029061	-5.430303	125.542480
08344		1.092966	-5.410221	125.563254
08345		1.164472	-5.395516	125.587694
08346		1.235590	-5.378870	125.617767
08347		1.300761	-5.362747	125.651016
08348		1.350443	-5.345538	125.684321
08349		1.382416	-5.328532	125.716717
08350		1.405665	-5.315715	125.745407
08351		1.433994	-5.304453	125.771688
08352		1.467992	-5.292509	125.791687
08353		1.505636	-5.283885	125.807987
08354		1.543044	-5.276787	125.825341
08355		1.576647	-5.267617	125.841048
08356		1.608434	-5.253186	125.860158
08357		1.646923	-5.239829	125.883589
08358		1.688936	-5.218195	125.914281
08359		1.730394	-5.193426	125.945558
08360		1.770131	-5.160872	125.982334
08361		1.807956	-5.123525	126.022416
08362		1.850802	-5.071313	126.064495
08363		1.901073	-5.010974	126.103608
08364		1.957506	-4.939683	126.143687
08365		2.017683	-4.854314	126.182113
08366		2.070569	-4.745590	126.226255
08367		2.113483	-4.618436	126.280213
08368		2.152272	-4.465722	126.347986
08369		2.189877	-4.290640	126.434697
08370		2.229990	-4.098537	126.536430
08371		2.272976	-3.897125	126.650139
08372		2.320091	-3.686347	126.779550
08373		2.375336	-3.472477	126.925797
08374		2.436972	-3.260973	127.085845
08375		2.499788	-3.053078	127.264284
08376		2.572353	-2.855816	127.454136
08377		2.655453	-2.672479	127.654634
08378		2.743138	-2.503930	127.868719
08379		2.840183	-2.354155	128.091490
08380		2.947893	-2.210616	128.328193
08381		3.059284	-2.074999	128.575063
08382		3.156861	-1.947332	128.835992
08383		3.246570	-1.825401	129.108152
08384		3.329604	-1.707416	129.388443
08385		3.408829	-1.595771	129.675376
08386		3.481592	-1.491901	129.972822
08387		3.559517	-1.399712	130.276701
08388		3.638469	-1.320532	130.588112
08389		3.716610	-1.263133	130.905482
08390		3.796569	-1.222624	131.233380
08391		3.883845	-1.195570	131.559038
08392		3.973179	-1.176539	131.881308
08393		4.062882	-1.172853	132.199697
08394		4.142753	-1.184556	132.514692
08395		4.209856	-1.212922	132.826065
08396		4.267761	-1.252571	133.141281
08397		4.314587	-1.303458	133.457772
08398		4.357019	-1.358594	133.773549
08399		4.390690	-1.430815	134.092440
08400		4.425289	-1.519156	134.409882
08401		4.461299	-1.620578	134.722848
08402		4.497822	-1.726857	135.031483
08403		4.529904	-1.851782	135.331865
08404		4.576423	-1.981643	135.621856
08405		4.624253	-2.107782	135.896647
08406		4.675545	-2.240768	136.158723
08407		4.731406	-2.386223	136.401854
08408		4.770742	-2.538109	136.636833
08409		4.804765	-2.703621	136.861596
08410		4.825622	-2.882444	137.082882
08411		4.847843	-3.067662	137.293284
08412		4.862367	-3.258755	137.496346
08413		4.868157	-3.454137	137.693230
08414		4.871431	-3.653511	137.885381
08415		4.866045	-3.860655	138.068463
08416		4.850755	-4.065250	138.242395
08417		4.821487	-4.268034	138.421430
08418		4.799476	-4.462395	138.596967
08419		4.769926	-4.645240	138.768486
08420		4.739477	-4.815289	138.930984
08421		4.694280	-4.981224	139.091412
08422		4.645269	-5.146410	139.245180
08423		4.612234	-5.318863	139.395970
08424		4.580179	-5.529667	139.543799
08425		4.553340	-5.761646	139.693593
08426		4.533992	-5.975370	139.846945
08427		4.521360	-6.172241	140.002086
08428		4.511418	-6.352698	140.150405
08429		4.493082	-6.524152	140.292393
08430		4.476929	-6.690851	140.426243
08431		4.475371	-6.857876	140.543186
08432		4.483842	-7.020026	140.643352
08433		4.509625	-7.182541	140.719904
08434		4.560989	-7.330653	140.768989
08435		4.615856	-7.471508	140.785458
08436		4.661799	-7.598158	140.780533
08437		4.690479	-7.701492	140.763936
08438		4.716418	-7.761479	140.736387
08439		4.753441	-7.769140	140.695965
08440		4.805614	-7.729064	140.641004
08441		4.862272	-7.669782	140.579594
08442		4.934355	-7.610381	140.514047
08443		5.016718	-7.561009	140.447552
08444		5.101987	-7.515486	140.381242
08445		5.190571	-7.469451	140.310778
08446		5.277471	-7.419289	140.242346
08447		5.364566	-7.365361	140.167473
08448		5.447958	-7.311235	140.088676
08449		5.523160	-7.261212	140.003724
08450		5.583410	-7.219479	139.916178
08451		5.622568	-7.198133	139.833588
08452		5.656485	-7.194680	139.764123
08453		5.690339	-7.200561	139.705624
08454		5.717094	-7.207886	139.663009
08455		5.737465	-7.224498	139.630638
08456		5.756657	-7.241932	139.601659
08457		5.778721	-7.264079	139.575584
08458		5.793321	-7.292770	139.550465
08459		5.811428	-7.327976	139.527118
08460		5.829741	-7.364081	139.506343
08461		5.841522	-7.399185	139.488491
08462		5.843132	-7.423261	139.474985
08463		5.837038	-7.450201	139.462478
08464		5.825932	-7.475293	139.455366
08465		5.814350	-7.497963	139.451633
08466		5.802507	-7.516654	139.448989
08467		5.793012	-7.534737	139.445626
08468		5.780005	-7.546260	139.440467
08469		5.765967	-7.554068	139.435777
08470		5.743057	-7.557368	139.432313
08471		5.718761	-7.564791	139.432139
08472		5.697797	-7.579222	139.435969
08473		5.674450	-7.596863	139.440968
08474		5.647894	-7.612293	139.449744
08475		5.620848	-7.625291	139.461920
08476		5.597154	-7.633099	139.475919
08477		5.571345	-7.639832	139.493034
08478		5.547228	-7.645596	139.510861
08479		5.522136	-7.657493	139.528179
08480		5.495899	-7.674805	139.545594
08481		5.466585	-7.695913	139.562312
08482		5.430746	-7.716293	139.580701
08483		5.389238	-7.740145	139.602807
08484		5.349204	-7.766056	139.628250
08485		5.313240	-7.794506	139.656126
08486		5.282355	-7.827990	139.682677
08487		5.251559	-7.861996	139.713119
08488		5.225068	-7.892959	139.742903
08489		5.196137	-7.924180	139.774753
08490		5.162799	-7.950071	139.808580
08491		5.127048	-7.979108	139.843620
08492		5.091082	-8.008754	139.876440
08493		5.050434	-8.036998	139.910597
08494		5.008223	-8.058839	139.943435
08495		4.964131	-8.082281	139.975092
08496		4.920776	-8.114177	140.006575
08497		4.881066	-8.153580	140.038041
08498		4.848904	-8.199936	140.073810
08499		4.808410	-8.262485	140.118208
08500		4.769096	-8.336814	140.171397
08501		4.742642	-8.417411	140.230942
08502		4.715913	-8.496490	140.299642
08503		4.675549	-8.571258	140.370299
08504		4.627540	-8.638542	140.442292
08505		4.576661	-8.699527	140.511089
08506		4.530742	-8.754807	140.575127
08507		4.494007	-8.807554	140.634466
08508		4.467910	-8.853687	140.690187
08509		4.448283	-8.897670	140.745061
08510		4.433195	-8.932186	140.801333
08511		4.424437	-8.962342	140.857013
08512		4.418712	-8.984103	140.905431
08513		4.415097	-8.999965	140.949237
08514		4.412692	-9.006993	140.988055
08515		4.408929	-9.006949	141.018333
08516		4.409150	-8.998971	141.041304
08517		4.412832	-8.987587	141.055818
08518		4.420213	-8.973037	141.063346
08519		4.426653	-8.958480	141.063689
08520		4.436835	-8.944498	141.060543
08521		4.442053	-8.934202	141.050059
08522		4.442815	-8.926334	141.034721
08523		4.438591	-8.927110	141.017189
08524		4.432036	-8.930668	141.000189
08525		4.426890	-8.934367	140.984092
08526		4.424786	-8.941709	140.970766
08527		4.422644	-8.954491	140.955396
08528		4.423928	-8.968771	140.944423
08529		4.423267	-8.991665	140.932259
08530		4.422274	-9.019203	140.918666
08531		4.422133	-9.052147	140.900803
08532		4.419130	-9.088606	140.875346
08533		4.411186	-9.130409	140.846345
08534		4.396813	-9.174870	140.814232
08535		4.380862	-9.212004	140.774897
08536		4.362664	-9.244523	140.733944
08537		4.339856	-9.282314	140.685954
08538		4.317207	-9.320632	140.632183
08539		4.296516	-9.357925	140.574131
08540		4.272361	-9.394415	140.512589
08541		4.249284	-9.432365	140.445962
08542		4.225956	-9.464654	140.376564
08543		4.206556	-9.493206	140.304157
08544		4.191242	-9.508510	140.221959
08545		4.183783	-9.505530	140.128390
08546		4.187781	-9.485429	140.016365
08547		4.200779	-9.451454	139.884023
08548		4.216220	-9.412431	139.732128
08549		4.225768	-9.377697	139.566345
08550		4.227684	-9.340994	139.396794
08551		4.232709	-9.300377	139.223032
08552		4.235028	-9.250494	139.044789
08553		4.232017	-9.192314	138.866653
08554		4.227798	-9.123506	138.684303
08555		4.227434	-9.046748	138.494790
08556		4.232460	-8.958522	138.298760
08557		4.255881	-8.864894	138.094348
08558		4.292406	-8.767572	137.887672
08559		4.340077	-8.655834	137.679430
08560		4.392716	-8.532730	137.467119
08561		4.441868	-8.403423	137.251930
08562		4.478695	-8.275686	137.039226
08563		4.509644	-8.151383	136.827127
08564		4.538413	-8.027976	136.614774
08565		4.568579	-7.907903	136.401418
08566		4.595833	-7.792883	136.190778
08567		4.622871	-7.688627	135.980818
08568		4.647375	-7.596317	135.773294
08569		4.661167	-7.523319	135.570357
08570		4.667544	-7.465590	135.370972
08571		4.649792	-7.423566	135.176097
08572		4.609558	-7.387445	134.987118
08573		4.553438	-7.349886	134.803902
08574		4.494177	-7.298092	134.624908
08575		4.429855	-7.230247	134.448538
08576		4.378178	-7.150815	134.264354
08577		4.336567	-7.056811	134.077442
08578		4.303837	-6.949559	133.889023
08579		4.279075	-6.840951	133.700037
08580		4.258193	-6.741518	133.508803
08581		4.232810	-6.657203	133.317136
08582		4.211014	-6.582577	133.124116
08583		4.188151	-6.519526	132.931747
08584		4.167376	-6.455291	132.733373
08585		4.148122	-6.389253	132.531492
08586		4.126916	-6.324998	132.325293
08587		4.114762	-6.263617	132.113143
08588		4.103951	-6.194773	131.894670
08589		4.097111	-6.122822	131.669635
08590		4.081048	-6.053577	131.437729
08591		4.063923	-5.992652	131.200542
08592		4.047855	-5.937491	130.958153
08593		4.032975	-5.889955	130.710633
08594		4.007495	-5.842987	130.464177
08595		3.967968	-5.802503	130.217608
08596		3.910869	-5.778303	129.972197
08597		3.851013	-5.793560	129.724019
08598		3.795638	-5.839095	129.473724
08599		3.725135	-5.901560	129.205554
08600		3.632209	-5.960992	128.926603
08601		3.528471	-6.009346	128.632343
08602		3.402982	-6.045959	128.331598
08603		3.272034	-6.079533	128.030184
08604		3.139607	-6.122518	127.733140
08605		3.014600	-6.180138	127.436037
08606		2.886544	-6.246644	127.139167
08607		2.767897	-6.318008	126.840599
08608		2.654501	-6.393017	126.546199
08609		2.543787	-6.466438	126.258675
08610		2.444529	-6.526414	125.978006
08611		2.360581	-6.574688	125.706061
08612		2.280419	-6.612086	125.444945
08613		2.197925	-6.652808	125.194237
08614		2.127279	-6.706462	124.954501
08615		2.050491	-6.773793	124.723327
08616		1.974359	-6.848137	124.507801
08617		1.895060	-6.935339	124.302948
08618		1.812531	-7.025729	124.113448
08619		1.726164	-7.118242	123.941664
08620		1.639365	-7.207154	123.783668
08621		1.553314	-7.292531	123.637542
08622		1.462663	-7.371080	123.501190
08623		1.373744	-7.448975	123.377705
08624		1.290295	-7.522574	123.270323
08625		1.210276	-7.590108	123.183394
08626		1.133220	-7.646291	123.117503
08627		1.054451	-7.690447	123.073606
08628		0.976652	-7.721663	123.044842
08629		0.906140	-7.741157	123.032822
08630		0.841851	-7.749480	123.034260
08631		0.787493	-7.748997	123.047446
08632		0.742544	-7.742568	123.072304
08633		0.705916	-7.732058	123.105538
08634		0.674583	-7.718200	123.143370
08635		0.651340	-7.701589	123.185094
08636		0.635144	-7.681140	123.229995
08637		0.618969	-7.665191	123.272606
08638		0.598510	-7.651335	123.310097
08639		0.570645	-7.635070	123.345125
08640		0.539029	-7.622346	123.375314
08641		0.501614	-7.610604	123.397206
08642		0.461710	-7.599761	123.413370
08643		0.425799	-7.593829	123.424257
08644		0.396177	-7.590629	123.433866
08645		0.377492	-7.591224	123.438049
08646		0.362350	-7.598052	123.442568
08647		0.349445	-7.613612	123.443528
08648		0.332544	-7.638314	123.441579
08649		0.316573	-7.674412	123.437402
08650		0.301699	-7.717271	123.434008
08651		0.284408	-7.765208	123.431996
08652		0.260155	-7.815576	123.429871
08653		0.237816	-7.866059	123.430909
08654		0.205336	-7.916998	123.433726
08655		0.174958	-7.965730	123.434697
08656		0.143837	-8.013265	123.436691
08657		0.119994	-8.061231	123.437847
08658		0.098873	-8.110336	123.437290
08659		0.078260	-8.159581	123.437337
08660		0.055867	-8.204752	123.438052
08661		0.030076	-8.248039	123.436875
08662		0.008667	-8.290148	123.434195
08663		-0.018090	-8.329833	123.433064
08664		-0.042282	-8.366191	123.428072
08665		-0.067282	-8.401991	123.421741
08666		-0.088785	-8.435595	123.414561
08667		-0.106343	-8.469145	123.407497
08668		-0.119212	-8.501862	123.397942
08669		-0.129417	-8.533913	123.389952
08670		-0.137975	-8.564969	123.382245
08671		-0.147760	-8.593401	123.376951
08672		-0.157115	-8.616895	123.372905
08673		-0.163145	-8.639640	123.368415
08674		-0.167241	-8.659212	123.365589
08675		-0.173929	-8.678760	123.363369
08676		-0.178274	-8.694714	123.361729
08677		-0.179751	-8.711044	123.359740
08678		-0.180864	-8.725749	123.359472
08679		-0.180050	-8.739782	123.356719
08680		-0.177966	-8.750733	123.360561
08681		-0.175186	-8.762899	123.363265
08682		-0.171339	-8.773420	123.368815
08683		-0.163411	-8.782474	123.375889
08684		-0.156709	-8.786288	123.382914
08685		-0.149997	-8.791395	123.390802
08686		-0.148242	-8.793654	123.397980
08687		-0.148612	-8.794755	123.405375
08688		-0.153479	-8.795221	123.414812
08689		-0.164307	-8.792560	123.424956
08690		-0.179270	-8.788854	123.436461
08691		-0.193498	-8.783118	123.450031
08692		-0.205301	-8.773084	123.465054
08693		-0.214724	-8.758713	123.479609
08694		-0.219505	-8.735785	123.489598
08695		-0.225417	-8.709418	123.498644
08696		-0.227035	-8.679993	123.502162
08697		-0.223772	-8.650762	123.499432
08698		-0.224859	-8.625117	123.490506
08699		-0.224650	-8.603859	123.475208
08700		-0.228230	-8.584409	123.457356
08701		-0.233914	-8.567029	123.435839
08702		-0.248401	-8.549899	123.412323
08703		-0.262783	-8.535801	123.384163
08704		-0.283488	-8.518994	123.359348
08705		-0.300840	-8.504021	123.334446
08706		-0.311293	-8.489996	123.311899
08707		-0.312325	-8.478280	123.293794
08708		-0.304939	-8.472586	123.281360
08709		-0.294647	-8.481765	123.280787
08710		-0.280992	-8.504494	123.283618
08711		-0.261660	-8.535111	123.286209
08712		-0.247639	-8.563301	123.288936
08713		-0.241094	-8.589073	123.286056
08714		-0.236390	-8.606270	123.278530
08715		-0.225024	-8.614860	123.268299
08716		-0.212765	-8.611494	123.258559
08717		-0.193389	-8.601006	123.249918
08718		-0.171801	-8.585120	123.244315
08719		-0.146285	-8.568475	123.239625
08720		-0.120989	-8.558576	123.233071
08721		-0.093266	-8.561182	123.228297
08722		-0.056078	-8.571923	123.227340
08723		-0.005055	-8.590942	123.230761
08724		0.053572	-8.613439	123.238350
08725		0.122318	-8.629129	123.250922
08726		0.190781	-8.619675	123.260813
08727		0.270112	-8.602492	123.270430
08728		0.361655	-8.584030	123.278069
08729		0.454390	-8.564147	123.282112
08730		0.542526	-8.535841	123.283328
08731		0.631174	-8.506256	123.286278
08732		0.720120	-8.475587	123.283717
08733		0.811412	-8.439728	123.274633
08734		0.917776	-8.397139	123.246078
08735		1.028726	-8.346775	123.205858
08736		1.118057	-8.272187	123.154886
08737		1.184893	-8.168666	123.104954
08738		1.233947	-8.042479	123.057281
08739		1.273710	-7.908704	123.014335
08740		1.317006	-7.778953	122.977327
08741		1.364090	-7.654522	122.948567
08742		1.410749	-7.522743	122.929690
08743		1.460292	-7.386778	122.915056
08744		1.511151	-7.248872	122.912730
08745		1.562188	-7.107959	122.925620
08746		1.613025	-6.965816	122.955832
08747		1.658019	-6.822784	123.008713
08748		1.699698	-6.674923	123.086396
08749		1.743268	-6.529237	123.182805
08750		1.785014	-6.394297	123.297297
08751		1.818917	-6.266716	123.436182
08752		1.852886	-6.141300	123.592615
08753		1.886201	-6.019034	123.760634
08754		1.912580	-5.891421	123.938686
08755		1.929606	-5.762434	124.122832
08756		1.933996	-5.640279	124.311816
08757		1.936024	-5.529073	124.505481
08758		1.941942	-5.424354	124.706906
08759		1.959390	-5.327963	124.908813
08760		1.973786	-5.239080	125.115275
08761		1.983616	-5.164519	125.328864
08762		1.996933	-5.098786	125.549161
08763		2.010007	-5.039425	125.774654
08764		2.018048	-4.992811	126.004912
08765		2.021259	-4.957046	126.239068
08766		2.030993	-4.930699	126.479099
08767		2.038427	-4.911810	126.722083
08768		2.044879	-4.899818	126.965669
08769		2.046478	-4.898108	127.209419
08770		2.039078	-4.902931	127.459126
08771		2.036557	-4.914757	127.708678
08772		2.034485	-4.928739	127.959692
08773		2.035395	-4.948254	128.204672
08774		2.039127	-4.971982	128.447675
08775		2.043211	-5.000584	128.689481
08776		2.048314	-5.033968	128.931449
08777		2.050932	-5.070449	129.169881
08778		2.049771	-5.109884	129.411267
08779		2.049434	-5.147909	129.650322
08780		2.050849	-5.189989	129.891154
08781		2.051073	-5.245845	130.131765
08782		2.061939	-5.306067	130.372794
08783		2.070156	-5.366860	130.616228
08784		2.065788	-5.434846	130.854373
08785		2.057867	-5.506579	131.093586
08786		2.051750	-5.583391	131.329479
08787		2.047372	-5.668366	131.564767
08788		2.037956	-5.762075	131.799608
08789		2.029526	-5.857629	132.033339
08790		2.019175	-5.955388	132.268298
08791		1.994539	-6.057719	132.502189
08792		1.977689	-6.159399	132.740486
08793		1.969027	-6.260865	132.975009
08794		1.959970	-6.363773	133.207330
08795		1.946356	-6.479441	133.438370
08796		1.932460	-6.595082	133.671088
08797		1.929669	-6.709249	133.899896
08798		1.934333	-6.817043	134.122861
08799		1.942383	-6.922527	134.340880
08800		1.940562	-7.029850	134.557259
08801		1.930371	-7.132915	134.769919
08802		1.909641	-7.234791	134.980525
08803		1.890330	-7.334944	135.185113
08804		1.879373	-7.436140	135.382016
08805		1.869380	-7.534906	135.563730
08806		1.861026	-7.631537	135.739035
08807		1.849282	-7.736570	135.909639
08808		1.827911	-7.848821	136.075080
08809		1.806300	-7.959346	136.242157
08810		1.783185	-8.068326	136.407471
08811		1.758856	-8.176262	136.567768
08812		1.743780	-8.288746	136.723049
08813		1.731393	-8.404104	136.873068
08814		1.719237	-8.526106	137.018839
08815		1.706236	-8.650054	137.163690
08816		1.680097	-8.776524	137.309046
08817		1.651374	-8.904799	137.457880
08818		1.618945	-9.039018	137.612590
08819		1.580965	-9.171520	137.771030
08820		1.553103	-9.296605	137.927722
08821		1.530850	-9.422961	138.084706
08822		1.498383	-9.555132	138.247004
08823		1.472585	-9.701407	138.416113
08824		1.442068	-9.847647	138.586417
08825		1.409772	-9.989495	138.762196
08826		1.382027	-10.123150	138.942277
08827		1.356542	-10.254221	139.124220
08828		1.330912	-10.383750	139.303598
08829		1.308377	-10.511198	139.479903
08830		1.281165	-10.640429	139.650160
08831		1.241402	-10.764845	139.818098
08832		1.201391	-10.888455	139.978033
08833		1.166952	-11.002612	140.130497
08834		1.145219	-11.104826	140.263808
08835		1.128466	-11.196648	140.380148
08836		1.123020	-11.283030	140.481172
08837		1.123980	-11.368370	140.564491
08838		1.137687	-11.454309	140.630215
08839		1.169355	-11.536339	140.673574
08840		1.210155	-11.602613	140.696240
08841		1.261046	-11.650694	140.703122
08842		1.322397	-11.676519	140.688839
08843		1.389678	-11.690695	140.658289
08844		1.455019	-11.693011	140.614706
08845		1.522650	-11.692347	140.565460
08846		1.590259	-11.690041	140.516893
08847		1.660563	-11.685178	140.461311
08848		1.734164	-11.666191	140.400633
08849		1.809802	-11.642741	140.334001
08850		1.887354	-11.611948	140.260040
08851		1.964478	-11.576476	140.178353
08852		2.037014	-11.539248	140.092432
08853		2.094611	-11.504466	140.008288
08854		2.140001	-11.469844	139.929891
08855		2.174969	-11.443191	139.864523
08856		2.206253	-11.426919	139.811838
08857		2.237555	-11.423535	139.773300
08858		2.271669	-11.424529	139.742185
08859		2.305214	-11.430736	139.717724
08860		2.335437	-11.440108	139.698407
08861		2.362002	-11.452639	139.680017
08862		2.387016	-11.466317	139.657568
08863		2.407480	-11.482719	139.636059
08864		2.426485	-11.491878	139.614728
08865		2.443188	-11.493723	139.588009
08866		2.450221	-11.490605	139.562474
08867		2.454037	-11.485577	139.540059
08868		2.454905	-11.473562	139.520913
08869		2.452963	-11.462617	139.500642
08870		2.460446	-11.443465	139.479527
08871		2.474599	-11.426493	139.452052
08872		2.487316	-11.415779	139.424590
08873		2.508276	-11.406638	139.390402
08874		2.526712	-11.398914	139.356589
08875		2.537894	-11.392998	139.330881
08876		2.545926	-11.386986	139.313688
08877		2.550609	-11.380166	139.306216
08878		2.546933	-11.369577	139.305657
08879		2.535102	-11.354889	139.311849
08880		2.521317	-11.333274	139.324000
08881		2.506310	-11.312493	139.341765
08882		2.493252	-11.292735	139.362719
08883		2.479690	-11.277882	139.388102
08884		2.461688	-11.267190	139.417601
08885		2.451263	-11.256911	139.450740
08886		2.442665	-11.248043	139.479435
08887		2.425921	-11.240171	139.509108
08888		2.410964	-11.234068	139.536538
08889		2.397254	-11.230856	139.559208
08890		2.381177	-11.227954	139.580549
08891		2.366618	-11.226479	139.603110
08892		2.351293	-11.222153	139.626820
08893		2.338766	-11.220435	139.652543
08894		2.332562	-11.219738	139.681579
08895		2.332261	-11.220445	139.706944
08896		2.335729	-11.219837	139.729068
08897		2.344508	-11.221001	139.743491
08898		2.352201	-11.220801	139.753164
08899		2.361411	-11.224597	139.756182
08900		2.367233	-11.229032	139.757391
08901		2.373657	-11.231909	139.757768
08902		2.376209	-11.227649	139.763595
08903		2.383079	-11.220291	139.771922
08904		2.392063	-11.212891	139.781750
08905		2.405338	-11.210422	139.792573
08906		2.417172	-11.208741	139.802044
08907		2.423619	-11.214490	139.811581
08908		2.429701	-11.220359	139.823004
08909		2.428953	-11.228387	139.841137
08910		2.424363	-11.231503	139.859658
08911		2.417487	-11.233079	139.886174
08912		2.411879	-11.233873	139.912025
08913		2.409235	-11.233620	139.941069
08914		2.407449	-11.232149	139.970796
08915		2.400960	-11.234117	140.000943
08916		2.391455	-11.237466	140.030099
08917		2.388809	-11.247472	140.057548
08918		2.391408	-11.256270	140.080805
08919		2.392913	-11.262235	140.105956
08920		2.388752	-11.265356	140.125873
08921		2.381975	-11.265877	140.145841
08922		2.376414	-11.265971	140.162362
08923		2.372837	-11.270103	140.173619
08924		2.369598	-11.275957	140.178549
08925		2.370959	-11.285002	140.178346
08926		2.375931	-11.296388	140.173665
08927		2.381022	-11.308707	140.168871
08928		2.392019	-11.321713	140.163788
08929		2.401457	-11.334360	140.161259
08930		2.405620	-11.347466	140.161364
08931		2.409217	-11.357436	140.162529
08932		2.411433	-11.362709	140.160919
08933		2.411716	-11.364358	140.158998
08934		2.413836	-11.362307	140.158384
08935		2.417806	-11.359867	140.162721
08936		2.420931	-11.352375	140.168384
08937		2.427972	-11.346468	140.177054
08938		2.437939	-11.341349	140.189484
08939		2.448917	-11.340168	140.203844
08940		2.452683	-11.342160	140.219613
08941		2.456311	-11.343981	140.237119
08942		2.453169	-11.346444	140.255351
08943		2.446323	-11.349527	140.272475
08944		2.437444	-11.354074	140.286341
08945		2.431856	-11.360904	140.301371
08946		2.430969	-11.369443	140.315184
08947		2.431965	-11.382778	140.328167
08948		2.432299	-11.392515	140.342833
08949		2.429416	-11.395159	140.361409
08950		2.422069	-11.391393	140.378646
08951		2.416039	-11.385084	140.394712
08952		2.410180	-11.375937	140.414641
08953		2.405490	-11.367504	140.429978
08954		2.401344	-11.359626	140.447169
08955		2.395974	-11.352239	140.462871
08956		2.389710	-11.342710	140.479221
08957		2.376933	-11.333546	140.496124
08958		2.354000	-11.314420	140.515807
08959		2.322141	-11.290333	140.535052
08960		2.288214	-11.257349	140.557631
08961		2.257330	-11.217928	140.577044
08962		2.228074	-11.170806	140.590408
08963		2.197293	-11.118344	140.597216
08964		2.164771	-11.065599	140.594643
08965		2.123851	-11.015344	140.582051
08966		2.082548	-10.962711	140.564297
08967		2.039998	-10.916203	140.536453
08968		1.992672	-10.869469	140.503208
08969		1.943128	-10.828378	140.464958
08970		1.895974	-10.788036	140.424065
08971		1.860050	-10.749449	140.377465
08972		1.835156	-10.722351	140.324292
08973		1.821564	-10.723122	140.258625
08974		1.816946	-10.733290	140.188305
08975		1.818863	-10.736416	140.107907
08976		1.824929	-10.727904	140.027193
08977		1.832108	-10.712577	139.940762
08978		1.836276	-10.708414	139.849424
08979		1.842166	-10.718286	139.752614
08980		1.859762	-10.733328	139.649685
08981		1.888312	-10.765389	139.537315
08982		1.945833	-10.787302	139.407104
08983		2.016188	-10.801879	139.260338
08984		2.094216	-10.807214	139.094556
08985		2.189708	-10.766287	138.911820
08986		2.291432	-10.674030	138.716165
08987		2.383434	-10.551564	138.508568
08988		2.462885	-10.401759	138.295282
08989		2.536259	-10.240710	138.070212
08990		2.625273	-10.068292	137.829765
08991		2.735371	-9.889297	137.567287
08992		2.847167	-9.701324	137.294926
08993		2.941390	-9.512878	137.016535
08994		3.013009	-9.324855	136.738442
08995		3.073033	-9.131057	136.461808
08996		3.129610	-8.930235	136.184538
08997		3.186169	-8.727244	135.902860
08998		3.250490	-8.526640	135.620219
08999		3.337260	-8.339596	135.333356
09000		3.432460	-8.166418	135.039203
09001		3.530007	-8.015814	134.742733
09002		3.622657	-7.874191	134.448580
09003		3.711767	-7.727139	134.154543
09004		3.773878	-7.567727	133.861896
09005		3.815750	-7.398861	133.571778
09006		3.855534	-7.229019	133.282000
09007		3.866610	-7.069623	132.995391
09008		3.851544	-6.923903	132.716556
09009		3.816643	-6.796204	132.446524
09010		3.758386	-6.684595	132.188166
09011		3.687206	-6.582292	131.939725
09012		3.611604	-6.479323	131.703130
09013		3.538914	-6.382616	131.472517
09014		3.482267	-6.277814	131.250853
09015		3.445538	-6.159168	131.037322
09016		3.432087	-6.030036	130.827083
09017		3.436499	-5.904394	130.617670
09018		3.451881	-5.783375	130.407857
09019		3.462930	-5.673592	130.194736
09020		3.454902	-5.570528	129.981694
09021		3.427192	-5.471439	129.767991
09022		3.375746	-5.371187	129.554839
09023		3.301838	-5.266327	129.345916
09024		3.219886	-5.153569	129.143391
09025		3.137309	-5.038791	128.941803
09026		3.058372	-4.917532	128.745469
09027		2.977773	-4.801594	128.548446
09028		2.897189	-4.689125	128.353357
09029		2.820322	-4.584448	128.155072
09030		2.748335	-4.486927	127.960038
09031		2.682466	-4.394893	127.760640
09032		2.618034	-4.303805	127.568699
09033		2.551033	-4.218379	127.379243
09034		2.495206	-4.134062	127.193817
09035		2.454762	-4.058307	127.009115
09036		2.409872	-3.990198	126.826766
09037		2.357265	-3.925148	126.645637
09038		2.295380	-3.867567	126.465596
09039		2.223265	-3.815096	126.292802
09040		2.146626	-3.764109	126.119467
09041		2.070610	-3.716436	125.948636
09042		1.996517	-3.672382	125.782082
09043		1.926927	-3.638879	125.615489
09044		1.859117	-3.611240	125.454947
09045		1.797648	-3.590359	125.296205
09046		1.731084	-3.578547	125.145120
09047		1.656176	-3.581360	124.996410
09048		1.566865	-3.594402	124.856937
09049		1.479751	-3.617301	124.722758
09050		1.395168	-3.641665	124.594416
09051		1.309154	-3.666353	124.472200
09052		1.222084	-3.688937	124.357078
09053		1.145448	-3.719514	124.250946
09054		1.080907	-3.750406	124.152362
09055		1.029625	-3.781687	124.064901
09056		0.983342	-3.807975	123.985468
09057		0.933673	-3.833770	123.908900
09058		0.879438	-3.860530	123.840638
09059		0.824271	-3.896303	123.781605
09060		0.770190	-3.940627	123.736763
09061		0.721505	-3.990705	123.705109
09062		0.674134	-4.037067	123.688677
09063		0.626267	-4.080529	123.682077
09064		0.579527	-4.118373	123.685869
09065		0.536819	-4.151184	123.700378
09066		0.500056	-4.176733	123.722465
09067		0.465916	-4.197334	123.749674
09068		0.433915	-4.211904	123.777807
09069		0.407296	-4.223984	123.806579
09070		0.388223	-4.229109	123.830696
09071		0.373272	-4.231048	123.853080
09072		0.358700	-4.230807	123.868412
09073		0.340570	-4.236608	123.876689
09074		0.317352	-4.245253	123.879684
09075		0.292637	-4.262428	123.876855
09076		0.265477	-4.283105	123.870071
09077		0.238805	-4.307034	123.859555
09078		0.211989	-4.334009	123.848877
09079		0.183589	-4.360998	123.837610
09080		0.158088	-4.394605	123.823085
09081		0.137107	-4.430562	123.810420
09082		0.121760	-4.466341	123.799348
09083		0.111745	-4.502962	123.789165
09084		0.100440	-4.535243	123.779130
09085		0.089276	-4.563786	123.767004
09086		0.080523	-4.590800	123.754293
09087		0.074121	-4.618451	123.738610
09088		0.065809	-4.647707	123.719037
09089		0.062133	-4.677870	123.699459
09090		0.056894	-4.706626	123.680981
09091		0.047224	-4.733684	123.662686
09092		0.032981	-4.755779	123.645068
09093		0.014153	-4.774303	123.629699
09094		-0.007517	-4.784127	123.613556
09095		-0.023800	-4.790721	123.598758
09096		-0.034331	-4.796375	123.585820
09097		-0.037816	-4.802431	123.575636
09098		-0.042375	-4.808548	123.567232
09099		-0.048426	-4.819869	123.559815
09100		-0.053830	-4.834125	123.556066
09101		-0.066654	-4.853033	123.554878
09102		-0.079916	-4.872031	123.553965
09103		-0.093627	-4.892407	123.560807
09104		-0.101240	-4.911440	123.572404
09105		-0.103044	-4.929414	123.588350
09106		-0.101055	-4.949106	123.606376
09107		-0.095487	-4.969369	123.627745
09108		-0.087324	-4.987307	123.648423
09109		-0.080877	-5.006062	123.668429
09110		-0.070777	-5.024719	123.682473
09111		-0.066973	-5.042863	123.697818
09112		-0.067563	-5.061209	123.711622
09113		-0.070956	-5.081487	123.723432
09114		-0.077298	-5.100453	123.734305
09115		-0.085318	-5.120235	123.740970
09116		-0.090568	-5.135516	123.745541
09117		-0.097946	-5.152714	123.742573
09118		-0.107142	-5.164932	123.735852
09119		-0.117134	-5.175790	123.724844
09120		-0.123457	-5.186456	123.714256
09121		-0.135616	-5.196239	123.697023
09122		-0.149716	-5.205075	123.678982
09123		-0.161410	-5.213812	123.661822
09124		-0.168174	-5.219774	123.644079
09125		-0.176333	-5.226883	123.624134
09126		-0.179788	-5.230137	123.605579
09127		-0.181546	-5.233277	123.586457
09128		-0.181772	-5.234567	123.566601
09129		-0.180081	-5.236877	123.547992
09130		-0.175639	-5.241275	123.530680
09131		-0.165627	-5.246900	123.516521
09132		-0.153900	-5.248334	123.506206
09133		-0.136942	-5.244726	123.496121
09134		-0.117140	-5.235789	123.490986
09135		-0.101700	-5.227066	123.487497
09136		-0.085497	-5.217141	123.484322
09137		-0.073696	-5.207311	123.485823
09138		-0.067578	-5.194431	123.486449
09139		-0.068079	-5.180616	123.489429
09140		-0.074565	-5.163416	123.492965
09141		-0.085065	-5.145886	123.496692
09142		-0.095634	-5.126280	123.498491
09143		-0.107712	-5.106033	123.497132
09144		-0.117907	-5.086047	123.498147
09145		-0.124894	-5.067806	123.499244
09146		-0.127732	-5.050834	123.501322
09147		-0.127117	-5.035816	123.505092
09148		-0.124458	-5.020450	123.508657
09149		-0.120759	-5.008409	123.510725
09150		-0.116467	-5.000062	123.509194
09151		-0.108517	-4.998946	123.507379
09152		-0.093392	-5.002007	123.504760
09153		-0.069014	-5.015033	123.502024
09154		-0.034012	-5.044581	123.505576
09155		0.015354	-5.089286	123.514190
09156		0.087592	-5.135403	123.520024
09157		0.166064	-5.186132	123.513462
09158		0.234527	-5.234438	123.495730
09159		0.296598	-5.271145	123.473662
09160		0.356694	-5.295044	123.445734
09161		0.422560	-5.317905	123.418936
09162		0.496361	-5.346639	123.396908
09163		0.570060	-5.369758	123.378488
09164		0.640590	-5.375267	123.355804
09165		0.703848	-5.362281	123.325406
09166		0.754284	-5.334253	123.294424
09167		0.803021	-5.306310	123.263415
09168		0.857431	-5.283164	123.241550
09169		0.916947	-5.264806	123.226387
09170		0.976307	-5.252784	123.221072
09171		1.031689	-5.246472	123.226966
09172		1.083100	-5.238421	123.245084
09173		1.126217	-5.226664	123.273597
09174		1.164161	-5.209212	123.308905
09175		1.195065	-5.191330	123.357508
09176		1.226405	-5.171187	123.418666
09177		1.253561	-5.148942	123.492240
09178		1.275807	-5.127313	123.582332
09179		1.292727	-5.106523	123.691728
09180		1.305468	-5.085564	123.822727
09181		1.320024	-5.059945	123.972920
09182		1.339484	-5.032660	124.141314
09183		1.367126	-4.996768	124.323104
09184		1.392586	-4.958814	124.512557
09185		1.417783	-4.919601	124.710964
09186		1.431890	-4.875618	124.917252
09187		1.441911	-4.828871	125.135308
09188		1.454886	-4.775423	125.363382
09189		1.474666	-4.714138	125.595320
09190		1.494740	-4.648483	125.830138
09191		1.509872	-4.580474	126.069513
09192		1.519890	-4.509975	126.316197
09193		1.534509	-4.437219	126.571047
09194		1.553407	-4.366248	126.829949
09195		1.571371	-4.301586	127.094594
09196		1.588669	-4.242865	127.370470
09197		1.611757	-4.195039	127.655365
09198		1.647849	-4.159117	127.949963
09199		1.699819	-4.130134	128.250107
09200		1.761542	-4.111809	128.554535
09201		1.824364	-4.101278	128.858292
09202		1.876658	-4.098260	129.162422
09203		1.919752	-4.102668	129.464623
09204		1.963456	-4.111541	129.762837
09205		1.995124	-4.119459	130.059828
09206		2.016150	-4.132769	130.359192
09207		2.036423	-4.156722	130.653132
09208		2.046337	-4.184535	130.943868
09209		2.041761	-4.223057	131.230656
09210		2.039309	-4.271061	131.515534
09211		2.049258	-4.325614	131.793006
09212		2.067279	-4.379640	132.063138
09213		2.079314	-4.440920	132.327483
09214		2.086755	-4.497806	132.593106
09215		2.091480	-4.563092	132.854829
09216		2.100112	-4.631622	133.118858
09217		2.108823	-4.703146	133.376971
09218		2.109890	-4.778689	133.632502
09219		2.112001	-4.859511	133.880141
09220		2.116885	-4.947119	134.120813
09221		2.110337	-5.043404	134.356041
09222		2.093380	-5.152583	134.597363
09223		2.072118	-5.260851	134.841849
09224		2.049710	-5.366961	135.087673
09225		2.030701	-5.475678	135.330323
09226		2.013734	-5.581823	135.569563
09227		1.992354	-5.692041	135.804355
09228		1.971670	-5.804700	136.039118
09229		1.951388	-5.913557	136.272425
09230		1.933853	-6.026576	136.500752
09231		1.919392	-6.143582	136.734246
09232		1.906668	-6.264031	136.960553
09233		1.898472	-6.387531	137.178986
09234		1.886061	-6.527013	137.390922
09235		1.869667	-6.673547	137.600140
09236		1.846389	-6.815646	137.810021
09237		1.821836	-6.956071	138.017638
09238		1.801486	-7.094782	138.225760
09239		1.774570	-7.230735	138.419663
09240		1.752824	-7.361006	138.603671
09241		1.727379	-7.493177	138.775078
09242		1.697284	-7.642943	138.934142
09243		1.669579	-7.787022	139.080231
09244		1.645960	-7.925113	139.214856
09245		1.611494	-8.064207	139.344372
09246		1.570342	-8.196701	139.462498
09247		1.520937	-8.326804	139.573691
09248		1.482984	-8.451662	139.681419
09249		1.455226	-8.573412	139.779467
09250		1.431903	-8.689573	139.868076
09251		1.416277	-8.801378	139.946810
09252		1.414028	-8.917341	140.015602
09253		1.420239	-9.036165	140.072710
09254		1.439376	-9.141040	140.111317
09255		1.462883	-9.232660	140.135608
09256		1.492881	-9.312184	140.143926
09257		1.527468	-9.378212	140.135633
09258		1.569052	-9.421722	140.114201
09259		1.619320	-9.447888	140.081149
09260		1.673413	-9.458073	140.037111
09261		1.738170	-9.460955	139.983306
09262		1.813507	-9.460267	139.916964
09263		1.894647	-9.454783	139.848543
09264		1.973550	-9.449638	139.776473
09265		2.050460	-9.440220	139.709015
09266		2.133194	-9.415134	139.642124
09267		2.216838	-9.374902	139.573097
09268		2.305227	-9.324589	139.498475
09269		2.393403	-9.265038	139.417767
09270		2.475296	-9.200661	139.330430
09271		2.546412	-9.140957	139.245275
09272		2.606383	-9.093606	139.167696
09273		2.661274	-9.057387	139.092609
09274		2.716853	-9.028806	139.021258
09275		2.763012	-9.000730	138.951419
09276		2.806250	-8.973806	138.883210
09277		2.843358	-8.956470	138.819230
09278		2.879794	-8.941175	138.758314
09279		2.903377	-8.927526	138.703006
09280		2.927070	-8.925884	138.653226
09281		2.954839	-8.935775	138.610055
09282		2.981868	-8.951597	138.575887
09283		3.010605	-8.976155	138.549208
09284		3.035249	-9.006827	138.529034
09285		3.048279	-9.040553	138.510391
09286		3.054255	-9.075193	138.490767
09287		3.055185	-9.113253	138.465053
09288		3.050679	-9.156823	138.437284
09289		3.045393	-9.206621	138.408085
09290		3.033765	-9.261964	138.386155
09291		3.019221	-9.319416	138.371860
09292		3.000187	-9.373681	138.367464
09293		2.978994	-9.425463	138.366584
09294		2.961187	-9.469224	138.372936
09295		2.944327	-9.511653	138.377135
09296		2.925785	-9.556744	138.386082
09297		2.898867	-9.605168	138.396385
09298		2.869998	-9.646328	138.410324
09299		2.837937	-9.679411	138.428623
09300		2.801175	-9.701959	138.452748
09301		2.766715	-9.718012	138.479634
09302		2.736360	-9.724799	138.506172
09303		2.701774	-9.724641	138.530915
09304		2.675788	-9.725155	138.556828
09305		2.650848	-9.726603	138.580477
09306		2.623666	-9.728582	138.602626
09307		2.593506	-9.732879	138.627533
09308		2.571283	-9.736284	138.651740
09309		2.543779	-9.735861	138.677971
09310		2.515343	-9.730975	138.702732
09311		2.489818	-9.727150	138.725799
09312		2.457214	-9.721507	138.750775
09313		2.425626	-9.717043	138.775630
09314		2.393948	-9.711350	138.803374
09315		2.362794	-9.706901	138.829696
09316		2.334510	-9.706187	138.859176
09317		2.314407	-9.709192	138.887135
09318		2.305557	-9.711517	138.919130
09319		2.292672	-9.719365	138.952695
09320		2.278985	-9.721966	138.985255
09321		2.266371	-9.720018	139.014030
09322		2.252024	-9.715848	139.038398
09323		2.236844	-9.709956	139.057783
09324		2.218529	-9.701689	139.073561
09325		2.195394	-9.695206	139.089261
09326		2.168577	-9.688953	139.109286
09327		2.135802	-9.687826	139.135284
09328		2.098540	-9.686194	139.163336
09329		2.064511	-9.689089	139.194821
09330		2.032952	-9.692571	139.226597
09331		2.005292	-9.702283	139.258669
09332		1.984278	-9.723951	139.291532
09333		1.958864	-9.752374	139.330004
09334		1.923278	-9.792736	139.376680
09335		1.886289	-9.838423	139.433335
09336		1.835396	-9.889784	139.498368
09337		1.786064	-9.943016	139.572852
09338		1.740157	-9.998696	139.648130
09339		1.695235	-10.060622	139.715490
09340		1.649484	-10.115317	139.777014
09341		1.591285	-10.167879	139.841915
09342		1.529570	-10.218051	139.917756
09343		1.477439	-10.264917	140.002977
09344		1.434474	-10.311269	140.093996
09345		1.413885	-10.353756	140.186976
09346		1.407321	-10.391093	140.278156
09347		1.407888	-10.427134	140.365828
09348		1.416585	-10.460264	140.445568
09349		1.431334	-10.484222	140.513808
09350		1.443157	-10.500921	140.574105
09351		1.452257	-10.521452	140.625412
09352		1.459890	-10.534889	140.667904
09353		1.468520	-10.548626	140.699946
09354		1.477367	-10.556609	140.720490
09355		1.483122	-10.561555	140.728635
09356		1.488864	-10.559086	140.729884
09357		1.498285	-10.548798	140.732509
09358		1.512800	-10.528931	140.731443
09359		1.526484	-10.504421	140.733185
09360		1.540267	-10.482846	140.735353
09361		1.554272	-10.463790	140.740036
09362		1.569641	-10.443872	140.741800
09363		1.582893	-10.421598	140.742096
09364		1.596105	-10.396090	140.740351
09365		1.607035	-10.371436	140.738733
09366		1.618930	-10.341290	140.730765
09367		1.629976	-10.306528	140.725623
09368		1.638132	-10.268127	140.720083
09369		1.643929	-10.228423	140.714845
09370		1.647549	-10.186248	140.708745
09371		1.648135	-10.144354	140.700567
09372		1.652471	-10.101897	140.686373
09373		1.652801	-10.064298	140.669317
09374		1.651073	-10.028765	140.651224
09375		1.646023	-9.999608	140.632034
09376		1.639445	-9.968473	140.619317
09377		1.632751	-9.936939	140.608287
09378		1.629513	-9.895260	140.599492
09379		1.624174	-9.845620	140.592763
09380		1.620660	-9.782909	140.583146
09381		1.619539	-9.712783	140.565766
09382		1.618958	-9.640524	140.545970
09383		1.614573	-9.567303	140.524518
09384		1.601747	-9.496543	140.500617
09385		1.584727	-9.423856	140.479167
09386		1.565112	-9.349888	140.460838
09387		1.547837	-9.275151	140.441706
09388		1.534855	-9.196157	140.419174
09389		1.531624	-9.116122	140.387783
09390		1.533095	-9.034743	140.346631
09391		1.539899	-8.958524	140.290161
09392		1.545162	-8.885631	140.227266
09393		1.542280	-8.815003	140.156771
09394		1.532422	-8.740781	140.081984
09395		1.521583	-8.666315	139.998918
09396		1.515177	-8.590649	139.908351
09397		1.516131	-8.523251	139.811247
09398		1.518793	-8.470427	139.703243
09399		1.533023	-8.418897	139.579903
09400		1.552379	-8.359349	139.445012
09401		1.577226	-8.288933	139.296372
09402		1.605941	-8.207924	139.138584
09403		1.635656	-8.115939	138.973937
09404		1.668230	-8.009374	138.803604
09405		1.703242	-7.896192	138.623318
09406		1.736215	-7.782560	138.440171
09407		1.770809	-7.672513	138.247770
09408		1.804928	-7.566910	138.053735
09409		1.830930	-7.476589	137.859955
09410		1.853690	-7.387706	137.668931
09411		1.881116	-7.299288	137.477533
09412		1.913732	-7.203200	137.284468
09413		1.961991	-7.089683	137.087119
09414		2.022729	-6.961439	136.880922
09415		2.092727	-6.824495	136.667730
09416		2.162014	-6.676863	136.445656
09417		2.227626	-6.527228	136.218569
09418		2.285337	-6.387199	135.980441
09419		2.334871	-6.257625	135.735034
09420		2.378490	-6.138348	135.483484
09421		2.420159	-6.025113	135.222309
09422		2.457200	-5.924526	134.957696
09423		2.518755	-5.833032	134.683005
09424		2.589980	-5.737315	134.406314
09425		2.639997	-5.643129	134.131173
09426		2.671299	-5.557678	133.859142
09427		2.682771	-5.477020	133.590534
09428		2.671188	-5.395104	133.327527
09429		2.646543	-5.309584	133.071044
09430		2.620270	-5.215368	132.820857
09431		2.601685	-5.114716	132.577121
09432		2.615736	-5.007570	132.334017
09433		2.657073	-4.901673	132.092377
09434		2.702054	-4.814128	131.857835
09435		2.737329	-4.750262	131.635412
09436		2.747465	-4.697269	131.423998
09437		2.729973	-4.647375	131.222360
09438		2.677889	-4.597535	131.033967
09439		2.594109	-4.546119	130.856262
09440		2.502940	-4.490561	130.688507
09441		2.420580	-4.430538	130.525538
09442		2.351184	-4.364746	130.366543
09443		2.295657	-4.302777	130.204629
09444		2.256530	-4.239710	130.042101
09445		2.236388	-4.189174	129.872039
09446		2.208594	-4.155413	129.706685
09447		2.167299	-4.134130	129.542279
09448		2.110323	-4.122084	129.385677
09449		2.040190	-4.120341	129.231684
09450		1.959812	-4.118098	129.080832
09451		1.872211	-4.112878	128.932829
09452		1.775299	-4.105789	128.786800
09453		1.684503	-4.096846	128.636120
09454		1.623586	-4.075115	128.477546
09455		1.570779	-4.052290	128.310879
09456		1.510243	-4.028010	128.144206
09457		1.443682	-4.002359	127.975295
09458		1.369012	-3.977515	127.808192
09459		1.283282	-3.957865	127.642739
09460		1.191860	-3.942604	127.487324
09461		1.105620	-3.923569	127.336684
09462		1.035473	-3.901666	127.188184
09463		0.987083	-3.877632	127.036517
09464		0.945065	-3.850745	126.883557
09465		0.899879	-3.822826	126.729232
09466		0.856411	-3.799019	126.576460
09467		0.809822	-3.786520	126.431317
09468		0.755881	-3.780209	126.296138
09469		0.704019	-3.783218	126.171271
09470		0.658053	-3.794900	126.056886
09471		0.612413	-3.813526	125.957099
09472		0.572702	-3.839913	125.871616
09473		0.528894	-3.875139	125.799038
09474		0.478165	-3.912668	125.742577
09475		0.424534	-3.947730	125.703357
09476		0.371545	-3.976689	125.681783
09477		0.326914	-4.000439	125.675737
09478		0.293467	-4.021351	125.685306
09479		0.270905	-4.039470	125.704458
09480		0.263669	-4.053057	125.732194
09481		0.267321	-4.057700	125.762769
09482		0.273074	-4.053581	125.791936
09483		0.284041	-4.046054	125.816468
09484		0.293442	-4.036221	125.837969
09485		0.294340	-4.031085	125.852478
09486		0.287439	-4.032879	125.866298
09487		0.273688	-4.045111	125.878395
09488		0.252297	-4.060937	125.889219
09489		0.230483	-4.078155	125.897569
09490		0.207143	-4.091433	125.907120
09491		0.183529	-4.101999	125.914643
09492		0.161408	-4.104671	125.918745
09493		0.138108	-4.105271	125.926099
09494		0.116090	-4.110651	125.927469
09495		0.095192	-4.122045	125.924411
09496		0.074102	-4.135505	125.918926
09497		0.061045	-4.156247	125.912720
09498		0.054830	-4.181249	125.903713
09499		0.050380	-4.207014	125.890218
09500		0.043526	-4.235405	125.871137
09501		0.035897	-4.265549	125.841841
09502		0.023965	-4.304441	125.803656
09503		0.013439	-4.352288	125.760491
09504		-0.000378	-4.409397	125.714050
09505		-0.013472	-4.472800	125.663949
09506		-0.029600	-4.544985	125.613287
09507		-0.052649	-4.624822	125.563480
09508		-0.083343	-4.706677	125.517142
09509		-0.118683	-4.790529	125.473689
09510		-0.161894	-4.874434	125.435883
09511		-0.208938	-4.962358	125.405622
09512		-0.258285	-5.046281	125.378443
09513		-0.305886	-5.130194	125.356374
09514		-0.350422	-5.211020	125.339383
09515		-0.389256	-5.292641	125.325054
09516		-0.423969	-5.372424	125.311751
09517		-0.460370	-5.452061	125.298300
09518		-0.496795	-5.528822	125.286441
09519		-0.534322	-5.601783	125.273300
09520		-0.579307	-5.669159	125.257984
09521		-0.632764	-5.731918	125.244024
09522		-0.693782	-5.790797	125.232617
09523		-0.756285	-5.845459	125.221347
09524		-0.818796	-5.894667	125.210962
09525		-0.875870	-5.938920	125.197099
09526		-0.933161	-5.975826	125.186726
09527		-0.987373	-6.005815	125.178517
09528		-1.044646	-6.029749	125.168112
09529		-1.094945	-6.049837	125.155194
09530		-1.138877	-6.064924	125.140522
09531		-1.184341	-6.076547	125.125274
09532		-1.229687	-6.083690	125.107120
09533		-1.264290	-6.084203	125.090683
09534		-1.299149	-6.079740	125.072353
09535		-1.331056	-6.075905	125.052484
09536		-1.361847	-6.069729	125.030769
09537		-1.390413	-6.062326	125.008278
09538		-1.416500	-6.051801	124.983793
09539		-1.438895	-6.038522	124.958833
09540		-1.459791	-6.022544	124.931250
09541		-1.479700	-6.006340	124.905163
09542		-1.499283	-5.988678	124.881174
09543		-1.519458	-5.974803	124.853781
09544		-1.539143	-5.962270	124.831215
09545		-1.556491	-5.951337	124.810826
09546		-1.573415	-5.940716	124.793490
09547		-1.592365	-5.934713	124.778600
09548		-1.607647	-5.929741	124.766206
09549		-1.623632	-5.926842	124.755043
09550		-1.641029	-5.927825	124.743017
09551		-1.657943	-5.929914	124.735479
09552		-1.672211	-5.933233	124.727423
09553		-1.683887	-5.936875	124.724952
09554		-1.691719	-5.940759	124.725056
09555		-1.693269	-5.944312	124.727267
09556		-1.690733	-5.948572	124.731211
09557		-1.690082	-5.953324	124.737898
09558		-1.687866	-5.958934	124.744295
09559		-1.687157	-5.962894	124.751370
09560		-1.689126	-5.969207	124.759497
09561		-1.691573	-5.977033	124.766147
09562		-1.697552	-5.984237	124.772615
09563		-1.702399	-5.991407	124.777388
09564		-1.707856	-5.999295	124.784719
09565		-1.712034	-6.006364	124.790467
09566		-1.719425	-6.016044	124.792878
09567		-1.725182	-6.024611	124.798499
09568		-1.728965	-6.035515	124.804560
09569		-1.723511	-6.049929	124.810243
09570		-1.717235	-6.068587	124.814671
09571		-1.709214	-6.092376	124.816638
09572		-1.700461	-6.115948	124.818918
09573		-1.689396	-6.146341	124.816150
09574		-1.681834	-6.180498	124.815270
09575		-1.670961	-6.213204	124.811068
09576		-1.648008	-6.246323	124.805165
09577		-1.620976	-6.281676	124.801709
09578		-1.596401	-6.309940	124.795733
09579		-1.571997	-6.334917	124.789069
09580		-1.543122	-6.363427	124.777480
09581		-1.513019	-6.388669	124.769558
09582		-1.486513	-6.408926	124.759850
09583		-1.456610	-6.425257	124.751545
09584		-1.424042	-6.441218	124.743821
09585		-1.383629	-6.455583	124.740641
09586		-1.324452	-6.476689	124.746376
09587		-1.249580	-6.503061	124.758548
09588		-1.161119	-6.519584	124.765280
09589		-1.069196	-6.541703	124.767516
09590		-0.971927	-6.573235	124.774651
09591		-0.875774	-6.615295	124.789990
09592		-0.783454	-6.655613	124.807264
09593		-0.705117	-6.693835	124.824143
09594		-0.642467	-6.739330	124.843252
09595		-0.575155	-6.791183	124.856818
09596		-0.512648	-6.830175	124.865150
09597		-0.437964	-6.850408	124.865189
09598		-0.363886	-6.853401	124.855609
09599		-0.293756	-6.841778	124.838977
09600		-0.227794	-6.820028	124.821640
09601		-0.160687	-6.788798	124.799921
09602		-0.095294	-6.747929	124.778217
09603		-0.029654	-6.702405	124.754502
09604		0.039127	-6.661548	124.729416
09605		0.105241	-6.622025	124.705340
09606		0.165319	-6.583171	124.686741
09607		0.211316	-6.550097	124.675557
09608		0.247259	-6.518695	124.673577
09609		0.275054	-6.494090	124.687877
09610		0.299684	-6.471609	124.715441
09611		0.325501	-6.448909	124.755315
09612		0.344326	-6.426656	124.805796
09613		0.362690	-6.401118	124.869458
09614		0.376722	-6.370062	124.945235
09615		0.387403	-6.338929	125.035538
09616		0.398547	-6.307586	125.135426
09617		0.412558	-6.275627	125.246188
09618		0.423815	-6.234762	125.367679
09619		0.429979	-6.183635	125.500946
09620		0.428686	-6.124363	125.645554
09621		0.418819	-6.057842	125.799868
09622		0.411272	-5.985582	125.966158
09623		0.410656	-5.913362	126.140043
09624		0.414379	-5.840704	126.324741
09625		0.409639	-5.769723	126.521173
09626		0.400674	-5.700278	126.734992
09627		0.396169	-5.631443	126.959324
09628		0.399803	-5.563610	127.194332
09629		0.405842	-5.498887	127.439242
09630		0.421705	-5.432888	127.685236
09631		0.436765	-5.368821	127.928612
09632		0.455254	-5.312547	128.169981
09633		0.475495	-5.267266	128.407886
09634		0.497548	-5.233078	128.644408
09635		0.515538	-5.210832	128.876577
09636		0.524924	-5.196079	129.104462
09637		0.526958	-5.194948	129.323981
09638		0.533456	-5.205026	129.535305
09639		0.552710	-5.223211	129.731076
09640		0.565576	-5.242457	129.912173
09641		0.579797	-5.268414	130.080767
09642		0.607813	-5.299702	130.239712
09643		0.633422	-5.336214	130.391226
09644		0.653872	-5.371348	130.537604
09645		0.678672	-5.409301	130.675460
09646		0.702826	-5.444613	130.801575
09647		0.708920	-5.489436	130.924498
09648		0.713773	-5.542127	131.040649
09649		0.723375	-5.600402	131.152798
09650		0.742324	-5.661957	131.265391
09651		0.761169	-5.732738	131.379544
09652		0.782626	-5.810351	131.498654
09653		0.807746	-5.890846	131.621096
09654		0.840013	-5.963861	131.743587
09655		0.868855	-6.037587	131.869876
09656		0.890929	-6.110893	131.999292
09657		0.913250	-6.179968	132.131320
09658		0.930799	-6.242804	132.264529
09659		0.946110	-6.303200	132.399341
09660		0.955753	-6.361948	132.538273
09661		0.965253	-6.420914	132.683700
09662		0.979439	-6.483759	132.837217
09663		0.996189	-6.546053	132.994285
09664		1.020112	-6.604722	133.150676
09665		1.038705	-6.665740	133.306052
09666		1.039089	-6.727845	133.463990
09667		1.031563	-6.791503	133.625039
09668		1.024198	-6.858570	133.789300
09669		1.022857	-6.927818	133.959281
09670		1.023827	-7.006945	134.143246
09671		1.027283	-7.088470	134.330061
09672		1.037663	-7.178199	134.517649
09673		1.054380	-7.272630	134.707440
09674		1.067734	-7.370370	134.893245
09675		1.090689	-7.475527	135.075871
09676		1.116529	-7.583096	135.254130
09677		1.145587	-7.693627	135.427847
09678		1.168821	-7.808044	135.600656
09679		1.190230	-7.930878	135.772949
09680		1.211477	-8.054076	135.939417
09681		1.229614	-8.178059	136.101247
09682		1.247560	-8.297194	136.257728
09683		1.257161	-8.417683	136.410807
09684		1.258508	-8.534416	136.560815
09685		1.255354	-8.652520	136.706550
09686		1.244096	-8.765999	136.849638
09687		1.229260	-8.880919	136.993408
09688		1.208212	-8.991635	137.130295
09689		1.179515	-9.097603	137.266310
09690		1.142442	-9.200607	137.401088
09691		1.101107	-9.301363	137.534812
09692		1.063325	-9.403821	137.667798
09693		1.039007	-9.506113	137.793205
09694		1.031654	-9.605910	137.905981
09695		1.038010	-9.703114	138.006674
09696		1.049719	-9.799424	138.098901
09697		1.058009	-9.894309	138.181365
09698		1.069524	-9.982356	138.254486
09699		1.089041	-10.061747	138.315370
09700		1.120930	-10.127522	138.359629
09701		1.167206	-10.169338	138.387109
09702		1.234751	-10.176596	138.391471
09703		1.312513	-10.164033	138.372683
09704		1.390160	-10.142733	138.333336
09705		1.470072	-10.117110	138.280679
09706		1.546084	-10.088389	138.216113
09707		1.622417	-10.060077	138.142043
09708		1.695598	-10.030345	138.063817
09709		1.771550	-9.994328	137.979709
09710		1.850138	-9.947816	137.890499
09711		1.936487	-9.896508	137.790460
09712		2.018637	-9.848658	137.687896
09713		2.102452	-9.807891	137.582149
09714		2.184799	-9.770591	137.477268
09715		2.258406	-9.744610	137.382022
09716		2.330041	-9.731687	137.299832
09717		2.402018	-9.724924	137.222830
09718		2.465987	-9.718589	137.151956
09719		2.527434	-9.716985	137.082396
09720		2.582171	-9.716754	137.017673
09721		2.631933	-9.721670	136.956702
09722		2.685232	-9.728521	136.899258
09723		2.737776	-9.741004	136.843213
09724		2.782262	-9.754241	136.795486
09725		2.826099	-9.766381	136.750830
09726		2.865891	-9.774790	136.715059
09727		2.898945	-9.776348	136.684694
09728		2.929820	-9.775634	136.653437
09729		2.952846	-9.775169	136.625401
09730		2.975770	-9.771009	136.598046
09731		2.993851	-9.766410	136.570612
09732		3.000655	-9.757977	136.544578
09733		3.001335	-9.747652	136.522440
09734		2.996666	-9.733804	136.505004
09735		2.997506	-9.724681	136.488209
09736		3.001148	-9.715328	136.480879
09737		3.005418	-9.705846	136.475355
09738		3.003619	-9.694096	136.477075
09739		2.996593	-9.683343	136.484853
09740		2.986050	-9.675159	136.496817
09741		2.973615	-9.666469	136.520745
09742		2.964877	-9.664443	136.550219
09743		2.957319	-9.664480	136.582813
09744		2.946863	-9.664040	136.614310
09745		2.931891	-9.660864	136.647189
09746		2.915637	-9.658323	136.681368
09747		2.897995	-9.659527	136.717857
09748		2.875732	-9.664309	136.757443
09749		2.854084	-9.668426	136.801608
09750		2.830742	-9.667203	136.846796
09751		2.816894	-9.668967	136.890532
09752		2.806073	-9.668582	136.931544
09753		2.795010	-9.674677	136.967626
09754		2.782528	-9.680226	136.999635
09755		2.766860	-9.689668	137.028371
09756		2.742523	-9.702548	137.057528
09757		2.715799	-9.719451	137.088416
09758		2.685373	-9.742602	137.122453
09759		2.649853	-9.765697	137.160904
09760		2.613362	-9.787655	137.199415
09761		2.581978	-9.816636	137.237136
09762		2.552773	-9.847746	137.274269
09763		2.531009	-9.882759	137.311056
09764		2.513936	-9.918968	137.347455
09765		2.512811	-9.958236	137.384782
09766		2.516908	-10.005035	137.427932
09767		2.520164	-10.054553	137.473133
09768		2.524649	-10.103510	137.517659
09769		2.522905	-10.151039	137.563455
09770		2.516227	-10.195400	137.612566
09771		2.511714	-10.241808	137.660421
09772		2.510783	-10.290522	137.706828
09773		2.508166	-10.339610	137.750360
09774		2.501070	-10.387075	137.790362
09775		2.496599	-10.436001	137.833197
09776		2.495052	-10.485813	137.872810
09777		2.493460	-10.535194	137.917904
09778		2.491217	-10.584693	137.961170
09779		2.487809	-10.633170	138.006183
09780		2.482712	-10.679848	138.048878
09781		2.477943	-10.721530	138.087559
09782		2.472366	-10.758908	138.124625
09783		2.468042	-10.787130	138.155612
09784		2.467097	-10.809869	138.179902
09785		2.463666	-10.825621	138.199115
09786		2.456257	-10.835077	138.214074
09787		2.446669	-10.843622	138.226269
09788		2.436736	-10.847083	138.238891
09789		2.423997	-10.852099	138.249710
09790		2.413818	-10.854298	138.253211
09791		2.401912	-10.854860	138.256050
09792		2.392382	-10.854366	138.256493
09793		2.382749	-10.859613	138.252504
09794		2.379408	-10.864809	138.248342
09795		2.378169	-10.872312	138.245182
09796		2.378337	-10.878519	138.241780
09797		2.374986	-10.889800	138.239128
09798		2.369202	-10.899228	138.240101
09799		2.364257	-10.908930	138.237896
09800		2.350535	-10.922435	138.233438
09801		2.334481	-10.942763	138.227999
09802		2.319471	-10.970978	138.223027
09803		2.304206	-11.006864	138.218685
09804		2.285425	-11.047126	138.216264
09805		2.261990	-11.088358	138.214289
09806		2.233757	-11.131379	138.212796
09807		2.205302	-11.179590	138.209786
09808		2.170523	-11.221653	138.202749
09809		2.131746	-11.263605	138.195780
09810		2.092139	-11.303706	138.189341
09811		2.048522	-11.341004	138.185747
09812		2.002860	-11.371641	138.185002
09813		1.953547	-11.398873	138.191277
09814		1.902904	-11.420598	138.199957
09815		1.851533	-11.434849	138.217747
09816		1.800446	-11.445335	138.237653
09817		1.751846	-11.458068	138.260006
09818		1.702699	-11.471739	138.283727
09819		1.656504	-11.489480	138.305153
09820		1.611271	-11.506557	138.322336
09821		1.569142	-11.531186	138.331772
09822		1.528788	-11.553310	138.336978
09823		1.489945	-11.570889	138.335974
09824		1.447492	-11.579825	138.332080
09825		1.406340	-11.583569	138.320966
09826		1.367145	-11.577205	138.303854
09827		1.332703	-11.562747	138.277520
09828		1.303042	-11.542232	138.240368
09829		1.281494	-11.520681	138.193777
09830		1.261594	-11.499370	138.136440
09831		1.252180	-11.482174	138.068930
09832		1.252315	-11.462965	137.990012
09833		1.260727	-11.448825	137.904272
09834		1.280579	-11.435842	137.811051
09835		1.312757	-11.416506	137.709261
09836		1.354176	-11.384810	137.599613
09837		1.400910	-11.335722	137.481567
09838		1.447621	-11.271081	137.361349
09839		1.483507	-11.193161	137.239094
09840		1.515762	-11.103028	137.113894
09841		1.545912	-11.005191	136.985494
09842		1.577993	-10.897013	136.856566
09843		1.615400	-10.785790	136.724715
09844		1.658976	-10.677012	136.593778
09845		1.710427	-10.571651	136.459673
09846		1.769982	-10.469947	136.321597
09847		1.839646	-10.372230	136.179766
09848		1.916030	-10.278442	136.031975
09849		1.988085	-10.187051	135.886827
09850		2.054166	-10.098858	135.742099
09851		2.109983	-10.010214	135.601310
09852		2.153160	-9.918674	135.464856
09853		2.182423	-9.826619	135.331079
09854		2.207965	-9.737489	135.202645
09855		2.234819	-9.653056	135.072425
09856		2.260516	-9.567319	134.946069
09857		2.288243	-9.481809	134.813823
09858		2.311240	-9.398931	134.678013
09859		2.327302	-9.323210	134.539467
09860		2.341840	-9.250404	134.397321
09861		2.357879	-9.174583	134.253380
09862		2.361615	-9.098555	134.108299
09863		2.357018	-9.030159	133.965611
09864		2.341584	-8.964531	133.818292
09865		2.323563	-8.905462	133.671211
09866		2.306124	-8.857424	133.524954
09867		2.293828	-8.824734	133.375360
09868		2.290634	-8.799855	133.220961
09869		2.299330	-8.782664	133.060646
09870		2.316880	-8.768005	132.889153
09871		2.336102	-8.760492	132.710882
09872		2.357870	-8.754233	132.529046
09873		2.376701	-8.755283	132.345596
09874		2.396628	-8.761458	132.160557
09875		2.407699	-8.774591	131.975484
09876		2.414027	-8.787741	131.789737
09877		2.410972	-8.788725	131.603610
09878		2.406053	-8.764007	131.421383
09879		2.396431	-8.721087	131.245410
09880		2.380772	-8.658888	131.080969
09881		2.365018	-8.586168	130.926423
09882		2.352497	-8.505994	130.778990
09883		2.350267	-8.425618	130.635521
09884		2.365543	-8.347614	130.497113
09885		2.396783	-8.277500	130.360001
09886		2.430838	-8.213228	130.221555
09887		2.460803	-8.155159	130.086975
09888		2.487726	-8.101772	129.951391
09889		2.506832	-8.050407	129.815414
09890		2.510742	-7.996180	129.680568
09891		2.498900	-7.940007	129.547391
09892		2.472787	-7.881984	129.419601
09893		2.444687	-7.822528	129.290950
09894		2.418838	-7.762145	129.166124
09895		2.398713	-7.701333	129.039431
09896		2.381491	-7.637699	128.916403
09897		2.361676	-7.573433	128.790765
09898		2.338313	-7.511817	128.669261
09899		2.314810	-7.455588	128.551489
09900		2.288543	-7.398623	128.439134
09901		2.263163	-7.345661	128.329701
09902		2.240705	-7.296230	128.223594
09903		2.225090	-7.250666	128.116393
09904		2.214547	-7.209369	128.007421
09905		2.205314	-7.172208	127.897618
09906		2.192173	-7.136532	127.786819
09907		2.179828	-7.105037	127.673766
09908		2.165796	-7.076267	127.558651
09909		2.148864	-7.052748	127.441429
09910		2.133112	-7.038133	127.325381
09911		2.117176	-7.028891	127.206228
09912		2.097034	-7.027069	127.086827
09913		2.071378	-7.028634	126.965986
09914		2.045974	-7.032923	126.843530
09915		2.019621	-7.040390	126.716304
09916		1.990606	-7.050794	126.584501
09917		1.967031	-7.064157	126.445894
09918		1.942615	-7.088286	126.301829
09919		1.925332	-7.116627	126.148931
09920		1.913516	-7.144788	125.991969
09921		1.904434	-7.173698	125.826484
09922		1.894450	-7.198860	125.654933
09923		1.889184	-7.223174	125.476574
09924		1.882901	-7.245498	125.293273
09925		1.878644	-7.260276	125.109866
09926		1.875639	-7.267639	124.925446
09927		1.871292	-7.275938	124.749524
09928		1.866341	-7.282804	124.579760
09929		1.853685	-7.302442	124.421669
09930		1.834377	-7.326872	124.274335
09931		1.808888	-7.352948	124.139197
09932		1.774872	-7.381718	124.021037
09933		1.738592	-7.410493	123.917169
09934		1.706304	-7.439277	123.828107
09935		1.672487	-7.469668	123.750111
09936		1.639716	-7.499281	123.682072
09937		1.606871	-7.528998	123.625693
09938		1.572974	-7.555229	123.580979
09939		1.540620	-7.575893	123.548371
09940		1.512784	-7.589785	123.524402
09941		1.487198	-7.599718	123.509519
09942		1.467059	-7.603222	123.503325
09943		1.452657	-7.605437	123.503334
09944		1.444760	-7.606864	123.510201
09945		1.437169	-7.610976	123.520487
09946		1.425677	-7.615871	123.533209
09947		1.411562	-7.623660	123.545672
09948		1.394395	-7.633378	123.560513
09949		1.376578	-7.641567	123.573968
09950		1.359507	-7.649733	123.589774
09951		1.348004	-7.660107	123.601755
09952		1.337249	-7.667642	123.613139
09953		1.328955	-7.675118	123.622210
09954		1.322166	-7.684228	123.630510
09955		1.313764	-7.692257	123.637096
09956		1.308253	-7.698319	123.639687
09957		1.301150	-7.710154	123.637889
09958		1.293618	-7.721624	123.630941
09959		1.282705	-7.736351	123.617983
09960		1.273026	-7.753758	123.598878
09961		1.260656	-7.774826	123.579306
09962		1.246950	-7.799050	123.559406
09963		1.234711	-7.827234	123.539164
09964		1.222082	-7.857122	123.517374
09965		1.205368	-7.892455	123.497176
09966		1.187956	-7.926497	123.475960
09967		1.173647	-7.961685	123.457978
09968		1.161135	-7.992844	123.440039
09969		1.151435	-8.022127	123.425518
09970		1.140411	-8.047955	123.415765
09971		1.130075	-8.075103	123.407333
09972		1.122442	-8.101358	123.401800
09973		1.113466	-8.123689	123.398847
09974		1.101965	-8.144015	123.394502
09975		1.092635	-8.164079	123.391193
09976		1.082670	-8.179305	123.384695
09977		1.075347	-8.192177	123.377461
09978		1.069979	-8.206342	123.368495
09979		1.066657	-8.221841	123.360109
09980		1.060738	-8.237884	123.350994
09981		1.050798	-8.256815	123.342807
09982		1.040301	-8.274934	123.337845
09983		1.025877	-8.294407	123.334869
09984		1.010812	-8.315612	123.335738
09985		0.994649	-8.336641	123.337998
09986		0.979990	-8.359295	123.339284
09987		0.965669	-8.383793	123.344195
09988		0.949672	-8.409460	123.351239
09989		0.936056	-8.436651	123.355241
09990		0.919342	-8.467513	123.362417
09991		0.901714	-8.500689	123.365847
09992		0.882839	-8.535481	123.370061
09993		0.865904	-8.572153	123.372130
09994		0.853244	-8.609672	123.372151
09995		0.840103	-8.650196	123.369548
09996		0.824419	-8.689521	123.365329
09997		0.808382	-8.731307	123.360987
09998		0.794624	-8.770784	123.359570
09999		0.782351	-8.813192	123.355795
10000		0.768121	-8.851988	123.353527
10001		0.754066	-8.891438	123.351781
10002		0.737131	-8.929418	123.351460
10003		0.719215	-8.966674	123.354961
10004		0.702113	-9.002349	123.361648
10005		0.687771	-9.035185	123.370382
10006		0.671925	-9.065790	123.380454
10007		0.652784	-9.094551	123.395906
10008		0.634630	-9.119150	123.413356
10009		0.618260	-9.141560	123.434723
10010		0.607410	-9.161300	123.456130
10011		0.598368	-9.178640	123.479125
10012		0.590632	-9.191003	123.498992
10013		0.581176	-9.196962	123.518939
10014		0.575310	-9.199382	123.537238
10015		0.569995	-9.201428	123.548430
10016		0.560934	-9.203532	123.550032
10017		0.555300	-9.206001	123.549588
10018		0.553304	-9.212769	123.546090
10019		0.555515	-9.222781	123.541319
10020		0.556960	-9.234040	123.536256
10021		0.553898	-9.246709	123.531743
10022		0.546584	-9.254699	123.522496
10023		0.539819	-9.264319	123.509405
10024		0.534347	-9.272011	123.498625
10025		0.532174	-9.274935	123.489683
10026		0.535870	-9.277484	123.481295
10027		0.544631	-9.277558	123.474036
10028		0.554805	-9.273140	123.468281
10029		0.566734	-9.267105	123.463490
10030		0.576453	-9.262009	123.456858
10031		0.584644	-9.255296	123.451098
10032		0.591789	-9.245831	123.443955
10033		0.597512	-9.233227	123.438749
10034		0.601365	-9.216947	123.434573
10035		0.605675	-9.197258	123.430787
10036		0.611426	-9.172260	123.428876
10037		0.619837	-9.143982	123.424577
10038		0.629389	-9.117053	123.422706
10039		0.638307	-9.089443	123.419017
10040		0.649268	-9.061756	123.416906
10041		0.665045	-9.035667	123.415596
10042		0.685307	-9.009363	123.417851
10043		0.710939	-8.983039	123.423528
10044		0.739837	-8.954898	123.434114
10045		0.769446	-8.927386	123.446439
10046		0.795511	-8.901971	123.461413
10047		0.824616	-8.876216	123.480831
10048		0.862903	-8.851152	123.504012
10049		0.910536	-8.824955	123.525079
10050		0.968041	-8.790810	123.540375
10051		1.033150	-8.746994	123.554364
10052		1.103647	-8.699203	123.564861
10053		1.176278	-8.649504	123.575730
10054		1.249439	-8.591076	123.583299
10055		1.328298	-8.541493	123.589040
10056		1.408752	-8.491145	123.595525
10057		1.488318	-8.429243	123.597194
10058		1.561908	-8.361253	123.596230
10059		1.633782	-8.284127	123.592618
10060		1.703236	-8.191098	123.588399
10061		1.781777	-8.090700	123.584225
10062		1.878385	-7.990225	123.576582
10063		1.973555	-7.884970	123.571361
10064		2.067372	-7.768759	123.564754
10065		2.162171	-7.645920	123.561868
10066		2.244275	-7.515045	123.566453
10067		2.318858	-7.376021	123.578526
10068		2.385252	-7.233293	123.599213
10069		2.445322	-7.085748	123.626908
10070		2.498191	-6.938487	123.665593
10071		2.550494	-6.787452	123.716875
10072		2.610399	-6.626210	123.782782
10073		2.674657	-6.461354	123.857225
10074		2.736954	-6.291282	123.940064
10075		2.794395	-6.122803	124.034126
10076		2.852010	-5.944940	124.137636
10077		2.903186	-5.762779	124.250668
10078		2.954924	-5.577077	124.375541
10079		3.006326	-5.391697	124.507518
10080		3.057895	-5.203799	124.651180
10081		3.100371	-5.013791	124.803918
10082		3.140215	-4.821826	124.967783
10083		3.178134	-4.639106	125.137749
10084		3.211782	-4.460792	125.317437
10085		3.241542	-4.291158	125.510314
10086		3.276305	-4.129637	125.708843
10087		3.318248	-3.974213	125.914186
10088		3.362901	-3.827273	126.124972
10089		3.407717	-3.695338	126.339320
10090		3.453902	-3.570038	126.558366
10091		3.500800	-3.454172	126.778304
10092		3.550932	-3.345741	126.998141
10093		3.600443	-3.244924	127.218131
10094		3.657551	-3.153460	127.438841
10095		3.715807	-3.071149	127.654006
10096		3.770258	-2.990931	127.869579
10097		3.818193	-2.923314	128.077105
10098		3.856835	-2.872457	128.282444
10099		3.899561	-2.831079	128.490204
10100		3.942883	-2.793934	128.700940
10101		3.987180	-2.758717	128.907230
10102		4.031320	-2.722182	129.102324
10103		4.076810	-2.684418	129.276586
10104		4.111283	-2.649717	129.443908
10105		4.147131	-2.622805	129.602920
10106		4.185444	-2.600703	129.757543
10107		4.221746	-2.586362	129.909374
10108		4.251388	-2.575701	130.063934
10109		4.284120	-2.569233	130.214144
10110		4.317192	-2.562979	130.366590
10111		4.350534	-2.556672	130.514823
10112		4.382474	-2.554406	130.663458
10113		4.414702	-2.559033	130.812240
10114		4.455907	-2.568683	130.963661
10115		4.503785	-2.582627	131.112264
10116		4.553765	-2.596860	131.263891
10117		4.604293	-2.618460	131.414121
10118		4.659571	-2.646465	131.568124
10119		4.709882	-2.681716	131.717967
10120		4.748187	-2.723069	131.870614
10121		4.779241	-2.772122	132.021478
10122		4.805029	-2.827427	132.176678
10123		4.828688	-2.887970	132.330295
10124		4.854352	-2.952646	132.485919
10125		4.889301	-3.024109	132.637412
10126		4.918407	-3.097004	132.791133
10127		4.947397	-3.171325	132.939492
10128		4.974426	-3.248441	133.090131
10129		5.003857	-3.329473	133.239627
10130		5.033234	-3.420269	133.390436
10131		5.064774	-3.517001	133.543553
10132		5.097960	-3.619479	133.697668
10133		5.133969	-3.720951	133.851687
10134		5.161821	-3.823033	134.006526
10135		5.192009	-3.924625	134.164329
10136		5.233168	-4.032334	134.321159
10137		5.279440	-4.142131	134.479616
10138		5.326713	-4.251093	134.641437
10139		5.358870	-4.361959	134.808346
10140		5.385378	-4.481442	134.982193
10141		5.411621	-4.601616	135.160829
10142		5.423635	-4.712594	135.343481
10143		5.426437	-4.820417	135.532637
10144		5.432785	-4.927566	135.724127
10145		5.437113	-5.035376	135.912187
10146		5.437872	-5.142534	136.094679
10147		5.435148	-5.254238	136.275905
10148		5.427182	-5.367298	136.457517
10149		5.414122	-5.480725	136.635621
10150		5.396023	-5.594275	136.810588
10151		5.375452	-5.708693	136.982966
10152		5.351783	-5.821966	137.156260
10153		5.322358	-5.939258	137.330806
10154		5.291565	-6.072604	137.508822
10155		5.264266	-6.222781	137.683808
10156		5.237528	-6.374418	137.853715
10157		5.217936	-6.515010	138.017319
10158		5.200081	-6.646386	138.170430
10159		5.173108	-6.779344	138.315307
10160		5.141968	-6.912972	138.457989
10161		5.101314	-7.041733	138.597287
10162		5.051726	-7.164008	138.737625
10163		4.998379	-7.292286	138.876924
10164		4.947581	-7.425636	139.018254
10165		4.903028	-7.563545	139.161706
10166		4.855011	-7.699610	139.306037
10167		4.809275	-7.837810	139.449622
10168		4.770025	-7.976155	139.587762
10169		4.738510	-8.111987	139.716889
10170		4.713536	-8.245785	139.840554
10171		4.700757	-8.380150	139.956622
10172		4.700182	-8.508750	140.062098
10173		4.709403	-8.625535	140.144941
10174		4.731592	-8.732280	140.207482
10175		4.759302	-8.826107	140.250766
10176		4.789247	-8.904525	140.282824
10177		4.813440	-8.958769	140.302980
10178		4.836090	-8.987005	140.312536
10179		4.855185	-8.997060	140.308928
10180		4.877833	-8.990420	140.292912
10181		4.905497	-8.975464	140.269455
10182		4.942486	-8.950691	140.234791
10183		4.990134	-8.920782	140.193513
10184		5.037591	-8.887094	140.149203
10185		5.086957	-8.857603	140.099903
10186		5.137677	-8.832745	140.047081
10187		5.187702	-8.810876	139.991218
10188		5.237990	-8.790212	139.930836
10189		5.287225	-8.772612	139.865948
10190		5.338846	-8.758505	139.798664
10191		5.388021	-8.743009	139.733787
10192		5.436063	-8.722598	139.668586
10193		5.474311	-8.705924	139.606740
10194		5.510645	-8.693960	139.549659
10195		5.543425	-8.690355	139.498593
10196		5.574385	-8.684533	139.450223
10197		5.603902	-8.679329	139.404780
10198		5.629355	-8.674295	139.362029
10199		5.654988	-8.674411	139.319018
10200		5.680146	-8.674191	139.280697
10201		5.706383	-8.669030	139.243592
10202		5.730903	-8.660889	139.209692
10203		5.749046	-8.653703	139.177414
10204		5.762060	-8.645577	139.146770
10205		5.774082	-8.638618	139.117693
10206		5.781044	-8.636887	139.092777
10207		5.786473	-8.638255	139.072959
10208		5.790501	-8.639629	139.057192
10209		5.790782	-8.639536	139.044502
10210		5.787090	-8.636637	139.035081
10211		5.782651	-8.633378	139.028240
10212		5.777623	-8.634198	139.022163
10213		5.771474	-8.640302	139.022556
10214		5.764427	-8.651153	139.019452
10215		5.749146	-8.663340	139.025527
10216		5.726035	-8.678111	139.037295
10217		5.700029	-8.694126	139.052183
10218		5.674315	-8.707994	139.071947
10219		5.643812	-8.721490	139.093656
10220		5.612893	-8.735239	139.117250
10221		5.575289	-8.756208	139.143579
10222		5.530348	-8.783066	139.171413
10223		5.476451	-8.823389	139.204665
10224		5.419007	-8.873387	139.239045
10225		5.358272	-8.928880	139.268985
10226		5.291964	-8.990707	139.292416
10227		5.227811	-9.062730	139.311223
10228		5.163423	-9.129537	139.330381
10229		5.100443	-9.191030	139.346204
10230		5.040421	-9.254409	139.362189
10231		4.981475	-9.325933	139.387922
10232		4.923891	-9.399502	139.422873
10233		4.867293	-9.474194	139.461704
10234		4.821903	-9.540851	139.500373
10235		4.786982	-9.598066	139.534809
10236		4.750384	-9.648165	139.563736
10237		4.713651	-9.692101	139.589001
10238		4.668194	-9.731667	139.611332
10239		4.628717	-9.769855	139.638762
10240		4.598906	-9.806091	139.671578
10241		4.574104	-9.840427	139.705599
10242		4.552870	-9.875014	139.742157
10243		4.532272	-9.910026	139.777801
10244		4.512926	-9.943143	139.816142
10245		4.498816	-9.974235	139.853360
10246		4.485095	-9.999073	139.886674
10247		4.472467	-10.018159	139.917837
10248		4.465301	-10.029096	139.943520
10249		4.462078	-10.032286	139.959528
10250		4.462161	-10.031166	139.970596
10251		4.459483	-10.028802	139.982573
10252		4.448648	-10.026525	139.996712
10253		4.441492	-10.024395	140.012711
10254		4.440093	-10.024650	140.027290
10255		4.442703	-10.025554	140.038600
10256		4.446577	-10.028268	140.049246
10257		4.448042	-10.037788	140.058820
10258		4.451569	-10.051825	140.067818
10259		4.457631	-10.067902	140.077053
10260		4.465400	-10.086327	140.084275
10261		4.470517	-10.104961	140.092874
10262		4.476898	-10.118667	140.100907
10263		4.483955	-10.134235	140.104690
10264		4.485722	-10.149555	140.109657
10265		4.487049	-10.168028	140.115322
10266		4.492947	-10.191586	140.121251
10267		4.497003	-10.218040	140.128613
10268		4.499666	-10.246504	140.133983
10269		4.503815	-10.271374	140.138606
10270		4.503129	-10.301032	140.142992
10271		4.495535	-10.335478	140.150393
10272		4.487462	-10.373239	140.162965
10273		4.484102	-10.409228	140.175218
10274		4.482011	-10.434978	140.183709
10275		4.479804	-10.453162	140.187992
10276		4.479819	-10.463847	140.192314
10277		4.474319	-10.471398	140.202328
10278		4.462261	-10.474010	140.218133
10279		4.450438	-10.466926	140.241072
10280		4.444148	-10.456443	140.268265
10281		4.442197	-10.445115	140.296997
10282		4.449713	-10.431827	140.323479
10283		4.459855	-10.418971	140.347423
10284		4.464375	-10.408207	140.371085
10285		4.474286	-10.399797	140.387442
10286		4.481565	-10.393787	140.399700
10287		4.483916	-10.391752	140.410061
10288		4.484854	-10.391704	140.418464
10289		4.482719	-10.390537	140.426311
10290		4.480590	-10.384816	140.431501
10291		4.476072	-10.376956	140.435787
10292		4.470867	-10.367807	140.437730
10293		4.463389	-10.357997	140.439234
10294		4.455899	-10.349558	140.434698
10295		4.443488	-10.342243	140.434896
10296		4.423551	-10.338434	140.436888
10297		4.406330	-10.340507	140.443447
10298		4.391385	-10.345429	140.450334
10299		4.372131	-10.348238	140.457884
10300		4.348500	-10.345080	140.464019
10301		4.323977	-10.347416	140.465561
10302		4.295265	-10.352679	140.463299
10303		4.265586	-10.362008	140.455967
10304		4.230318	-10.370314	140.448924
10305		4.195158	-10.376305	140.434713
10306		4.162379	-10.378302	140.414931
10307		4.131984	-10.376473	140.391217
10308		4.104114	-10.366167	140.365701
10309		4.073991	-10.346269	140.335988
10310		4.040245	-10.317003	140.298453
10311		4.001950	-10.285654	140.254072
10312		3.960819	-10.250681	140.205129
10313		3.921167	-10.212274	140.151588
10314		3.881453	-10.170704	140.095884
10315		3.850793	-10.123008	140.038214
10316		3.826030	-10.074407	139.977359
10317		3.801579	-10.025045	139.913539
10318		3.778959	-9.971860	139.852640
10319		3.760748	-9.910441	139.790037
10320		3.748732	-9.841244	139.725826
10321		3.741060	-9.770573	139.659979
10322		3.738999	-9.695992	139.589983
10323		3.738480	-9.621557	139.509900
10324		3.737745	-9.547551	139.424363
10325		3.743453	-9.483146	139.329307
10326		3.750967	-9.419186	139.231120
10327		3.757690	-9.357871	139.128985
10328		3.756887	-9.294440	139.026895
10329		3.751400	-9.232015	138.921271
10330		3.746300	-9.163055	138.813196
10331		3.744512	-9.088358	138.702903
10332		3.740723	-9.017021	138.589725
10333		3.741997	-8.943811	138.471789
10334		3.746064	-8.870480	138.349014
10335		3.752700	-8.803018	138.223231
10336		3.768479	-8.728395	138.091076
10337		3.785422	-8.646501	137.957784
10338		3.796296	-8.567134	137.821592
10339		3.809534	-8.497474	137.681497
10340		3.833200	-8.431339	137.533154
10341		3.861083	-8.373976	137.376091
10342		3.894381	-8.316764	137.212910
10343		3.931421	-8.249371	137.041922
10344		3.965605	-8.167843	136.867992
10345		3.992187	-8.076910	136.690397
10346		4.007127	-7.988288	136.509894
10347		4.021272	-7.897504	136.327017
10348		4.034219	-7.800952	136.138738
10349		4.049772	-7.704566	135.943795
10350		4.073354	-7.608167	135.736906
10351		4.107850	-7.501280	135.522314
10352		4.154291	-7.378779	135.297284
10353		4.194046	-7.255276	135.066965
10354		4.227194	-7.128022	134.834947
10355		4.248431	-6.989438	134.608360
10356		4.258677	-6.873193	134.396558
10357		4.278063	-6.784442	134.195060
10358		4.306053	-6.697523	133.994087
10359		4.335640	-6.616370	133.787488
10360		4.361742	-6.534211	133.577588
10361		4.396164	-6.477137	133.369165
10362		4.440664	-6.432890	133.160099
10363		4.490424	-6.380343	132.947866
10364		4.531664	-6.317207	132.731110
10365		4.563192	-6.246272	132.511645
10366		4.578508	-6.174050	132.294014
10367		4.585419	-6.097159	132.079528
10368		4.585011	-6.002707	131.871133
10369		4.589840	-5.901159	131.664076
10370		4.593426	-5.795105	131.463927
10371		4.599484	-5.690350	131.266007
10372		4.599652	-5.583230	131.073964
10373		4.593893	-5.480857	130.887626
10374		4.575468	-5.377624	130.704535
10375		4.549676	-5.281655	130.518909
10376		4.514980	-5.187656	130.342521
10377		4.476514	-5.091749	130.168674
10378		4.431205	-4.986195	129.999793
10379		4.374091	-4.878507	129.832139
10380		4.319248	-4.768592	129.666936
10381		4.264815	-4.664778	129.499790
10382		4.203425	-4.562735	129.338065
10383		4.141739	-4.460398	129.179120
10384		4.075530	-4.357966	129.026489
10385		4.005967	-4.260232	128.879777
10386		3.932364	-4.162708	128.735365
10387		3.855985	-4.062710	128.591637
10388		3.778509	-3.958987	128.449661
10389		3.699101	-3.851785	128.302426
10390		3.609919	-3.749475	128.159594
10391		3.520090	-3.651656	128.016865
10392		3.435165	-3.562115	127.879068
10393		3.346138	-3.483920	127.743310
10394		3.258051	-3.415576	127.616072
10395		3.170410	-3.359748	127.492386
10396		3.082938	-3.313175	127.374635
10397		2.996447	-3.278816	127.260018
10398		2.911897	-3.255085	127.148651
10399		2.823469	-3.242505	127.037501
10400		2.734193	-3.237535	126.933930
10401		2.647053	-3.241540	126.831373
10402		2.560609	-3.250634	126.734720
10403		2.467432	-3.268622	126.642400
10404		2.368845	-3.290176	126.558659
10405		2.267380	-3.316138	126.478682
10406		2.169562	-3.344156	126.405423
10407		2.077655	-3.373893	126.337512
10408		1.989740	-3.405992	126.273079
10409		1.905380	-3.432665	126.212626
10410		1.818941	-3.457422	126.155514
10411		1.730880	-3.480111	126.101545
10412		1.642835	-3.503932	126.051290
10413		1.555612	-3.531180	126.006900
10414		1.473388	-3.561310	125.968036
10415		1.404279	-3.590595	125.930230
10416		1.337599	-3.619837	125.896122
10417		1.274279	-3.644995	125.862836
10418		1.210315	-3.667511	125.832642
10419		1.145513	-3.688894	125.802863
10420		1.080975	-3.706244	125.775459
10421		1.016520	-3.720272	125.748369
10422		0.956873	-3.730215	125.720457
10423		0.898892	-3.741957	125.695442
10424		0.847696	-3.747937	125.670990
10425		0.799192	-3.752562	125.647256
10426		0.753220	-3.755338	125.625628
10427		0.706338	-3.757926	125.606623
10428		0.659108	-3.762874	125.593412
10429		0.618228	-3.768068	125.583054
10430		0.572366	-3.776149	125.576526
10431		0.533884	-3.787772	125.570730
10432		0.501907	-3.800437	125.566127
10433		0.479717	-3.815553	125.562838
10434		0.460855	-3.829852	125.559242
10435		0.444538	-3.845151	125.554585
10436		0.432608	-3.856670	125.549719
10437		0.427204	-3.870406	125.543740
10438		0.429737	-3.883648	125.539232
10439		0.433565	-3.897096	125.536659
10440		0.436091	-3.911294	125.533859
10441		0.439016	-3.931504	125.528427
10442		0.442955	-3.957311	125.516367
10443		0.450224	-3.992430	125.500304
10444		0.459697	-4.031360	125.483150
10445		0.463863	-4.071729	125.462602
10446		0.468513	-4.113442	125.439709
10447		0.468582	-4.153249	125.416770
10448		0.462944	-4.190939	125.390877
10449		0.450125	-4.232087	125.364612
10450		0.434213	-4.275901	125.340216
10451		0.415834	-4.321785	125.317649
10452		0.394877	-4.368483	125.297538
10453		0.372791	-4.417392	125.278869
10454		0.355032	-4.466180	125.264526
10455		0.337187	-4.514349	125.254002
10456		0.321187	-4.557725	125.244514
10457		0.304188	-4.599992	125.236685
10458		0.290236	-4.640085	125.229854
10459		0.277623	-4.677687	125.222378
10460		0.267944	-4.713863	125.213802
10461		0.263152	-4.747940	125.201126
10462		0.260319	-4.782938	125.190288
10463		0.261780	-4.819612	125.176899
10464		0.262836	-4.857284	125.162741
10465		0.264061	-4.897216	125.149393
10466		0.263803	-4.934937	125.138062
10467		0.261521	-4.972593	125.124812
10468		0.255281	-5.011712	125.113739
10469		0.249523	-5.049980	125.105495
10470		0.243786	-5.081990	125.100806
10471		0.240996	-5.114742	125.094679
10472		0.242998	-5.147040	125.091740
10473		0.245867	-5.177970	125.088363
10474		0.245353	-5.206724	125.086397
10475		0.242942	-5.234795	125.085130
10476		0.237513	-5.261961	125.083251
10477		0.230675	-5.286548	125.082609
10478		0.218501	-5.312183	125.080076
10479		0.204524	-5.334532	125.077479
10480		0.188055	-5.355877	125.075649
10481		0.171870	-5.376989	125.074296
10482		0.152320	-5.396691	125.073310
10483		0.131161	-5.418930	125.074886
10484		0.112798	-5.442359	125.077961
10485		0.093277	-5.466998	125.080696
10486		0.074810	-5.493392	125.091131
10487		0.054278	-5.521594	125.102838
10488		0.033920	-5.548975	125.114275
10489		0.014343	-5.576118	125.129683
10490		-0.001220	-5.599718	125.145078
10491		-0.008525	-5.619895	125.159872
10492		-0.004140	-5.636565	125.172179
10493		0.007973	-5.649007	125.181078
10494		0.028487	-5.659670	125.174773
10495		0.053751	-5.669412	125.155291
10496		0.071105	-5.675840	125.121893
10497		0.077165	-5.677337	125.077050
10498		0.069144	-5.671789	125.025708
10499		0.052662	-5.659428	124.967808
10500		0.032211	-5.638180	124.903387
10501		0.012419	-5.610017	124.838581
10502		-0.007643	-5.572265	124.773284
10503		-0.023657	-5.531513	124.706802
10504		-0.036032	-5.484234	124.643027
10505		-0.045891	-5.437483	124.583501
10506		-0.062977	-5.392244	124.528094
10507		-0.079190	-5.353306	124.478393
10508		-0.093113	-5.317765	124.434672
10509		-0.110690	-5.288299	124.395079
10510		-0.130534	-5.261849	124.357586
10511		-0.151157	-5.240061	124.323806
10512		-0.170608	-5.225438	124.295716
10513		-0.182094	-5.214235	124.269794
10514		-0.190545	-5.209291	124.250772
10515		-0.197162	-5.210833	124.235199
10516		-0.204659	-5.216610	124.225261
10517		-0.211589	-5.226187	124.216883
10518		-0.218807	-5.238138	124.216009
10519		-0.220512	-5.254509	124.214920
10520		-0.218988	-5.275535	124.221444
10521		-0.216796	-5.297800	124.228768
10522		-0.212917	-5.317794	124.237890
10523		-0.206961	-5.337509	124.248262
10524		-0.198411	-5.355176	124.258221
10525		-0.189198	-5.372191	124.265657
10526		-0.181087	-5.388129	124.270785
10527		-0.174567	-5.403938	124.275737
10528		-0.167209	-5.417081	124.282098
10529		-0.149513	-5.427984	124.287020
10530		-0.126953	-5.436399	124.289505
10531		-0.102989	-5.440643	124.290272
10532		-0.073520	-5.438051	124.290221
10533		-0.035693	-5.436641	124.288181
10534		0.008332	-5.434163	124.291485
10535		0.055115	-5.435947	124.295939
10536		0.105283	-5.447064	124.306568
10537		0.172832	-5.477779	124.317960
10538		0.262126	-5.528220	124.327863
10539		0.350147	-5.580282	124.330346
10540		0.441940	-5.628618	124.317532
10541		0.532572	-5.672944	124.287749
10542		0.614797	-5.699938	124.250184
10543		0.697525	-5.713822	124.205057
10544		0.788321	-5.712712	124.157017
10545		0.878651	-5.690667	124.111378
10546		0.975081	-5.657305	124.066609
10547		1.078292	-5.610300	124.019507
10548		1.177752	-5.555810	123.968728
10549		1.277963	-5.498026	123.916199
10550		1.371791	-5.441873	123.864384
10551		1.457189	-5.387885	123.818116
10552		1.543096	-5.334662	123.776428
10553		1.630480	-5.283197	123.739515
10554		1.717860	-5.235340	123.706871
10555		1.802867	-5.185895	123.681348
10556		1.883135	-5.136955	123.662507
10557		1.966151	-5.085341	123.649434
10558		2.031338	-5.038139	123.655426
10559		2.082299	-4.999073	123.678474
10560		2.122489	-4.962837	123.724865
10561		2.149761	-4.928662	123.791903
10562		2.168914	-4.896497	123.879630
10563		2.181979	-4.861010	123.988522
10564		2.194684	-4.826567	124.115758
10565		2.209757	-4.789604	124.258827
10566		2.231740	-4.738710	124.415193
10567		2.263500	-4.677552	124.581298
10568		2.302856	-4.607546	124.755888
10569		2.341414	-4.531735	124.936922
10570		2.382910	-4.451011	125.124460
10571		2.420366	-4.366957	125.318729
10572		2.456900	-4.284434	125.523670
10573		2.494719	-4.199844	125.734546
10574		2.525743	-4.116209	125.952851
10575		2.552317	-4.035865	126.178274
10576		2.583513	-3.960450	126.411579
10577		2.616929	-3.894382	126.648913
10578		2.651229	-3.840518	126.889857
10579		2.684248	-3.799393	127.135281
10580		2.713968	-3.764282	127.383373
10581		2.743635	-3.740674	127.629044
10582		2.766690	-3.730154	127.874403
10583		2.796426	-3.734097	128.116476
10584		2.830208	-3.744760	128.353962
10585		2.862236	-3.762069	128.591063
10586		2.892711	-3.788398	128.829107
10587		2.925611	-3.823244	129.065696
10588		2.970692	-3.862522	129.297908
10589		3.020203	-3.908281	129.523120
10590		3.072057	-3.962294	129.741579
10591		3.124338	-4.020837	129.956423
10592		3.178187	-4.082511	130.165253
10593		3.223157	-4.148292	130.369748
10594		3.259031	-4.224839	130.573028
10595		3.293601	-4.300997	130.770975
10596		3.329158	-4.372579	130.963658
10597		3.360800	-4.444923	131.147011
10598		3.392807	-4.513961	131.329620
10599		3.417376	-4.583204	131.507846
10600		3.432429	-4.653127	131.689608
10601		3.446635	-4.722704	131.871635
10602		3.461420	-4.795397	132.054597
10603		3.482279	-4.865510	132.239214
10604		3.505041	-4.934253	132.427539
10605		3.525974	-4.998501	132.619676
10606		3.532448	-5.066521	132.820088
10607		3.544114	-5.137286	133.028242
10608		3.553909	-5.206770	133.242989
10609		3.573702	-5.279056	133.463985
10610		3.591459	-5.347855	133.691896
10611		3.609814	-5.412692	133.926808
10612		3.621059	-5.475245	134.166520
10613		3.623141	-5.532436	134.414135
10614		3.607382	-5.589643	134.670672
10615		3.586634	-5.652003	134.936767
10616		3.571970	-5.726628	135.212372
10617		3.576529	-5.813857	135.494623
10618		3.615452	-5.903037	135.776388
10619		3.682545	-5.993276	136.044778
10620		3.750339	-6.094186	136.306938
10621		3.813485	-6.203030	136.564520
10622		3.867995	-6.310831	136.822483
10623		3.919456	-6.424298	137.076863
10624		3.967379	-6.537714	137.333433
10625		4.017983	-6.652116	137.585511
10626		4.068623	-6.762767	137.836649
10627		4.105678	-6.874000	138.081470
10628		4.131821	-6.988770	138.329038
10629		4.146133	-7.108722	138.572366
10630		4.142844	-7.235343	138.814488
10631		4.126477	-7.362096	139.056845
10632		4.101245	-7.490451	139.300440
10633		4.070618	-7.631125	139.541641
10634		4.040477	-7.781893	139.779405
10635		4.000088	-7.933053	140.013919
10636		3.960432	-8.080610	140.242705
10637		3.917635	-8.227563	140.462523
10638		3.873582	-8.377783	140.674282
10639		3.829380	-8.524902	140.876133
10640		3.785758	-8.660528	141.066266
10641		3.743165	-8.792128	141.243686
10642		3.700617	-8.921026	141.403015
10643		3.648399	-9.052885	141.549014
10644		3.601645	-9.185286	141.684107
10645		3.556576	-9.314229	141.815010
10646		3.514158	-9.444153	141.932012
10647		3.479759	-9.567016	142.044869
10648		3.452431	-9.683463	142.144834
10649		3.429755	-9.793643	142.234633
10650		3.407813	-9.902577	142.314216
10651		3.399616	-10.009523	142.387196
10652		3.398395	-10.108597	142.452775
10653		3.403288	-10.195743	142.512893
10654		3.416329	-10.270208	142.566066
10655		3.445121	-10.326713	142.610412
10656		3.479609	-10.349866	142.649603
10657		3.527687	-10.332804	142.682767
10658		3.589906	-10.274520	142.705386
10659		3.646486	-10.187816	142.719956
10660		3.715579	-10.085919	142.733776
10661		3.801497	-9.976827	142.739065
10662		3.894475	-9.873396	142.728795
10663		3.995745	-9.780016	142.701672
10664		4.092908	-9.689042	142.667469
10665		4.188736	-9.599232	142.623578
10666		4.281078	-9.504190	142.570639
10667		4.381209	-9.405722	142.503937
10668		4.485333	-9.300138	142.424399
10669		4.585158	-9.192102	142.335623
10670		4.680704	-9.089908	142.244177
10671		4.766350	-9.001982	142.151649
10672		4.843594	-8.929505	142.062773
10673		4.909164	-8.880929	141.979036
10674		4.971573	-8.851312	141.898391
10675		5.031622	-8.834911	141.822115
10676		5.091504	-8.823719	141.750330
10677		5.153646	-8.813662	141.681829
10678		5.217852	-8.801296	141.616783
10679		5.283637	-8.782922	141.551053
10680		5.338192	-8.757266	141.489431
10681		5.385471	-8.738534	141.429173
10682		5.428468	-8.732596	141.372015
10683		5.459129	-8.736863	141.324214
10684		5.481150	-8.744214	141.286251
10685		5.499262	-8.747534	141.253605
10686		5.507791	-8.748384	141.225820
10687		5.505227	-8.746376	141.201400
10688		5.497378	-8.741108	141.180805
10689		5.489080	-8.732193	141.157147
10690		5.478793	-8.721882	141.131761
10691		5.472537	-8.719825	141.104256
10692		5.470473	-8.722307	141.076238
10693		5.470815	-8.727516	141.051916
10694		5.465179	-8.731996	141.028427
10695		5.454800	-8.734319	141.010102
10696		5.444554	-8.734396	140.992848
10697		5.428518	-8.731249	140.975747
10698		5.413413	-8.727891	140.956548
10699		5.400484	-8.728195	140.936784
10700		5.388379	-8.729047	140.914376
10701		5.370361	-8.725959	140.894958
10702		5.351429	-8.720218	140.878805
10703		5.329128	-8.710293	140.867116
10704		5.305411	-8.697216	140.856195
10705		5.285753	-8.684822	140.845941
10706		5.273583	-8.671221	140.836426
10707		5.275510	-8.662126	140.825842
10708		5.282100	-8.659749	140.810145
10709		5.284015	-8.670288	140.793833
10710		5.286832	-8.683521	140.782621
10711		5.283508	-8.696587	140.777223
10712		5.272570	-8.703414	140.778476
10713		5.254293	-8.706722	140.786712
10714		5.232802	-8.712002	140.798228
10715		5.216708	-8.724251	140.810278
10716		5.207718	-8.743772	140.818175
10717		5.193577	-8.767367	140.826412
10718		5.174063	-8.794437	140.838407
10719		5.144574	-8.833172	140.860210
10720		5.111254	-8.883770	140.887222
10721		5.075017	-8.936727	140.917827
10722		5.036817	-8.985894	140.950666
10723		4.991160	-9.035316	140.987284
10724		4.943112	-9.090111	141.024545
10725		4.891239	-9.150765	141.058217
10726		4.840415	-9.206371	141.097513
10727		4.792329	-9.255669	141.134368
10728		4.743928	-9.297512	141.173705
10729		4.692644	-9.338754	141.213441
10730		4.638996	-9.375509	141.256621
10731		4.580556	-9.411607	141.301733
10732		4.528588	-9.447563	141.346342
10733		4.475838	-9.489640	141.391355
10734		4.424043	-9.532891	141.434819
10735		4.376943	-9.572109	141.478140
10736		4.322880	-9.610913	141.517868
10737		4.273288	-9.647307	141.556455
10738		4.238199	-9.677142	141.592143
10739		4.211639	-9.705358	141.624561
10740		4.189564	-9.730625	141.656980
10741		4.170899	-9.751659	141.689890
10742		4.155168	-9.770135	141.722961
10743		4.146211	-9.782382	141.758155
10744		4.141200	-9.789625	141.790201
10745		4.139145	-9.793597	141.820775
10746		4.138419	-9.795067	141.846790
10747		4.136832	-9.797612	141.868269
10748		4.133629	-9.802488	141.886167
10749		4.136049	-9.809287	141.901248
10750		4.138567	-9.810001	141.916793
10751		4.145869	-9.808438	141.924903
10752		4.154872	-9.805765	141.930536
10753		4.166207	-9.800815	141.934956
10754		4.180761	-9.793339	141.937225
10755		4.199135	-9.789743	141.935842
10756		4.217397	-9.785566	141.934576
10757		4.231591	-9.787288	141.932060
10758		4.246867	-9.793166	141.928991
10759		4.260607	-9.804722	141.926152
10760		4.273550	-9.812903	141.923159
10761		4.287087	-9.817011	141.921469
10762		4.300552	-9.818242	141.919876
10763		4.313396	-9.819643	141.918009
10764		4.325149	-9.819287	141.915082
10765		4.329971	-9.821324	141.911273
10766		4.332997	-9.830022	141.907793
10767		4.326685	-9.844242	141.902959
10768		4.313999	-9.859888	141.901373
10769		4.291907	-9.874297	141.900692
10770		4.260834	-9.888874	141.901277
10771		4.216998	-9.905658	141.901713
10772		4.159050	-9.917707	141.903282
10773		4.087462	-9.928624	141.903555
10774		4.005240	-9.935799	141.903705
10775		3.921891	-9.942881	141.897319
10776		3.830038	-9.947152	141.886414
10777		3.736927	-9.946654	141.875060
10778		3.656350	-9.947160	141.859547
10779		3.593218	-9.956789	141.837421
10780		3.537451	-9.975291	141.809416
10781		3.482227	-9.992268	141.778959
10782		3.425817	-10.000653	141.749612
10783		3.365551	-9.995938	141.727629
10784		3.302864	-9.974086	141.706769
10785		3.246004	-9.936513	141.692155
10786		3.197141	-9.885643	141.678287
10787		3.156161	-9.826323	141.659137
10788		3.124405	-9.765522	141.634212
10789		3.096887	-9.710478	141.600004
10790		3.077317	-9.662031	141.555182
10791		3.059365	-9.621599	141.503487
10792		3.037893	-9.579573	141.446983
10793		3.018245	-9.534758	141.390699
10794		2.997958	-9.491585	141.332998
10795		2.979485	-9.447859	141.275452
10796		2.961840	-9.406926	141.213102
10797		2.953162	-9.364900	141.141259
10798		2.945636	-9.319653	141.061599
10799		2.940223	-9.265784	140.975301
10800		2.938148	-9.199563	140.883252
10801		2.936010	-9.123934	140.785037
10802		2.932772	-9.045732	140.680172
10803		2.932496	-8.960207	140.566013
10804		2.941413	-8.866076	140.443803
10805		2.948001	-8.770808	140.313953
10806		2.952126	-8.677592	140.183113
10807		2.955383	-8.593117	140.049028
10808		2.954692	-8.509571	139.917388
10809		2.948803	-8.431794	139.782905
10810		2.937256	-8.363378	139.646917
10811		2.928505	-8.295676	139.506345
10812		2.928263	-8.226081	139.362502
10813		2.940393	-8.156721	139.209124
10814		2.962033	-8.091281	139.047927
10815		2.992898	-8.021766	138.880547
10816		3.023429	-7.945137	138.708237
10817		3.047702	-7.873076	138.531972
10818		3.064070	-7.803591	138.354128
10819		3.076389	-7.737829	138.175021
10820		3.087869	-7.671255	137.992499
10821		3.103077	-7.600852	137.807054
10822		3.122884	-7.522289	137.612584
10823		3.153178	-7.428141	137.412912
10824		3.186917	-7.325947	137.203586
10825		3.226819	-7.221899	136.986993
10826		3.270679	-7.123972	136.765774
10827		3.316207	-7.035838	136.539716
10828		3.361005	-6.957190	136.310826
10829		3.405532	-6.878311	136.078954
10830		3.449917	-6.800201	135.844354
10831		3.495360	-6.714320	135.610509
10832		3.538016	-6.617831	135.373748
10833		3.573636	-6.516831	135.137541
10834		3.593991	-6.416676	134.902086
10835		3.608006	-6.321136	134.668674
10836		3.619620	-6.230514	134.435384
10837		3.624613	-6.143237	134.205975
10838		3.620826	-6.054295	133.981639
10839		3.619319	-5.966524	133.759883
10840		3.616752	-5.873048	133.543034
10841		3.615877	-5.781786	133.329048
10842		3.619011	-5.696742	133.119536
10843		3.618653	-5.619436	132.914811
10844		3.605271	-5.547291	132.714416
10845		3.581748	-5.480398	132.518567
10846		3.555667	-5.417404	132.327570
10847		3.529931	-5.354949	132.131185
10848		3.494317	-5.291809	131.938515
10849		3.455678	-5.230769	131.741673
10850		3.414428	-5.172116	131.546727
10851		3.372418	-5.116995	131.352724
10852		3.334953	-5.059494	131.163087
10853		3.292390	-5.001299	130.983751
10854		3.242064	-4.949807	130.815504
10855		3.194276	-4.907640	130.652242
10856		3.142175	-4.871370	130.496225
10857		3.092732	-4.840392	130.344099
10858		3.051997	-4.803623	130.195359
10859		3.015769	-4.755243	130.049129
10860		2.979900	-4.696114	129.904858
10861		2.948973	-4.632334	129.765455
10862		2.918047	-4.566668	129.624005
10863		2.884427	-4.501543	129.487549
10864		2.847086	-4.439638	129.352901
10865		2.812549	-4.377999	129.219322
10866		2.779994	-4.316784	129.084582
10867		2.747993	-4.252746	128.946494
10868		2.713773	-4.184855	128.812637
10869		2.675190	-4.117457	128.680802
10870		2.636695	-4.056309	128.549605
10871		2.594943	-4.002517	128.424153
10872		2.553794	-3.954112	128.303403
10873		2.526233	-3.909631	128.185479
10874		2.509226	-3.875292	128.068639
10875		2.503849	-3.853809	127.951692
10876		2.501485	-3.848624	127.836239
10877		2.498633	-3.858981	127.719706
10878		2.494242	-3.883074	127.604506
10879		2.486756	-3.912566	127.485413
10880		2.465488	-3.942504	127.369475
10881		2.432641	-3.983084	127.254776
10882		2.396722	-4.029438	127.143722
10883		2.362467	-4.087992	127.034083
10884		2.327136	-4.154728	126.931697
10885		2.303571	-4.229404	126.830908
10886		2.288768	-4.301458	126.731711
10887		2.268984	-4.367155	126.636940
10888		2.244680	-4.428893	126.547081
10889		2.216416	-4.488593	126.460349
10890		2.185380	-4.549322	126.382908
10891		2.153851	-4.613742	126.313152
10892		2.123367	-4.680653	126.256674
10893		2.097764	-4.750154	126.208450
10894		2.075994	-4.814964	126.170857
10895		2.060684	-4.872586	126.140871
10896		2.049524	-4.923464	126.113429
10897		2.040567	-4.964428	126.093457
10898		2.032379	-4.995546	126.078157
10899		2.021658	-5.021457	126.067362
10900		2.008717	-5.042255	126.060139
10901		1.994117	-5.057438	126.058520
10902		1.979093	-5.068148	126.058158
10903		1.965363	-5.070783	126.058773
10904		1.957948	-5.069470	126.055803
10905		1.954300	-5.063616	126.050842
10906		1.954522	-5.056682	126.042931
10907		1.955313	-5.052477	126.032518
10908		1.953366	-5.051442	126.022709
10909		1.950365	-5.057093	126.008734
10910		1.947445	-5.064541	125.995014
10911		1.946201	-5.078219	125.978540
10912		1.945337	-5.097307	125.954834
10913		1.942881	-5.117871	125.931494
10914		1.936428	-5.140596	125.907870
10915		1.928061	-5.168991	125.884505
10916		1.919267	-5.205129	125.862834
10917		1.908099	-5.247211	125.842135
10918		1.896297	-5.293086	125.824131
10919		1.882528	-5.345460	125.806031
10920		1.867043	-5.397397	125.793410
10921		1.850835	-5.451122	125.779598
10922		1.830325	-5.504779	125.767273
10923		1.810487	-5.560290	125.752552
10924		1.788556	-5.616189	125.737283
10925		1.765407	-5.679039	125.724361
10926		1.739148	-5.746715	125.705434
10927		1.712081	-5.817046	125.686595
10928		1.684337	-5.889331	125.661163
10929		1.648760	-5.963719	125.633561
10930		1.603884	-6.042780	125.599307
10931		1.548836	-6.127443	125.558646
10932		1.486820	-6.220509	125.512947
10933		1.421652	-6.319794	125.463727
10934		1.351028	-6.417090	125.413423
10935		1.279846	-6.512145	125.366496
10936		1.206897	-6.601103	125.324546
10937		1.136643	-6.684589	125.288111
10938		1.064725	-6.765977	125.257815
10939		0.994350	-6.840907	125.231776
10940		0.922350	-6.912786	125.210206
10941		0.851676	-6.981463	125.191055
10942		0.782689	-7.049512	125.178772
10943		0.715153	-7.117497	125.170434
10944		0.652915	-7.187800	125.162347
10945		0.593170	-7.255933	125.158161
10946		0.534251	-7.319761	125.156238
10947		0.478383	-7.380311	125.157613
10948		0.423213	-7.433417	125.159641
10949		0.369275	-7.484162	125.164060
10950		0.320433	-7.526110	125.173591
10951		0.275812	-7.563356	125.182686
10952		0.241974	-7.589842	125.194107
10953		0.214263	-7.610719	125.204352
10954		0.194971	-7.623597	125.215291
10955		0.181595	-7.633410	125.225761
10956		0.169024	-7.636551	125.234306
10957		0.164479	-7.635595	125.237300
10958		0.163506	-7.629776	125.233641
10959		0.159300	-7.619747	125.225214
10960		0.153817	-7.611287	125.207287
10961		0.150260	-7.603363	125.182186
10962		0.146311	-7.597315	125.155642
10963		0.140229	-7.593758	125.127985
10964		0.131094	-7.591065	125.100950
10965		0.120716	-7.591266	125.072930
10966		0.108313	-7.590984	125.044415
10967		0.095860	-7.596245	125.013483
10968		0.089327	-7.601086	124.984787
10969		0.086617	-7.605494	124.957650
10970		0.086275	-7.609689	124.931899
10971		0.086749	-7.615760	124.910235
10972		0.089562	-7.617602	124.888179
10973		0.091411	-7.621416	124.869753
10974		0.092412	-7.625778	124.853630
10975		0.092927	-7.629424	124.835426
10976		0.093929	-7.633785	124.819304
10977		0.096391	-7.639730	124.804244
10978		0.097644	-7.644778	124.791300
10979		0.097625	-7.650330	124.781318
10980		0.098817	-7.654615	124.771031
10981		0.101192	-7.662994	124.762766
10982		0.105035	-7.672389	124.754369
10983		0.113371	-7.678623	124.746581
10984		0.124806	-7.686659	124.740937
10985		0.136256	-7.692103	124.735167
10986		0.151535	-7.695821	124.731096
10987		0.173353	-7.698596	124.728373
10988		0.199267	-7.693030	124.732470
10989		0.231945	-7.681485	124.740096
10990		0.267860	-7.663731	124.751350
10991		0.316741	-7.648249	124.763936
10992		0.374937	-7.630660	124.785728
10993		0.445056	-7.609397	124.812034
10994		0.519051	-7.579177	124.850692
10995		0.603501	-7.542841	124.898886
10996		0.696024	-7.499452	124.953719
10997		0.791784	-7.443920	125.011253
10998		0.892072	-7.379803	125.066896
10999		1.003840	-7.315396	125.119557
11000		1.110990	-7.250211	125.171115
11001		1.220661	-7.185117	125.218200
11002		1.322032	-7.124298	125.259609
11003		1.413845	-7.077724	125.294382
11004		1.497581	-7.043258	125.323560
11005		1.569928	-7.005461	125.348640
11006		1.639154	-6.967679	125.368805
11007		1.707777	-6.929233	125.387340
11008		1.775829	-6.887071	125.400286
11009		1.846207	-6.844234	125.405273
11010		1.914799	-6.794333	125.407812
11011		1.981730	-6.741052	125.407945
11012		2.043098	-6.681765	125.407909
11013		2.094846	-6.623129	125.407709
11014		2.148625	-6.565287	125.415205
11015		2.196325	-6.509737	125.431314
11016		2.241010	-6.459088	125.451735
11017		2.280594	-6.411005	125.478432
11018		2.313196	-6.361040	125.511600
11019		2.338601	-6.313137	125.549797
11020		2.360362	-6.266434	125.593667
11021		2.380519	-6.221339	125.646048
11022		2.403784	-6.176560	125.704588
11023		2.432426	-6.129864	125.770704
11024		2.463210	-6.079088	125.841745
11025		2.497142	-6.022619	125.916902
11026		2.535923	-5.962305	125.995722
11027		2.579778	-5.901722	126.075219
11028		2.624866	-5.835791	126.152060
11029		2.673863	-5.763688	126.225861
11030		2.720466	-5.689573	126.293031
11031		2.764682	-5.612336	126.352721
11032		2.808948	-5.540007	126.408783
11033		2.856811	-5.471992	126.458557
11034		2.900695	-5.398831	126.503522
11035		2.937990	-5.316705	126.548691
11036		2.966514	-5.225445	126.596472
11037		2.997500	-5.121524	126.646456
11038		3.026866	-5.017005	126.701995
11039		3.054523	-4.920651	126.767867
11040		3.088810	-4.827099	126.848704
11041		3.119146	-4.722791	126.948945
11042		3.148769	-4.607299	127.069634
11043		3.180824	-4.484244	127.209642
11044		3.218927	-4.355544	127.368265
11045		3.261456	-4.223924	127.541860
11046		3.308608	-4.085604	127.728790
11047		3.358678	-3.946669	127.929976
11048		3.408539	-3.806772	128.145926
11049		3.460805	-3.673727	128.373541
11050		3.519026	-3.544731	128.613457
11051		3.578284	-3.423908	128.858448
11052		3.637484	-3.313210	129.107848
11053		3.698622	-3.209395	129.363249
11054		3.758702	-3.117709	129.617154
11055		3.816485	-3.040451	129.872824
11056		3.869860	-2.980980	130.127173
11057		3.922931	-2.944428	130.380971
11058		3.976771	-2.929639	130.632754
11059		4.033307	-2.926540	130.877499
11060		4.084474	-2.940700	131.114016
11061		4.133841	-2.967057	131.341294
11062		4.173337	-3.001437	131.564888
11063		4.205786	-3.048606	131.782018
11064		4.235999	-3.103587	132.004222
11065		4.272722	-3.163544	132.222961
11066		4.312048	-3.227299	132.442466
11067		4.350477	-3.294609	132.659058
11068		4.387541	-3.364366	132.880749
11069		4.424436	-3.437305	133.102521
11070		4.455866	-3.517673	133.326871
11071		4.493537	-3.604659	133.552993
11072		4.534093	-3.698422	133.780662
11073		4.581890	-3.803935	134.009919
11074		4.627580	-3.915149	134.242654
11075		4.674269	-4.035216	134.474240
11076		4.715246	-4.162585	134.706372
11077		4.750782	-4.296107	134.933163
11078		4.769894	-4.427323	135.157237
11079		4.780384	-4.555697	135.378584
11080		4.778447	-4.685530	135.595394
11081		4.775117	-4.817362	135.802712
11082		4.768462	-4.951456	136.006167
11083		4.761271	-5.093294	136.205766
11084		4.747368	-5.242599	136.405499
11085		4.725827	-5.407180	136.601846
11086		4.701187	-5.583668	136.801891
11087		4.675611	-5.772425	137.000951
11088		4.640230	-5.964165	137.200674
11089		4.606148	-6.146383	137.397234
11090		4.570009	-6.316162	137.593774
11091		4.534819	-6.480644	137.784589
11092		4.497130	-6.649217	137.972549
11093		4.455131	-6.827572	138.157715
11094		4.408738	-7.010280	138.348461
11095		4.348610	-7.206810	138.541530
11096		4.291107	-7.405413	138.742985
11097		4.252003	-7.598160	138.937947
11098		4.220384	-7.776695	139.127533
11099		4.181909	-7.950072	139.311936
11100		4.124875	-8.127182	139.498347
11101		4.071082	-8.311480	139.688972
11102		4.017182	-8.501677	139.877135
11103		3.960613	-8.687931	140.064309
11104		3.915553	-8.865267	140.249324
11105		3.873601	-9.034833	140.427168
11106		3.827770	-9.196303	140.598661
11107		3.790159	-9.350380	140.765434
11108		3.760525	-9.500891	140.930059
11109		3.733823	-9.646879	141.089251
11110		3.702826	-9.787311	141.242869
11111		3.682194	-9.923005	141.390132
11112		3.673486	-10.049531	141.524814
11113		3.671359	-10.168208	141.646061
11114		3.674521	-10.277341	141.753539
11115		3.688193	-10.378197	141.847254
11116		3.719552	-10.465631	141.923123
11117		3.766891	-10.541271	141.979644
11118		3.830404	-10.586521	142.015407
11119		3.900595	-10.607993	142.028538
11120		3.972057	-10.606306	142.023016
11121		4.054097	-10.583740	141.996926
11122		4.137214	-10.548449	141.950875
11123		4.222974	-10.506627	141.886869
11124		4.308188	-10.466221	141.807827
11125		4.387091	-10.429184	141.718757
11126		4.467614	-10.394956	141.624065
11127		4.552033	-10.361411	141.526387
11128		4.632936	-10.326550	141.422257
