// General information: 
//  MT Manager version: 2022.2.0 
//  XDA version: 2022.2.0 build 7381 rev 124627 built on 2023-07-19
// Device information: 
//  DeviceId: 00B4486D
//  ProductCode: MTW2-3A7G6
//  Firmware Version: 4.4.0
//  Hardware Version: 2.0.0
// Device settings: 
//  Filter Profile: human(46.1)
//  Option Flags: Orientation Smoother Disabled, Position/Velocity Smoother Disabled, Continuous Zero Rotation Update Disabled, AHS Disabled, ICC Disabled
// Coordinate system: ENU
PacketCounter	SampleTimeFine	Roll	Pitch	Yaw
07922		-34.185695	-39.793180	169.194294
07923		-34.154140	-39.806120	169.173339
07924		-34.112664	-39.818395	169.146191
07925		-34.061494	-39.825745	169.112993
07926		-34.005020	-39.826303	169.073260
07927		-33.949104	-39.824513	169.034944
07928		-33.894185	-39.819330	168.997406
07929		-33.846406	-39.812483	168.964993
07930		-33.803363	-39.803894	168.935325
07931		-33.764955	-39.796780	168.908180
07932		-33.727726	-39.790300	168.879028
07933		-33.690736	-39.785500	168.849345
07934		-33.654062	-39.779098	168.819327
07935		-33.615772	-39.776552	168.793182
07936		-33.579035	-39.777157	168.766154
07937		-33.544546	-39.780850	168.742882
07938		-33.514038	-39.788091	168.722623
07939		-33.487759	-39.797897	168.705257
07940		-33.461120	-39.807843	168.686564
07941		-33.444450	-39.814726	168.670654
07942		-33.426729	-39.820017	168.650716
07943		-33.408575	-39.821705	168.626224
07944		-33.387564	-39.821074	168.604502
07945		-33.368735	-39.818635	168.583727
07946		-33.351323	-39.812036	168.565336
07947		-33.337692	-39.804745	168.551225
07948		-33.324115	-39.796580	168.535470
07949		-33.308263	-39.794895	168.519798
07950		-33.291670	-39.797931	168.504734
07951		-33.270200	-39.802693	168.486628
07952		-33.249463	-39.805429	168.471692
07953		-33.222803	-39.801853	168.455238
07954		-33.188026	-39.793223	168.436226
07955		-33.143940	-39.774215	168.412124
07956		-33.092558	-39.747732	168.383023
07957		-33.031558	-39.716560	168.349973
07958		-32.969214	-39.684521	168.311357
07959		-32.910977	-39.650989	168.278608
07960		-32.850661	-39.618559	168.241410
07961		-32.799629	-39.590137	168.210471
07962		-32.751387	-39.560194	168.181108
07963		-32.693742	-39.527226	168.151524
07964		-32.625076	-39.493904	168.121120
07965		-32.542063	-39.454286	168.088739
07966		-32.445585	-39.411150	168.055938
07967		-32.334608	-39.363283	168.017291
07968		-32.215537	-39.309146	167.977088
07969		-32.096090	-39.248682	167.936719
07970		-31.974304	-39.181246	167.897254
07971		-31.859084	-39.110817	167.862693
07972		-31.747444	-39.032734	167.832289
07973		-31.642812	-38.944854	167.811098
07974		-31.553400	-38.850354	167.807034
07975		-31.456662	-38.752900	167.810864
07976		-31.352203	-38.647239	167.820611
07977		-31.243778	-38.536846	167.833144
07978		-31.127910	-38.422727	167.843987
07979		-30.995262	-38.295737	167.852234
07980		-30.848375	-38.145656	167.865398
07981		-30.710654	-37.973042	167.903680
07982		-30.596151	-37.785155	167.967050
07983		-30.495818	-37.584759	168.048169
07984		-30.400374	-37.365029	168.132533
07985		-30.310738	-37.123766	168.214722
07986		-30.235452	-36.854880	168.301655
07987		-30.181678	-36.567384	168.404280
07988		-30.147585	-36.276961	168.523319
07989		-30.110292	-35.996182	168.643747
07990		-30.040853	-35.722675	168.750327
07991		-29.928510	-35.426090	168.842919
07992		-29.786349	-35.075155	168.941845
07993		-29.654035	-34.696834	169.089168
07994		-29.573320	-34.329505	169.288661
07995		-29.513774	-33.987446	169.501302
07996		-29.422539	-33.634568	169.691105
07997		-29.291042	-33.247693	169.868628
07998		-29.140535	-32.838452	170.058265
07999		-28.991258	-32.422791	170.282051
08000		-28.848479	-32.009259	170.533645
08001		-28.720595	-31.606188	170.801757
08002		-28.584679	-31.217010	171.073206
08003		-28.406339	-30.836079	171.333410
08004		-28.179277	-30.464064	171.583785
08005		-27.916389	-30.107674	171.837983
08006		-27.634638	-29.763901	172.101353
08007		-27.354019	-29.419747	172.379728
08008		-27.067562	-29.054696	172.668758
08009		-26.763458	-28.679038	172.969108
08010		-26.465455	-28.316141	173.287710
08011		-26.185219	-27.974672	173.610564
08012		-25.920717	-27.653671	173.926559
08013		-25.664922	-27.355336	174.233617
08014		-25.415655	-27.050824	174.527931
08015		-25.175259	-26.739659	174.793095
08016		-24.959578	-26.417375	175.057024
08017		-24.768592	-26.094645	175.317225
08018		-24.607114	-25.794989	175.609463
08019		-24.481351	-25.521487	175.910442
08020		-24.391695	-25.258297	176.230879
08021		-24.325855	-24.995397	176.541875
08022		-24.272824	-24.733857	176.855621
08023		-24.229684	-24.462334	177.132968
08024		-24.188249	-24.196297	177.392373
08025		-24.145836	-23.950913	177.642739
08026		-24.111007	-23.719618	177.909189
08027		-24.081618	-23.501453	178.173171
08028		-24.047759	-23.305932	178.449494
08029		-24.007839	-23.133595	178.717182
08030		-23.952141	-22.968037	178.982475
08031		-23.872339	-22.793916	179.223085
08032		-23.752167	-22.601915	179.453172
08033		-23.602443	-22.406908	179.657794
08034		-23.428349	-22.206167	179.858160
08035		-23.237681	-22.001514	-179.959466
08036		-23.037035	-21.810003	-179.775050
08037		-22.832877	-21.633148	-179.607751
08038		-22.609090	-21.471536	-179.439107
08039		-22.363379	-21.323815	-179.286328
08040		-22.087016	-21.196388	-179.132672
08041		-21.779282	-21.091833	-179.002921
08042		-21.447230	-20.989643	-178.889039
08043		-21.114083	-20.881777	-178.802945
08044		-20.796883	-20.761197	-178.716167
08045		-20.519420	-20.620570	-178.641745
08046		-20.309092	-20.477502	-178.549600
08047		-20.182899	-20.341852	-178.470660
08048		-20.152252	-20.210306	-178.380086
08049		-20.184407	-20.085706	-178.282710
08050		-20.268077	-19.962623	-178.159680
08051		-20.383490	-19.842403	-178.041721
08052		-20.500227	-19.703694	-177.918975
08053		-20.600257	-19.543366	-177.808193
08054		-20.677709	-19.381005	-177.681890
08055		-20.743180	-19.230589	-177.564735
08056		-20.800907	-19.093901	-177.436782
08057		-20.853989	-18.970530	-177.324665
08058		-20.901116	-18.862566	-177.211987
08059		-20.943422	-18.772203	-177.122205
08060		-20.973313	-18.698784	-177.034061
08061		-20.978354	-18.638577	-176.965564
08062		-20.955314	-18.589604	-176.912642
08063		-20.904197	-18.559135	-176.871686
08064		-20.824950	-18.550586	-176.840427
08065		-20.758041	-18.561779	-176.816774
08066		-20.728178	-18.593935	-176.798186
08067		-20.743778	-18.637838	-176.780089
08068		-20.817249	-18.691994	-176.761532
08069		-20.927218	-18.730337	-176.741173
08070		-21.048105	-18.753875	-176.709739
08071		-21.181689	-18.765198	-176.666288
08072		-21.310255	-18.773317	-176.616502
08073		-21.412549	-18.781777	-176.587548
08074		-21.482018	-18.796913	-176.557905
08075		-21.524503	-18.826347	-176.541953
08076		-21.547114	-18.867855	-176.527674
08077		-21.548146	-18.912471	-176.515330
08078		-21.529977	-18.954853	-176.507592
08079		-21.505846	-18.985650	-176.494821
08080		-21.482201	-19.015285	-176.476281
08081		-21.472116	-19.044337	-176.459184
08082		-21.484420	-19.069103	-176.454354
08083		-21.525304	-19.089250	-176.461254
08084		-21.582565	-19.110545	-176.475538
08085		-21.655706	-19.130706	-176.494387
08086		-21.734683	-19.152912	-176.513668
08087		-21.808397	-19.171609	-176.539636
08088		-21.880705	-19.178506	-176.562158
08089		-21.959563	-19.180607	-176.578817
08090		-22.042935	-19.182376	-176.593116
08091		-22.118693	-19.181200	-176.610987
08092		-22.186025	-19.178519	-176.631160
08093		-22.239549	-19.169968	-176.650041
08094		-22.273222	-19.160402	-176.664302
08095		-22.300143	-19.156186	-176.668898
08096		-22.322148	-19.156170	-176.676649
08097		-22.343442	-19.146398	-176.691980
08098		-22.354136	-19.131373	-176.712342
08099		-22.354664	-19.108894	-176.732744
08100		-22.351664	-19.078527	-176.751156
08101		-22.342387	-19.048487	-176.765370
08102		-22.326092	-19.014141	-176.779168
08103		-22.315925	-18.982012	-176.784598
08104		-22.304830	-18.954431	-176.792352
08105		-22.277344	-18.926011	-176.799825
08106		-22.226920	-18.899008	-176.804539
08107		-22.149209	-18.872713	-176.802379
08108		-22.057815	-18.840107	-176.797442
08109		-21.968215	-18.801291	-176.787113
08110		-21.886216	-18.779305	-176.771906
08111		-21.803132	-18.764051	-176.761288
08112		-21.711882	-18.744109	-176.750313
08113		-21.630753	-18.721151	-176.734436
08114		-21.554669	-18.693622	-176.713979
08115		-21.470931	-18.661242	-176.686076
08116		-21.385286	-18.626812	-176.655505
08117		-21.310245	-18.590516	-176.625467
08118		-21.244623	-18.555566	-176.584650
08119		-21.195088	-18.518595	-176.555966
08120		-21.155271	-18.483369	-176.525643
08121		-21.119673	-18.446252	-176.491413
08122		-21.083669	-18.406539	-176.456907
08123		-21.035512	-18.356688	-176.425462
08124		-20.971506	-18.294346	-176.397636
08125		-20.891419	-18.229172	-176.367322
08126		-20.794210	-18.164811	-176.327388
08127		-20.689301	-18.096141	-176.294159
08128		-20.581873	-18.026101	-176.248666
08129		-20.482338	-17.955945	-176.210171
08130		-20.387936	-17.887869	-176.166320
08131		-20.305893	-17.825578	-176.138387
08132		-20.238699	-17.767307	-176.106788
08133		-20.171818	-17.704173	-176.088743
08134		-20.109915	-17.638012	-176.069871
08135		-20.046456	-17.571531	-176.052238
08136		-19.978670	-17.514414	-176.030117
08137		-19.910466	-17.467963	-176.008421
08138		-19.845714	-17.437400	-175.986699
08139		-19.769311	-17.413019	-175.968878
08140		-19.681750	-17.386996	-175.958821
08141		-19.601586	-17.361331	-175.949253
08142		-19.534074	-17.335847	-175.943715
08143		-19.490093	-17.304675	-175.938858
08144		-19.480392	-17.273494	-175.927777
08145		-19.499890	-17.245725	-175.916635
08146		-19.537280	-17.225073	-175.908812
08147		-19.571818	-17.207910	-175.904541
08148		-19.595937	-17.196405	-175.898440
08149		-19.609628	-17.188273	-175.893579
08150		-19.620794	-17.174186	-175.890237
08151		-19.638802	-17.160874	-175.880752
08152		-19.660139	-17.146529	-175.869848
08153		-19.685373	-17.135788	-175.853931
08154		-19.718959	-17.124558	-175.833677
08155		-19.763157	-17.118609	-175.808702
08156		-19.808130	-17.113593	-175.785902
08157		-19.845671	-17.104541	-175.769020
08158		-19.884115	-17.086036	-175.752101
08159		-19.921083	-17.067026	-175.736442
08160		-19.955574	-17.054335	-175.720366
08161		-19.987234	-17.044999	-175.707797
08162		-20.020917	-17.040127	-175.699852
08163		-20.061070	-17.033904	-175.697963
08164		-20.110343	-17.028550	-175.704305
08165		-20.174798	-17.029794	-175.710598
08166		-20.249808	-17.028311	-175.724989
08167		-20.343097	-17.030931	-175.742422
08168		-20.450346	-17.040972	-175.758100
08169		-20.577622	-17.058041	-175.770847
08170		-20.724285	-17.079484	-175.773094
08171		-20.887207	-17.101960	-175.784312
08172		-21.050763	-17.127428	-175.788636
08173		-21.210428	-17.154514	-175.801838
08174		-21.362891	-17.187001	-175.807073
08175		-21.502398	-17.230468	-175.824796
08176		-21.629468	-17.279836	-175.834905
08177		-21.747003	-17.336537	-175.855933
08178		-21.848701	-17.404088	-175.867458
08179		-21.938819	-17.475575	-175.891751
08180		-22.012581	-17.554017	-175.905774
08181		-22.094472	-17.644269	-175.928834
08182		-22.183008	-17.741796	-175.949486
08183		-22.279276	-17.847646	-175.982512
08184		-22.380765	-17.970902	-176.015203
08185		-22.482386	-18.107670	-176.073541
08186		-22.558468	-18.249393	-176.128811
08187		-22.615872	-18.387644	-176.191995
08188		-22.664945	-18.524837	-176.237287
08189		-22.702482	-18.649968	-176.285764
08190		-22.713087	-18.766326	-176.328147
08191		-22.708742	-18.878443	-176.391473
08192		-22.701929	-18.990073	-176.463959
08193		-22.709245	-19.102945	-176.570038
08194		-22.743944	-19.226394	-176.689299
08195		-22.800087	-19.363014	-176.844014
08196		-22.859461	-19.517107	-177.012033
08197		-22.891671	-19.680471	-177.200668
08198		-22.889364	-19.853732	-177.372500
08199		-22.868641	-20.034103	-177.537898
08200		-22.837025	-20.218890	-177.683104
08201		-22.811519	-20.406021	-177.839536
08202		-22.801416	-20.593537	-177.996190
08203		-22.820271	-20.784617	-178.181699
08204		-22.881117	-20.985495	-178.377854
08205		-22.984608	-21.201191	-178.601326
08206		-23.126130	-21.444463	-178.822496
08207		-23.305602	-21.704981	-179.044673
08208		-23.499843	-21.986927	-179.246165
08209		-23.680626	-22.291865	-179.442093
08210		-23.830286	-22.613612	-179.620807
08211		-23.947763	-22.939277	-179.810449
08212		-24.055222	-23.274689	179.990783
08213		-24.194412	-23.659905	179.744343
08214		-24.418852	-24.138459	179.460828
08215		-24.759404	-24.724176	179.132126
08216		-25.197719	-25.401877	178.769532
08217		-25.713485	-26.103003	178.357870
08218		-26.299809	-26.795866	177.945492
08219		-26.937031	-27.461548	177.549885
08220		-27.600062	-28.082755	177.210451
08221		-28.225206	-28.657716	176.901307
08222		-28.764648	-29.198190	176.625643
08223		-29.208356	-29.730087	176.330641
08224		-29.537413	-30.272270	176.014194
08225		-29.823826	-30.771346	175.692281
08226		-30.100514	-31.231764	175.419888
08227		-30.323478	-31.644998	175.141263
08228		-30.462128	-31.989219	174.853089
08229		-30.575029	-32.293429	174.575473
08230		-30.704338	-32.601800	174.351962
08231		-30.856281	-32.926324	174.164102
08232		-31.037123	-33.277940	174.002010
08233		-31.235831	-33.652685	173.828926
08234		-31.417309	-34.035791	173.660108
08235		-31.569499	-34.401113	173.491148
08236		-31.673311	-34.729591	173.334885
08237		-31.736077	-35.021557	173.198579
08238		-31.771924	-35.280949	173.089039
08239		-31.825817	-35.508807	173.035515
08240		-31.922564	-35.719556	173.042361
08241		-32.059589	-35.899705	173.079880
08242		-32.221490	-36.041210	173.112006
08243		-32.403525	-36.145734	173.129608
08244		-32.605619	-36.216892	173.154746
08245		-32.833418	-36.266175	173.220059
08246		-33.049412	-36.297475	173.330485
08247		-33.210735	-36.297927	173.457436
08248		-33.297658	-36.271070	173.582213
08249		-33.318764	-36.228579	173.701735
08250		-33.295019	-36.180576	173.815466
08251		-33.237732	-36.137546	173.914768
08252		-33.156520	-36.112778	173.998233
08253		-33.054854	-36.102393	174.058766
08254		-32.937047	-36.107878	174.094181
08255		-32.815738	-36.121936	174.113887
08256		-32.699429	-36.143298	174.121705
08257		-32.595421	-36.165539	174.124629
08258		-32.501915	-36.184495	174.123849
08259		-32.416404	-36.203358	174.121099
08260		-32.339322	-36.218125	174.114241
08261		-32.274031	-36.222574	174.107679
08262		-32.218619	-36.214334	174.105840
08263		-32.166656	-36.192549	174.102599
08264		-32.116495	-36.152018	174.098661
08265		-32.071237	-36.106576	174.095990
08266		-32.033673	-36.065137	174.098522
08267		-32.002263	-36.035668	174.102984
08268		-31.977718	-36.018772	174.108203
08269		-31.959634	-36.011034	174.111642
08270		-31.946447	-36.014718	174.113541
08271		-31.936607	-36.020663	174.106440
08272		-31.933419	-36.024935	174.089281
08273		-31.941601	-36.033963	174.067145
08274		-31.961241	-36.054033	174.041062
08275		-31.985474	-36.077829	174.010932
08276		-32.004764	-36.100800	173.978152
08277		-32.024503	-36.123699	173.945648
08278		-32.037104	-36.139575	173.910527
08279		-32.053961	-36.146983	173.876052
08280		-32.085968	-36.151204	173.852107
08281		-32.131003	-36.152763	173.831558
08282		-32.179138	-36.150190	173.816184
08283		-32.236198	-36.150415	173.816503
08284		-32.298974	-36.149396	173.826789
08285		-32.347902	-36.137611	173.846150
08286		-32.399468	-36.117546	173.878636
08287		-32.449303	-36.085206	173.918428
08288		-32.487953	-36.040008	173.961858
08289		-32.523012	-35.992270	173.998947
08290		-32.540210	-35.940471	174.019467
08291		-32.548356	-35.898432	174.033967
08292		-32.546862	-35.894371	174.054406
08293		-32.492915	-35.916344	174.057594
08294		-32.398094	-35.942463	174.048887
08295		-32.286769	-35.981519	174.030669
08296		-32.169375	-36.023152	174.002413
08297		-32.078757	-36.053229	173.968504
08298		-32.019894	-36.079478	173.930155
08299		-31.988921	-36.102411	173.893075
08300		-31.972907	-36.124667	173.852792
08301		-31.956521	-36.145803	173.814015
08302		-31.922658	-36.162853	173.773287
08303		-31.866680	-36.169465	173.731000
08304		-31.794436	-36.164512	173.680497
08305		-31.712879	-36.155113	173.625427
08306		-31.621905	-36.145891	173.560185
08307		-31.517980	-36.141649	173.489500
08308		-31.398016	-36.143248	173.415627
08309		-31.270367	-36.149683	173.347743
08310		-31.130509	-36.153553	173.287455
08311		-30.991954	-36.150940	173.231932
08312		-30.868520	-36.143688	173.180431
08313		-30.759471	-36.135340	173.126974
08314		-30.670141	-36.131925	173.068439
08315		-30.597636	-36.136174	173.008740
08316		-30.531467	-36.148273	172.953770
08317		-30.467697	-36.159763	172.903240
08318		-30.418806	-36.176797	172.863089
08319		-30.380596	-36.195225	172.838060
08320		-30.342380	-36.217610	172.815108
08321		-30.305005	-36.242198	172.796649
08322		-30.261794	-36.270398	172.778069
08323		-30.219750	-36.297885	172.755157
08324		-30.177070	-36.320629	172.725933
08325		-30.138862	-36.340009	172.695056
08326		-30.103509	-36.358489	172.664651
08327		-30.067588	-36.376171	172.632383
08328		-30.026164	-36.387754	172.595647
08329		-29.973562	-36.396440	172.554831
08330		-29.909129	-36.400058	172.509561
08331		-29.831274	-36.395221	172.458987
08332		-29.735532	-36.383800	172.402254
08333		-29.624132	-36.365158	172.339715
08334		-29.499559	-36.336448	172.263231
08335		-29.369993	-36.305712	172.177420
08336		-29.243425	-36.268479	172.087689
08337		-29.128251	-36.228903	171.995543
08338		-29.034131	-36.189461	171.904548
08339		-28.963881	-36.151449	171.812233
08340		-28.908255	-36.116525	171.724206
08341		-28.859742	-36.091399	171.639352
08342		-28.802676	-36.063872	171.557352
08343		-28.737908	-36.035788	171.476744
08344		-28.654893	-36.005659	171.396916
08345		-28.558071	-35.966840	171.312863
08346		-28.466521	-35.917356	171.222827
08347		-28.388979	-35.858623	171.129881
08348		-28.322530	-35.803188	171.042854
08349		-28.261873	-35.752986	170.965026
08350		-28.216262	-35.695815	170.900194
08351		-28.182660	-35.630365	170.843733
08352		-28.182481	-35.560160	170.803508
08353		-28.203553	-35.483694	170.764892
08354		-28.218859	-35.386164	170.722267
08355		-28.236013	-35.267175	170.690716
08356		-28.258864	-35.145060	170.678714
08357		-28.271846	-35.021550	170.681354
08358		-28.252382	-34.895700	170.679194
08359		-28.197694	-34.758977	170.660160
08360		-28.103531	-34.606834	170.626839
08361		-27.985218	-34.449920	170.589738
08362		-27.861334	-34.295969	170.556230
08363		-27.726258	-34.137637	170.522966
08364		-27.579817	-33.958776	170.493941
08365		-27.428206	-33.745664	170.484596
08366		-27.287405	-33.485717	170.514066
08367		-27.186465	-33.215613	170.590423
08368		-27.151000	-32.974260	170.690879
08369		-27.131233	-32.768199	170.767416
08370		-27.072986	-32.551151	170.799717
08371		-26.970866	-32.292465	170.801509
08372		-26.847518	-32.010341	170.810527
08373		-26.719197	-31.720024	170.852958
08374		-26.571159	-31.437070	170.938560
08375		-26.396805	-31.158463	171.061784
08376		-26.168472	-30.877075	171.197652
08377		-25.876302	-30.587843	171.337701
08378		-25.533370	-30.284913	171.485592
08379		-25.155240	-29.971792	171.642867
08380		-24.760263	-29.638770	171.815957
08381		-24.375691	-29.295251	172.010828
08382		-24.008324	-28.939109	172.228856
08383		-23.662746	-28.575921	172.450393
08384		-23.328537	-28.213413	172.694012
08385		-23.010695	-27.855235	172.936990
08386		-22.713891	-27.505811	173.205115
08387		-22.430501	-27.167036	173.480340
08388		-22.156510	-26.845226	173.774971
08389		-21.875289	-26.539056	174.048720
08390		-21.585345	-26.234447	174.317768
08391		-21.270069	-25.914934	174.561955
08392		-20.947487	-25.582707	174.813197
08393		-20.636088	-25.229578	175.071346
08394		-20.347886	-24.857130	175.368345
08395		-20.094627	-24.491620	175.686529
08396		-19.877133	-24.148143	176.034711
08397		-19.676831	-23.837829	176.376772
08398		-19.467369	-23.560804	176.706648
08399		-19.243778	-23.310012	176.994854
08400		-19.020035	-23.066876	177.269286
08401		-18.803345	-22.828420	177.521827
08402		-18.590475	-22.600281	177.786407
08403		-18.386100	-22.378264	178.040116
08404		-18.192891	-22.160078	178.300171
08405		-18.008660	-21.950817	178.545709
08406		-17.837453	-21.758580	178.791647
08407		-17.685228	-21.590640	179.011017
08408		-17.557663	-21.436949	179.218603
08409		-17.462246	-21.292914	179.384716
08410		-17.401498	-21.156178	179.541808
08411		-17.375195	-21.030045	179.676772
08412		-17.375645	-20.915925	179.824710
08413		-17.384879	-20.819344	179.964784
08414		-17.400904	-20.725493	-179.885128
08415		-17.410097	-20.641379	-179.747089
08416		-17.415884	-20.572911	-179.599722
08417		-17.416371	-20.512639	-179.480813
08418		-17.398732	-20.435614	-179.361968
08419		-17.356266	-20.343009	-179.266378
08420		-17.299201	-20.240967	-179.158521
08421		-17.248988	-20.143651	-179.061354
08422		-17.207801	-20.058763	-178.950624
08423		-17.169335	-19.980570	-178.846231
08424		-17.131602	-19.917981	-178.726249
08425		-17.090747	-19.868252	-178.632164
08426		-17.049478	-19.821599	-178.542798
08427		-17.009994	-19.777864	-178.480711
08428		-16.976457	-19.733865	-178.417418
08429		-16.967079	-19.695943	-178.368921
08430		-16.981449	-19.670205	-178.312088
08431		-17.017737	-19.655631	-178.270341
08432		-17.065101	-19.656459	-178.230202
08433		-17.104142	-19.671036	-178.192621
08434		-17.117218	-19.695623	-178.152327
08435		-17.106275	-19.720655	-178.118745
08436		-17.088153	-19.738407	-178.091467
08437		-17.080347	-19.756324	-178.066544
08438		-17.091494	-19.772605	-178.049054
08439		-17.149233	-19.795810	-178.031916
08440		-17.268860	-19.842992	-177.994889
08441		-17.417643	-19.916633	-177.964251
08442		-17.550016	-19.998537	-177.927452
08443		-17.624050	-20.065460	-177.912409
08444		-17.636637	-20.111616	-177.894936
08445		-17.606933	-20.138713	-177.894569
08446		-17.574648	-20.161801	-177.894742
08447		-17.551152	-20.184119	-177.902474
08448		-17.547686	-20.211922	-177.893977
08449		-17.566299	-20.253151	-177.893357
08450		-17.599358	-20.295427	-177.884076
08451		-17.646833	-20.328410	-177.863620
08452		-17.708070	-20.350854	-177.833432
08453		-17.760394	-20.363665	-177.810795
08454		-17.801775	-20.367986	-177.795727
08455		-17.820394	-20.367870	-177.788700
08456		-17.825246	-20.365508	-177.785189
08457		-17.828853	-20.370293	-177.780877
08458		-17.834966	-20.382150	-177.777652
08459		-17.843236	-20.394410	-177.779301
08460		-17.858882	-20.404537	-177.786986
08461		-17.879892	-20.413946	-177.797002
08462		-17.908586	-20.418378	-177.812429
08463		-17.945631	-20.417066	-177.826582
08464		-17.983462	-20.414887	-177.844117
08465		-18.020573	-20.417755	-177.863676
08466		-18.061928	-20.420813	-177.884175
08467		-18.108255	-20.418392	-177.900346
08468		-18.160887	-20.413049	-177.916214
08469		-18.218327	-20.405803	-177.931857
08470		-18.273185	-20.393559	-177.936213
08471		-18.332301	-20.376266	-177.954174
08472		-18.381570	-20.361143	-177.965627
08473		-18.417314	-20.343352	-177.970102
08474		-18.448255	-20.319697	-177.965376
08475		-18.483802	-20.296550	-177.954589
08476		-18.512327	-20.274368	-177.942064
08477		-18.545164	-20.259876	-177.931631
08478		-18.574191	-20.246520	-177.929009
08479		-18.588259	-20.231235	-177.919137
08480		-18.588709	-20.214130	-177.901566
08481		-18.588447	-20.194149	-177.874413
08482		-18.591613	-20.166771	-177.840149
08483		-18.600050	-20.135220	-177.806387
08484		-18.617255	-20.113759	-177.773659
08485		-18.627852	-20.094219	-177.751081
08486		-18.610851	-20.074424	-177.724374
08487		-18.576712	-20.059463	-177.695682
08488		-18.535980	-20.048976	-177.659771
08489		-18.497490	-20.034937	-177.618258
08490		-18.468530	-20.015224	-177.575130
08491		-18.455301	-19.985569	-177.533755
08492		-18.456996	-19.950005	-177.490241
08493		-18.471941	-19.915906	-177.439934
08494		-18.504028	-19.886577	-177.386597
08495		-18.549848	-19.851663	-177.330793
08496		-18.612459	-19.812793	-177.274576
08497		-18.676214	-19.770760	-177.218554
08498		-18.733164	-19.723774	-177.164759
08499		-18.780100	-19.665585	-177.116946
08500		-18.836356	-19.600153	-177.071043
08501		-18.913492	-19.534187	-177.023708
08502		-18.978620	-19.450689	-176.979380
08503		-19.026759	-19.336380	-176.932278
08504		-19.090862	-19.211279	-176.865379
08505		-19.173471	-19.101082	-176.801774
08506		-19.265829	-19.015536	-176.727822
08507		-19.346647	-18.945488	-176.666109
08508		-19.392998	-18.882780	-176.594779
08509		-19.398890	-18.824244	-176.533615
08510		-19.365102	-18.773923	-176.479530
08511		-19.305305	-18.733173	-176.436056
08512		-19.252795	-18.700348	-176.407253
08513		-19.221459	-18.669631	-176.383582
08514		-19.204400	-18.642165	-176.363177
08515		-19.196493	-18.617770	-176.344244
08516		-19.198233	-18.604301	-176.324597
08517		-19.210684	-18.599927	-176.308258
08518		-19.240325	-18.604276	-176.299465
08519		-19.270109	-18.608743	-176.294879
08520		-19.307204	-18.607723	-176.296775
08521		-19.341579	-18.604512	-176.296204
08522		-19.367947	-18.603285	-176.288325
08523		-19.392014	-18.605198	-176.275582
08524		-19.412783	-18.604754	-176.259230
08525		-19.425036	-18.606054	-176.236755
08526		-19.426804	-18.608614	-176.214366
08527		-19.417384	-18.607115	-176.192664
08528		-19.410849	-18.601516	-176.171047
08529		-19.402033	-18.589834	-176.148892
08530		-19.395639	-18.578062	-176.127009
08531		-19.393674	-18.572144	-176.106246
08532		-19.385602	-18.561012	-176.089229
08533		-19.379216	-18.546113	-176.074000
08534		-19.380624	-18.532613	-176.059526
08535		-19.394734	-18.518677	-176.046980
08536		-19.415404	-18.512612	-176.044081
08537		-19.439266	-18.507180	-176.046030
08538		-19.464688	-18.502134	-176.051791
08539		-19.500528	-18.494257	-176.060816
08540		-19.540285	-18.479946	-176.076620
08541		-19.585002	-18.458480	-176.101937
08542		-19.637664	-18.436317	-176.136118
08543		-19.698031	-18.418146	-176.177901
08544		-19.775726	-18.407585	-176.223425
08545		-19.874385	-18.411446	-176.271723
08546		-19.983677	-18.430634	-176.313308
08547		-20.097672	-18.462757	-176.366636
08548		-20.206558	-18.506383	-176.410855
08549		-20.307751	-18.556753	-176.464488
08550		-20.416503	-18.615520	-176.508353
08551		-20.540179	-18.674679	-176.560953
08552		-20.678173	-18.736492	-176.600105
08553		-20.840111	-18.802820	-176.655080
08554		-21.018966	-18.875921	-176.704133
08555		-21.201780	-18.958029	-176.765998
08556		-21.375261	-19.049592	-176.818466
08557		-21.531538	-19.143447	-176.878205
08558		-21.665435	-19.241419	-176.934124
08559		-21.775464	-19.347289	-176.998836
08560		-21.860404	-19.462871	-177.054127
08561		-21.930447	-19.586784	-177.121441
08562		-21.994982	-19.714180	-177.181494
08563		-22.055581	-19.841313	-177.257783
08564		-22.111939	-19.964083	-177.334830
08565		-22.170682	-20.092703	-177.433732
08566		-22.230144	-20.225751	-177.528396
08567		-22.283932	-20.361940	-177.637482
08568		-22.337138	-20.518442	-177.730406
08569		-22.388785	-20.680500	-177.834872
08570		-22.431438	-20.841187	-177.928542
08571		-22.474722	-20.979225	-178.031961
08572		-22.519036	-21.092443	-178.133438
08573		-22.556103	-21.183374	-178.247962
08574		-22.593605	-21.269902	-178.350726
08575		-22.640304	-21.357114	-178.464855
08576		-22.697394	-21.457188	-178.572618
08577		-22.767888	-21.566139	-178.690528
08578		-22.846531	-21.686967	-178.799980
08579		-22.924567	-21.812999	-178.917346
08580		-22.988727	-21.937638	-179.022206
08581		-23.036005	-22.053586	-179.140576
08582		-23.080428	-22.166321	-179.249829
08583		-23.116966	-22.274716	-179.374444
08584		-23.155529	-22.392020	-179.498975
08585		-23.211513	-22.522130	-179.641841
08586		-23.284139	-22.663707	-179.786012
08587		-23.371949	-22.822623	-179.946154
08588		-23.475524	-23.010326	179.904994
08589		-23.594647	-23.235256	179.752732
08590		-23.729223	-23.489798	179.622809
08591		-23.873755	-23.763478	179.483045
08592		-24.013602	-24.044535	179.337373
08593		-24.148195	-24.313839	179.151124
08594		-24.311352	-24.578623	178.952280
08595		-24.544849	-24.873930	178.732261
08596		-24.868278	-25.217280	178.509137
08597		-25.279876	-25.603443	178.257124
08598		-25.763200	-26.013404	178.002401
08599		-26.287703	-26.413721	177.736814
08600		-26.831131	-26.782706	177.479923
08601		-27.372183	-27.115944	177.226202
08602		-27.885335	-27.430155	176.999938
08603		-28.344293	-27.767046	176.771735
08604		-28.760753	-28.122677	176.552128
08605		-29.141426	-28.500195	176.336588
08606		-29.483676	-28.854866	176.151181
08607		-29.755546	-29.175973	175.966744
08608		-29.966478	-29.465601	175.790751
08609		-30.137458	-29.732301	175.607158
08610		-30.286021	-29.994179	175.439318
08611		-30.408655	-30.288613	175.275016
08612		-30.522132	-30.633153	175.119057
08613		-30.633103	-30.998355	174.948024
08614		-30.719114	-31.350978	174.805568
08615		-30.798052	-31.673985	174.694302
08616		-30.889942	-31.959057	174.630304
08617		-30.997862	-32.205040	174.583567
08618		-31.115828	-32.419653	174.550815
08619		-31.240742	-32.601383	174.489416
08620		-31.364919	-32.768988	174.406946
08621		-31.486688	-32.933338	174.315827
08622		-31.633859	-33.083903	174.242152
08623		-31.812253	-33.207120	174.213412
08624		-32.004833	-33.310289	174.229421
08625		-32.182367	-33.380038	174.265988
08626		-32.322628	-33.421635	174.297885
08627		-32.428376	-33.448191	174.318318
08628		-32.498724	-33.467551	174.336862
08629		-32.541959	-33.493525	174.374630
08630		-32.551196	-33.519661	174.427231
08631		-32.521327	-33.541312	174.483465
08632		-32.458413	-33.551542	174.534431
08633		-32.371606	-33.546670	174.577845
08634		-32.269946	-33.529206	174.613782
08635		-32.167623	-33.511225	174.643421
08636		-32.076166	-33.504310	174.669476
08637		-31.989232	-33.498506	174.682984
08638		-31.907973	-33.498497	174.697793
08639		-31.837127	-33.504747	174.713222
08640		-31.772682	-33.514287	174.727269
08641		-31.711130	-33.523159	174.738469
08642		-31.652665	-33.531227	174.750172
08643		-31.601440	-33.537368	174.756019
08644		-31.556739	-33.542512	174.760589
08645		-31.522639	-33.551741	174.765897
08646		-31.492836	-33.556091	174.780489
08647		-31.477449	-33.572801	174.806667
08648		-31.480296	-33.602572	174.840310
08649		-31.495628	-33.622496	174.872973
08650		-31.518739	-33.629619	174.903437
08651		-31.568375	-33.642458	174.939648
08652		-31.634127	-33.648632	174.972562
08653		-31.705685	-33.648103	175.000434
08654		-31.776599	-33.647910	175.025817
08655		-31.838848	-33.649957	175.046864
08656		-31.888661	-33.650304	175.066336
08657		-31.930279	-33.649537	175.094836
08658		-31.969403	-33.645900	175.129101
08659		-32.014772	-33.637897	175.167759
08660		-32.072456	-33.634131	175.204604
08661		-32.140861	-33.631755	175.229958
08662		-32.213872	-33.627033	175.246650
08663		-32.284792	-33.621285	175.252590
08664		-32.355094	-33.617715	175.259317
08665		-32.427876	-33.622815	175.266787
08666		-32.491064	-33.636062	175.273052
08667		-32.541401	-33.652871	175.278119
08668		-32.572778	-33.665468	175.276357
08669		-32.587552	-33.669254	175.272920
08670		-32.601105	-33.667726	175.276904
08671		-32.621248	-33.666579	175.291406
08672		-32.646105	-33.670749	175.307099
08673		-32.669209	-33.676899	175.320115
08674		-32.686345	-33.684554	175.330265
08675		-32.700409	-33.686949	175.336647
08676		-32.712297	-33.681364	175.339927
08677		-32.728746	-33.675293	175.348194
08678		-32.742302	-33.673827	175.362572
08679		-32.755717	-33.676611	175.376875
08680		-32.764735	-33.681365	175.392823
08681		-32.767543	-33.686137	175.409641
08682		-32.764688	-33.687409	175.425116
08683		-32.758156	-33.685577	175.437641
08684		-32.748266	-33.679997	175.448730
08685		-32.745666	-33.670133	175.462440
08686		-32.741540	-33.651954	175.475527
08687		-32.738596	-33.617356	175.490824
08688		-32.734445	-33.571316	175.515491
08689		-32.730799	-33.517114	175.546412
08690		-32.725496	-33.462838	175.579900
08691		-32.712809	-33.404523	175.602279
08692		-32.686552	-33.342831	175.607913
08693		-32.656123	-33.291944	175.600514
08694		-32.627359	-33.261451	175.584757
08695		-32.562283	-33.253220	175.539924
08696		-32.455967	-33.238698	175.478252
08697		-32.324884	-33.210621	175.417533
08698		-32.190777	-33.181097	175.375239
08699		-32.073848	-33.147964	175.351320
08700		-31.966577	-33.116081	175.331292
08701		-31.865208	-33.083146	175.297179
08702		-31.771873	-33.051462	175.250680
08703		-31.690088	-33.026540	175.191328
08704		-31.622647	-33.002322	175.130474
08705		-31.565713	-32.982579	175.072175
08706		-31.510233	-32.971268	175.019580
08707		-31.451975	-32.969582	174.975785
08708		-31.386496	-32.973281	174.933999
08709		-31.307396	-32.975453	174.894327
08710		-31.213424	-32.976427	174.855115
08711		-31.105073	-32.964850	174.809679
08712		-30.994631	-32.941117	174.758104
08713		-30.888789	-32.913050	174.699866
08714		-30.789395	-32.885980	174.640298
08715		-30.702136	-32.865328	174.583913
08716		-30.628334	-32.854307	174.536917
08717		-30.561058	-32.845879	174.495134
08718		-30.502788	-32.839389	174.465088
08719		-30.453334	-32.833557	174.442090
08720		-30.403493	-32.823444	174.420118
08721		-30.339457	-32.809733	174.392709
08722		-30.261165	-32.792747	174.356548
08723		-30.165819	-32.770283	174.307505
08724		-30.047657	-32.739148	174.246214
08725		-29.905302	-32.701738	174.176153
08726		-29.744992	-32.654422	174.105185
08727		-29.568045	-32.605589	174.018891
08728		-29.375606	-32.547912	173.931543
08729		-29.165837	-32.481743	173.839114
08730		-28.938927	-32.402762	173.733417
08731		-28.686070	-32.304777	173.613470
08732		-28.413903	-32.181194	173.478954
08733		-28.137144	-32.038219	173.336324
08734		-27.854565	-31.872505	173.188058
08735		-27.580162	-31.685715	173.040730
08736		-27.324953	-31.485804	172.906878
08737		-27.078669	-31.280155	172.787292
08738		-26.822357	-31.069992	172.677497
08739		-26.550083	-30.847656	172.571105
08740		-26.255861	-30.609722	172.468893
08741		-25.935656	-30.350977	172.374669
08742		-25.606884	-30.080353	172.294167
08743		-25.265544	-29.793905	172.230516
08744		-24.901050	-29.489715	172.180975
08745		-24.535193	-29.164777	172.159780
08746		-24.171125	-28.818618	172.171615
08747		-23.815537	-28.470799	172.219799
08748		-23.498722	-28.136764	172.288088
08749		-23.206509	-27.808539	172.351135
08750		-22.899526	-27.471514	172.404156
08751		-22.573650	-27.117806	172.444041
08752		-22.237782	-26.745860	172.484497
08753		-21.898086	-26.364061	172.532779
08754		-21.563857	-25.987704	172.600329
08755		-21.225158	-25.630879	172.696079
08756		-20.876250	-25.296333	172.817305
08757		-20.514687	-24.977808	172.943379
08758		-20.147892	-24.669896	173.075491
08759		-19.774664	-24.376050	173.214628
08760		-19.413097	-24.105730	173.380732
08761		-19.063604	-23.848401	173.546288
08762		-18.738093	-23.590213	173.727042
08763		-18.447528	-23.326806	173.897559
08764		-18.192124	-23.067213	174.065299
08765		-17.971702	-22.821949	174.222871
08766		-17.775161	-22.587770	174.379151
08767		-17.605882	-22.353156	174.515851
08768		-17.450250	-22.125888	174.658523
08769		-17.307615	-21.910535	174.800602
08770		-17.174640	-21.709339	174.950359
08771		-17.046720	-21.524503	175.106307
08772		-16.916464	-21.345997	175.278582
08773		-16.791245	-21.175698	175.446529
08774		-16.664630	-21.009494	175.632427
08775		-16.541618	-20.845048	175.818496
08776		-16.427435	-20.681173	176.027814
08777		-16.318744	-20.524382	176.234588
08778		-16.217366	-20.380323	176.457735
08779		-16.118297	-20.249663	176.670227
08780		-16.024066	-20.130858	176.884787
08781		-15.935822	-20.015298	177.080857
08782		-15.851421	-19.902313	177.282134
08783		-15.784517	-19.792664	177.472580
08784		-15.739829	-19.693320	177.674319
08785		-15.718927	-19.602150	177.868291
08786		-15.714836	-19.511699	178.070054
08787		-15.727398	-19.424990	178.253727
08788		-15.754181	-19.338054	178.438441
08789		-15.786447	-19.248597	178.610868
08790		-15.828855	-19.156900	178.800363
08791		-15.880465	-19.074920	178.984049
08792		-15.935620	-18.998345	179.184512
08793		-15.981433	-18.924579	179.368540
08794		-16.014059	-18.855358	179.555717
08795		-16.036412	-18.784711	179.724448
08796		-16.050355	-18.707231	179.891760
08797		-16.050199	-18.623806	-179.956562
08798		-16.040796	-18.538483	-179.792964
08799		-16.020313	-18.449316	-179.650004
08800		-15.988662	-18.365197	-179.495797
08801		-15.950083	-18.286808	-179.358882
08802		-15.919537	-18.214432	-179.221006
08803		-15.898471	-18.144365	-179.104551
08804		-15.884771	-18.071430	-178.984203
08805		-15.871618	-17.991076	-178.877664
08806		-15.867059	-17.913173	-178.761577
08807		-15.861926	-17.835686	-178.655758
08808		-15.852081	-17.761094	-178.543111
08809		-15.839607	-17.693307	-178.441853
08810		-15.819214	-17.630424	-178.329380
08811		-15.795795	-17.574899	-178.224455
08812		-15.772637	-17.527811	-178.107190
08813		-15.751028	-17.493085	-177.995003
08814		-15.724244	-17.470705	-177.867597
08815		-15.697065	-17.460023	-177.754109
08816		-15.677853	-17.460249	-177.628839
08817		-15.679690	-17.468895	-177.513025
08818		-15.685593	-17.471447	-177.381823
08819		-15.688470	-17.463585	-177.262422
08820		-15.696189	-17.431116	-177.128718
08821		-15.706215	-17.382921	-177.000736
08822		-15.721629	-17.330778	-176.860342
08823		-15.744595	-17.267263	-176.730839
08824		-15.762008	-17.192108	-176.585846
08825		-15.782318	-17.119492	-176.448714
08826		-15.813753	-17.051049	-176.298104
08827		-15.837587	-16.987879	-176.166970
08828		-15.848034	-16.921793	-176.032901
08829		-15.842868	-16.853578	-175.914509
08830		-15.822847	-16.783777	-175.790155
08831		-15.791242	-16.708703	-175.685787
08832		-15.760028	-16.631645	-175.571326
08833		-15.729945	-16.562198	-175.477249
08834		-15.716841	-16.505101	-175.381705
08835		-15.727448	-16.463694	-175.305992
08836		-15.762897	-16.432803	-175.222875
08837		-15.822503	-16.415683	-175.156227
08838		-15.910055	-16.411237	-175.076091
08839		-16.013620	-16.420380	-175.010387
08840		-16.121390	-16.436625	-174.943701
08841		-16.214807	-16.461453	-174.875937
08842		-16.295754	-16.489679	-174.797812
08843		-16.380684	-16.525053	-174.730848
08844		-16.477227	-16.573355	-174.653634
08845		-16.569743	-16.626933	-174.598592
08846		-16.642713	-16.674204	-174.543299
08847		-16.683295	-16.713710	-174.515251
08848		-16.703505	-16.748626	-174.481320
08849		-16.712413	-16.777435	-174.464939
08850		-16.719330	-16.802864	-174.450142
08851		-16.732898	-16.828583	-174.429854
08852		-16.765911	-16.856386	-174.400932
08853		-16.823371	-16.880596	-174.364364
08854		-16.900756	-16.904540	-174.319814
08855		-16.987129	-16.925017	-174.272358
08856		-17.064440	-16.942979	-174.212275
08857		-17.121766	-16.957303	-174.173290
08858		-17.162215	-16.972430	-174.141714
08859		-17.185864	-16.990128	-174.117654
08860		-17.193315	-17.011355	-174.100294
08861		-17.194914	-17.036878	-174.089953
08862		-17.207863	-17.063169	-174.079449
08863		-17.237531	-17.083966	-174.071459
08864		-17.279014	-17.103226	-174.063972
08865		-17.328526	-17.125458	-174.055361
08866		-17.384293	-17.147638	-174.049377
08867		-17.445680	-17.167293	-174.050153
08868		-17.503613	-17.189135	-174.058103
08869		-17.553309	-17.211349	-174.077640
08870		-17.593419	-17.236119	-174.103873
08871		-17.620542	-17.260592	-174.135089
08872		-17.652542	-17.287420	-174.167472
08873		-17.678608	-17.316490	-174.197338
08874		-17.702020	-17.337922	-174.230715
08875		-17.737308	-17.353567	-174.268597
08876		-17.785110	-17.365617	-174.300408
08877		-17.837395	-17.373961	-174.319749
08878		-17.889734	-17.369443	-174.334851
08879		-17.937705	-17.363337	-174.342839
08880		-17.976663	-17.364852	-174.346690
08881		-17.994804	-17.363141	-174.351516
08882		-17.989094	-17.352324	-174.354529
08883		-17.973135	-17.339304	-174.354559
08884		-17.954116	-17.326962	-174.353504
08885		-17.941235	-17.314442	-174.349965
08886		-17.924874	-17.298957	-174.350699
08887		-17.911585	-17.282701	-174.350364
08888		-17.900282	-17.269739	-174.349263
08889		-17.887730	-17.249856	-174.345655
08890		-17.870460	-17.230751	-174.337213
08891		-17.856961	-17.215088	-174.323653
08892		-17.847116	-17.202456	-174.308794
08893		-17.845245	-17.186591	-174.292448
08894		-17.852684	-17.187172	-174.280069
08895		-17.852253	-17.193576	-174.277059
08896		-17.829319	-17.199971	-174.279113
08897		-17.794551	-17.207867	-174.280638
08898		-17.750653	-17.218539	-174.281567
08899		-17.700236	-17.232072	-174.280488
08900		-17.660207	-17.252723	-174.278902
08901		-17.627203	-17.274879	-174.278757
08902		-17.600638	-17.292622	-174.283956
08903		-17.579096	-17.309943	-174.291006
08904		-17.553931	-17.328547	-174.295354
08905		-17.521657	-17.348964	-174.297243
08906		-17.485031	-17.374116	-174.295441
08907		-17.451834	-17.391107	-174.292468
08908		-17.435184	-17.403424	-174.283942
08909		-17.426698	-17.408019	-174.274435
08910		-17.422879	-17.411074	-174.264974
08911		-17.424261	-17.410859	-174.256712
08912		-17.415802	-17.416920	-174.249001
08913		-17.393937	-17.420177	-174.239734
08914		-17.364643	-17.425906	-174.229332
08915		-17.323432	-17.423671	-174.220355
08916		-17.273278	-17.419609	-174.209180
08917		-17.233152	-17.415822	-174.192757
08918		-17.205728	-17.418203	-174.174753
08919		-17.179351	-17.419763	-174.161359
08920		-17.162071	-17.418052	-174.150183
08921		-17.156128	-17.414464	-174.141670
08922		-17.159074	-17.410478	-174.136036
08923		-17.162875	-17.408514	-174.135648
08924		-17.165178	-17.413347	-174.138380
08925		-17.166210	-17.422536	-174.139815
08926		-17.164266	-17.435864	-174.142153
08927		-17.165548	-17.445844	-174.151339
08928		-17.167661	-17.457278	-174.165271
08929		-17.173831	-17.465115	-174.182590
08930		-17.186730	-17.474998	-174.198380
08931		-17.194134	-17.486350	-174.209035
08932		-17.196936	-17.501956	-174.216832
08933		-17.191458	-17.518919	-174.220069
08934		-17.173987	-17.533459	-174.222509
08935		-17.142927	-17.549598	-174.220740
08936		-17.104660	-17.565451	-174.219351
08937		-17.058097	-17.574951	-174.218437
08938		-17.004327	-17.584158	-174.217892
08939		-16.953147	-17.588732	-174.217329
08940		-16.908895	-17.589157	-174.214754
08941		-16.872987	-17.590114	-174.207463
08942		-16.844260	-17.587614	-174.203755
08943		-16.821564	-17.583372	-174.200863
08944		-16.796648	-17.578123	-174.198870
08945		-16.769711	-17.572936	-174.199579
08946		-16.736984	-17.568356	-174.199778
08947		-16.707371	-17.568030	-174.199738
08948		-16.689210	-17.566930	-174.200697
08949		-16.671834	-17.565999	-174.203751
08950		-16.661265	-17.567223	-174.207404
08951		-16.653411	-17.570742	-174.219255
08952		-16.652069	-17.577701	-174.235699
08953		-16.646590	-17.592435	-174.259883
08954		-16.638213	-17.616489	-174.290089
08955		-16.620147	-17.649649	-174.325946
08956		-16.599696	-17.678571	-174.367170
08957		-16.597394	-17.700069	-174.411486
08958		-16.613997	-17.716284	-174.453397
08959		-16.647838	-17.734680	-174.495756
08960		-16.698381	-17.752169	-174.538788
08961		-16.755854	-17.774413	-174.580921
08962		-16.810647	-17.799620	-174.619991
08963		-16.866161	-17.823056	-174.653750
08964		-16.927304	-17.846534	-174.682954
08965		-16.988139	-17.874640	-174.710749
08966		-17.052083	-17.904935	-174.738888
08967		-17.130132	-17.928934	-174.769624
08968		-17.223981	-17.955592	-174.802192
08969		-17.333438	-17.985146	-174.834939
08970		-17.459518	-18.018892	-174.856998
08971		-17.595422	-18.053632	-174.893742
08972		-17.736147	-18.090983	-174.921668
08973		-17.866145	-18.133889	-174.960217
08974		-17.994600	-18.177549	-174.989310
08975		-18.133195	-18.220883	-175.029078
08976		-18.285884	-18.267802	-175.060459
08977		-18.441469	-18.319385	-175.104958
08978		-18.601385	-18.380116	-175.145475
08979		-18.767263	-18.448552	-175.204266
08980		-18.935750	-18.527203	-175.265169
08981		-19.094881	-18.619710	-175.343106
08982		-19.233046	-18.728283	-175.423690
08983		-19.372842	-18.848484	-175.522572
08984		-19.514808	-18.973268	-175.617181
08985		-19.651752	-19.103089	-175.722758
08986		-19.786932	-19.244667	-175.819603
08987		-19.924380	-19.394161	-175.931440
08988		-20.068635	-19.555039	-176.042672
08989		-20.211260	-19.721325	-176.176798
08990		-20.341876	-19.898264	-176.307296
08991		-20.447376	-20.082367	-176.449679
08992		-20.538319	-20.263774	-176.579525
08993		-20.622065	-20.436616	-176.714485
08994		-20.689931	-20.604854	-176.842598
08995		-20.742420	-20.771901	-176.992712
08996		-20.791150	-20.940336	-177.147995
08997		-20.847994	-21.113239	-177.331870
08998		-20.909800	-21.295066	-177.518668
08999		-20.967581	-21.492913	-177.719598
09000		-20.995375	-21.706756	-177.902080
09001		-21.007303	-21.923650	-178.080046
09002		-21.018849	-22.135452	-178.239798
09003		-21.024151	-22.327982	-178.407300
09004		-21.026192	-22.510265	-178.569270
09005		-21.047038	-22.690108	-178.746799
09006		-21.066562	-22.884622	-178.913492
09007		-21.082348	-23.082708	-179.073619
09008		-21.131765	-23.273758	-179.207670
09009		-21.218717	-23.434507	-179.334443
09010		-21.326885	-23.565064	-179.445212
09011		-21.440347	-23.676665	-179.572911
09012		-21.557704	-23.787076	-179.706312
09013		-21.690223	-23.904140	-179.854613
09014		-21.847014	-24.036315	-179.992792
09015		-22.029255	-24.184363	179.853137
09016		-22.183536	-24.348050	179.695663
09017		-22.281049	-24.506656	179.520348
09018		-22.340020	-24.659362	179.368492
09019		-22.401276	-24.806738	179.232355
09020		-22.474382	-24.954229	179.126096
09021		-22.555438	-25.099208	179.011290
09022		-22.643512	-25.238870	178.887619
09023		-22.738389	-25.370672	178.738978
09024		-22.853208	-25.504735	178.590724
09025		-22.990704	-25.642980	178.432665
09026		-23.147838	-25.780442	178.290632
09027		-23.319504	-25.922106	178.153465
09028		-23.499031	-26.070497	178.041520
09029		-23.671471	-26.225580	177.928434
09030		-23.825851	-26.382603	177.819119
09031		-23.968233	-26.543468	177.693740
09032		-24.113680	-26.692948	177.579936
09033		-24.263012	-26.841612	177.459892
09034		-24.397215	-27.010766	177.342391
09035		-24.516251	-27.194878	177.208880
09036		-24.626173	-27.384075	177.081031
09037		-24.737913	-27.562264	176.952023
09038		-24.849327	-27.739817	176.844385
09039		-24.970448	-27.922527	176.727954
09040		-25.105476	-28.112096	176.621601
09041		-25.256806	-28.305118	176.506518
09042		-25.437037	-28.508771	176.404504
09043		-25.638756	-28.724455	176.296188
09044		-25.855446	-28.951617	176.200308
09045		-26.078746	-29.192580	176.105170
09046		-26.312669	-29.441920	176.029329
09047		-26.544544	-29.689461	175.948429
09048		-26.775593	-29.922594	175.879723
09049		-26.998325	-30.138231	175.799718
09050		-27.212447	-30.340313	175.705739
09051		-27.432810	-30.530500	175.597198
09052		-27.669737	-30.695424	175.494148
09053		-27.922440	-30.854253	175.424834
09054		-28.170811	-31.025083	175.395439
09055		-28.403555	-31.204718	175.371642
09056		-28.615403	-31.389014	175.346031
09057		-28.797569	-31.566559	175.321444
09058		-28.956608	-31.723175	175.311491
09059		-29.115915	-31.850090	175.333108
09060		-29.277081	-31.955358	175.375142
09061		-29.418200	-32.030380	175.411706
09062		-29.515614	-32.062411	175.429894
09063		-29.589242	-32.069378	175.445814
09064		-29.665683	-32.067951	175.480279
09065		-29.740614	-32.063857	175.532633
09066		-29.794001	-32.054423	175.590052
09067		-29.823384	-32.042188	175.640446
09068		-29.833567	-32.033896	175.676714
09069		-29.822054	-32.033130	175.699048
09070		-29.790427	-32.039848	175.713586
09071		-29.756942	-32.055039	175.729164
09072		-29.738250	-32.073047	175.736701
09073		-29.738266	-32.087529	175.739761
09074		-29.747690	-32.101284	175.742333
09075		-29.765186	-32.119513	175.740903
09076		-29.797228	-32.136104	175.735933
09077		-29.834395	-32.150509	175.727426
09078		-29.862143	-32.159134	175.719954
09079		-29.891354	-32.169592	175.721524
09080		-29.924843	-32.178813	175.732865
09081		-29.958403	-32.184607	175.743851
09082		-29.988534	-32.193785	175.751895
09083		-30.018832	-32.213246	175.752148
09084		-30.040246	-32.237107	175.740583
09085		-30.049480	-32.262925	175.721442
09086		-30.050142	-32.279892	175.698872
09087		-30.042461	-32.290483	175.677814
09088		-30.040856	-32.301586	175.670491
09089		-30.047318	-32.304008	175.677055
09090		-30.052482	-32.298313	175.693053
09091		-30.057020	-32.284032	175.706981
09092		-30.064348	-32.259024	175.709626
09093		-30.066340	-32.229480	175.703129
09094		-30.069091	-32.200260	175.692532
09095		-30.072224	-32.180002	175.689931
09096		-30.079746	-32.161430	175.691254
09097		-30.082045	-32.150324	175.699434
09098		-30.083073	-32.143526	175.713490
09099		-30.085102	-32.133769	175.727264
09100		-30.075125	-32.117968	175.741317
09101		-30.065965	-32.098418	175.760812
09102		-30.058027	-32.070836	175.781995
09103		-30.058288	-32.040342	175.808586
09104		-30.064057	-32.013447	175.840574
09105		-30.075048	-31.995257	175.875948
09106		-30.082726	-31.985768	175.907664
09107		-30.074496	-31.980082	175.935979
09108		-30.053574	-31.977762	175.959230
09109		-30.026601	-31.973841	175.981162
09110		-30.000671	-31.966181	176.004520
09111		-29.969782	-31.955468	176.032012
09112		-29.936755	-31.938395	176.055909
09113		-29.903211	-31.915563	176.075184
09114		-29.862085	-31.893471	176.088322
09115		-29.809935	-31.869520	176.094296
09116		-29.745655	-31.856263	176.096753
09117		-29.671665	-31.845558	176.085795
09118		-29.595834	-31.832467	176.064881
09119		-29.510467	-31.812190	176.031640
09120		-29.429774	-31.790777	176.003947
09121		-29.361763	-31.766437	175.983247
09122		-29.300357	-31.741557	175.963093
09123		-29.232542	-31.712862	175.942732
09124		-29.164216	-31.685089	175.918571
09125		-29.092609	-31.653846	175.890807
09126		-29.024163	-31.622168	175.856971
09127		-28.954511	-31.589711	175.826282
09128		-28.884698	-31.559394	175.799827
09129		-28.815498	-31.527632	175.775374
09130		-28.747103	-31.496451	175.752062
09131		-28.684075	-31.466131	175.727900
09132		-28.634283	-31.440629	175.701466
09133		-28.591489	-31.419625	175.672713
09134		-28.553173	-31.405256	175.645141
09135		-28.528324	-31.396153	175.620287
09136		-28.508818	-31.388903	175.594209
09137		-28.492506	-31.382283	175.565553
09138		-28.480222	-31.381855	175.537074
09139		-28.465832	-31.383134	175.505727
09140		-28.446828	-31.388246	175.475017
09141		-28.424524	-31.394229	175.452247
09142		-28.394594	-31.399508	175.430536
09143		-28.365791	-31.407394	175.416254
09144		-28.340145	-31.416868	175.399036
09145		-28.309457	-31.428415	175.376623
09146		-28.280503	-31.442326	175.348182
09147		-28.249517	-31.459476	175.318157
09148		-28.215936	-31.477131	175.285920
09149		-28.179614	-31.491607	175.254403
09150		-28.140394	-31.503974	175.219896
09151		-28.106452	-31.512352	175.187227
09152		-28.074255	-31.521767	175.155740
09153		-28.042878	-31.530841	175.125706
09154		-28.006993	-31.539899	175.098483
09155		-27.955827	-31.542924	175.064849
09156		-27.884979	-31.533379	175.020682
09157		-27.785682	-31.502736	174.961022
09158		-27.667922	-31.452339	174.892122
09159		-27.532945	-31.384708	174.817144
09160		-27.387019	-31.307070	174.736542
09161		-27.238752	-31.223395	174.655293
09162		-27.082684	-31.132026	174.568270
09163		-26.921737	-31.021620	174.475300
09164		-26.763898	-30.892316	174.377219
09165		-26.619772	-30.754408	174.281454
09166		-26.500819	-30.617826	174.192966
09167		-26.427386	-30.495378	174.120043
09168		-26.406224	-30.399877	174.053306
09169		-26.430832	-30.312299	173.976304
09170		-26.475819	-30.220149	173.888469
09171		-26.520527	-30.110392	173.795421
09172		-26.547482	-29.977252	173.696616
09173		-26.538023	-29.812224	173.599072
09174		-26.494959	-29.610854	173.507663
09175		-26.441655	-29.403722	173.438813
09176		-26.384566	-29.212417	173.394335
09177		-26.314497	-29.026421	173.367331
09178		-26.234317	-28.820034	173.353170
09179		-26.147954	-28.581445	173.361108
09180		-26.070548	-28.331200	173.402915
09181		-26.011646	-28.097884	173.483642
09182		-25.964862	-27.894009	173.592711
09183		-25.900927	-27.687648	173.704984
09184		-25.802158	-27.450394	173.802875
09185		-25.680654	-27.183253	173.900869
09186		-25.564342	-26.910624	174.026711
09187		-25.461397	-26.647470	174.189569
09188		-25.365022	-26.395849	174.383700
09189		-25.257605	-26.137480	174.584705
09190		-25.134418	-25.866721	174.782431
09191		-24.994463	-25.580226	174.977537
09192		-24.836639	-25.296532	175.189638
09193		-24.662446	-25.019504	175.410212
09194		-24.474544	-24.756639	175.664415
09195		-24.272534	-24.505801	175.931272
09196		-24.055427	-24.264755	176.219844
09197		-23.828631	-24.038521	176.503691
09198		-23.608350	-23.824066	176.800661
09199		-23.406634	-23.628908	177.086812
09200		-23.217799	-23.453653	177.383103
09201		-23.018227	-23.281893	177.646278
09202		-22.818299	-23.095182	177.893824
09203		-22.629401	-22.895366	178.114635
09204		-22.460024	-22.685235	178.336914
09205		-22.311712	-22.473629	178.552164
09206		-22.191716	-22.272790	178.787976
09207		-22.088320	-22.082829	179.022037
09208		-22.000062	-21.893817	179.281848
09209		-21.917057	-21.715982	179.528568
09210		-21.844446	-21.545973	179.776074
09211		-21.770263	-21.370114	179.989722
09212		-21.680366	-21.186585	-179.805768
09213		-21.581424	-21.005025	-179.620053
09214		-21.477917	-20.834511	-179.417730
09215		-21.367050	-20.679636	-179.231046
09216		-21.268781	-20.537749	-179.031527
09217		-21.166429	-20.401903	-178.855437
09218		-21.063150	-20.265302	-178.672638
09219		-20.954195	-20.128874	-178.512606
09220		-20.836465	-19.995434	-178.342232
09221		-20.709167	-19.871843	-178.181152
09222		-20.590825	-19.757723	-178.000307
09223		-20.485321	-19.650219	-177.831966
09224		-20.394966	-19.539343	-177.655521
09225		-20.316063	-19.433088	-177.498067
09226		-20.245014	-19.330581	-177.340371
09227		-20.171527	-19.223404	-177.204355
09228		-20.096063	-19.108307	-177.059964
09229		-20.015437	-18.994244	-176.924761
09230		-19.944750	-18.883829	-176.768427
09231		-19.876738	-18.781150	-176.617406
09232		-19.814713	-18.690522	-176.450268
09233		-19.753068	-18.610434	-176.302178
09234		-19.691076	-18.532421	-176.156402
09235		-19.624532	-18.455702	-176.034761
09236		-19.557681	-18.374824	-175.909398
09237		-19.485869	-18.297310	-175.795870
09238		-19.417965	-18.222760	-175.670445
09239		-19.354491	-18.156420	-175.557049
09240		-19.307205	-18.091894	-175.432133
09241		-19.280134	-18.027342	-175.329290
09242		-19.271516	-17.959902	-175.223112
09243		-19.278337	-17.890726	-175.135301
09244		-19.295220	-17.823058	-175.037575
09245		-19.317512	-17.762690	-174.948264
09246		-19.344148	-17.709104	-174.847044
09247		-19.376907	-17.672883	-174.758843
09248		-19.415465	-17.650113	-174.663942
09249		-19.456259	-17.633090	-174.590432
09250		-19.503911	-17.623228	-174.509614
09251		-19.545996	-17.624605	-174.444375
09252		-19.579802	-17.623582	-174.369394
09253		-19.608553	-17.625698	-174.303394
09254		-19.635344	-17.635753	-174.226690
09255		-19.667331	-17.657641	-174.164993
09256		-19.706038	-17.691362	-174.096486
09257		-19.747813	-17.739473	-174.044464
09258		-19.790281	-17.791411	-173.986543
09259		-19.847057	-17.838917	-173.938234
09260		-19.928450	-17.895359	-173.874123
09261		-20.014035	-17.961287	-173.824608
09262		-20.083610	-18.022473	-173.769365
09263		-20.143039	-18.072995	-173.732702
09264		-20.181197	-18.120260	-173.689779
09265		-20.189697	-18.161148	-173.669511
09266		-20.192153	-18.191054	-173.649532
09267		-20.208220	-18.217820	-173.648055
09268		-20.240483	-18.252795	-173.633137
09269		-20.273061	-18.289223	-173.628172
09270		-20.324656	-18.323702	-173.603775
09271		-20.396706	-18.357250	-173.578834
09272		-20.472437	-18.387970	-173.537848
09273		-20.546458	-18.406996	-173.510571
09274		-20.624299	-18.420428	-173.468879
09275		-20.696768	-18.431026	-173.437222
09276		-20.759879	-18.438696	-173.391106
09277		-20.807876	-18.441834	-173.358611
09278		-20.849619	-18.445048	-173.314628
09279		-20.882215	-18.452508	-173.289057
09280		-20.896270	-18.459889	-173.254766
09281		-20.900378	-18.468275	-173.238121
09282		-20.907595	-18.476730	-173.229177
09283		-20.910596	-18.480876	-173.231454
09284		-20.906374	-18.481671	-173.240752
09285		-20.907701	-18.484925	-173.258697
09286		-20.918609	-18.488411	-173.261232
09287		-20.937123	-18.491690	-173.278556
09288		-20.954768	-18.497240	-173.274045
09289		-20.968515	-18.502513	-173.277742
09290		-20.986685	-18.506345	-173.283778
09291		-21.003331	-18.505218	-173.294825
09292		-21.011312	-18.502949	-173.295426
09293		-21.004385	-18.502135	-173.303427
09294		-20.986372	-18.501587	-173.297464
09295		-20.959102	-18.497842	-173.305152
09296		-20.936232	-18.491337	-173.300383
09297		-20.924737	-18.473164	-173.304888
09298		-20.932705	-18.447380	-173.290227
09299		-20.947214	-18.418515	-173.284029
09300		-20.962516	-18.381569	-173.282517
09301		-20.979519	-18.343419	-173.280062
09302		-20.993388	-18.310968	-173.271973
09303		-21.003789	-18.282058	-173.262491
09304		-21.005254	-18.253151	-173.250697
09305		-20.995223	-18.220644	-173.237342
09306		-20.984400	-18.183995	-173.220718
09307		-20.976511	-18.147100	-173.204428
09308		-20.964690	-18.108998	-173.190364
09309		-20.952535	-18.079057	-173.176800
09310		-20.937954	-18.039504	-173.147588
09311		-20.911892	-18.001350	-173.123967
09312		-20.884301	-17.960202	-173.084709
09313		-20.845094	-17.917858	-173.057315
09314		-20.799903	-17.882354	-173.018191
09315		-20.741996	-17.851186	-172.998953
09316		-20.672261	-17.820422	-172.966352
09317		-20.593317	-17.796608	-172.947289
09318		-20.510508	-17.780414	-172.916103
09319		-20.415965	-17.756965	-172.900551
09320		-20.311268	-17.728783	-172.887535
09321		-20.211578	-17.701147	-172.874885
09322		-20.112663	-17.684093	-172.842348
09323		-20.014737	-17.669914	-172.817929
09324		-19.928152	-17.652958	-172.779299
09325		-19.858075	-17.632466	-172.748412
09326		-19.802749	-17.615403	-172.702601
09327		-19.762278	-17.601991	-172.670425
09328		-19.726256	-17.589242	-172.627215
09329		-19.691039	-17.576866	-172.601889
09330		-19.660277	-17.570306	-172.568490
09331		-19.631860	-17.560466	-172.552671
09332		-19.608876	-17.548289	-172.526506
09333		-19.604937	-17.538756	-172.522541
09334		-19.656601	-17.546939	-172.528057
09335		-19.775964	-17.575477	-172.562945
09336		-19.943165	-17.619182	-172.592834
09337		-20.127771	-17.662413	-172.624193
09338		-20.287381	-17.678244	-172.623946
09339		-20.372278	-17.653742	-172.622175
09340		-20.399401	-17.614755	-172.596952
09341		-20.399368	-17.569937	-172.585917
09342		-20.385711	-17.521469	-172.569244
09343		-20.364207	-17.475797	-172.564375
09344		-20.332811	-17.439202	-172.554420
09345		-20.284736	-17.402092	-172.539916
09346		-20.221183	-17.357857	-172.505738
09347		-20.155875	-17.314798	-172.480842
09348		-20.091769	-17.274656	-172.447532
09349		-20.033167	-17.235863	-172.433102
09350		-20.002812	-17.206798	-172.407566
09351		-19.991990	-17.180643	-172.396656
09352		-19.992413	-17.159636	-172.372983
09353		-19.991077	-17.139796	-172.360526
09354		-19.986847	-17.122891	-172.336323
09355		-19.976986	-17.106801	-172.327784
09356		-19.972676	-17.088977	-172.311071
09357		-19.972892	-17.071354	-172.306961
09358		-19.975883	-17.057432	-172.288985
09359		-19.975571	-17.048361	-172.284584
09360		-19.959746	-17.042600	-172.267540
09361		-19.923201	-17.033233	-172.263081
09362		-19.866360	-17.026227	-172.245824
09363		-19.796084	-17.019479	-172.239281
09364		-19.722299	-17.013013	-172.221445
09365		-19.648418	-17.010766	-172.214007
09366		-19.581013	-17.003885	-172.200336
09367		-19.526267	-16.999126	-172.194888
09368		-19.483236	-16.992837	-172.181328
09369		-19.449737	-16.986417	-172.180028
09370		-19.427068	-16.979695	-172.167632
09371		-19.409087	-16.974669	-172.163896
09372		-19.397154	-16.966678	-172.147478
09373		-19.398227	-16.956823	-172.141217
09374		-19.402954	-16.942727	-172.121346
09375		-19.409326	-16.930418	-172.119990
09376		-19.412719	-16.925672	-172.107407
09377		-19.419756	-16.919498	-172.107342
09378		-19.444359	-16.909003	-172.090458
09379		-19.485479	-16.899981	-172.083806
09380		-19.540303	-16.887960	-172.064539
09381		-19.607246	-16.881992	-172.055410
09382		-19.682282	-16.880073	-172.033063
09383		-19.766328	-16.874055	-172.023624
09384		-19.869427	-16.877516	-171.994867
09385		-19.985679	-16.885575	-171.973219
09386		-20.113715	-16.893645	-171.939866
09387		-20.249150	-16.902920	-171.921455
09388		-20.386635	-16.912265	-171.896182
09389		-20.525225	-16.929050	-171.889956
09390		-20.663765	-16.951380	-171.874372
09391		-20.787203	-16.973038	-171.876121
09392		-20.907278	-16.995746	-171.869033
09393		-21.021306	-17.021234	-171.873786
09394		-21.135374	-17.049601	-171.871265
09395		-21.252545	-17.081047	-171.887134
09396		-21.374498	-17.116988	-171.900704
09397		-21.497956	-17.162509	-171.931528
09398		-21.610306	-17.216482	-171.960727
09399		-21.711736	-17.274955	-172.012533
09400		-21.811949	-17.337791	-172.058947
09401		-21.908710	-17.407948	-172.114864
09402		-22.003746	-17.485906	-172.161468
09403		-22.105833	-17.566033	-172.221643
09404		-22.212744	-17.659487	-172.268176
09405		-22.316332	-17.757238	-172.323885
09406		-22.426119	-17.859606	-172.364306
09407		-22.541634	-17.967484	-172.414467
09408		-22.647368	-18.075375	-172.450842
09409		-22.755587	-18.172046	-172.501307
09410		-22.874764	-18.262572	-172.543502
09411		-22.996347	-18.353231	-172.600237
09412		-23.126465	-18.450285	-172.653228
09413		-23.263283	-18.554574	-172.722358
09414		-23.400503	-18.676502	-172.783243
09415		-23.532507	-18.806479	-172.856531
09416		-23.663493	-18.938228	-172.911835
09417		-23.796820	-19.069254	-172.976585
09418		-23.918990	-19.201971	-173.032027
09419		-24.038979	-19.332994	-173.111843
09420		-24.171461	-19.473865	-173.193505
09421		-24.315699	-19.634920	-173.299740
09422		-24.466186	-19.819882	-173.410810
09423		-24.605396	-20.025587	-173.536539
09424		-24.708725	-20.241868	-173.649338
09425		-24.815460	-20.449027	-173.766830
09426		-24.919727	-20.631440	-173.871077
09427		-25.001495	-20.780269	-173.981199
09428		-25.077380	-20.910980	-174.087404
09429		-25.157796	-21.038542	-174.219838
09430		-25.264666	-21.178016	-174.355534
09431		-25.385470	-21.338964	-174.513395
09432		-25.513310	-21.554265	-174.654069
09433		-25.590692	-21.842804	-174.794079
09434		-25.599774	-22.132078	-174.926171
09435		-25.571643	-22.368844	-175.068022
09436		-25.527616	-22.550324	-175.170694
09437		-25.488750	-22.695606	-175.264722
09438		-25.465969	-22.807129	-175.355641
09439		-25.473945	-22.900237	-175.482743
09440		-25.530699	-22.991983	-175.611244
09441		-25.627672	-23.100839	-175.755478
09442		-25.762293	-23.240504	-175.886034
09443		-25.905211	-23.408351	-176.021157
09444		-26.016994	-23.604397	-176.141144
09445		-26.088653	-23.813863	-176.272605
09446		-26.133780	-24.026300	-176.400090
09447		-26.166833	-24.228878	-176.547517
09448		-26.184290	-24.413095	-176.695598
09449		-26.197373	-24.584383	-176.871811
09450		-26.226795	-24.746034	-177.053352
09451		-26.277435	-24.904839	-177.260885
09452		-26.356441	-25.066376	-177.461773
09453		-26.447742	-25.232455	-177.670969
09454		-26.543235	-25.427062	-177.853719
09455		-26.650479	-25.648793	-178.029723
09456		-26.763340	-25.887677	-178.191702
09457		-26.868809	-26.136423	-178.361796
09458		-26.960964	-26.388195	-178.530365
09459		-27.044000	-26.640589	-178.722899
09460		-27.124169	-26.903354	-178.918461
09461		-27.192508	-27.184194	-179.132727
09462		-27.238911	-27.469508	-179.327806
09463		-27.268218	-27.772668	-179.512109
09464		-27.298544	-28.094613	-179.651732
09465		-27.329575	-28.424507	-179.774978
09466		-27.364290	-28.745132	-179.866785
09467		-27.390864	-29.036374	-179.955800
09468		-27.416105	-29.291946	179.971201
09469		-27.443291	-29.519391	179.896039
09470		-27.490215	-29.723439	179.831281
09471		-27.562555	-29.906360	179.770256
09472		-27.653670	-30.077097	179.732589
09473		-27.757455	-30.227237	179.699869
09474		-27.869990	-30.325018	179.691071
09475		-27.971749	-30.361548	179.689008
09476		-28.052513	-30.354442	179.714374
09477		-28.105830	-30.317839	179.733383
09478		-28.135608	-30.268827	179.750870
09479		-28.145500	-30.219093	179.767649
09480		-28.144081	-30.177016	179.780756
09481		-28.122312	-30.147363	179.785491
09482		-28.081304	-30.126466	179.779057
09483		-28.026649	-30.111322	179.762668
09484		-27.973365	-30.106641	179.741835
09485		-27.941107	-30.103516	179.715947
09486		-27.934764	-30.100368	179.690914
09487		-27.950855	-30.095885	179.664043
09488		-27.989636	-30.093324	179.641289
09489		-28.040686	-30.102471	179.614550
09490		-28.096699	-30.120164	179.579126
09491		-28.140382	-30.140752	179.533624
09492		-28.175551	-30.166061	179.481647
09493		-28.195810	-30.196468	179.430505
09494		-28.203923	-30.228021	179.384633
09495		-28.209479	-30.263138	179.343372
09496		-28.212297	-30.303791	179.301361
09497		-28.213041	-30.348795	179.247337
09498		-28.219767	-30.407135	179.179979
09499		-28.239773	-30.483129	179.096781
09500		-28.274175	-30.572512	179.012961
09501		-28.316151	-30.681025	178.915818
09502		-28.362015	-30.801587	178.839375
09503		-28.404491	-30.924596	178.762256
09504		-28.452144	-31.035187	178.720560
09505		-28.506121	-31.129642	178.701026
09506		-28.577964	-31.210717	178.712866
09507		-28.684201	-31.280856	178.738133
09508		-28.822994	-31.341409	178.765995
09509		-28.985254	-31.394378	178.766572
09510		-29.148922	-31.439330	178.758398
09511		-29.300233	-31.468280	178.734376
09512		-29.440370	-31.485907	178.714333
09513		-29.567519	-31.495382	178.701093
09514		-29.680116	-31.498622	178.705366
09515		-29.768387	-31.497291	178.700623
09516		-29.841353	-31.489945	178.707573
09517		-29.901782	-31.477361	178.701096
09518		-29.948617	-31.453180	178.697895
09519		-29.989693	-31.429686	178.702104
09520		-30.023315	-31.412528	178.712256
09521		-30.044396	-31.390658	178.720892
09522		-30.077420	-31.369805	178.730739
09523		-30.114309	-31.348508	178.728960
09524		-30.144753	-31.325362	178.714189
09525		-30.170785	-31.300390	178.695667
09526		-30.192010	-31.280602	178.674849
09527		-30.212366	-31.266860	178.661117
09528		-30.220060	-31.259027	178.651918
09529		-30.210505	-31.256090	178.642939
09530		-30.179167	-31.260742	178.634558
09531		-30.129022	-31.262470	178.624886
09532		-30.066921	-31.253128	178.610043
09533		-29.992210	-31.242864	178.591525
09534		-29.909504	-31.233845	178.569722
09535		-29.823582	-31.222772	178.545777
09536		-29.744040	-31.202375	178.510784
09537		-29.669587	-31.174766	178.470633
09538		-29.597394	-31.144485	178.429553
09539		-29.523873	-31.113482	178.388386
09540		-29.446409	-31.086862	178.348912
09541		-29.362223	-31.065434	178.310703
09542		-29.288189	-31.052253	178.270025
09543		-29.221615	-31.038342	178.235430
09544		-29.157593	-31.029769	178.199718
09545		-29.103732	-31.017623	178.163899
09546		-29.055688	-31.002375	178.131871
09547		-29.018040	-30.985570	178.106310
09548		-28.993438	-30.970243	178.085370
09549		-28.972708	-30.960060	178.064836
09550		-28.960706	-30.953921	178.052572
09551		-28.949316	-30.958609	178.041777
09552		-28.939721	-30.970781	178.038220
09553		-28.931267	-30.984654	178.035074
09554		-28.926370	-31.001590	178.036870
09555		-28.925155	-31.017252	178.040555
09556		-28.932691	-31.026928	178.045243
09557		-28.941841	-31.030810	178.047212
09558		-28.951369	-31.029148	178.044945
09559		-28.963824	-31.026838	178.043962
09560		-28.973485	-31.024155	178.037956
09561		-28.981322	-31.024020	178.031972
09562		-28.988977	-31.022618	178.025652
09563		-28.996364	-31.018285	178.017588
09564		-29.013490	-31.014211	178.014859
09565		-29.041224	-31.009151	178.016156
09566		-29.074208	-31.008093	178.019105
09567		-29.111620	-31.007385	178.016667
09568		-29.148293	-31.009358	178.004815
09569		-29.193189	-31.015501	177.990979
09570		-29.252923	-31.025673	177.979780
09571		-29.331573	-31.039247	177.974957
09572		-29.427640	-31.054809	177.981368
09573		-29.535691	-31.074879	178.001072
09574		-29.652917	-31.090314	178.029839
09575		-29.769583	-31.101674	178.057359
09576		-29.883845	-31.110801	178.088677
09577		-29.988808	-31.126388	178.121854
09578		-30.087670	-31.151332	178.161901
09579		-30.174692	-31.178289	178.200109
09580		-30.249212	-31.202664	178.236871
09581		-30.314442	-31.221898	178.270181
09582		-30.372931	-31.234300	178.297620
09583		-30.430726	-31.242282	178.318533
09584		-30.481394	-31.246192	178.331855
09585		-30.525724	-31.249018	178.339285
09586		-30.560173	-31.250226	178.340111
09587		-30.590064	-31.247996	178.335883
09588		-30.618087	-31.240493	178.327575
09589		-30.652112	-31.232022	178.318405
09590		-30.680738	-31.216457	178.308312
09591		-30.690741	-31.193220	178.292094
09592		-30.670997	-31.159779	178.274278
09593		-30.622021	-31.114137	178.242973
09594		-30.551762	-31.058534	178.201801
09595		-30.460757	-30.987485	178.150670
09596		-30.365399	-30.900055	178.096670
09597		-30.277473	-30.807612	178.045774
09598		-30.198452	-30.707256	178.011318
09599		-30.135066	-30.600823	177.980888
09600		-30.088895	-30.498366	177.971480
09601		-30.048842	-30.391666	177.955365
09602		-30.009814	-30.280130	177.944599
09603		-29.972233	-30.164784	177.941949
09604		-29.938636	-30.049557	177.949322
09605		-29.868072	-29.908177	177.951175
09606		-29.787922	-29.743072	177.978116
09607		-29.714760	-29.568423	178.017006
09608		-29.647797	-29.380049	178.082311
09609		-29.599021	-29.178905	178.149572
09610		-29.575143	-28.965835	178.231494
09611		-29.572288	-28.740336	178.303703
09612		-29.600434	-28.506336	178.392285
09613		-29.650188	-28.267018	178.482175
09614		-29.700691	-28.021335	178.588523
09615		-29.724867	-27.758263	178.683074
09616		-29.712938	-27.473213	178.786618
09617		-29.659193	-27.163941	178.882384
09618		-29.580316	-26.840289	179.002722
09619		-29.482652	-26.515259	179.133500
09620		-29.367278	-26.189977	179.294153
09621		-29.227815	-25.860088	179.450641
09622		-29.068159	-25.528323	179.631010
09623		-28.891315	-25.201023	179.804370
09624		-28.707708	-24.869331	179.991714
09625		-28.523679	-24.525474	-179.831250
09626		-28.341721	-24.176104	-179.639396
09627		-28.160931	-23.833243	-179.450482
09628		-27.978926	-23.516465	-179.246751
09629		-27.783890	-23.229900	-179.058508
09630		-27.567096	-22.971622	-178.870695
09631		-27.328005	-22.719876	-178.711955
09632		-27.070407	-22.473922	-178.548676
09633		-26.809276	-22.236642	-178.391454
09634		-26.555370	-22.016514	-178.217679
09635		-26.310758	-21.814598	-178.057661
09636		-26.080616	-21.626386	-177.896360
09637		-25.868386	-21.463643	-177.750502
09638		-25.673866	-21.323464	-177.599960
09639		-25.503008	-21.202056	-177.468838
09640		-25.354724	-21.085337	-177.328276
09641		-25.227078	-20.980460	-177.199966
09642		-25.113685	-20.886928	-177.064172
09643		-25.010408	-20.811120	-176.944084
09644		-24.915247	-20.752562	-176.822415
09645		-24.823736	-20.706608	-176.724930
09646		-24.737823	-20.665526	-176.629820
09647		-24.657893	-20.614314	-176.542646
09648		-24.597536	-20.555284	-176.439291
09649		-24.553207	-20.499542	-176.333518
09650		-24.519155	-20.451078	-176.212305
09651		-24.483052	-20.405843	-176.106274
09652		-24.441993	-20.357933	-175.997967
09653		-24.395051	-20.299375	-175.906242
09654		-24.347283	-20.234131	-175.805353
09655		-24.289754	-20.163136	-175.712188
09656		-24.223531	-20.088699	-175.601744
09657		-24.148241	-20.015087	-175.497116
09658		-24.074539	-19.939414	-175.380653
09659		-23.994604	-19.859778	-175.273536
09660		-23.913090	-19.782945	-175.151852
09661		-23.823402	-19.706934	-175.040277
09662		-23.730067	-19.631842	-174.916836
09663		-23.627648	-19.561666	-174.805919
09664		-23.521636	-19.492985	-174.684953
09665		-23.399466	-19.422970	-174.570834
09666		-23.280529	-19.342250	-174.444090
09667		-23.159481	-19.257005	-174.321812
09668		-23.027219	-19.170495	-174.193236
09669		-22.911966	-19.102511	-174.081467
09670		-22.811403	-19.054122	-173.973446
09671		-22.717333	-19.007380	-173.885169
09672		-22.623083	-18.950969	-173.790368
09673		-22.540120	-18.879118	-173.703276
09674		-22.467929	-18.798164	-173.608968
09675		-22.398628	-18.729935	-173.527290
09676		-22.330513	-18.684863	-173.436294
09677		-22.260035	-18.654440	-173.355161
09678		-22.189377	-18.618777	-173.264345
09679		-22.107435	-18.582880	-173.185658
09680		-22.022545	-18.544421	-173.097036
09681		-21.934478	-18.499978	-173.017822
09682		-21.857487	-18.451960	-172.930337
09683		-21.797088	-18.399996	-172.854663
09684		-21.752085	-18.344902	-172.771432
09685		-21.723194	-18.298779	-172.694525
09686		-21.703296	-18.251564	-172.602499
09687		-21.702174	-18.200488	-172.517918
09688		-21.714364	-18.142568	-172.421387
09689		-21.743623	-18.083750	-172.330340
09690		-21.798145	-18.034152	-172.227991
09691		-21.865673	-17.996649	-172.138361
09692		-21.931970	-17.964121	-172.042319
09693		-21.993880	-17.938570	-171.959937
09694		-22.050473	-17.907999	-171.870685
09695		-22.079042	-17.875187	-171.786849
09696		-22.094721	-17.841462	-171.693225
09697		-22.097094	-17.810009	-171.612382
09698		-22.094147	-17.784987	-171.523774
09699		-22.089860	-17.773307	-171.451391
09700		-22.084934	-17.769178	-171.380642
09701		-22.081882	-17.777827	-171.325029
09702		-22.078452	-17.798486	-171.265491
09703		-22.065667	-17.827058	-171.227537
09704		-22.039305	-17.862671	-171.193810
09705		-21.997754	-17.899168	-171.179022
09706		-21.954716	-17.936122	-171.161719
09707		-21.912229	-17.967820	-171.157235
09708		-21.887686	-17.997829	-171.143311
09709		-21.884410	-18.026501	-171.146283
09710		-21.887822	-18.054245	-171.139428
09711		-21.896124	-18.083275	-171.144538
09712		-21.905486	-18.113480	-171.140703
09713		-21.918579	-18.149554	-171.141417
09714		-21.928650	-18.190822	-171.127926
09715		-21.932881	-18.222619	-171.120489
09716		-21.939330	-18.243532	-171.097482
09717		-21.937087	-18.261689	-171.085628
09718		-21.927366	-18.274048	-171.065458
09719		-21.908366	-18.285406	-171.054171
09720		-21.889832	-18.298084	-171.032008
09721		-21.876695	-18.315783	-171.018917
09722		-21.867645	-18.340406	-170.995684
09723		-21.856086	-18.368002	-170.983728
09724		-21.854579	-18.384114	-170.966810
09725		-21.864613	-18.391869	-170.962472
09726		-21.879057	-18.395884	-170.957406
09727		-21.896544	-18.401423	-170.967372
09728		-21.908580	-18.407639	-170.973112
09729		-21.919211	-18.414402	-170.991612
09730		-21.921207	-18.414412	-170.999785
09731		-21.915167	-18.411557	-171.020418
09732		-21.908845	-18.398971	-171.040796
09733		-21.914614	-18.384050	-171.064862
09734		-21.927907	-18.372045	-171.073234
09735		-21.939593	-18.365729	-171.097870
09736		-21.936884	-18.360324	-171.109295
09737		-21.934889	-18.349476	-171.131974
09738		-21.929801	-18.338795	-171.140886
09739		-21.905751	-18.317933	-171.151571
09740		-21.873335	-18.296914	-171.141336
09741		-21.844865	-18.281163	-171.138743
09742		-21.810209	-18.264997	-171.126248
09743		-21.762009	-18.243477	-171.126474
09744		-21.697543	-18.218633	-171.111558
09745		-21.624288	-18.192064	-171.095718
09746		-21.549059	-18.168846	-171.062324
09747		-21.471227	-18.142957	-171.035971
09748		-21.386473	-18.116764	-170.998181
09749		-21.291519	-18.095907	-170.967494
09750		-21.194206	-18.076852	-170.932513
09751		-21.096486	-18.065502	-170.910087
09752		-20.992709	-18.057659	-170.878556
09753		-20.883119	-18.047656	-170.855057
09754		-20.781308	-18.027645	-170.823997
09755		-20.696608	-18.003455	-170.803090
09756		-20.634697	-17.980936	-170.766045
09757		-20.584591	-17.957370	-170.732967
09758		-20.537008	-17.930876	-170.689157
09759		-20.495835	-17.898545	-170.654377
09760		-20.453960	-17.866054	-170.614546
09761		-20.413160	-17.830843	-170.586546
09762		-20.376646	-17.798608	-170.552847
09763		-20.341013	-17.769896	-170.531928
09764		-20.303731	-17.743994	-170.505668
09765		-20.266420	-17.728548	-170.485431
09766		-20.233424	-17.720031	-170.453553
09767		-20.196739	-17.705069	-170.428072
09768		-20.160053	-17.684179	-170.394100
09769		-20.131809	-17.654861	-170.369078
09770		-20.095173	-17.624388	-170.335172
09771		-20.042981	-17.596714	-170.305183
09772		-19.976850	-17.571028	-170.260899
09773		-19.899014	-17.539648	-170.221970
09774		-19.811040	-17.509084	-170.165148
09775		-19.714991	-17.481269	-170.122255
09776		-19.622276	-17.453200	-170.075533
09777		-19.533891	-17.424115	-170.042111
09778		-19.455329	-17.395382	-170.001457
09779		-19.388713	-17.370117	-169.971275
09780		-19.338817	-17.345764	-169.936425
09781		-19.300840	-17.329961	-169.914784
09782		-19.276220	-17.316212	-169.885179
09783		-19.260139	-17.308124	-169.872421
09784		-19.253019	-17.297785	-169.846513
09785		-19.243349	-17.289841	-169.827150
09786		-19.244251	-17.288384	-169.800721
09787		-19.251327	-17.289006	-169.786421
09788		-19.262176	-17.288152	-169.766523
09789		-19.274586	-17.283877	-169.760070
09790		-19.291576	-17.283697	-169.741574
09791		-19.312492	-17.282572	-169.733172
09792		-19.335121	-17.288261	-169.713802
09793		-19.360062	-17.294955	-169.706093
09794		-19.380845	-17.299217	-169.690472
09795		-19.398813	-17.301958	-169.680691
09796		-19.416775	-17.305001	-169.659874
09797		-19.437627	-17.303309	-169.647924
09798		-19.449904	-17.299958	-169.624161
09799		-19.454120	-17.295328	-169.611600
09800		-19.457509	-17.288295	-169.592237
09801		-19.457004	-17.282736	-169.580057
09802		-19.461378	-17.272705	-169.559934
09803		-19.469540	-17.258333	-169.550427
09804		-19.483771	-17.238215	-169.530263
09805		-19.501392	-17.218282	-169.524174
09806		-19.529003	-17.190742	-169.509604
09807		-19.563539	-17.162285	-169.510177
09808		-19.602339	-17.130043	-169.504102
09809		-19.648215	-17.096813	-169.510421
09810		-19.705307	-17.066041	-169.504830
09811		-19.770552	-17.049455	-169.501272
09812		-19.841585	-17.036178	-169.485612
09813		-19.911170	-17.013147	-169.478511
09814		-19.978067	-16.986382	-169.455902
09815		-20.027924	-16.963760	-169.445424
09816		-20.069539	-16.941721	-169.424062
09817		-20.099866	-16.925177	-169.414570
09818		-20.125984	-16.910860	-169.397019
09819		-20.151330	-16.901370	-169.391639
09820		-20.175231	-16.898181	-169.381260
09821		-20.195130	-16.896964	-169.384016
09822		-20.228493	-16.895012	-169.378645
09823		-20.284315	-16.892810	-169.385801
09824		-20.355080	-16.889078	-169.392481
09825		-20.434679	-16.886780	-169.415521
09826		-20.522624	-16.886366	-169.437324
09827		-20.613783	-16.889469	-169.475377
09828		-20.704324	-16.894854	-169.511293
09829		-20.790199	-16.900008	-169.564470
09830		-20.877550	-16.905428	-169.617188
09831		-20.971797	-16.915443	-169.677010
09832		-21.081606	-16.943831	-169.727337
09833		-21.204624	-16.985321	-169.791554
09834		-21.331167	-17.042807	-169.854550
09835		-21.465560	-17.111353	-169.932294
09836		-21.621181	-17.205840	-170.003779
09837		-21.795552	-17.318061	-170.086186
09838		-21.987279	-17.447181	-170.150358
09839		-22.180146	-17.580958	-170.208998
09840		-22.360894	-17.705882	-170.241886
09841		-22.517672	-17.818872	-170.275615
09842		-22.643301	-17.924102	-170.294837
09843		-22.738079	-18.027715	-170.323070
09844		-22.809458	-18.136043	-170.347561
09845		-22.857605	-18.244748	-170.381246
09846		-22.894341	-18.353187	-170.406455
09847		-22.915946	-18.465191	-170.440803
09848		-22.927037	-18.574052	-170.467795
09849		-22.938902	-18.675780	-170.504619
09850		-22.959433	-18.774384	-170.531291
09851		-22.995391	-18.868549	-170.565342
09852		-23.056846	-18.965744	-170.590294
09853		-23.132488	-19.060479	-170.627272
09854		-23.208571	-19.156320	-170.658172
09855		-23.281474	-19.247562	-170.701051
09856		-23.357570	-19.336704	-170.735508
09857		-23.420622	-19.426793	-170.784977
09858		-23.470172	-19.519859	-170.829478
09859		-23.509679	-19.609407	-170.886645
09860		-23.542603	-19.696279	-170.933125
09861		-23.570378	-19.782629	-170.984420
09862		-23.608313	-19.872933	-171.028100
09863		-23.660760	-19.961869	-171.084272
09864		-23.731999	-20.047865	-171.140644
09865		-23.819980	-20.138251	-171.212591
09866		-23.927882	-20.237355	-171.292212
09867		-24.040465	-20.342871	-171.392187
09868		-24.153401	-20.452427	-171.493854
09869		-24.255617	-20.560849	-171.607166
09870		-24.342708	-20.674101	-171.720296
09871		-24.414404	-20.796978	-171.838729
09872		-24.472276	-20.935545	-171.953613
09873		-24.511921	-21.082467	-172.084367
09874		-24.536697	-21.227847	-172.207960
09875		-24.550069	-21.356416	-172.342745
09876		-24.557927	-21.466949	-172.459966
09877		-24.549942	-21.565712	-172.577104
09878		-24.535843	-21.668189	-172.673545
09879		-24.525138	-21.777058	-172.771529
09880		-24.517679	-21.891533	-172.855993
09881		-24.523141	-22.013746	-172.946379
09882		-24.538482	-22.143896	-173.033675
09883		-24.547653	-22.270299	-173.137766
09884		-24.536118	-22.390922	-173.241949
09885		-24.503982	-22.507753	-173.352706
09886		-24.467020	-22.617002	-173.445391
09887		-24.444681	-22.724939	-173.528271
09888		-24.457693	-22.832156	-173.586087
09889		-24.502368	-22.930109	-173.651203
09890		-24.575273	-23.018444	-173.715520
09891		-24.679469	-23.099800	-173.802856
09892		-24.810085	-23.178466	-173.892200
09893		-24.960687	-23.262950	-173.994761
09894		-25.115922	-23.353533	-174.085604
09895		-25.265477	-23.449281	-174.179557
09896		-25.400184	-23.547309	-174.255957
09897		-25.510676	-23.646043	-174.331723
09898		-25.592901	-23.744018	-174.395672
09899		-25.644722	-23.843522	-174.474443
09900		-25.686861	-23.946111	-174.553180
09901		-25.730399	-24.056585	-174.650314
09902		-25.785971	-24.174659	-174.742143
09903		-25.861344	-24.297503	-174.843919
09904		-25.963727	-24.426969	-174.933666
09905		-26.089317	-24.562420	-175.022168
09906		-26.224976	-24.706921	-175.093466
09907		-26.356414	-24.849738	-175.166990
09908		-26.474019	-24.980848	-175.229974
09909		-26.584831	-25.104065	-175.300266
09910		-26.689695	-25.225950	-175.365554
09911		-26.788237	-25.339349	-175.449431
09912		-26.887652	-25.451024	-175.528767
09913		-26.993944	-25.559494	-175.618426
09914		-27.113537	-25.668348	-175.700138
09915		-27.247329	-25.782829	-175.792349
09916		-27.394280	-25.909708	-175.879511
09917		-27.558156	-26.047869	-175.981630
09918		-27.746281	-26.205638	-176.089250
09919		-27.950920	-26.379655	-176.216217
09920		-28.153469	-26.575249	-176.342403
09921		-28.332096	-26.783896	-176.485098
09922		-28.485420	-26.999778	-176.616028
09923		-28.610393	-27.217192	-176.745257
09924		-28.712685	-27.434306	-176.848452
09925		-28.794003	-27.651830	-176.941455
09926		-28.866520	-27.878087	-177.008802
09927		-28.938460	-28.119774	-177.071397
09928		-29.022355	-28.373356	-177.119708
09929		-29.122716	-28.626590	-177.176452
09930		-29.255240	-28.867338	-177.225122
09931		-29.420257	-29.084720	-177.281108
09932		-29.615662	-29.276486	-177.324622
09933		-29.814980	-29.441118	-177.376239
09934		-30.003044	-29.589401	-177.408956
09935		-30.179222	-29.722346	-177.439442
09936		-30.328274	-29.839928	-177.449850
09937		-30.450749	-29.933950	-177.459888
09938		-30.546122	-30.005078	-177.452209
09939		-30.605984	-30.056657	-177.451469
09940		-30.638298	-30.092454	-177.448505
09941		-30.647318	-30.115211	-177.442696
09942		-30.644899	-30.135586	-177.429438
09943		-30.634191	-30.148616	-177.427113
09944		-30.619728	-30.163125	-177.422308
09945		-30.603889	-30.182734	-177.416553
09946		-30.594760	-30.199768	-177.414966
09947		-30.587902	-30.212341	-177.420049
09948		-30.583136	-30.221884	-177.431511
09949		-30.579550	-30.224973	-177.451002
09950		-30.582608	-30.234076	-177.472001
09951		-30.592519	-30.246141	-177.492732
09952		-30.610559	-30.265599	-177.508715
09953		-30.629293	-30.290434	-177.522174
09954		-30.652486	-30.322105	-177.534951
09955		-30.677796	-30.367037	-177.547195
09956		-30.707321	-30.420492	-177.564221
09957		-30.730464	-30.477066	-177.587241
09958		-30.750050	-30.542645	-177.613248
09959		-30.770029	-30.613568	-177.632406
09960		-30.794479	-30.685884	-177.638828
09961		-30.828978	-30.747200	-177.635801
09962		-30.870841	-30.796130	-177.625396
09963		-30.931471	-30.846899	-177.609328
09964		-31.008596	-30.899671	-177.592668
09965		-31.089880	-30.953042	-177.579542
09966		-31.165878	-31.005435	-177.573981
09967		-31.232753	-31.051065	-177.569454
09968		-31.289463	-31.080751	-177.566333
09969		-31.327093	-31.095338	-177.562413
09970		-31.353321	-31.103777	-177.554994
09971		-31.363844	-31.107952	-177.545474
09972		-31.370305	-31.109282	-177.532172
09973		-31.373494	-31.110068	-177.515167
09974		-31.376767	-31.116677	-177.505919
09975		-31.389728	-31.131909	-177.508748
09976		-31.402489	-31.146612	-177.525641
09977		-31.414204	-31.156782	-177.544652
09978		-31.424071	-31.166514	-177.562821
09979		-31.429418	-31.179083	-177.575233
09980		-31.434477	-31.200612	-177.579683
09981		-31.437872	-31.223015	-177.581879
09982		-31.442575	-31.248326	-177.584237
09983		-31.444325	-31.270951	-177.587063
09984		-31.450234	-31.294522	-177.593561
09985		-31.465885	-31.317483	-177.601196
09986		-31.489407	-31.341415	-177.610277
09987		-31.517832	-31.363248	-177.622196
09988		-31.552197	-31.387905	-177.633917
09989		-31.587527	-31.410433	-177.646341
09990		-31.622695	-31.437146	-177.660115
09991		-31.656731	-31.462003	-177.674287
09992		-31.690779	-31.493140	-177.686554
09993		-31.731717	-31.526144	-177.694530
09994		-31.773556	-31.559435	-177.703451
09995		-31.817724	-31.593547	-177.704434
09996		-31.872539	-31.629280	-177.700840
09997		-31.935091	-31.669426	-177.693070
09998		-32.000382	-31.711189	-177.684241
09999		-32.071737	-31.750662	-177.676665
10000		-32.142445	-31.788468	-177.670465
10001		-32.213559	-31.821478	-177.661374
10002		-32.285044	-31.853130	-177.645800
10003		-32.353959	-31.880870	-177.623242
10004		-32.417062	-31.900532	-177.592200
10005		-32.459136	-31.913984	-177.557384
10006		-32.499091	-31.926371	-177.514841
10007		-32.533108	-31.936968	-177.468691
10008		-32.565482	-31.950273	-177.422385
10009		-32.591300	-31.965661	-177.373793
10010		-32.607375	-31.982248	-177.329945
10011		-32.616554	-32.003692	-177.285509
10012		-32.628493	-32.024655	-177.247665
10013		-32.654554	-32.047703	-177.216684
10014		-32.669120	-32.080869	-177.196130
10015		-32.658292	-32.110433	-177.193383
10016		-32.636287	-32.123283	-177.202004
10017		-32.605542	-32.127273	-177.208203
10018		-32.595326	-32.132935	-177.200236
10019		-32.610006	-32.145391	-177.182030
10020		-32.630284	-32.163363	-177.165271
10021		-32.640721	-32.181862	-177.155170
10022		-32.639120	-32.197667	-177.152666
10023		-32.625140	-32.206295	-177.156446
10024		-32.600275	-32.207183	-177.163451
10025		-32.570244	-32.201982	-177.171850
10026		-32.540251	-32.197648	-177.177390
10027		-32.507799	-32.192149	-177.178622
10028		-32.478038	-32.190925	-177.177069
10029		-32.454934	-32.192122	-177.172706
10030		-32.433874	-32.200406	-177.170702
10031		-32.406569	-32.205481	-177.174310
10032		-32.373588	-32.210195	-177.187140
10033		-32.336196	-32.213535	-177.201688
10034		-32.296405	-32.212208	-177.217535
10035		-32.257388	-32.207205	-177.235469
10036		-32.219351	-32.199781	-177.256080
10037		-32.186138	-32.193449	-177.275891
10038		-32.151322	-32.193561	-177.294392
10039		-32.112228	-32.196031	-177.313434
10040		-32.074018	-32.198213	-177.335332
10041		-32.031343	-32.201693	-177.357204
10042		-31.984567	-32.203401	-177.379269
10043		-31.931446	-32.203998	-177.407135
10044		-31.875372	-32.201073	-177.439374
10045		-31.804022	-32.193926	-177.478334
10046		-31.725074	-32.183829	-177.520138
10047		-31.637613	-32.175522	-177.565688
10048		-31.536725	-32.164478	-177.615989
10049		-31.416712	-32.146916	-177.670700
10050		-31.280590	-32.122591	-177.731996
10051		-31.133496	-32.091690	-177.798429
10052		-30.973454	-32.053014	-177.857613
10053		-30.798633	-32.004933	-177.931432
10054		-30.621975	-31.955591	-177.996198
10055		-30.443332	-31.903222	-178.073174
10056		-30.251514	-31.847188	-178.143194
10057		-30.051646	-31.784040	-178.225980
10058		-29.849902	-31.713137	-178.297915
10059		-29.646203	-31.644542	-178.375272
10060		-29.442072	-31.582981	-178.440380
10061		-29.225423	-31.526023	-178.517918
10062		-28.990788	-31.470703	-178.582203
10063		-28.737740	-31.407130	-178.661835
10064		-28.459164	-31.322942	-178.729085
10065		-28.183318	-31.226186	-178.789703
10066		-27.909381	-31.118113	-178.830288
10067		-27.631174	-30.985344	-178.874300
10068		-27.346201	-30.827277	-178.896458
10069		-27.065178	-30.657521	-178.904845
10070		-26.799599	-30.480527	-178.889918
10071		-26.547173	-30.293181	-178.878111
10072		-26.290368	-30.087460	-178.859151
10073		-26.017606	-29.865561	-178.840824
10074		-25.750522	-29.641182	-178.802911
10075		-25.489536	-29.402140	-178.761799
10076		-25.219129	-29.140315	-178.699587
10077		-24.945220	-28.861741	-178.631058
10078		-24.666005	-28.557102	-178.543363
10079		-24.386599	-28.241029	-178.456196
10080		-24.115192	-27.921479	-178.353581
10081		-23.852731	-27.599727	-178.267118
10082		-23.594092	-27.277894	-178.168736
10083		-23.334549	-26.959248	-178.076227
10084		-23.073360	-26.647482	-177.962619
10085		-22.807912	-26.346972	-177.842736
10086		-22.536471	-26.056853	-177.698016
10087		-22.238137	-25.789002	-177.551434
10088		-21.924170	-25.542022	-177.390107
10089		-21.587612	-25.301063	-177.240472
10090		-21.232387	-25.060721	-177.085055
10091		-20.882436	-24.822087	-176.935729
10092		-20.558628	-24.600745	-176.769901
10093		-20.262147	-24.411739	-176.609451
10094		-20.019246	-24.252647	-176.442328
10095		-19.822382	-24.120537	-176.292581
10096		-19.663262	-24.012121	-176.139448
10097		-19.544737	-23.924920	-176.000402
10098		-19.484506	-23.869611	-175.859480
10099		-19.481472	-23.844942	-175.734084
10100		-19.538622	-23.842760	-175.609759
10101		-19.633549	-23.851412	-175.506302
10102		-19.748319	-23.860793	-175.408549
10103		-19.854405	-23.859322	-175.328176
10104		-19.941284	-23.840236	-175.237760
10105		-20.002649	-23.795295	-175.145648
10106		-20.046204	-23.735996	-175.033774
10107		-20.078203	-23.663883	-174.923000
10108		-20.109770	-23.594748	-174.799937
10109		-20.141698	-23.529813	-174.694265
10110		-20.166489	-23.464162	-174.587773
10111		-20.182426	-23.392727	-174.501528
10112		-20.197078	-23.314947	-174.405340
10113		-20.205280	-23.236861	-174.313605
10114		-20.210856	-23.160659	-174.215671
10115		-20.207736	-23.078689	-174.126820
10116		-20.188007	-22.991539	-174.030497
10117		-20.155648	-22.905392	-173.940040
10118		-20.110763	-22.826756	-173.843997
10119		-20.058883	-22.746640	-173.757059
10120		-19.999976	-22.664966	-173.667058
10121		-19.937243	-22.579782	-173.586284
10122		-19.887836	-22.493315	-173.502416
10123		-19.844524	-22.409798	-173.427684
10124		-19.805636	-22.325194	-173.345648
10125		-19.777645	-22.248056	-173.270006
10126		-19.757087	-22.177875	-173.194667
10127		-19.736064	-22.108418	-173.134626
10128		-19.720465	-22.039706	-173.071267
10129		-19.701548	-21.974794	-173.013696
10130		-19.678717	-21.917574	-172.948594
10131		-19.656393	-21.867776	-172.885047
10132		-19.638475	-21.821416	-172.811026
10133		-19.622206	-21.782462	-172.747492
10134		-19.604776	-21.740576	-172.681968
10135		-19.580954	-21.704601	-172.622300
10136		-19.555893	-21.677061	-172.556323
10137		-19.541091	-21.641833	-172.491526
10138		-19.538940	-21.593180	-172.421861
10139		-19.532187	-21.545919	-172.353894
10140		-19.516782	-21.500893	-172.279184
10141		-19.496860	-21.453656	-172.211177
10142		-19.471216	-21.402678	-172.137608
10143		-19.438803	-21.350301	-172.071545
10144		-19.395888	-21.282674	-171.997404
10145		-19.347130	-21.200573	-171.923635
10146		-19.300638	-21.107737	-171.839017
10147		-19.254950	-21.012293	-171.755695
10148		-19.203623	-20.911937	-171.666177
10149		-19.149793	-20.814431	-171.577829
10150		-19.108935	-20.715152	-171.482592
10151		-19.073687	-20.618699	-171.388220
10152		-19.051877	-20.533085	-171.288889
10153		-19.032783	-20.454803	-171.198160
10154		-19.014250	-20.382131	-171.109471
10155		-18.983761	-20.298409	-171.034615
10156		-18.947620	-20.209555	-170.959465
10157		-18.912526	-20.120441	-170.892174
10158		-18.887610	-20.025126	-170.824978
10159		-18.866041	-19.935026	-170.760605
10160		-18.863517	-19.850719	-170.688225
10161		-18.873378	-19.770257	-170.620802
10162		-18.887201	-19.692424	-170.550354
10163		-18.907460	-19.620244	-170.487232
10164		-18.936169	-19.544925	-170.423116
10165		-18.968701	-19.473787	-170.369217
10166		-18.993393	-19.399149	-170.312504
10167		-19.013233	-19.330115	-170.261850
10168		-19.028156	-19.266355	-170.203733
10169		-19.030530	-19.208087	-170.155119
10170		-19.042420	-19.160256	-170.102020
10171		-19.060129	-19.121051	-170.053557
10172		-19.088753	-19.088639	-170.002310
10173		-19.131713	-19.064543	-169.959305
10174		-19.172579	-19.042386	-169.914556
10175		-19.205968	-19.023365	-169.875870
10176		-19.234526	-19.009775	-169.830445
10177		-19.261755	-19.004221	-169.786286
10178		-19.292557	-19.006733	-169.736575
10179		-19.321149	-19.011987	-169.696890
10180		-19.345705	-19.021136	-169.658291
10181		-19.361986	-19.035352	-169.635866
10182		-19.361634	-19.053083	-169.615168
10183		-19.347672	-19.068483	-169.605504
10184		-19.333041	-19.090868	-169.594270
10185		-19.324412	-19.113665	-169.590438
10186		-19.318724	-19.136070	-169.586967
10187		-19.326480	-19.152873	-169.586853
10188		-19.342502	-19.169992	-169.578881
10189		-19.356284	-19.188566	-169.568638
10190		-19.370220	-19.208314	-169.546303
10191		-19.386531	-19.233148	-169.525137
10192		-19.409187	-19.258709	-169.492567
10193		-19.426360	-19.284908	-169.462123
10194		-19.438740	-19.301533	-169.425920
10195		-19.457069	-19.311214	-169.395700
10196		-19.477323	-19.316271	-169.364083
10197		-19.500824	-19.324345	-169.339487
10198		-19.526373	-19.329506	-169.312191
10199		-19.551602	-19.336367	-169.296421
10200		-19.580603	-19.343047	-169.274499
10201		-19.603119	-19.358624	-169.261579
10202		-19.621743	-19.373948	-169.244505
10203		-19.643738	-19.386032	-169.236099
10204		-19.671833	-19.398063	-169.222927
10205		-19.696789	-19.410133	-169.217199
10206		-19.729590	-19.420248	-169.204485
10207		-19.764496	-19.425237	-169.196536
10208		-19.799590	-19.429448	-169.182473
10209		-19.825818	-19.430586	-169.177237
10210		-19.853633	-19.428509	-169.164900
10211		-19.880244	-19.426074	-169.162842
10212		-19.906577	-19.420620	-169.157204
10213		-19.930780	-19.406908	-169.165060
10214		-19.955111	-19.391934	-169.165619
10215		-19.979410	-19.377272	-169.168446
10216		-19.994362	-19.352756	-169.160314
10217		-19.997764	-19.318485	-169.157284
10218		-20.003567	-19.285215	-169.150001
10219		-20.015272	-19.256161	-169.152990
10220		-20.025569	-19.225331	-169.153085
10221		-20.018706	-19.188157	-169.163656
10222		-19.996038	-19.143701	-169.167383
10223		-19.956770	-19.094922	-169.170693
10224		-19.895312	-19.039242	-169.167301
10225		-19.807989	-18.974068	-169.173433
10226		-19.702276	-18.900621	-169.176704
10227		-19.589021	-18.822847	-169.185588
10228		-19.477227	-18.750702	-169.190083
10229		-19.375742	-18.686133	-169.200418
10230		-19.288463	-18.625929	-169.203026
10231		-19.201947	-18.561361	-169.210149
10232		-19.116997	-18.496908	-169.210107
10233		-19.025788	-18.434633	-169.217361
10234		-18.918670	-18.369594	-169.215544
10235		-18.806728	-18.304623	-169.211903
10236		-18.701313	-18.239069	-169.187949
10237		-18.602224	-18.176507	-169.163053
10238		-18.527072	-18.120613	-169.126447
10239		-18.455268	-18.066609	-169.096908
10240		-18.383657	-18.018602	-169.060971
10241		-18.306406	-17.973922	-169.030738
10242		-18.225163	-17.938666	-168.995609
10243		-18.135575	-17.901396	-168.967090
10244		-18.052679	-17.862200	-168.936739
10245		-17.974078	-17.823548	-168.913888
10246		-17.913055	-17.786921	-168.889963
10247		-17.871392	-17.757345	-168.869888
10248		-17.846552	-17.735420	-168.842554
10249		-17.822499	-17.715950	-168.817680
10250		-17.802057	-17.700900	-168.786988
10251		-17.776961	-17.684429	-168.762050
10252		-17.754120	-17.668009	-168.731683
10253		-17.735893	-17.656474	-168.711921
10254		-17.718908	-17.646709	-168.689037
10255		-17.695573	-17.636115	-168.676499
10256		-17.666807	-17.627984	-168.656182
10257		-17.636355	-17.622590	-168.640695
10258		-17.602600	-17.616283	-168.621507
10259		-17.562947	-17.605923	-168.607956
10260		-17.516480	-17.592376	-168.589402
10261		-17.470334	-17.578991	-168.576278
10262		-17.432447	-17.567651	-168.556394
10263		-17.396023	-17.557355	-168.543318
10264		-17.366385	-17.547661	-168.523048
10265		-17.337981	-17.536794	-168.509069
10266		-17.305474	-17.524704	-168.489265
10267		-17.268872	-17.509271	-168.477266
10268		-17.225562	-17.489841	-168.464513
10269		-17.169992	-17.471863	-168.456892
10270		-17.102954	-17.453061	-168.444527
10271		-17.024064	-17.432049	-168.440726
10272		-16.931375	-17.410565	-168.432638
10273		-16.826229	-17.380645	-168.432700
10274		-16.708074	-17.353940	-168.430564
10275		-16.580607	-17.326443	-168.433421
10276		-16.448617	-17.300474	-168.430939
10277		-16.316377	-17.273578	-168.432938
10278		-16.191571	-17.247088	-168.428877
10279		-16.070763	-17.223119	-168.428261
10280		-15.952656	-17.197552	-168.427963
10281		-15.838017	-17.177229	-168.434174
10282		-15.732229	-17.164194	-168.439246
10283		-15.631945	-17.158514	-168.449109
10284		-15.545020	-17.158625	-168.454893
10285		-15.477543	-17.156877	-168.462935
10286		-15.429487	-17.159984	-168.468964
10287		-15.400876	-17.162520	-168.475251
10288		-15.388600	-17.158446	-168.478408
10289		-15.379629	-17.153973	-168.488215
10290		-15.374564	-17.151497	-168.495133
10291		-15.366860	-17.149656	-168.505352
10292		-15.362010	-17.148664	-168.507436
10293		-15.354824	-17.146769	-168.509612
10294		-15.350819	-17.149722	-168.503512
10295		-15.347148	-17.150670	-168.499003
10296		-15.349691	-17.152544	-168.486670
10297		-15.353462	-17.149739	-168.480294
10298		-15.360252	-17.152420	-168.472918
10299		-15.360275	-17.147960	-168.472961
10300		-15.364921	-17.141215	-168.465376
10301		-15.377765	-17.138632	-168.461783
10302		-15.394347	-17.142729	-168.454615
10303		-15.415479	-17.144251	-168.456632
10304		-15.448011	-17.146210	-168.455925
10305		-15.487950	-17.148012	-168.464392
10306		-15.523573	-17.147227	-168.471132
10307		-15.565789	-17.141300	-168.487390
10308		-15.624478	-17.140037	-168.504878
10309		-15.695614	-17.145716	-168.532126
10310		-15.781652	-17.153848	-168.554734
10311		-15.880382	-17.172134	-168.581498
10312		-15.979598	-17.197263	-168.602271
10313		-16.081525	-17.224185	-168.628591
10314		-16.188344	-17.257553	-168.653535
10315		-16.290250	-17.297689	-168.685389
10316		-16.384864	-17.339019	-168.711748
10317		-16.482421	-17.380888	-168.743337
10318		-16.574431	-17.424211	-168.769833
10319		-16.660277	-17.463474	-168.805370
10320		-16.746096	-17.510720	-168.837510
10321		-16.827935	-17.561214	-168.874608
10322		-16.900281	-17.620071	-168.905223
10323		-16.966698	-17.683094	-168.940352
10324		-17.032115	-17.750317	-168.971091
10325		-17.084839	-17.814608	-169.007578
10326		-17.131941	-17.879992	-169.038244
10327		-17.184159	-17.946301	-169.070497
10328		-17.246673	-18.011738	-169.100683
10329		-17.322482	-18.075058	-169.134892
10330		-17.412733	-18.140873	-169.165244
10331		-17.517278	-18.211470	-169.206035
10332		-17.621549	-18.283721	-169.246532
10333		-17.721902	-18.352751	-169.293733
10334		-17.821327	-18.426196	-169.335571
10335		-17.903708	-18.503743	-169.386493
10336		-17.978775	-18.583913	-169.438386
10337		-18.046208	-18.665724	-169.499697
10338		-18.110767	-18.752934	-169.562111
10339		-18.172472	-18.850564	-169.635109
10340		-18.236245	-18.961190	-169.710285
10341		-18.308386	-19.069948	-169.796223
10342		-18.390404	-19.174464	-169.872491
10343		-18.474611	-19.278295	-169.954594
10344		-18.556483	-19.387303	-170.030282
10345		-18.642791	-19.499529	-170.107219
10346		-18.740500	-19.619816	-170.181517
10347		-18.840687	-19.738826	-170.269814
10348		-18.944346	-19.854212	-170.362708
10349		-19.046981	-19.975473	-170.470847
10350		-19.139965	-20.111683	-170.586048
10351		-19.222205	-20.258909	-170.708030
10352		-19.287654	-20.421657	-170.824632
10353		-19.343062	-20.591697	-170.942009
10354		-19.396383	-20.767203	-171.054581
10355		-19.451554	-20.942877	-171.175821
10356		-19.501839	-21.111542	-171.301969
10357		-19.557541	-21.273598	-171.446765
10358		-19.618305	-21.428043	-171.602116
10359		-19.682039	-21.573558	-171.774638
10360		-19.739440	-21.722813	-171.953331
10361		-19.777721	-21.873070	-172.142215
10362		-19.778558	-22.017380	-172.331138
10363		-19.732518	-22.159057	-172.520965
10364		-19.651550	-22.299790	-172.693974
10365		-19.551334	-22.437753	-172.856292
10366		-19.454852	-22.578046	-173.004472
10367		-19.366189	-22.718075	-173.152761
10368		-19.283980	-22.845433	-173.306073
10369		-19.220643	-22.957134	-173.471449
10370		-19.185848	-23.065869	-173.633132
10371		-19.180174	-23.177835	-173.800016
10372		-19.197935	-23.292554	-173.963290
10373		-19.228069	-23.411526	-174.138362
10374		-19.263434	-23.537169	-174.308247
10375		-19.300041	-23.663997	-174.482708
10376		-19.345078	-23.803001	-174.641672
10377		-19.409138	-23.956486	-174.799762
10378		-19.499178	-24.127978	-174.948376
10379		-19.618865	-24.315298	-175.099532
10380		-19.766431	-24.518409	-175.245892
10381		-19.930743	-24.732416	-175.404982
10382		-20.117592	-24.957005	-175.561613
10383		-20.316908	-25.189315	-175.729701
10384		-20.537095	-25.425290	-175.875442
10385		-20.762038	-25.656470	-176.013560
10386		-20.975131	-25.883609	-176.139057
10387		-21.171964	-26.111759	-176.260487
10388		-21.369286	-26.344230	-176.363372
10389		-21.580261	-26.588196	-176.460778
10390		-21.820440	-26.849843	-176.543213
10391		-22.088490	-27.127296	-176.635328
10392		-22.369611	-27.410809	-176.730464
10393		-22.664921	-27.694623	-176.835758
10394		-22.968963	-27.980015	-176.928118
10395		-23.283378	-28.264817	-177.011636
10396		-23.604149	-28.552346	-177.076205
10397		-23.917154	-28.842620	-177.141525
10398		-24.211175	-29.134187	-177.201551
10399		-24.495572	-29.421108	-177.263861
10400		-24.784686	-29.705516	-177.314024
10401		-25.084319	-29.981567	-177.364932
10402		-25.407181	-30.250807	-177.404219
10403		-25.749850	-30.515077	-177.450379
10404		-26.117766	-30.775357	-177.486328
10405		-26.508861	-31.019546	-177.517988
10406		-26.917541	-31.261902	-177.521313
10407		-27.335610	-31.504520	-177.521078
10408		-27.740638	-31.745289	-177.517035
10409		-28.109141	-31.971219	-177.538452
10410		-28.440980	-32.180810	-177.566941
10411		-28.747449	-32.378302	-177.597365
10412		-29.047176	-32.571447	-177.597148
10413		-29.337268	-32.760969	-177.580693
10414		-29.611612	-32.946561	-177.547290
10415		-29.852067	-33.116120	-177.538646
10416		-30.057331	-33.262842	-177.545887
10417		-30.228483	-33.389493	-177.581478
10418		-30.379772	-33.507771	-177.622347
10419		-30.518942	-33.620733	-177.656732
10420		-30.647045	-33.733126	-177.674875
10421		-30.761612	-33.840424	-177.696083
10422		-30.861462	-33.942226	-177.702575
10423		-30.944208	-34.040978	-177.712312
10424		-31.013586	-34.150161	-177.712377
10425		-31.078046	-34.261972	-177.714622
10426		-31.144259	-34.366444	-177.711746
10427		-31.207403	-34.455207	-177.723465
10428		-31.266708	-34.525768	-177.736004
10429		-31.318652	-34.581962	-177.745095
10430		-31.361780	-34.627106	-177.749832
10431		-31.391841	-34.663852	-177.753448
10432		-31.415596	-34.701024	-177.749019
10433		-31.435035	-34.741088	-177.738729
10434		-31.453229	-34.783396	-177.726816
10435		-31.473639	-34.828194	-177.713521
10436		-31.494352	-34.878213	-177.698880
10437		-31.508817	-34.931089	-177.688192
10438		-31.526044	-34.987494	-177.686903
10439		-31.548912	-35.036723	-177.691760
10440		-31.570999	-35.082111	-177.701237
10441		-31.597476	-35.126559	-177.708676
10442		-31.627617	-35.180642	-177.713062
10443		-31.665856	-35.246048	-177.715251
10444		-31.710849	-35.321002	-177.711054
10445		-31.751827	-35.391664	-177.720320
10446		-31.789726	-35.457165	-177.735249
10447		-31.831191	-35.520823	-177.745512
10448		-31.871834	-35.577229	-177.751250
10449		-31.920248	-35.625558	-177.747998
10450		-31.980712	-35.667330	-177.734044
10451		-32.045126	-35.702380	-177.716730
10452		-32.106626	-35.727606	-177.700853
10453		-32.167469	-35.742405	-177.683078
10454		-32.244813	-35.748222	-177.663115
10455		-32.330410	-35.749407	-177.639771
10456		-32.419458	-35.756797	-177.621592
10457		-32.495263	-35.769216	-177.618074
10458		-32.553917	-35.780730	-177.627719
10459		-32.594430	-35.790208	-177.643305
10460		-32.628397	-35.799893	-177.660007
10461		-32.655657	-35.813254	-177.672162
10462		-32.686503	-35.835866	-177.663620
10463		-32.715069	-35.864302	-177.659730
10464		-32.745554	-35.891492	-177.650878
10465		-32.781404	-35.917649	-177.637312
10466		-32.823723	-35.935506	-177.623086
10467		-32.869585	-35.942266	-177.613240
10468		-32.917457	-35.942831	-177.604453
10469		-32.964900	-35.938645	-177.599719
10470		-33.006045	-35.936237	-177.594743
10471		-33.035484	-35.926900	-177.590410
10472		-33.058857	-35.910445	-177.580029
10473		-33.078528	-35.890593	-177.557237
10474		-33.098301	-35.866066	-177.525631
10475		-33.121308	-35.833312	-177.491191
10476		-33.147660	-35.795241	-177.456839
10477		-33.173296	-35.753065	-177.423623
10478		-33.204634	-35.705926	-177.384219
10479		-33.230449	-35.654658	-177.350980
10480		-33.252293	-35.598036	-177.313349
10481		-33.276837	-35.539687	-177.269228
10482		-33.311418	-35.475732	-177.220609
10483		-33.355619	-35.411156	-177.169743
10484		-33.401001	-35.351640	-177.114914
10485		-33.442965	-35.290501	-177.060293
10486		-33.474654	-35.226233	-177.008233
10487		-33.497963	-35.148323	-176.953787
10488		-33.509187	-35.064936	-176.898687
10489		-33.509367	-34.981562	-176.841481
10490		-33.502200	-34.912311	-176.782973
10491		-33.483595	-34.871153	-176.733233
10492		-33.433653	-34.849569	-176.706893
10493		-33.319165	-34.833053	-176.708792
10494		-33.128136	-34.820055	-176.717788
10495		-32.867601	-34.817437	-176.724741
10496		-32.560433	-34.801043	-176.739565
10497		-32.212272	-34.747368	-176.802192
10498		-31.851368	-34.656584	-176.893473
10499		-31.505804	-34.545466	-176.994317
10500		-31.185424	-34.423217	-177.090413
10501		-30.885821	-34.300347	-177.201973
10502		-30.619786	-34.183485	-177.305275
10503		-30.367102	-34.069343	-177.410588
10504		-30.133845	-33.957088	-177.490092
10505		-29.891553	-33.851968	-177.568956
10506		-29.642952	-33.753151	-177.642353
10507		-29.391723	-33.657880	-177.721369
10508		-29.148388	-33.565278	-177.792989
10509		-28.929856	-33.477994	-177.875830
10510		-28.745745	-33.393441	-177.953719
10511		-28.594453	-33.318518	-178.016837
10512		-28.473305	-33.259886	-178.053537
10513		-28.384083	-33.216316	-178.079018
10514		-28.321529	-33.189491	-178.080578
10515		-28.284662	-33.173750	-178.080906
10516		-28.269088	-33.160282	-178.081435
10517		-28.275518	-33.155290	-178.078216
10518		-28.296631	-33.168707	-178.066360
10519		-28.319542	-33.195029	-178.049974
10520		-28.352040	-33.223905	-178.033280
10521		-28.382969	-33.250719	-178.020374
10522		-28.420264	-33.277607	-178.001212
10523		-28.461643	-33.303769	-177.987872
10524		-28.500912	-33.334176	-177.968131
10525		-28.542783	-33.366441	-177.958771
10526		-28.592797	-33.394209	-177.953797
10527		-28.640449	-33.420762	-177.949079
10528		-28.683315	-33.445232	-177.942514
10529		-28.713323	-33.472289	-177.946302
10530		-28.738181	-33.501774	-177.953308
10531		-28.759854	-33.525211	-177.963204
10532		-28.779694	-33.549969	-177.969871
10533		-28.798175	-33.570560	-177.980050
10534		-28.812747	-33.592727	-177.986753
10535		-28.821654	-33.613985	-177.994753
10536		-28.813984	-33.631841	-178.010569
10537		-28.779120	-33.642858	-178.035488
10538		-28.713458	-33.646441	-178.073729
10539		-28.616546	-33.629611	-178.123697
10540		-28.485689	-33.592734	-178.178547
10541		-28.333199	-33.542679	-178.245420
10542		-28.164280	-33.485740	-178.309914
10543		-27.984824	-33.422152	-178.378926
10544		-27.795256	-33.350491	-178.452520
10545		-27.605658	-33.267488	-178.526717
10546		-27.419395	-33.175608	-178.602949
10547		-27.233804	-33.068838	-178.683742
10548		-27.059403	-32.949995	-178.769766
10549		-26.894937	-32.814433	-178.865263
10550		-26.747688	-32.673384	-178.969696
10551		-26.612805	-32.544580	-179.069114
10552		-26.485253	-32.413959	-179.162324
10553		-26.374974	-32.275144	-179.247374
10554		-26.276887	-32.118593	-179.334482
10555		-26.182776	-31.929534	-179.421904
10556		-26.106747	-31.719263	-179.489804
10557		-26.057229	-31.498608	-179.548059
10558		-26.016676	-31.255761	-179.590600
10559		-25.997688	-30.989805	-179.629258
10560		-25.995989	-30.713570	-179.654203
10561		-25.984942	-30.426419	-179.672348
10562		-25.937873	-30.127506	-179.683777
10563		-25.836567	-29.811863	-179.710291
10564		-25.668630	-29.480664	-179.739082
10565		-25.428665	-29.139482	-179.766739
10566		-25.120297	-28.800710	-179.776076
10567		-24.757629	-28.485355	-179.759252
10568		-24.351771	-28.176301	-179.716750
10569		-23.913641	-27.865510	-179.669604
10570		-23.453854	-27.539652	-179.607474
10571		-22.974309	-27.204273	-179.541692
10572		-22.498681	-26.880568	-179.445515
10573		-22.033708	-26.565020	-179.339674
10574		-21.585364	-26.254451	-179.210007
10575		-21.162286	-25.956889	-179.067471
10576		-20.772797	-25.671330	-178.901571
10577		-20.408254	-25.399813	-178.738887
10578		-20.061850	-25.132602	-178.575322
10579		-19.738518	-24.858861	-178.428576
10580		-19.435806	-24.582150	-178.275007
10581		-19.149754	-24.324432	-178.115263
10582		-18.889727	-24.080221	-177.931485
10583		-18.651624	-23.853422	-177.743255
10584		-18.431829	-23.636189	-177.544482
10585		-18.227925	-23.415255	-177.351816
10586		-18.054556	-23.197732	-177.158531
10587		-17.909388	-22.988485	-176.979096
10588		-17.788353	-22.795088	-176.796515
10589		-17.672065	-22.621713	-176.619488
10590		-17.555650	-22.465106	-176.435739
10591		-17.426572	-22.319745	-176.260324
10592		-17.296034	-22.181584	-176.076275
10593		-17.153598	-22.044857	-175.898860
10594		-17.008785	-21.906984	-175.718713
10595		-16.863321	-21.766409	-175.548358
10596		-16.725914	-21.629401	-175.379661
10597		-16.604110	-21.497136	-175.220313
10598		-16.491262	-21.369645	-175.061462
10599		-16.396734	-21.251587	-174.911952
10600		-16.331682	-21.144209	-174.763480
10601		-16.271736	-21.038728	-174.626740
10602		-16.215814	-20.927419	-174.488919
10603		-16.162970	-20.811300	-174.355361
10604		-16.112367	-20.693787	-174.217706
10605		-16.058588	-20.585196	-174.081722
10606		-16.009815	-20.485736	-173.945546
10607		-15.960579	-20.388011	-173.822273
10608		-15.902403	-20.285579	-173.704304
10609		-15.835946	-20.179838	-173.596056
10610		-15.770478	-20.071979	-173.485991
10611		-15.709734	-19.967635	-173.374849
10612		-15.643516	-19.871756	-173.258910
10613		-15.569554	-19.789646	-173.146284
10614		-15.488723	-19.718712	-173.035578
10615		-15.400991	-19.659247	-172.933612
10616		-15.299886	-19.620969	-172.835294
10617		-15.187635	-19.603535	-172.746935
10618		-15.054526	-19.600657	-172.662513
10619		-14.892085	-19.608807	-172.586995
10620		-14.698036	-19.624930	-172.509168
10621		-14.484177	-19.651415	-172.437033
10622		-14.250293	-19.679135	-172.361858
10623		-14.016332	-19.705967	-172.289610
10624		-13.791108	-19.726186	-172.209162
10625		-13.593469	-19.741767	-172.131115
10626		-13.437434	-19.743070	-172.049351
10627		-13.315291	-19.731089	-171.970989
10628		-13.224841	-19.700737	-171.885656
10629		-13.153193	-19.657639	-171.796411
10630		-13.100817	-19.599595	-171.685750
10631		-13.071649	-19.538473	-171.568179
10632		-13.065681	-19.475160	-171.440404
10633		-13.063808	-19.408922	-171.309681
10634		-13.072770	-19.338813	-171.178466
10635		-13.082813	-19.258158	-171.056439
10636		-13.081841	-19.168097	-170.933511
10637		-13.068294	-19.071014	-170.815804
10638		-13.045352	-18.965527	-170.692162
10639		-13.015907	-18.859759	-170.574317
10640		-12.993924	-18.760002	-170.457766
10641		-12.977024	-18.668097	-170.348576
10642		-12.965703	-18.581695	-170.241814
10643		-12.962737	-18.499636	-170.145024
10644		-12.977108	-18.420404	-170.053004
10645		-13.008676	-18.349911	-169.968579
10646		-13.047165	-18.283404	-169.884161
10647		-13.081610	-18.218200	-169.807974
10648		-13.114037	-18.154823	-169.729709
10649		-13.148648	-18.098678	-169.656968
10650		-13.190943	-18.053833	-169.585512
10651		-13.235525	-18.015139	-169.522509
10652		-13.280905	-17.973169	-169.464746
10653		-13.330621	-17.940319	-169.408606
10654		-13.384421	-17.918316	-169.346279
10655		-13.439468	-17.896630	-169.285684
10656		-13.501210	-17.884676	-169.220479
10657		-13.569327	-17.887864	-169.156807
10658		-13.649063	-17.911614	-169.088707
10659		-13.744289	-17.953341	-169.026506
10660		-13.845152	-18.011320	-168.968565
10661		-13.927805	-18.072116	-168.924460
10662		-13.990208	-18.126876	-168.878576
10663		-14.036837	-18.177602	-168.839814
10664		-14.074491	-18.214741	-168.798923
10665		-14.101945	-18.249078	-168.764073
10666		-14.137039	-18.286273	-168.724448
10667		-14.185811	-18.328077	-168.690308
10668		-14.259986	-18.376117	-168.652384
10669		-14.357284	-18.430399	-168.614202
10670		-14.474010	-18.479647	-168.572388
10671		-14.593064	-18.526143	-168.526014
10672		-14.708880	-18.570077	-168.469182
10673		-14.806146	-18.602795	-168.415376
10674		-14.890483	-18.626335	-168.361220
10675		-14.959678	-18.649886	-168.318644
10676		-15.020805	-18.668488	-168.279037
10677		-15.083495	-18.690592	-168.246162
10678		-15.145966	-18.714764	-168.210502
10679		-15.211060	-18.739048	-168.179868
10680		-15.282904	-18.767973	-168.145245
10681		-15.358454	-18.799222	-168.115065
10682		-15.441969	-18.829135	-168.082153
10683		-15.522374	-18.851577	-168.052695
10684		-15.594832	-18.861073	-168.020448
10685		-15.656489	-18.868817	-167.997269
10686		-15.707875	-18.871630	-167.974174
10687		-15.749891	-18.878816	-167.965278
10688		-15.795323	-18.892576	-167.953286
10689		-15.835837	-18.915361	-167.948969
10690		-15.873487	-18.947204	-167.942742
10691		-15.902643	-18.973186	-167.944311
10692		-15.929762	-18.992259	-167.944261
10693		-15.966390	-19.000790	-167.945566
10694		-16.020001	-19.007459	-167.947918
10695		-16.088607	-19.009340	-167.954878
10696		-16.163898	-19.014925	-167.961481
10697		-16.238810	-19.021171	-167.972533
10698		-16.302629	-19.033890	-167.979334
10699		-16.353378	-19.044426	-167.991732
10700		-16.399010	-19.050222	-168.002980
10701		-16.447507	-19.056755	-168.018777
10702		-16.501642	-19.056310	-168.029055
10703		-16.558938	-19.056780	-168.042131
10704		-16.615168	-19.059795	-168.054054
10705		-16.674233	-19.063986	-168.072862
10706		-16.729827	-19.077879	-168.090483
10707		-16.757657	-19.103079	-168.112418
10708		-16.758995	-19.113050	-168.130233
10709		-16.765251	-19.111883	-168.145013
10710		-16.790627	-19.103952	-168.150050
10711		-16.826537	-19.093179	-168.163214
10712		-16.868120	-19.080083	-168.174652
10713		-16.908403	-19.073375	-168.186330
10714		-16.936380	-19.071709	-168.192805
10715		-16.952731	-19.069746	-168.207189
10716		-16.951026	-19.067751	-168.218961
10717		-16.940232	-19.059744	-168.229095
10718		-16.924376	-19.045722	-168.233475
10719		-16.918945	-19.027153	-168.239605
10720		-16.922805	-19.003124	-168.243081
10721		-16.921147	-18.979265	-168.251583
10722		-16.914219	-18.960422	-168.256976
10723		-16.896846	-18.939651	-168.267544
10724		-16.872670	-18.914720	-168.266525
10725		-16.850706	-18.881807	-168.262547
10726		-16.837904	-18.845540	-168.250707
10727		-16.836036	-18.813606	-168.243167
10728		-16.847154	-18.783427	-168.228661
10729		-16.865586	-18.755624	-168.214023
10730		-16.889826	-18.726837	-168.195042
10731		-16.914938	-18.695083	-168.176256
10732		-16.935883	-18.661117	-168.151631
10733		-16.951413	-18.629534	-168.132714
10734		-16.968245	-18.592044	-168.108751
10735		-16.991463	-18.548738	-168.088080
10736		-17.011609	-18.500634	-168.062645
10737		-17.039122	-18.456681	-168.036106
10738		-17.050233	-18.421650	-168.000536
10739		-17.029397	-18.381976	-167.963959
10740		-16.995556	-18.344894	-167.919017
10741		-16.968001	-18.310117	-167.882637
10742		-16.948355	-18.281694	-167.846382
10743		-16.922640	-18.250567	-167.822536
10744		-16.891369	-18.227741	-167.797792
10745		-16.863350	-18.208485	-167.778152
10746		-16.838790	-18.191618	-167.753566
10747		-16.819341	-18.176934	-167.733094
10748		-16.805614	-18.164159	-167.714296
10749		-16.799326	-18.150667	-167.703508
10750		-16.801228	-18.139462	-167.688326
10751		-16.810882	-18.130561	-167.683315
10752		-16.821172	-18.128413	-167.673042
10753		-16.830914	-18.133339	-167.666255
10754		-16.838422	-18.140770	-167.655349
10755		-16.847390	-18.147913	-167.650281
10756		-16.857046	-18.150222	-167.642605
10757		-16.864552	-18.150712	-167.637748
10758		-16.868237	-18.145286	-167.630059
10759		-16.871360	-18.142648	-167.622730
10760		-16.873080	-18.140706	-167.610565
10761		-16.877825	-18.134472	-167.602680
10762		-16.882748	-18.129217	-167.591888
10763		-16.877308	-18.126805	-167.582986
10764		-16.869571	-18.125535	-167.572294
10765		-16.863545	-18.123725	-167.563933
10766		-16.855540	-18.123250	-167.551586
10767		-16.844046	-18.120363	-167.544712
10768		-16.846883	-18.116829	-167.530569
10769		-16.855556	-18.112274	-167.523085
10770		-16.867334	-18.104741	-167.513014
10771		-16.885726	-18.094383	-167.509867
10772		-16.921125	-18.081082	-167.501876
10773		-16.970712	-18.060934	-167.494852
10774		-17.034694	-18.041945	-167.479865
10775		-17.113841	-18.016399	-167.472486
10776		-17.216068	-17.990036	-167.464387
10777		-17.332596	-17.970835	-167.470374
10778		-17.459490	-17.954225	-167.488320
10779		-17.583754	-17.947124	-167.516357
10780		-17.693841	-17.953107	-167.539179
10781		-17.809201	-17.964740	-167.556808
10782		-17.938737	-17.977540	-167.566617
10783		-18.078373	-17.985929	-167.579660
10784		-18.221491	-17.995534	-167.595089
10785		-18.367493	-18.001498	-167.616803
10786		-18.507795	-18.007391	-167.638995
10787		-18.636574	-18.017626	-167.665893
10788		-18.757924	-18.045166	-167.681087
10789		-18.865540	-18.082916	-167.695417
10790		-18.965875	-18.126785	-167.700997
10791		-19.055449	-18.178704	-167.706665
10792		-19.160755	-18.228199	-167.710576
10793		-19.284498	-18.273764	-167.722488
10794		-19.419506	-18.316719	-167.735284
10795		-19.564443	-18.359431	-167.754884
10796		-19.716304	-18.408026	-167.770292
10797		-19.857927	-18.463931	-167.785694
10798		-19.980054	-18.519481	-167.790593
10799		-20.084614	-18.574398	-167.795143
10800		-20.173328	-18.628898	-167.798586
10801		-20.253802	-18.683410	-167.810757
10802		-20.329674	-18.739047	-167.825092
10803		-20.408149	-18.799730	-167.848543
10804		-20.486415	-18.869759	-167.868171
10805		-20.566287	-18.938793	-167.890031
10806		-20.650265	-19.009194	-167.907752
10807		-20.734131	-19.080867	-167.930508
10808		-20.817959	-19.148286	-167.949697
10809		-20.903921	-19.210250	-167.975683
10810		-20.998053	-19.272845	-168.005008
10811		-21.098523	-19.338375	-168.043006
10812		-21.206615	-19.407474	-168.085833
10813		-21.318146	-19.479118	-168.139297
10814		-21.433029	-19.563628	-168.194841
10815		-21.538750	-19.654196	-168.256161
10816		-21.638990	-19.745674	-168.317257
10817		-21.737846	-19.838736	-168.381374
10818		-21.837875	-19.935132	-168.443788
10819		-21.936422	-20.032018	-168.517145
10820		-22.038078	-20.130724	-168.596981
10821		-22.147515	-20.235517	-168.692603
10822		-22.264148	-20.346653	-168.794368
10823		-22.382981	-20.463321	-168.915134
10824		-22.501500	-20.592641	-169.041401
10825		-22.613934	-20.734184	-169.172878
10826		-22.712811	-20.897552	-169.295069
10827		-22.794075	-21.074400	-169.420811
10828		-22.857953	-21.255599	-169.539469
10829		-22.897412	-21.435402	-169.661030
10830		-22.925835	-21.618298	-169.775897
10831		-22.949720	-21.800638	-169.897002
10832		-22.970051	-21.988477	-170.009742
10833		-22.987819	-22.178312	-170.119242
10834		-23.010972	-22.374401	-170.215271
10835		-23.034907	-22.573553	-170.309417
10836		-23.050504	-22.772420	-170.400855
10837		-23.060374	-22.974254	-170.495750
10838		-23.092343	-23.189377	-170.576932
10839		-23.145857	-23.414217	-170.653686
10840		-23.218599	-23.644227	-170.726535
10841		-23.280603	-23.864605	-170.811029
10842		-23.320865	-24.060439	-170.900868
10843		-23.351497	-24.227216	-170.994346
10844		-23.395014	-24.372967	-171.077521
10845		-23.465616	-24.515738	-171.162401
10846		-23.561632	-24.666140	-171.243806
10847		-23.664606	-24.821635	-171.345605
10848		-23.770350	-24.971931	-171.451533
10849		-23.870440	-25.111100	-171.568074
10850		-23.972094	-25.243387	-171.677693
10851		-24.075637	-25.373286	-171.785702
10852		-24.172409	-25.502637	-171.884041
10853		-24.267255	-25.626661	-171.983080
10854		-24.362053	-25.753884	-172.082344
10855		-24.457530	-25.876825	-172.186131
10856		-24.550451	-26.004177	-172.293159
