// General information: 
//  MT Manager version: 2022.2.0 
//  XDA version: 2022.2.0 build 7381 rev 124627 built on 2023-07-19
// Device information: 
//  DeviceId: 00B44804
//  ProductCode: MTW2-3A7G6
//  Firmware Version: 4.3.5
//  Hardware Version: 2.0.0
// Device settings: 
//  Filter Profile: human(46.1)
//  Option Flags: Orientation Smoother Disabled, Position/Velocity Smoother Disabled, Continuous Zero Rotation Update Disabled, AHS Disabled, ICC Disabled
// Coordinate system: ENU
PacketCounter	SampleTimeFine	Roll	Pitch	Yaw
07922		-22.167273	14.965667	-168.801296
07923		-22.153208	14.942144	-168.794255
07924		-22.135413	14.916328	-168.783376
07925		-22.108807	14.884072	-168.769505
07926		-22.079570	14.846055	-168.752244
07927		-22.050256	14.806115	-168.728963
07928		-22.028814	14.768454	-168.708461
07929		-22.006593	14.729631	-168.687790
07930		-21.990287	14.691167	-168.669152
07931		-21.972255	14.654261	-168.653090
07932		-21.961228	14.621151	-168.642456
07933		-21.946860	14.592222	-168.631339
07934		-21.939310	14.563088	-168.626059
07935		-21.924594	14.531778	-168.623851
07936		-21.910885	14.506147	-168.624661
07937		-21.888857	14.480044	-168.629952
07938		-21.866357	14.458068	-168.636902
07939		-21.838133	14.435012	-168.645046
07940		-21.818708	14.412003	-168.656419
07941		-21.800720	14.389061	-168.666370
07942		-21.789653	14.369450	-168.678464
07943		-21.778176	14.346771	-168.688339
07944		-21.770210	14.327396	-168.699759
07945		-21.750657	14.311049	-168.711405
07946		-21.731715	14.295387	-168.725140
07947		-21.710760	14.275039	-168.740456
07948		-21.694982	14.257138	-168.758531
07949		-21.678423	14.238044	-168.776430
07950		-21.664280	14.222273	-168.793956
07951		-21.650345	14.206499	-168.813289
07952		-21.640972	14.193535	-168.832825
07953		-21.620263	14.179026	-168.845904
07954		-21.592053	14.164178	-168.856645
07955		-21.552518	14.147800	-168.860943
07956		-21.511715	14.128524	-168.863305
07957		-21.468750	14.104818	-168.860848
07958		-21.426091	14.081994	-168.859217
07959		-21.375627	14.053009	-168.850215
07960		-21.331298	14.027167	-168.842699
07961		-21.292130	13.997735	-168.834144
07962		-21.265517	13.966456	-168.827334
07963		-21.235997	13.931053	-168.818332
07964		-21.207580	13.889840	-168.807858
07965		-21.157338	13.846050	-168.793090
07966		-21.084333	13.794229	-168.771474
07967		-20.989467	13.741088	-168.745683
07968		-20.877530	13.678253	-168.714233
07969		-20.756260	13.609506	-168.682741
07970		-20.679316	13.537379	-168.645170
07971		-20.601263	13.460853	-168.609976
07972		-20.557140	13.375766	-168.572507
07973		-20.497826	13.281378	-168.539460
07974		-20.425495	13.175310	-168.505815
07975		-20.342750	13.062253	-168.475394
07976		-20.239862	12.947509	-168.443182
07977		-20.136440	12.819860	-168.408615
07978		-20.016405	12.690414	-168.379328
07979		-19.894029	12.541597	-168.357220
07980		-19.821468	12.371915	-168.321488
07981		-19.655410	12.196176	-168.312032
07982		-19.568237	11.999998	-168.300108
07983		-19.450857	11.789540	-168.292251
07984		-19.329338	11.561804	-168.288242
07985		-19.185363	11.310710	-168.289274
07986		-19.055862	11.029819	-168.295647
07987		-18.927792	10.696678	-168.316116
07988		-18.784108	10.333397	-168.344074
07989		-18.665094	9.989383	-168.338902
07990		-18.689314	9.714684	-168.325141
07991		-18.623443	9.429518	-168.323254
07992		-18.389423	9.022967	-168.343696
07993		-18.351540	8.558168	-168.394211
07994		-18.414754	8.109955	-168.437381
07995		-18.525400	7.780718	-168.462366
07996		-18.450256	7.420756	-168.513759
07997		-18.330337	7.050514	-168.578331
07998		-18.222060	6.615808	-168.658803
07999		-18.099861	6.150713	-168.761139
08000		-17.997831	5.673276	-168.875042
08001		-17.877533	5.191395	-168.992467
08002		-17.722414	4.719308	-169.115390
08003		-17.520919	4.242748	-169.236535
08004		-17.307286	3.756585	-169.361102
08005		-17.047367	3.282725	-169.493412
08006		-16.808947	2.823562	-169.635766
08007		-16.562527	2.368964	-169.766474
08008		-16.315822	1.910598	-169.922969
08009		-16.053586	1.436754	-170.092413
08010		-15.801582	0.969518	-170.281506
08011		-15.599234	0.540446	-170.476995
08012		-15.452299	0.123318	-170.687726
08013		-15.341123	-0.254896	-170.909301
08014		-15.215877	-0.572176	-171.118147
08015		-15.065011	-0.868744	-171.312380
08016		-14.882343	-1.145583	-171.505542
08017		-14.763107	-1.419592	-171.698275
08018		-14.669612	-1.684547	-171.897172
08019		-14.617493	-1.945204	-172.102754
08020		-14.572726	-2.201088	-172.301315
08021		-14.560293	-2.430949	-172.502845
08022		-14.575296	-2.642891	-172.702778
08023		-14.563631	-2.820975	-172.897022
08024		-14.573678	-2.972159	-173.090653
08025		-14.569167	-3.110728	-173.279634
08026		-14.563898	-3.233630	-173.450407
08027		-14.541622	-3.339552	-173.607134
08028		-14.533524	-3.427914	-173.753177
08029		-14.526777	-3.500754	-173.891451
08030		-14.523746	-3.555465	-174.017059
08031		-14.516526	-3.597761	-174.127106
08032		-14.525445	-3.623770	-174.229827
08033		-14.517869	-3.640221	-174.313462
08034		-14.515671	-3.637099	-174.381070
08035		-14.510733	-3.630459	-174.439008
08036		-14.498490	-3.615345	-174.486687
08037		-14.466303	-3.591792	-174.518341
08038		-14.412809	-3.563481	-174.545173
08039		-14.356099	-3.520179	-174.567476
08040		-14.319288	-3.468363	-174.579840
08041		-14.295943	-3.401463	-174.580471
08042		-14.293511	-3.326441	-174.580992
08043		-14.318346	-3.244887	-174.584841
08044		-14.367268	-3.157233	-174.598719
08045		-14.433361	-3.062804	-174.624565
08046		-14.504931	-2.958638	-174.669928
08047		-14.589129	-2.840053	-174.725699
08048		-14.675426	-2.721610	-174.790932
08049		-14.765313	-2.613783	-174.864656
08050		-14.878614	-2.514816	-174.959224
08051		-14.994404	-2.427553	-175.056830
08052		-15.094077	-2.356374	-175.157236
08053		-15.175863	-2.304331	-175.264333
08054		-15.272692	-2.264450	-175.379154
08055		-15.374614	-2.232721	-175.500220
08056		-15.464956	-2.202114	-175.629729
08057		-15.555105	-2.166111	-175.755991
08058		-15.643181	-2.123513	-175.876904
08059		-15.702744	-2.068787	-175.988028
08060		-15.754892	-2.001406	-176.084848
08061		-15.789342	-1.918591	-176.160864
08062		-15.829811	-1.826808	-176.214146
08063		-15.857290	-1.709931	-176.248586
08064		-15.911818	-1.594450	-176.263655
08065		-15.977416	-1.467163	-176.265181
08066		-16.079765	-1.348056	-176.255172
08067		-16.213213	-1.231176	-176.235147
08068		-16.329545	-1.124780	-176.211228
08069		-16.464890	-1.027459	-176.185794
08070		-16.617062	-0.957489	-176.155130
08071		-16.778782	-0.908327	-176.118315
08072		-16.943389	-0.873266	-176.074914
08073		-17.084244	-0.849159	-176.033055
08074		-17.214753	-0.831468	-175.996752
08075		-17.336617	-0.814062	-175.969431
08076		-17.445245	-0.793205	-175.950948
08077		-17.523479	-0.765572	-175.947476
08078		-17.565368	-0.728969	-175.947769
08079		-17.563021	-0.690947	-175.958028
08080		-17.548559	-0.665913	-175.977505
08081		-17.551959	-0.652162	-176.004048
08082		-17.587531	-0.641716	-176.031748
08083		-17.652568	-0.623702	-176.061191
08084		-17.764838	-0.605008	-176.089750
08085		-17.899802	-0.591049	-176.116199
08086		-18.050061	-0.574412	-176.140986
08087		-18.209993	-0.563879	-176.167396
08088		-18.397641	-0.560570	-176.202335
08089		-18.595052	-0.559239	-176.231532
08090		-18.742179	-0.556450	-176.258101
08091		-18.869862	-0.554927	-176.284547
08092		-18.982157	-0.556020	-176.305469
08093		-19.057004	-0.564042	-176.324885
08094		-19.096247	-0.572204	-176.360032
08095		-19.164718	-0.579616	-176.400417
08096		-19.251124	-0.598801	-176.457291
08097		-19.408029	-0.631310	-176.524275
08098		-19.564518	-0.669624	-176.589467
08099		-19.697127	-0.722988	-176.648668
08100		-19.820535	-0.775734	-176.707115
08101		-19.887887	-0.822012	-176.768892
08102		-20.039532	-0.876869	-176.812714
08103		-20.100073	-0.923588	-176.831594
08104		-20.080191	-0.962639	-176.837382
08105		-20.061612	-1.003550	-176.836809
08106		-20.020432	-1.041193	-176.829729
08107		-19.957945	-1.081672	-176.822229
08108		-19.901370	-1.121102	-176.826226
08109		-19.864952	-1.158719	-176.845582
08110		-19.858735	-1.196845	-176.866917
08111		-19.807816	-1.218040	-176.883322
08112		-19.694023	-1.240023	-176.897396
08113		-19.614032	-1.268784	-176.916672
08114		-19.520948	-1.304078	-176.943056
08115		-19.470016	-1.360724	-176.976849
08116		-19.469039	-1.426974	-177.010184
08117		-19.494109	-1.498447	-177.045550
08118		-19.561869	-1.567148	-177.090934
08119		-19.624379	-1.637586	-177.145291
08120		-19.678903	-1.702978	-177.201566
08121		-19.752477	-1.781628	-177.257236
08122		-19.885935	-1.892020	-177.306566
08123		-20.038825	-2.039016	-177.340352
08124		-20.187635	-2.209818	-177.359527
08125		-20.231771	-2.372023	-177.375179
08126		-20.168104	-2.501849	-177.392512
08127		-20.059865	-2.594971	-177.405724
08128		-19.930750	-2.694925	-177.421952
08129		-19.848612	-2.777924	-177.446095
08130		-19.837044	-2.864507	-177.480958
08131		-19.878440	-2.928442	-177.511569
08132		-19.946327	-2.995760	-177.538383
08133		-20.001200	-3.059406	-177.567209
08134		-20.051745	-3.127332	-177.590587
08135		-20.088572	-3.196303	-177.607101
08136		-20.071949	-3.267030	-177.613168
08137		-20.014524	-3.316606	-177.604917
08138		-19.856111	-3.314949	-177.578059
08139		-19.705669	-3.314939	-177.549345
08140		-19.633714	-3.302597	-177.518031
08141		-19.587423	-3.294698	-177.490317
08142		-19.594650	-3.282193	-177.477608
08143		-19.602295	-3.269368	-177.479436
08144		-19.625250	-3.259418	-177.488777
08145		-19.654989	-3.230652	-177.504572
08146		-19.677333	-3.204977	-177.517494
08147		-19.688011	-3.163069	-177.528083
08148		-19.678821	-3.115267	-177.534763
08149		-19.672974	-3.067246	-177.541108
08150		-19.674695	-3.015719	-177.547992
08151		-19.670606	-2.960447	-177.550727
08152		-19.658716	-2.901839	-177.551027
08153		-19.644827	-2.838484	-177.557795
08154		-19.655518	-2.778494	-177.567399
08155		-19.661011	-2.722781	-177.579112
08156		-19.667209	-2.667912	-177.597297
08157		-19.669052	-2.619870	-177.612287
08158		-19.634313	-2.575570	-177.626151
08159		-19.555360	-2.536881	-177.636736
08160		-19.430060	-2.527897	-177.633113
08161		-19.259245	-2.495782	-177.629376
08162		-19.116282	-2.465756	-177.624247
08163		-18.990788	-2.428396	-177.624845
08164		-18.877776	-2.396458	-177.619624
08165		-18.782919	-2.356568	-177.626289
08166		-18.707401	-2.322888	-177.629727
08167		-18.625966	-2.283229	-177.639000
08168		-18.572588	-2.258833	-177.648142
08169		-18.529977	-2.230835	-177.660215
08170		-18.522418	-2.204737	-177.661760
08171		-18.505692	-2.188109	-177.662027
08172		-18.502855	-2.171472	-177.660412
08173		-18.495540	-2.168168	-177.651541
08174		-18.485455	-2.156424	-177.636522
08175		-18.496102	-2.154345	-177.614600
08176		-18.475063	-2.144909	-177.583810
08177		-18.472529	-2.137168	-177.547519
08178		-18.460590	-2.128556	-177.500809
08179		-18.444923	-2.119337	-177.448672
08180		-18.472549	-2.110166	-177.391021
08181		-18.492566	-2.106917	-177.330123
08182		-18.548135	-2.104326	-177.263725
08183		-18.625435	-2.099465	-177.193348
08184		-18.705389	-2.079190	-177.106963
08185		-18.754393	-2.051680	-177.014432
08186		-18.799857	-2.007619	-176.925119
08187		-18.823071	-1.980286	-176.840018
08188		-18.854550	-1.957957	-176.763118
08189		-18.887162	-1.951042	-176.690339
08190		-18.931959	-1.950851	-176.619389
08191		-18.944521	-1.957299	-176.545469
08192		-18.957780	-1.970823	-176.469642
08193		-18.957772	-1.971226	-176.391903
08194		-18.944415	-1.957638	-176.305762
08195		-18.948695	-1.910160	-176.206181
08196		-18.925974	-1.840605	-176.104007
08197		-18.922685	-1.747988	-175.981841
08198		-18.918477	-1.634290	-175.847665
08199		-18.914911	-1.514854	-175.700649
08200		-18.921485	-1.384434	-175.531755
08201		-18.905191	-1.250824	-175.338668
08202		-18.882529	-1.116636	-175.132018
08203		-18.835133	-0.979871	-174.911925
08204		-18.771496	-0.831045	-174.680324
08205		-18.687155	-0.683047	-174.444281
08206		-18.597178	-0.527747	-174.205926
08207		-18.480406	-0.359387	-173.970222
08208		-18.399581	-0.174705	-173.753004
08209		-18.351584	0.016734	-173.523912
08210		-18.317493	0.230479	-173.299623
08211		-18.311275	0.444090	-173.075979
08212		-18.295266	0.704760	-172.839929
08213		-18.262260	0.991369	-172.590916
08214		-18.240730	1.335685	-172.325329
08215		-18.246530	1.743331	-172.036212
08216		-18.385234	2.209701	-171.753873
08217		-18.573899	2.712786	-171.472837
08218		-18.838718	3.231228	-171.199001
08219		-19.227399	3.748370	-170.924854
08220		-19.636012	4.262250	-170.630079
08221		-20.026916	4.737017	-170.334786
08222		-20.233495	5.217681	-170.043118
08223		-20.368273	5.611460	-169.754597
08224		-20.629034	6.138067	-169.328208
08225		-20.211120	6.705458	-168.918578
08226		-20.062838	7.124087	-168.570664
08227		-19.917920	7.532386	-168.267813
08228		-19.758599	7.888925	-167.950080
08229		-19.525202	8.148545	-167.630978
08230		-19.549938	8.448120	-167.331730
08231		-19.611911	8.679936	-167.068918
08232		-19.658874	8.875931	-166.852414
08233		-19.733944	9.064762	-166.654325
08234		-19.673315	9.267383	-166.480277
08235		-19.496053	9.484390	-166.358116
08236		-19.217247	9.638000	-166.262114
08237		-19.018759	9.773212	-166.232337
08238		-19.005226	9.916493	-166.253715
08239		-19.007259	10.056371	-166.301354
08240		-19.108116	10.186647	-166.387342
08241		-19.387308	10.287493	-166.519796
08242		-19.698076	10.362831	-166.675885
08243		-20.059419	10.411531	-166.839252
08244		-20.424287	10.466547	-166.985667
08245		-20.676642	10.505658	-167.116152
08246		-20.775505	10.550807	-167.236403
08247		-20.825148	10.574742	-167.350634
08248		-20.815344	10.583934	-167.452710
08249		-20.746672	10.576095	-167.536723
08250		-20.661885	10.555527	-167.610856
08251		-20.563758	10.532377	-167.676829
08252		-20.454803	10.510781	-167.737819
08253		-20.359272	10.496494	-167.786762
08254		-20.284130	10.491232	-167.834088
08255		-20.227284	10.497779	-167.867293
08256		-20.204090	10.501276	-167.893538
08257		-20.205189	10.493081	-167.912441
08258		-20.223094	10.475362	-167.924586
08259		-20.262668	10.464167	-167.929794
08260		-20.338098	10.463677	-167.924075
08261		-20.415073	10.477143	-167.903562
08262		-20.457014	10.495340	-167.876090
08263		-20.459267	10.516425	-167.845735
08264		-20.415511	10.535982	-167.812031
08265		-20.339504	10.561809	-167.778276
08266		-20.260069	10.592921	-167.745594
08267		-20.155320	10.628510	-167.716733
08268		-20.051877	10.666453	-167.694213
08269		-19.955965	10.715082	-167.676744
08270		-19.864785	10.767199	-167.660931
08271		-19.771015	10.827947	-167.647510
08272		-19.672981	10.902176	-167.635466
08273		-19.557592	10.980953	-167.624593
08274		-19.426928	11.076686	-167.608138
08275		-19.308826	11.181838	-167.583310
08276		-19.230359	11.275244	-167.557250
08277		-19.118370	11.378627	-167.523817
08278		-19.020080	11.471142	-167.507562
08279		-18.949358	11.570313	-167.499360
08280		-18.872523	11.673623	-167.482527
08281		-18.830745	11.768211	-167.473486
08282		-18.839137	11.863724	-167.473141
08283		-18.856851	11.951989	-167.473935
08284		-18.908618	12.023441	-167.492242
08285		-18.972590	12.100051	-167.521692
08286		-19.076011	12.160371	-167.558166
08287		-19.204699	12.213212	-167.602734
08288		-19.386733	12.253810	-167.648591
08289		-19.575865	12.282485	-167.680790
08290		-19.709701	12.299630	-167.700753
08291		-19.808369	12.334524	-167.693147
08292		-19.805668	12.386449	-167.662789
08293		-19.679245	12.452306	-167.606064
08294		-19.585466	12.521906	-167.548250
08295		-19.499116	12.587459	-167.490382
08296		-19.454294	12.652846	-167.431551
08297		-19.454705	12.707279	-167.380859
08298		-19.522723	12.754099	-167.336776
08299		-19.612660	12.790799	-167.290538
08300		-19.688112	12.828626	-167.240626
08301		-19.724830	12.855640	-167.185096
08302		-19.719550	12.875157	-167.126868
08303		-19.675362	12.884905	-167.068208
08304		-19.620267	12.888191	-167.006612
08305		-19.565177	12.878420	-166.939307
08306		-19.526884	12.860026	-166.872138
08307		-19.494945	12.840415	-166.801369
08308		-19.468524	12.818955	-166.730284
08309		-19.456114	12.788590	-166.659423
08310		-19.444652	12.761446	-166.590609
08311		-19.419084	12.731021	-166.524327
08312		-19.402137	12.697783	-166.462050
08313		-19.387059	12.663878	-166.402229
08314		-19.373205	12.631350	-166.347594
08315		-19.356869	12.600821	-166.297680
08316		-19.350646	12.571650	-166.257630
08317		-19.346776	12.548117	-166.225398
08318		-19.344562	12.525119	-166.202795
08319		-19.341327	12.507743	-166.187544
08320		-19.335414	12.491405	-166.177655
08321		-19.323512	12.478189	-166.172073
08322		-19.317026	12.467007	-166.170797
08323		-19.304771	12.456123	-166.170489
08324		-19.300865	12.443117	-166.170942
08325		-19.294902	12.433562	-166.170337
08326		-19.291931	12.422889	-166.167597
08327		-19.284184	12.409855	-166.163095
08328		-19.280057	12.395369	-166.158993
08329		-19.271179	12.373046	-166.150350
08330		-19.263563	12.348283	-166.137042
08331		-19.236149	12.320357	-166.115709
08332		-19.197335	12.283041	-166.087617
08333		-19.147717	12.240408	-166.049665
08334		-19.090775	12.193025	-166.002342
08335		-19.022150	12.138013	-165.948403
08336		-18.960228	12.081222	-165.890860
08337		-18.903549	12.021095	-165.831679
08338		-18.864476	11.961503	-165.772169
08339		-18.833541	11.898255	-165.712100
08340		-18.804473	11.843184	-165.655445
08341		-18.768699	11.791069	-165.602562
08342		-18.723954	11.749098	-165.552525
08343		-18.675383	11.709724	-165.507364
08344		-18.623844	11.675368	-165.465797
08345		-18.554940	11.646912	-165.428768
08346		-18.484050	11.617542	-165.396379
08347		-18.405616	11.585525	-165.369604
08348		-18.307044	11.550524	-165.352449
08349		-18.234366	11.506573	-165.329597
08350		-18.105939	11.474695	-165.334542
08351		-18.111583	11.428272	-165.340131
08352		-18.125694	11.381232	-165.350917
08353		-18.119198	11.324973	-165.369276
08354		-18.133809	11.253771	-165.397405
08355		-18.134615	11.171259	-165.427461
08356		-18.134051	11.066462	-165.455686
08357		-18.088089	10.951407	-165.475893
08358		-18.020965	10.822260	-165.488897
08359		-17.935761	10.678441	-165.490809
08360		-17.853057	10.517793	-165.478759
08361		-17.780214	10.339263	-165.452984
08362		-17.729479	10.162336	-165.412205
08363		-17.727091	9.996035	-165.354005
08364		-17.760138	9.884401	-165.308977
08365		-17.616030	9.775357	-165.285344
08366		-17.296867	9.472465	-165.308764
08367		-17.296482	9.174884	-165.371472
08368		-17.272792	8.868879	-165.403747
08369		-17.255239	8.644254	-165.434086
08370		-17.220947	8.444832	-165.478502
08371		-17.079814	8.205841	-165.520808
08372		-16.949964	7.923541	-165.570474
08373		-16.860952	7.613526	-165.623937
08374		-16.799213	7.279297	-165.683888
08375		-16.690979	6.934623	-165.748248
08376		-16.505375	6.586512	-165.819833
08377		-16.250861	6.236248	-165.896297
08378		-15.965266	5.878500	-165.974687
08379		-15.654012	5.514319	-166.053294
08380		-15.367291	5.124316	-166.144765
08381		-15.142805	4.733132	-166.229244
08382		-14.914593	4.319578	-166.301687
08383		-14.684491	3.884020	-166.387976
08384		-14.403076	3.409280	-166.477013
08385		-14.048426	2.920220	-166.594170
08386		-13.685043	2.385177	-166.762207
08387		-13.381732	1.869932	-166.957319
08388		-13.161253	1.394482	-167.152848
08389		-13.071406	0.970496	-167.359939
08390		-13.069937	0.578991	-167.602568
08391		-13.100105	0.217484	-167.854436
08392		-13.032783	-0.116454	-168.111646
08393		-12.894104	-0.454797	-168.347803
08394		-12.703073	-0.784409	-168.560736
08395		-12.524525	-1.106458	-168.779595
08396		-12.321779	-1.431880	-168.999784
08397		-12.114897	-1.734870	-169.231182
08398		-11.931687	-2.010894	-169.472831
08399		-11.766508	-2.261901	-169.718901
08400		-11.634607	-2.496305	-169.963742
08401		-11.525413	-2.707966	-170.205527
08402		-11.446698	-2.899086	-170.446158
08403		-11.385157	-3.072805	-170.684533
08404		-11.328865	-3.233702	-170.923216
08405		-11.277784	-3.384656	-171.159387
08406		-11.230256	-3.523074	-171.391150
08407		-11.187866	-3.646997	-171.611585
08408		-11.161869	-3.742290	-171.817423
08409		-11.157767	-3.804327	-172.003426
08410		-11.159241	-3.840401	-172.171316
08411		-11.160974	-3.857258	-172.324364
08412		-11.173311	-3.865652	-172.464807
08413		-11.189145	-3.870459	-172.593721
08414		-11.210188	-3.877957	-172.715585
08415		-11.244595	-3.891294	-172.842195
08416		-11.299811	-3.903151	-172.966152
08417		-11.363938	-3.904389	-173.086181
08418		-11.432629	-3.892595	-173.199782
08419		-11.485956	-3.865797	-173.308582
08420		-11.513136	-3.828231	-173.410765
08421		-11.538387	-3.775368	-173.496185
08422		-11.578822	-3.710176	-173.571328
08423		-11.618685	-3.643624	-173.636428
08424		-11.675601	-3.571281	-173.702216
08425		-11.762353	-3.500194	-173.767746
08426		-11.857035	-3.420995	-173.834552
08427		-11.950252	-3.334904	-173.903385
08428		-12.061973	-3.240630	-173.975303
08429		-12.185546	-3.130981	-174.042396
08430		-12.314535	-3.009947	-174.102723
08431		-12.436305	-2.872369	-174.160683
08432		-12.579290	-2.728419	-174.211529
08433		-12.725055	-2.570887	-174.255732
08434		-12.872268	-2.416451	-174.294100
08435		-13.021617	-2.264963	-174.330886
08436		-13.194171	-2.105156	-174.376734
08437		-13.332670	-1.944926	-174.412620
08438		-13.440356	-1.796514	-174.438364
08439		-13.556227	-1.653445	-174.467527
08440		-13.687093	-1.530086	-174.496928
08441		-13.814000	-1.417616	-174.523045
08442		-13.941771	-1.321033	-174.543128
08443		-14.031371	-1.242119	-174.547547
08444		-14.094026	-1.190997	-174.535429
08445		-14.142618	-1.156467	-174.505764
08446		-14.169048	-1.126670	-174.469010
08447		-14.212299	-1.105652	-174.431318
08448		-14.261592	-1.079325	-174.394932
08449		-14.318497	-1.048361	-174.367585
08450		-14.387917	-1.009521	-174.356150
08451		-14.470932	-0.976615	-174.353798
08452		-14.550197	-0.946990	-174.351836
08453		-14.599428	-0.916357	-174.350987
08454		-14.618803	-0.883873	-174.346977
08455		-14.606221	-0.848430	-174.340658
08456		-14.581245	-0.806638	-174.338226
08457		-14.557425	-0.762033	-174.334627
08458		-14.542496	-0.714758	-174.333047
08459		-14.537942	-0.667962	-174.329914
08460		-14.536842	-0.620594	-174.325951
08461		-14.534539	-0.577612	-174.322975
08462		-14.540224	-0.547296	-174.321272
08463		-14.556926	-0.526305	-174.322140
08464		-14.604302	-0.513082	-174.327416
08465		-14.677955	-0.506035	-174.339620
08466		-14.777704	-0.510108	-174.358180
08467		-14.913507	-0.526548	-174.381187
08468		-15.067527	-0.549114	-174.407540
08469		-15.221272	-0.583869	-174.441313
08470		-15.396847	-0.629680	-174.482596
08471		-15.577331	-0.690337	-174.525821
08472		-15.753902	-0.749753	-174.566183
08473		-15.861039	-0.817008	-174.616522
08474		-15.952627	-0.873686	-174.686451
08475		-16.074898	-0.927073	-174.766944
08476		-16.197308	-0.981384	-174.853894
08477		-16.370359	-1.012630	-174.938561
08478		-16.519550	-1.030928	-175.005651
08479		-16.614053	-1.033394	-175.072547
08480		-16.742624	-1.042410	-175.127287
08481		-16.850613	-1.060721	-175.176730
08482		-16.959639	-1.082923	-175.219894
08483		-17.034845	-1.087587	-175.273150
08484		-17.079104	-1.096286	-175.323286
08485		-17.134178	-1.099464	-175.368255
08486		-17.116214	-1.107643	-175.397459
08487		-17.153343	-1.145171	-175.418997
08488		-17.192067	-1.173399	-175.444761
08489		-17.217832	-1.205343	-175.471032
08490		-17.298797	-1.244680	-175.500615
08491		-17.414838	-1.275436	-175.540834
08492		-17.536366	-1.306493	-175.593507
08493		-17.673413	-1.360840	-175.649957
08494		-17.838304	-1.417551	-175.715276
08495		-18.000290	-1.492352	-175.798434
08496		-18.218160	-1.566258	-175.901082
08497		-18.499425	-1.647461	-176.013044
08498		-18.850117	-1.723663	-176.135133
08499		-19.181631	-1.793717	-176.264075
08500		-19.562627	-1.834411	-176.352654
08501		-19.638307	-1.803296	-176.402145
08502		-19.721815	-1.819543	-176.444835
08503		-19.742220	-1.858089	-176.512271
08504		-19.799097	-1.932930	-176.582672
08505		-19.855761	-1.997038	-176.627755
08506		-19.788359	-2.028450	-176.664013
08507		-19.715963	-2.036853	-176.700620
08508		-19.587917	-2.030709	-176.727600
08509		-19.467376	-2.029522	-176.742488
08510		-19.308350	-2.015137	-176.748176
08511		-19.171070	-2.010612	-176.747572
08512		-19.044314	-1.993533	-176.737978
08513		-18.929449	-1.972544	-176.732325
08514		-18.839968	-1.946253	-176.726959
08515		-18.799140	-1.926642	-176.731841
08516		-18.819797	-1.909361	-176.744301
08517		-18.864850	-1.886307	-176.758532
08518		-18.943404	-1.870186	-176.774010
08519		-19.058655	-1.844295	-176.779237
08520		-19.166685	-1.819059	-176.781774
08521		-19.267556	-1.791173	-176.778606
08522		-19.344024	-1.761827	-176.776678
08523		-19.397599	-1.734111	-176.775412
08524		-19.439824	-1.708744	-176.778333
08525		-19.471813	-1.680375	-176.785519
08526		-19.497933	-1.651892	-176.795411
08527		-19.529962	-1.623351	-176.811412
08528		-19.549737	-1.608542	-176.825321
08529		-19.527610	-1.592315	-176.840402
08530		-19.497673	-1.577431	-176.857792
08531		-19.426676	-1.566760	-176.870781
08532		-19.363776	-1.553223	-176.880930
08533		-19.274746	-1.541160	-176.882864
08534		-19.192833	-1.528089	-176.887651
08535		-19.081556	-1.509557	-176.882753
08536		-18.949542	-1.483730	-176.884306
08537		-18.858221	-1.474813	-176.881966
08538		-18.749030	-1.453960	-176.889612
08539		-18.686964	-1.452843	-176.892059
08540		-18.617991	-1.454132	-176.889710
08541		-18.536202	-1.464319	-176.886303
08542		-18.479659	-1.471835	-176.877554
08543		-18.402121	-1.487748	-176.865530
08544		-18.315444	-1.501142	-176.848825
08545		-18.225288	-1.503300	-176.831799
08546		-18.172012	-1.497157	-176.811358
08547		-18.113390	-1.475143	-176.793032
08548		-18.099076	-1.465577	-176.781913
08549		-18.100233	-1.448185	-176.769883
08550		-18.140976	-1.440239	-176.756722
08551		-18.184299	-1.445239	-176.739448
08552		-18.226891	-1.449201	-176.720882
08553		-18.269068	-1.460980	-176.693383
08554		-18.306605	-1.470062	-176.661021
08555		-18.328868	-1.485438	-176.625049
08556		-18.340148	-1.495040	-176.582435
08557		-18.350433	-1.497449	-176.528729
08558		-18.376363	-1.504544	-176.472271
08559		-18.375199	-1.509790	-176.410478
08560		-18.398644	-1.504254	-176.351451
08561		-18.397581	-1.495563	-176.279165
08562		-18.410853	-1.481672	-176.199934
08563		-18.407489	-1.462983	-176.108587
08564		-18.403290	-1.433381	-176.015934
08565		-18.371251	-1.393799	-175.908495
08566		-18.342100	-1.342176	-175.807877
08567		-18.296442	-1.281596	-175.706575
08568		-18.243503	-1.218566	-175.609616
08569		-18.179201	-1.153455	-175.516860
08570		-18.111078	-1.100469	-175.431375
08571		-18.028344	-1.058062	-175.339948
08572		-17.914725	-1.032122	-175.246721
08573		-17.807731	-1.015153	-175.158879
08574		-17.682959	-1.012443	-175.066407
08575		-17.573620	-1.009574	-174.973224
08576		-17.482872	-0.998091	-174.881886
08577		-17.399251	-0.979375	-174.786025
08578		-17.321567	-0.945026	-174.689587
08579		-17.244040	-0.894451	-174.590261
08580		-17.152166	-0.841683	-174.491465
08581		-17.059998	-0.770086	-174.384256
08582		-16.937440	-0.693702	-174.267949
08583		-16.805912	-0.605602	-174.150625
08584		-16.664398	-0.506527	-174.021283
08585		-16.523156	-0.393654	-173.881054
08586		-16.381612	-0.274558	-173.734933
08587		-16.204732	-0.126618	-173.570157
08588		-16.004092	0.044815	-173.388223
08589		-15.798460	0.242966	-173.194919
08590		-15.606799	0.459935	-173.004408
08591		-15.446676	0.697342	-172.814111
08592		-15.350828	0.938735	-172.638612
08593		-15.262676	1.188632	-172.462293
08594		-15.207957	1.452636	-172.280790
08595		-15.189402	1.740387	-172.096292
08596		-15.197575	2.048623	-171.898769
08597		-15.223139	2.375215	-171.700169
08598		-15.257518	2.705738	-171.493092
08599		-15.335981	3.057951	-171.281845
08600		-15.423359	3.410622	-171.068677
08601		-15.530360	3.769222	-170.851230
08602		-15.635673	4.112215	-170.632537
08603		-15.849424	4.451683	-170.397219
08604		-16.059874	4.873372	-170.071435
08605		-15.833092	5.315819	-169.759513
08606		-15.712898	5.689737	-169.532221
08607		-15.668992	6.071930	-169.326889
08608		-15.622317	6.421251	-169.096812
08609		-15.563204	6.739361	-168.833199
08610		-15.443133	7.050944	-168.548900
08611		-15.409939	7.322245	-168.289989
08612		-15.412267	7.598343	-168.044407
08613		-15.391261	7.810379	-167.812927
08614		-15.346481	8.011194	-167.628827
08615		-15.371810	8.200619	-167.495030
08616		-15.388138	8.405842	-167.388481
08617		-15.487217	8.608363	-167.311128
08618		-15.608994	8.779352	-167.256100
08619		-15.744854	8.906030	-167.209590
08620		-15.902350	8.984946	-167.194184
08621		-16.074809	9.089751	-167.220433
08622		-16.318970	9.191416	-167.253114
08623		-16.546301	9.294044	-167.291251
08624		-16.747253	9.398067	-167.346403
08625		-16.955827	9.475545	-167.415378
08626		-17.127695	9.526034	-167.482136
08627		-17.240432	9.555210	-167.534428
08628		-17.291076	9.565332	-167.577286
08629		-17.281952	9.564245	-167.613638
08630		-17.224862	9.551813	-167.649628
08631		-17.141848	9.536343	-167.683793
08632		-17.054269	9.525599	-167.714482
08633		-16.968560	9.511223	-167.745759
08634		-16.895798	9.491821	-167.774767
08635		-16.832256	9.472774	-167.801837
08636		-16.773612	9.452260	-167.824317
08637		-16.720470	9.426330	-167.837364
08638		-16.667388	9.398749	-167.844375
08639		-16.621352	9.378495	-167.851766
08640		-16.580225	9.361469	-167.854045
08641		-16.547356	9.348266	-167.851980
08642		-16.522105	9.342229	-167.847192
08643		-16.509346	9.349851	-167.835944
08644		-16.503432	9.360624	-167.816808
08645		-16.497803	9.374429	-167.803068
08646		-16.506454	9.400496	-167.789919
08647		-16.494023	9.448999	-167.785416
08648		-16.454019	9.511989	-167.785687
08649		-16.436828	9.597957	-167.805638
08650		-16.512747	9.675887	-167.833447
08651		-16.559987	9.775774	-167.872613
08652		-16.630876	9.861790	-167.912257
08653		-16.727973	9.946260	-167.944541
08654		-16.795749	10.017995	-167.966976
08655		-16.798655	10.089230	-167.982301
08656		-16.752689	10.168892	-167.991289
08657		-16.693916	10.246420	-168.004774
08658		-16.677505	10.305987	-168.036095
08659		-16.719572	10.367706	-168.077746
08660		-16.801515	10.426044	-168.122581
08661		-16.925503	10.474637	-168.168748
08662		-17.043283	10.520886	-168.214672
08663		-17.137838	10.569107	-168.255981
08664		-17.217745	10.617251	-168.295275
08665		-17.317323	10.671108	-168.327467
08666		-17.433000	10.727375	-168.347244
08667		-17.494680	10.781863	-168.354049
08668		-17.505861	10.833730	-168.354146
08669		-17.480020	10.877139	-168.349709
08670		-17.453303	10.913258	-168.349376
08671		-17.427734	10.950239	-168.348523
08672		-17.401008	10.989887	-168.354720
08673		-17.409996	11.021979	-168.371275
08674		-17.446960	11.052783	-168.390946
08675		-17.500304	11.081999	-168.405496
08676		-17.567496	11.105619	-168.421690
08677		-17.644574	11.126160	-168.442308
08678		-17.727309	11.144417	-168.464106
08679		-17.828120	11.165324	-168.486605
08680		-17.973502	11.180385	-168.509354
08681		-18.177191	11.181663	-168.534441
08682		-18.419551	11.171476	-168.561894
08683		-18.700322	11.156859	-168.590408
08684		-19.006836	11.142310	-168.620221
08685		-19.282825	11.138845	-168.648196
08686		-19.542692	11.141519	-168.665421
08687		-19.769711	11.135213	-168.681988
08688		-19.940224	11.132790	-168.694524
08689		-20.098329	11.119045	-168.704440
08690		-20.247206	11.091420	-168.713433
08691		-20.400410	11.053508	-168.719573
08692		-20.557123	11.007324	-168.707745
08693		-20.689693	10.953590	-168.678960
08694		-20.783869	10.927727	-168.627424
08695		-20.767705	10.921034	-168.558408
08696		-20.715582	10.930105	-168.487706
08697		-20.669835	10.930263	-168.399251
08698		-20.572869	10.934501	-168.305866
08699		-20.433765	10.926214	-168.215153
08700		-20.336291	10.914627	-168.133765
08701		-20.291079	10.893446	-168.045912
08702		-20.256978	10.861993	-167.967204
08703		-20.251254	10.826333	-167.895527
08704		-20.274350	10.792871	-167.820431
08705		-20.307073	10.756740	-167.753511
08706		-20.353410	10.725279	-167.691170
08707		-20.415899	10.694816	-167.630766
08708		-20.499422	10.664302	-167.576502
08709		-20.569689	10.638320	-167.520071
08710		-20.651818	10.601921	-167.464833
08711		-20.743622	10.554911	-167.406200
08712		-20.827905	10.516285	-167.344669
08713		-20.889096	10.484872	-167.284724
08714		-20.963201	10.453782	-167.227157
08715		-21.042870	10.421608	-167.169781
08716		-21.117063	10.390843	-167.112134
08717		-21.184743	10.363268	-167.058100
08718		-21.254463	10.324833	-167.007407
08719		-21.328949	10.286739	-166.959650
08720		-21.398897	10.244702	-166.915694
08721		-21.463937	10.193378	-166.870466
08722		-21.524184	10.138307	-166.822609
08723		-21.568447	10.080437	-166.768613
08724		-21.614333	10.020552	-166.709526
08725		-21.643740	9.961869	-166.641440
08726		-21.640752	9.900480	-166.567932
08727		-21.608884	9.831371	-166.483620
08728		-21.565758	9.753390	-166.382941
08729		-21.512312	9.655321	-166.268110
08730		-21.445273	9.539044	-166.137939
08731		-21.373569	9.403048	-165.986095
08732		-21.302855	9.242807	-165.817723
08733		-21.242836	9.065836	-165.634688
08734		-21.171474	8.874440	-165.454037
08735		-21.127956	8.659997	-165.268625
08736		-21.031741	8.435904	-165.084436
08737		-20.953781	8.187420	-164.891509
08738		-20.866987	7.928147	-164.694763
08739		-20.766955	7.653539	-164.490588
08740		-20.660956	7.366613	-164.293935
08741		-20.607609	7.065467	-164.096934
08742		-20.539596	6.765805	-163.919502
08743		-20.497867	6.462646	-163.758944
08744		-20.505799	6.148921	-163.609497
08745		-20.147592	5.948324	-163.561664
08746		-19.248702	5.462643	-163.498109
08747		-19.016359	5.066341	-163.483611
08748		-18.742368	4.690540	-163.462034
08749		-18.504486	4.317740	-163.461279
08750		-18.270365	3.935817	-163.471453
08751		-17.962930	3.530990	-163.480883
08752		-17.624352	3.098621	-163.490926
08753		-17.275213	2.671912	-163.499199
08754		-16.930229	2.252738	-163.506964
08755		-16.546002	1.841808	-163.519948
08756		-16.178622	1.439616	-163.543585
08757		-15.819187	1.051808	-163.576375
08758		-15.487737	0.674584	-163.615423
08759		-15.154410	0.319246	-163.664435
08760		-14.855227	-0.016025	-163.732664
08761		-14.586046	-0.340943	-163.820615
08762		-14.355262	-0.655962	-163.921023
08763		-14.145015	-0.962815	-164.034113
08764		-13.941172	-1.257094	-164.154636
08765		-13.760602	-1.535111	-164.280700
08766		-13.574546	-1.794115	-164.402456
08767		-13.380402	-2.049477	-164.537689
08768		-13.204916	-2.296020	-164.675577
08769		-13.054988	-2.521193	-164.813008
08770		-12.901710	-2.735381	-164.951701
08771		-12.740050	-2.933948	-165.091785
08772		-12.594093	-3.120809	-165.234728
08773		-12.467728	-3.287205	-165.383712
08774		-12.371574	-3.443080	-165.530334
08775		-12.261529	-3.590865	-165.671149
08776		-12.102797	-3.742131	-165.812152
08777		-11.957352	-3.884627	-165.961082
08778		-11.822614	-4.020397	-166.113015
08779		-11.736650	-4.137247	-166.271785
08780		-11.672004	-4.241158	-166.426591
08781		-11.605895	-4.332244	-166.579688
08782		-11.554862	-4.420144	-166.734580
08783		-11.520223	-4.499924	-166.894453
08784		-11.507789	-4.571317	-167.051282
08785		-11.503649	-4.632105	-167.207924
08786		-11.508475	-4.684978	-167.363821
08787		-11.523573	-4.732112	-167.519104
08788		-11.552127	-4.773278	-167.670746
08789		-11.582803	-4.805911	-167.826723
08790		-11.629417	-4.835123	-167.990411
08791		-11.688737	-4.860396	-168.154806
08792		-11.763495	-4.879813	-168.320113
08793		-11.846315	-4.888140	-168.487170
08794		-11.921590	-4.888712	-168.654748
08795		-11.979875	-4.883780	-168.820421
08796		-12.023833	-4.876599	-168.983805
08797		-12.053757	-4.871193	-169.140866
08798		-12.081834	-4.869675	-169.290922
08799		-12.085970	-4.867021	-169.436284
08800		-12.078084	-4.863645	-169.580719
08801		-12.078454	-4.858291	-169.723788
08802		-12.089801	-4.849721	-169.860090
08803		-12.104893	-4.831297	-169.987318
08804		-12.109656	-4.807991	-170.105131
08805		-12.091246	-4.780006	-170.216838
08806		-12.064928	-4.752434	-170.327938
08807		-12.043310	-4.725518	-170.432837
08808		-12.039452	-4.700485	-170.533821
08809		-12.056658	-4.674217	-170.636183
08810		-12.102664	-4.647660	-170.736550
08811		-12.177538	-4.622344	-170.836546
08812		-12.277599	-4.596707	-170.936648
08813		-12.407151	-4.573550	-171.040003
08814		-12.546441	-4.546047	-171.142625
08815		-12.676586	-4.509578	-171.249825
08816		-12.782331	-4.481831	-171.362634
08817		-12.886561	-4.455049	-171.480694
08818		-13.000155	-4.431762	-171.603665
08819		-13.124941	-4.408709	-171.730282
08820		-13.252748	-4.390550	-171.861956
08821		-13.375202	-4.376171	-171.997173
08822		-13.476105	-4.363432	-172.136112
08823		-13.564225	-4.349486	-172.275328
08824		-13.632275	-4.341896	-172.416576
08825		-13.689580	-4.333671	-172.558247
08826		-13.746705	-4.324982	-172.695728
08827		-13.790985	-4.309658	-172.831728
08828		-13.838871	-4.296031	-172.961399
08829		-13.876223	-4.276822	-173.082173
08830		-13.903658	-4.259027	-173.197785
08831		-13.933809	-4.237172	-173.305245
08832		-13.948694	-4.208654	-173.411434
08833		-13.973490	-4.171080	-173.503604
08834		-14.008204	-4.124524	-173.590198
08835		-14.040753	-4.063740	-173.671880
08836		-14.097111	-3.992055	-173.746245
08837		-14.184821	-3.906915	-173.817685
08838		-14.305210	-3.808982	-173.881316
08839		-14.437764	-3.697438	-173.943946
08840		-14.559933	-3.568450	-174.004197
08841		-14.667392	-3.433969	-174.057271
08842		-14.768122	-3.300213	-174.109738
08843		-14.872472	-3.161896	-174.147202
08844		-14.955960	-3.023740	-174.181462
08845		-15.062011	-2.906335	-174.197633
08846		-15.160569	-2.792747	-174.199398
08847		-15.264283	-2.698693	-174.189284
08848		-15.396677	-2.613937	-174.169377
08849		-15.540066	-2.549844	-174.141274
08850		-15.702199	-2.494747	-174.114259
08851		-15.858197	-2.447057	-174.091896
08852		-16.010607	-2.409376	-174.076494
08853		-16.132958	-2.371645	-174.066012
08854		-16.229894	-2.336832	-174.059796
08855		-16.289823	-2.298232	-174.057575
08856		-16.315400	-2.262208	-174.057055
08857		-16.331393	-2.220582	-174.057959
08858		-16.344321	-2.175852	-174.059884
08859		-16.356470	-2.122534	-174.062778
08860		-16.372182	-2.063449	-174.064806
08861		-16.392676	-2.002259	-174.070751
08862		-16.412449	-1.938342	-174.075965
08863		-16.440732	-1.874488	-174.082981
08864		-16.455372	-1.811615	-174.087998
08865		-16.465743	-1.751550	-174.094809
08866		-16.475229	-1.697173	-174.099885
08867		-16.483528	-1.650607	-174.099590
08868		-16.490545	-1.603823	-174.090372
08869		-16.488943	-1.557460	-174.081416
08870		-16.489096	-1.505069	-174.065068
08871		-16.501818	-1.457064	-174.049490
08872		-16.535553	-1.420292	-174.028707
08873		-16.597877	-1.391251	-174.013471
08874		-16.712093	-1.368533	-174.000839
08875		-16.834893	-1.343758	-173.991401
08876		-16.960531	-1.325097	-173.982616
08877		-17.067756	-1.327533	-173.979412
08878		-17.130001	-1.350901	-173.986993
08879		-17.216874	-1.386096	-174.001244
08880		-17.292146	-1.432874	-174.016778
08881		-17.324282	-1.493492	-174.037586
08882		-17.357502	-1.563243	-174.062886
08883		-17.389195	-1.633255	-174.091993
08884		-17.414968	-1.703335	-174.115580
08885		-17.430378	-1.769865	-174.138747
08886		-17.433093	-1.828019	-174.162707
08887		-17.438683	-1.879995	-174.188707
08888		-17.450317	-1.922024	-174.219241
08889		-17.472679	-1.965353	-174.248483
08890		-17.518069	-1.999908	-174.277993
08891		-17.571433	-2.026176	-174.309830
08892		-17.633174	-2.031422	-174.345725
08893		-17.706340	-2.022591	-174.376054
08894		-17.792809	-2.010263	-174.396486
08895		-17.838435	-1.975920	-174.398958
08896		-17.810060	-1.951811	-174.381988
08897		-17.760373	-1.920715	-174.358990
08898		-17.696277	-1.890449	-174.330336
08899		-17.631878	-1.858379	-174.297838
08900		-17.570270	-1.826133	-174.265562
08901		-17.499325	-1.787338	-174.235999
08902		-17.460829	-1.751496	-174.207206
08903		-17.442705	-1.716291	-174.180191
08904		-17.436942	-1.687644	-174.156717
08905		-17.446064	-1.662375	-174.139807
08906		-17.467538	-1.641776	-174.138522
08907		-17.541900	-1.636326	-174.143414
08908		-17.649188	-1.638366	-174.153200
08909		-17.787621	-1.656200	-174.171066
08910		-17.961514	-1.685487	-174.187307
08911		-18.110362	-1.722843	-174.202926
08912		-18.245273	-1.762570	-174.218288
08913		-18.373636	-1.809285	-174.231110
08914		-18.502516	-1.850169	-174.236769
08915		-18.567359	-1.887848	-174.233174
08916		-18.595342	-1.918702	-174.214702
08917		-18.535283	-1.916523	-174.202347
08918		-18.562639	-1.927467	-174.193517
08919		-18.570160	-1.943370	-174.193371
08920		-18.607231	-1.961464	-174.192062
08921		-18.644672	-1.975117	-174.184464
08922		-18.655772	-1.975226	-174.169721
08923		-18.632846	-1.964311	-174.153291
08924		-18.584479	-1.944261	-174.132994
08925		-18.540276	-1.918322	-174.110103
08926		-18.532787	-1.898474	-174.088033
08927		-18.554482	-1.878014	-174.065916
08928		-18.605319	-1.858783	-174.052247
08929		-18.664234	-1.848512	-174.044250
08930		-18.721209	-1.843798	-174.040281
08931		-18.769515	-1.847335	-174.039890
08932		-18.800433	-1.853465	-174.042576
08933		-18.806004	-1.865179	-174.048145
08934		-18.785211	-1.879101	-174.054319
08935		-18.743782	-1.891812	-174.059721
08936		-18.693688	-1.902985	-174.067906
08937		-18.636452	-1.913326	-174.077475
08938		-18.582846	-1.926863	-174.090670
08939		-18.535796	-1.941656	-174.104089
08940		-18.496394	-1.955450	-174.119931
08941		-18.450076	-1.967074	-174.135313
08942		-18.403046	-1.972115	-174.152744
08943		-18.353055	-1.972757	-174.167126
08944		-18.301788	-1.964570	-174.181293
08945		-18.254043	-1.950009	-174.196806
08946		-18.218321	-1.935432	-174.213091
08947		-18.195120	-1.921971	-174.230208
08948		-18.182635	-1.907784	-174.248430
08949		-18.181264	-1.897370	-174.269503
08950		-18.166220	-1.887139	-174.289900
08951		-18.141346	-1.876553	-174.310951
08952		-18.109461	-1.859012	-174.327838
08953		-18.078704	-1.836963	-174.338896
08954		-18.048288	-1.806321	-174.355026
08955		-18.049624	-1.774069	-174.375006
08956		-18.085051	-1.754887	-174.404132
08957		-18.149182	-1.730859	-174.439884
08958		-18.204198	-1.728340	-174.476406
08959		-18.257138	-1.718813	-174.516141
08960		-18.283967	-1.719809	-174.557785
08961		-18.273036	-1.715433	-174.595616
08962		-18.245111	-1.707949	-174.645016
08963		-18.194782	-1.718417	-174.693368
08964		-18.130948	-1.723318	-174.748303
08965		-18.055048	-1.745554	-174.798177
08966		-17.986612	-1.746473	-174.858131
08967		-17.904496	-1.772676	-174.915411
08968		-17.842262	-1.766482	-174.972612
08969		-17.768514	-1.792352	-175.025632
08970		-17.711709	-1.789295	-175.075182
08971		-17.671334	-1.791441	-175.120071
08972		-17.628560	-1.785636	-175.172464
08973		-17.612217	-1.784698	-175.236343
08974		-17.639343	-1.783386	-175.298758
08975		-17.664695	-1.801560	-175.355078
08976		-17.708373	-1.817393	-175.412258
08977		-17.728718	-1.838370	-175.465041
08978		-17.749080	-1.854095	-175.515850
08979		-17.806935	-1.870602	-175.557729
08980		-17.842078	-1.882557	-175.590496
08981		-17.892879	-1.893423	-175.624144
08982		-17.981087	-1.911073	-175.663415
08983		-18.080460	-1.921079	-175.691713
08984		-18.191658	-1.946644	-175.710359
08985		-18.297515	-1.967668	-175.715678
08986		-18.388630	-1.990138	-175.706657
08987		-18.469668	-2.013322	-175.684976
08988		-18.514773	-2.027016	-175.644239
08989		-18.526218	-2.041420	-175.594072
08990		-18.533443	-2.049899	-175.540457
08991		-18.547262	-2.058105	-175.476358
08992		-18.599318	-2.069873	-175.393919
08993		-18.652329	-2.089173	-175.295341
08994		-18.700832	-2.109663	-175.192240
08995		-18.706348	-2.123070	-175.085475
08996		-18.706190	-2.129241	-174.971286
08997		-18.679599	-2.118075	-174.848071
08998		-18.638011	-2.090889	-174.724469
08999		-18.594333	-2.038244	-174.611626
09000		-18.565338	-1.971930	-174.510622
09001		-18.556924	-1.909270	-174.414039
09002		-18.574970	-1.845070	-174.320287
09003		-18.588383	-1.784411	-174.228898
09004		-18.609594	-1.712768	-174.142538
09005		-18.611549	-1.638157	-174.056456
09006		-18.621613	-1.553562	-174.002371
09007		-18.631459	-1.477995	-173.968862
09008		-18.662620	-1.424255	-173.956693
09009		-18.682379	-1.378414	-173.961279
09010		-18.724530	-1.358507	-173.987332
09011		-18.745002	-1.330655	-174.020180
09012		-18.745013	-1.295307	-174.051252
09013		-18.745017	-1.259115	-174.082748
09014		-18.735093	-1.210218	-174.097331
09015		-18.758850	-1.137940	-174.109973
09016		-18.765504	-1.033540	-174.125013
09017		-18.755674	-0.928996	-174.142627
09018		-18.754479	-0.816206	-174.153604
09019		-18.774510	-0.707932	-174.160848
09020		-18.787877	-0.602951	-174.158807
09021		-18.816375	-0.499808	-174.146323
09022		-18.840237	-0.397588	-174.126193
09023		-18.841852	-0.295090	-174.088912
09024		-18.808314	-0.188394	-174.050493
09025		-18.759147	-0.078254	-174.006934
09026		-18.716768	0.049725	-173.962149
09027		-18.677641	0.183589	-173.909797
09028		-18.654410	0.313140	-173.854109
09029		-18.646878	0.445928	-173.783802
09030		-18.647445	0.598705	-173.707161
09031		-18.628351	0.772567	-173.589955
09032		-18.491457	0.940188	-173.455498
09033		-18.381893	1.122545	-173.347058
09034		-18.289776	1.307870	-173.240359
09035		-18.200420	1.487312	-173.126428
09036		-18.133457	1.670095	-173.003926
09037		-18.055973	1.853299	-172.860036
09038		-17.971729	1.996405	-172.716085
09039		-17.977216	2.202216	-172.552463
09040		-17.999032	2.398405	-172.381566
09041		-17.999871	2.572176	-172.214688
09042		-18.035369	2.762626	-172.054765
09043		-18.149972	2.958279	-171.907388
09044		-18.332178	3.168592	-171.774233
09045		-18.473634	3.362204	-171.663337
09046		-18.685505	3.560803	-171.571660
09047		-18.929268	3.750186	-171.500933
09048		-19.136803	3.934829	-171.435189
09049		-19.282286	4.036850	-171.372568
09050		-19.529235	4.131239	-171.341695
09051		-19.842260	4.337039	-171.311950
09052		-19.986529	4.470019	-171.262785
09053		-20.100075	4.635311	-171.218115
09054		-20.220221	4.758152	-171.182331
09055		-20.374974	4.856540	-171.154184
09056		-20.514166	4.912998	-171.114804
09057		-20.707877	4.982262	-171.091040
09058		-20.981158	5.079997	-171.081436
09059		-21.127159	5.180701	-171.072582
09060		-21.230732	5.274202	-171.080111
09061		-21.346494	5.337435	-171.105326
09062		-21.459380	5.391099	-171.127965
09063		-21.550406	5.432495	-171.138782
09064		-21.623651	5.452520	-171.145689
09065		-21.679559	5.455520	-171.155538
09066		-21.703583	5.444487	-171.165637
09067		-21.708234	5.431708	-171.165007
09068		-21.685660	5.418671	-171.151042
09069		-21.643120	5.405755	-171.127282
09070		-21.605060	5.398632	-171.099717
09071		-21.577163	5.395310	-171.064208
09072		-21.551726	5.394764	-171.026222
09073		-21.544055	5.398244	-170.990605
09074		-21.543148	5.407909	-170.952760
09075		-21.550566	5.420857	-170.912973
09076		-21.562309	5.426899	-170.866321
09077		-21.558283	5.429423	-170.823600
09078		-21.543155	5.452145	-170.783475
09079		-21.468717	5.475191	-170.755348
09080		-21.358389	5.517125	-170.734938
09081		-21.284739	5.553226	-170.715446
09082		-21.194368	5.593552	-170.698572
09083		-21.132299	5.650684	-170.673146
09084		-21.071177	5.720130	-170.645587
09085		-21.021838	5.788263	-170.604147
09086		-20.957776	5.863010	-170.555521
09087		-20.801926	5.943956	-170.510132
09088		-20.614852	6.015555	-170.477264
09089		-20.522421	6.072201	-170.444448
09090		-20.476660	6.103961	-170.422311
09091		-20.461351	6.119919	-170.390629
09092		-20.405495	6.135662	-170.355281
09093		-20.329456	6.141105	-170.323981
09094		-20.267363	6.144449	-170.298246
09095		-20.208881	6.156258	-170.277501
09096		-20.174094	6.179798	-170.262497
09097		-20.176672	6.205733	-170.252458
09098		-20.167191	6.229284	-170.239874
09099		-20.137586	6.246541	-170.227797
09100		-20.110697	6.253245	-170.219848
09101		-20.075821	6.256115	-170.217765
09102		-20.044665	6.246964	-170.223401
09103		-20.030284	6.237345	-170.236412
09104		-20.027639	6.234844	-170.249631
09105		-20.027513	6.243372	-170.264348
09106		-20.037962	6.264247	-170.279218
09107		-20.045536	6.281384	-170.288886
09108		-20.019701	6.298048	-170.289233
09109		-19.968559	6.322846	-170.282377
09110		-19.912302	6.346183	-170.272561
09111		-19.869784	6.356967	-170.258112
09112		-19.840242	6.361117	-170.235565
09113		-19.784820	6.362820	-170.201895
09114		-19.697139	6.364620	-170.163883
09115		-19.598980	6.371234	-170.116721
09116		-19.460107	6.393104	-170.060542
09117		-19.314237	6.413246	-169.993495
09118		-19.181145	6.434667	-169.923412
09119		-19.078421	6.450159	-169.855607
09120		-19.004066	6.464476	-169.791832
09121		-18.947443	6.478514	-169.728866
09122		-18.903838	6.488315	-169.669586
09123		-18.867661	6.492435	-169.606602
09124		-18.812250	6.488415	-169.543768
09125		-18.746969	6.484035	-169.482875
09126		-18.671050	6.477177	-169.422450
09127		-18.594843	6.469437	-169.363082
09128		-18.509625	6.469615	-169.304573
09129		-18.417571	6.472435	-169.248353
09130		-18.335662	6.470060	-169.196881
09131		-18.273889	6.466711	-169.147744
09132		-18.220985	6.465932	-169.101451
09133		-18.190799	6.466081	-169.063616
09134		-18.185167	6.467627	-169.028652
09135		-18.190614	6.469566	-168.999442
09136		-18.206659	6.470560	-168.970670
09137		-18.221267	6.469251	-168.943039
09138		-18.220016	6.466662	-168.913573
09139		-18.203138	6.464035	-168.881198
09140		-18.173810	6.461925	-168.848483
09141		-18.140066	6.463181	-168.817715
09142		-18.108817	6.458056	-168.786420
09143		-18.084790	6.455213	-168.756455
09144		-18.063836	6.448261	-168.726646
09145		-18.047082	6.444538	-168.694198
09146		-18.029687	6.442062	-168.657011
09147		-18.012039	6.440140	-168.619022
09148		-17.999922	6.437950	-168.582301
09149		-17.992878	6.441135	-168.544838
09150		-17.988581	6.442004	-168.509614
09151		-17.989492	6.446316	-168.478660
09152		-17.992855	6.451531	-168.450171
09153		-17.994063	6.457378	-168.423754
09154		-17.989374	6.460243	-168.395772
09155		-17.971270	6.459722	-168.361790
09156		-17.942574	6.453443	-168.321697
09157		-17.900815	6.442001	-168.273537
09158		-17.846508	6.416464	-168.212723
09159		-17.783128	6.378277	-168.148637
09160		-17.722424	6.331873	-168.075619
09161		-17.648204	6.271875	-167.991061
09162		-17.551164	6.196965	-167.887922
09163		-17.436619	6.106527	-167.771383
09164		-17.313533	6.000808	-167.648894
09165		-17.196808	5.883890	-167.527466
09166		-17.091269	5.753820	-167.420799
09167		-17.065698	5.619865	-167.317355
09168		-17.069263	5.487162	-167.226723
09169		-17.113835	5.355878	-167.141830
09170		-17.152920	5.218446	-167.062242
09171		-17.194764	5.072768	-166.975096
09172		-17.208934	4.914487	-166.880789
09173		-17.154040	4.741213	-166.801547
09174		-17.150481	4.560677	-166.745346
09175		-17.211675	4.378665	-166.688865
09176		-17.284125	4.201878	-166.637664
09177		-17.368685	4.083328	-166.612203
09178		-17.257278	3.969144	-166.620813
09179		-17.035977	3.754863	-166.673908
09180		-16.964993	3.540083	-166.762579
09181		-16.898024	3.292371	-166.875199
09182		-16.915470	3.110586	-166.994181
09183		-16.890076	2.940678	-167.143232
09184		-16.794650	2.743802	-167.312298
09185		-16.666467	2.515113	-167.488202
09186		-16.558566	2.259321	-167.666381
09187		-16.480303	1.991318	-167.842041
09188		-16.369144	1.709623	-168.016960
09189		-16.216546	1.432361	-168.185985
09190		-16.039242	1.137876	-168.344718
09191		-15.844485	0.825758	-168.503082
09192		-15.628974	0.503823	-168.662499
09193		-15.405509	0.180677	-168.823732
09194		-15.185739	-0.117786	-168.972154
09195		-14.951553	-0.426650	-169.123517
09196		-14.772724	-0.733217	-169.300530
09197		-14.638329	-1.049953	-169.486867
09198		-14.514454	-1.349014	-169.692137
09199		-14.458027	-1.646131	-169.926578
09200		-14.410819	-1.916193	-170.164871
09201		-14.354655	-2.158022	-170.396531
09202		-14.284095	-2.378326	-170.622856
09203		-14.208360	-2.590047	-170.836152
09204		-14.112900	-2.792776	-171.042590
09205		-14.019037	-2.993628	-171.243754
09206		-13.928945	-3.187164	-171.440680
09207		-13.852057	-3.375023	-171.625860
09208		-13.772993	-3.566725	-171.799675
09209		-13.681797	-3.745159	-171.969370
09210		-13.615284	-3.912679	-172.136040
09211		-13.549903	-4.076464	-172.305705
09212		-13.487281	-4.231952	-172.475684
09213		-13.430043	-4.376036	-172.639001
09214		-13.373924	-4.514727	-172.794766
09215		-13.320980	-4.645380	-172.939915
09216		-13.271453	-4.767938	-173.072604
09217		-13.217645	-4.879080	-173.197906
09218		-13.160411	-4.981822	-173.316258
09219		-13.093249	-5.077480	-173.429818
09220		-13.036540	-5.170909	-173.542133
09221		-13.003447	-5.257929	-173.654821
09222		-12.992267	-5.346267	-173.770671
09223		-12.994620	-5.427195	-173.889419
09224		-12.998891	-5.508730	-174.008927
09225		-13.005032	-5.578414	-174.125677
09226		-13.004291	-5.641622	-174.236272
09227		-12.989598	-5.697486	-174.340611
09228		-12.974640	-5.748788	-174.438301
09229		-12.963443	-5.793124	-174.533894
09230		-12.966409	-5.835839	-174.625866
09231		-12.989192	-5.872194	-174.717763
09232		-13.026378	-5.901108	-174.809877
09233		-13.061586	-5.919162	-174.902120
09234		-13.092475	-5.928623	-174.992038
09235		-13.114704	-5.929958	-175.075641
09236		-13.137900	-5.926827	-175.155426
09237		-13.160324	-5.920544	-175.231067
09238		-13.192836	-5.912328	-175.301674
09239		-13.237047	-5.899074	-175.369304
09240		-13.294098	-5.875355	-175.432095
09241		-13.357197	-5.838416	-175.492435
09242		-13.428352	-5.790896	-175.550509
09243		-13.509223	-5.731490	-175.603930
09244		-13.590181	-5.668360	-175.647602
09245		-13.654871	-5.592955	-175.679673
09246		-13.710388	-5.513656	-175.709429
09247		-13.768824	-5.423415	-175.732559
09248		-13.841363	-5.326293	-175.749342
09249		-13.939170	-5.219771	-175.760000
09250		-14.058233	-5.104385	-175.768952
09251		-14.187005	-4.977026	-175.773532
09252		-14.327515	-4.847730	-175.768048
09253		-14.466983	-4.716458	-175.760603
09254		-14.610115	-4.580853	-175.750330
09255		-14.750430	-4.441856	-175.728570
09256		-14.880722	-4.294658	-175.705748
09257		-15.009147	-4.131160	-175.692540
09258		-15.147258	-3.975492	-175.677017
09259		-15.329279	-3.819763	-175.662193
09260		-15.503913	-3.658213	-175.645695
09261		-15.708944	-3.498802	-175.630161
09262		-15.900283	-3.350908	-175.611717
09263		-16.105468	-3.214789	-175.589572
09264		-16.280525	-3.091049	-175.553168
09265		-16.420281	-2.986536	-175.499106
09266		-16.553485	-2.889123	-175.440253
09267		-16.674972	-2.800953	-175.378009
09268		-16.790505	-2.724739	-175.319262
09269		-16.932731	-2.656992	-175.266830
09270		-17.069173	-2.599250	-175.219203
09271		-17.220130	-2.545223	-175.180466
09272		-17.356514	-2.498330	-175.142460
09273		-17.466688	-2.450750	-175.106888
09274		-17.560395	-2.409150	-175.076294
09275		-17.625427	-2.367522	-175.048624
09276		-17.669384	-2.329469	-175.023347
09277		-17.692385	-2.296680	-175.005065
09278		-17.691958	-2.260415	-174.986396
09279		-17.674354	-2.218308	-174.964478
09280		-17.652436	-2.176670	-174.944925
09281		-17.641505	-2.138410	-174.922397
09282		-17.655654	-2.103887	-174.897620
09283		-17.686382	-2.070896	-174.872494
09284		-17.733449	-2.041423	-174.847225
09285		-17.785963	-2.010136	-174.819421
09286		-17.827231	-1.979359	-174.791855
09287		-17.859047	-1.939956	-174.768267
09288		-17.877959	-1.908259	-174.750463
09289		-17.914285	-1.884691	-174.737346
09290		-17.951719	-1.865403	-174.732662
09291		-17.990996	-1.848559	-174.738617
09292		-18.025775	-1.838202	-174.753523
09293		-18.049853	-1.837555	-174.775768
09294		-18.080856	-1.851442	-174.805575
09295		-18.097075	-1.874060	-174.845633
09296		-18.157604	-1.903079	-174.903407
09297		-18.269731	-1.950713	-174.969593
09298		-18.372459	-2.015591	-175.039247
09299		-18.466926	-2.095979	-175.116953
09300		-18.581180	-2.185104	-175.200035
09301		-18.682373	-2.271567	-175.296846
09302		-18.849537	-2.363650	-175.385036
09303		-18.943721	-2.435811	-175.471695
09304		-19.033878	-2.509284	-175.558603
09305		-19.141208	-2.585720	-175.640860
09306		-19.210474	-2.662367	-175.720898
09307		-19.282310	-2.739542	-175.796229
09308		-19.336102	-2.820280	-175.859862
09309		-19.344418	-2.883169	-175.914396
09310		-19.343351	-2.938164	-175.961914
09311		-19.306232	-2.977662	-176.000481
09312		-19.245986	-3.015070	-176.033652
09313		-19.192066	-3.060082	-176.058210
09314		-19.150793	-3.092115	-176.075896
09315		-19.066824	-3.130293	-176.083210
09316		-18.983498	-3.175596	-176.096256
09317		-18.941684	-3.218945	-176.109298
09318		-18.897842	-3.248133	-176.107761
09319		-18.815766	-3.273548	-176.088090
09320		-18.725772	-3.321748	-176.061712
09321		-18.634191	-3.354533	-176.037585
09322		-18.459984	-3.400672	-176.014105
09323		-18.306786	-3.447377	-175.988563
09324		-18.169752	-3.491045	-175.967679
09325		-18.059671	-3.533070	-175.952825
09326		-17.963663	-3.575375	-175.940940
09327		-17.879031	-3.605948	-175.939667
09328		-17.858801	-3.633790	-175.948495
09329		-17.905593	-3.666540	-175.965277
09330		-18.007483	-3.709342	-175.990271
09331		-18.110228	-3.764041	-176.017711
09332		-18.241602	-3.812010	-176.054268
09333		-18.387060	-3.837290	-176.098931
09334		-18.521906	-3.831925	-176.151360
09335		-18.654105	-3.814689	-176.188917
09336		-18.743435	-3.793194	-176.196801
09337		-18.808229	-3.785642	-176.193824
09338		-18.858086	-3.801517	-176.188364
09339		-18.901417	-3.828727	-176.177769
09340		-18.903436	-3.870682	-176.163859
09341		-18.921711	-3.891254	-176.155089
09342		-18.945537	-3.941931	-176.134906
09343		-18.907226	-3.971959	-176.129593
09344		-18.866491	-3.995059	-176.136349
09345		-18.806955	-3.999732	-176.146173
09346		-18.759778	-4.012849	-176.164261
09347		-18.711713	-4.001583	-176.188272
09348		-18.712550	-3.981408	-176.214577
09349		-18.729885	-3.960112	-176.243599
09350		-18.744551	-3.931650	-176.272771
09351		-18.763592	-3.892768	-176.302850
09352		-18.794492	-3.858005	-176.318994
09353		-18.831930	-3.820117	-176.331111
09354		-18.889005	-3.784672	-176.336319
09355		-18.933445	-3.753629	-176.337931
09356		-18.992711	-3.733089	-176.342631
09357		-19.048525	-3.723023	-176.348446
09358		-19.102332	-3.714884	-176.354746
09359		-19.139041	-3.713364	-176.360873
09360		-19.156993	-3.713519	-176.366046
09361		-19.148945	-3.715335	-176.367413
09362		-19.110875	-3.718729	-176.367524
09363		-19.059569	-3.720108	-176.369776
09364		-18.997830	-3.720960	-176.374206
09365		-18.929743	-3.717770	-176.382998
09366		-18.877124	-3.712730	-176.395726
09367		-18.832435	-3.704089	-176.411678
09368		-18.787180	-3.692229	-176.430687
09369		-18.743366	-3.676923	-176.453279
09370		-18.687844	-3.660272	-176.478426
09371		-18.624343	-3.641962	-176.508750
09372		-18.557804	-3.627163	-176.544070
09373		-18.477590	-3.621289	-176.578816
09374		-18.388303	-3.628754	-176.614873
09375		-18.290319	-3.634545	-176.655685
09376		-18.187339	-3.637450	-176.696850
09377		-18.080935	-3.664582	-176.745052
09378		-17.983759	-3.678738	-176.799036
09379		-17.873152	-3.709042	-176.855069
09380		-17.769160	-3.746650	-176.910917
09381		-17.612823	-3.799484	-176.968145
09382		-17.441237	-3.844717	-177.014919
09383		-17.248885	-3.893914	-177.076824
09384		-17.086875	-3.944990	-177.134233
09385		-16.941840	-4.000108	-177.195236
09386		-16.814460	-4.059439	-177.253525
09387		-16.706632	-4.112302	-177.314804
09388		-16.646821	-4.156769	-177.374553
09389		-16.604021	-4.202524	-177.425348
09390		-16.575551	-4.234727	-177.470959
09391		-16.575845	-4.267396	-177.517830
09392		-16.593776	-4.291492	-177.551361
09393		-16.615528	-4.304333	-177.582030
09394		-16.662829	-4.331163	-177.603960
09395		-16.703704	-4.342857	-177.618382
09396		-16.778809	-4.354325	-177.628453
09397		-16.875153	-4.365511	-177.627845
09398		-16.980632	-4.367791	-177.620566
09399		-17.085007	-4.380592	-177.606378
09400		-17.226104	-4.389190	-177.584310
09401		-17.357747	-4.404614	-177.557106
09402		-17.448786	-4.407907	-177.528254
09403		-17.509030	-4.413295	-177.493891
09404		-17.549892	-4.406881	-177.452360
09405		-17.564340	-4.402501	-177.411132
09406		-17.588777	-4.391901	-177.374205
09407		-17.600077	-4.385380	-177.337748
09408		-17.622348	-4.383463	-177.314596
09409		-17.652921	-4.386502	-177.293820
09410		-17.671184	-4.392701	-177.274871
09411		-17.677110	-4.401345	-177.250633
09412		-17.668867	-4.406625	-177.220384
09413		-17.657160	-4.398977	-177.187512
09414		-17.645314	-4.377666	-177.149533
09415		-17.650066	-4.348742	-177.112736
09416		-17.670801	-4.311706	-177.071244
09417		-17.681013	-4.265598	-177.023627
09418		-17.702983	-4.210558	-176.966814
09419		-17.717179	-4.144138	-176.895132
09420		-17.747402	-4.063612	-176.811035
09421		-17.750337	-3.958065	-176.707440
09422		-17.741885	-3.827969	-176.586034
09423		-17.707038	-3.685700	-176.463326
09424		-17.699600	-3.538005	-176.344742
09425		-17.717274	-3.412865	-176.229227
09426		-17.732260	-3.301993	-176.131727
09427		-17.808843	-3.197544	-176.040768
09428		-17.875093	-3.101794	-175.940582
09429		-17.915498	-2.993047	-175.822571
09430		-17.920310	-2.859446	-175.685220
09431		-17.907080	-2.697023	-175.529141
09432		-17.875546	-2.503368	-175.371151
09433		-17.819195	-2.295919	-175.237120
09434		-17.720170	-2.098904	-175.121445
09435		-17.665771	-1.917521	-175.016023
09436		-17.652616	-1.756940	-174.925544
09437		-17.652370	-1.614309	-174.833577
09438		-17.629503	-1.479953	-174.742702
09439		-17.594486	-1.337292	-174.642457
09440		-17.541349	-1.199519	-174.537908
09441		-17.466733	-1.039063	-174.418882
09442		-17.372437	-0.857390	-174.291254
09443		-17.255481	-0.650296	-174.160089
09444		-17.168877	-0.428427	-174.023741
09445		-17.087422	-0.203247	-173.887788
09446		-17.049488	0.065951	-173.734338
09447		-16.936610	0.298603	-173.586095
09448		-16.908710	0.550852	-173.449436
09449		-16.884868	0.810899	-173.293526
09450		-16.820474	1.073350	-173.124285
09451		-16.762679	1.344769	-172.939545
09452		-16.647032	1.630431	-172.735980
09453		-16.513500	1.908359	-172.526553
09454		-16.381711	2.182991	-172.297897
09455		-16.229114	2.488153	-172.056452
09456		-16.103033	2.770794	-171.830874
09457		-16.032007	3.058792	-171.608586
09458		-15.973187	3.348836	-171.370569
09459		-15.914778	3.618068	-171.118448
09460		-15.851351	3.897979	-170.855194
09461		-15.704986	4.175821	-170.587473
09462		-15.543932	4.433152	-170.323242
09463		-15.424263	4.689300	-170.067772
09464		-15.286991	4.922511	-169.828033
09465		-15.192970	5.141286	-169.611325
09466		-15.126998	5.350753	-169.425801
09467		-15.133625	5.527209	-169.276355
09468		-15.199834	5.698871	-169.155640
09469		-15.289193	5.841720	-169.067434
09470		-15.387944	5.971523	-169.004334
09471		-15.456991	6.074110	-168.971299
09472		-15.571539	6.148603	-168.959357
09473		-15.698756	6.204496	-168.964921
09474		-15.785792	6.232659	-168.979994
09475		-15.877269	6.232299	-169.007026
09476		-15.949008	6.203999	-169.040338
09477		-15.967215	6.168150	-169.069938
09478		-15.951645	6.111635	-169.099678
09479		-15.886992	6.059742	-169.117847
09480		-15.808709	6.013397	-169.131862
09481		-15.731131	5.978258	-169.141674
09482		-15.663718	5.958230	-169.150473
09483		-15.615013	5.952792	-169.160884
09484		-15.595041	5.952644	-169.170893
09485		-15.600580	5.960466	-169.179002
09486		-15.610304	5.969391	-169.182663
09487		-15.626014	5.980246	-169.186458
09488		-15.640210	5.983691	-169.190341
09489		-15.648164	5.993089	-169.183893
09490		-15.637687	5.991661	-169.173393
09491		-15.596700	6.002513	-169.143770
09492		-15.486811	6.015586	-169.109637
09493		-15.356212	6.052783	-169.073088
09494		-15.225672	6.106478	-169.032080
09495		-15.088665	6.190135	-168.978989
09496		-14.927456	6.279166	-168.913617
09497		-14.741878	6.378924	-168.834556
09498		-14.648658	6.463379	-168.738047
09499		-14.496687	6.565213	-168.622658
09500		-14.305931	6.692441	-168.482469
09501		-14.076234	6.828320	-168.341025
09502		-13.866316	6.975571	-168.195829
09503		-13.640094	7.134453	-168.067201
09504		-13.520147	7.285418	-167.963954
09505		-13.487761	7.431900	-167.881896
09506		-13.588414	7.548928	-167.839190
09507		-13.776960	7.641453	-167.838581
09508		-14.023561	7.724506	-167.856795
09509		-14.264216	7.803004	-167.894214
09510		-14.535035	7.875989	-167.943705
09511		-14.801781	7.937635	-167.993658
09512		-15.022461	7.988671	-168.043661
09513		-15.219380	8.038676	-168.094410
09514		-15.405931	8.096506	-168.146269
09515		-15.612666	8.150735	-168.193963
09516		-15.828947	8.208189	-168.234081
09517		-16.008134	8.251865	-168.257721
09518		-16.138728	8.292500	-168.262352
09519		-16.214093	8.329158	-168.262941
09520		-16.274982	8.357686	-168.254054
09521		-16.319000	8.383249	-168.247057
09522		-16.413182	8.384264	-168.236497
09523		-16.508281	8.388214	-168.219921
09524		-16.613536	8.387240	-168.193100
09525		-16.697822	8.382488	-168.160313
09526		-16.809507	8.374405	-168.121606
09527		-16.878822	8.369554	-168.067883
09528		-16.901821	8.370648	-168.015895
09529		-16.893741	8.375952	-167.959441
09530		-16.859383	8.378866	-167.899611
09531		-16.797048	8.377732	-167.836312
09532		-16.726382	8.364468	-167.770026
09533		-16.682008	8.342548	-167.700700
09534		-16.658092	8.310254	-167.630165
09535		-16.660083	8.270911	-167.553465
09536		-16.683419	8.221763	-167.474105
09537		-16.715742	8.171917	-167.390415
09538		-16.742506	8.120010	-167.307712
09539		-16.769300	8.067211	-167.220888
09540		-16.799318	8.014704	-167.134974
09541		-16.839669	7.960374	-167.053511
09542		-16.875373	7.907527	-166.973064
09543		-16.948030	7.858125	-166.901790
09544		-17.042743	7.809976	-166.836589
09545		-17.152276	7.766011	-166.780470
09546		-17.274159	7.726020	-166.731579
09547		-17.390942	7.690936	-166.688146
09548		-17.488576	7.661560	-166.649152
09549		-17.564797	7.634274	-166.611895
09550		-17.614318	7.618005	-166.580124
09551		-17.664721	7.603783	-166.553344
09552		-17.736222	7.600685	-166.531414
09553		-17.804368	7.600387	-166.515932
09554		-17.881934	7.601697	-166.503577
09555		-17.973505	7.606916	-166.499861
09556		-18.060112	7.611116	-166.497778
09557		-18.144518	7.610930	-166.500858
09558		-18.224929	7.615467	-166.499900
09559		-18.309756	7.618902	-166.496626
09560		-18.390856	7.620221	-166.496643
09561		-18.455235	7.623281	-166.494390
09562		-18.512723	7.629651	-166.491143
09563		-18.570975	7.642344	-166.487376
09564		-18.631881	7.656489	-166.483402
09565		-18.699255	7.674910	-166.475160
09566		-18.783561	7.694844	-166.475897
09567		-18.873486	7.721183	-166.477238
09568		-18.958409	7.755028	-166.481504
09569		-19.032390	7.795331	-166.490008
09570		-19.104076	7.838851	-166.504580
09571		-19.172946	7.892773	-166.526158
09572		-19.243241	7.948124	-166.556947
09573		-19.320208	8.008596	-166.595974
09574		-19.388116	8.067611	-166.638052
09575		-19.439599	8.127299	-166.682988
09576		-19.471783	8.180220	-166.731674
09577		-19.484600	8.231241	-166.780882
09578		-19.490385	8.277643	-166.829839
09579		-19.494891	8.321939	-166.878720
09580		-19.503998	8.361085	-166.924618
09581		-19.508295	8.399670	-166.963338
09582		-19.509630	8.427265	-166.995367
09583		-19.524592	8.452010	-167.024664
09584		-19.550987	8.473999	-167.048677
09585		-19.588957	8.490003	-167.066157
09586		-19.634276	8.503316	-167.077762
09587		-19.673797	8.512509	-167.082056
09588		-19.714866	8.517618	-167.084627
09589		-19.760712	8.517373	-167.084475
09590		-19.821386	8.511278	-167.082760
09591		-19.881712	8.517551	-167.076698
09592		-19.911146	8.512548	-167.064152
09593		-19.930316	8.499587	-167.040814
09594		-19.906236	8.486608	-167.008833
09595		-19.856467	8.459286	-166.975441
09596		-19.862211	8.427339	-166.937416
09597		-19.844468	8.398105	-166.898972
09598		-19.838008	8.348024	-166.867522
09599		-19.811368	8.298608	-166.839511
09600		-19.767417	8.238779	-166.813935
09601		-19.687204	8.164972	-166.813786
09602		-19.735644	8.075378	-166.809367
09603		-19.738211	7.984284	-166.799717
09604		-19.668657	7.899088	-166.803667
09605		-19.636461	7.798190	-166.821081
09606		-19.594183	7.701889	-166.859149
09607		-19.551874	7.586415	-166.908617
09608		-19.541499	7.462813	-166.970061
09609		-19.535087	7.321235	-167.048672
09610		-19.546105	7.154835	-167.136539
09611		-19.602157	6.971664	-167.233165
09612		-19.671519	6.778549	-167.335473
09613		-19.723373	6.571590	-167.438780
09614		-19.776236	6.357854	-167.542507
09615		-19.805037	6.135270	-167.647043
09616		-19.811866	5.889429	-167.749360
09617		-19.745493	5.615982	-167.860948
09618		-19.664351	5.325788	-167.983493
09619		-19.537988	5.005687	-168.114716
09620		-19.386371	4.664131	-168.248087
09621		-19.224539	4.293044	-168.390033
09622		-19.096157	3.914209	-168.538025
09623		-18.947432	3.521690	-168.696074
09624		-18.805876	3.141889	-168.845984
09625		-18.610399	2.734043	-168.975265
09626		-18.367577	2.310606	-169.119119
09627		-18.093127	1.873512	-169.265306
09628		-17.806612	1.456096	-169.407918
09629		-17.571176	1.044328	-169.580071
09630		-17.408438	0.642198	-169.757396
09631		-17.288076	0.273278	-169.934939
09632		-17.196632	-0.074165	-170.105529
09633		-17.141802	-0.391188	-170.257077
09634		-17.027701	-0.655157	-170.401038
09635		-16.874716	-0.875610	-170.538042
09636		-16.735378	-1.070016	-170.672577
09637		-16.619290	-1.238051	-170.796719
09638		-16.511084	-1.389268	-170.905024
09639		-16.421664	-1.521626	-171.002132
09640		-16.337308	-1.644025	-171.081678
09641		-16.236637	-1.755475	-171.147034
09642		-16.146617	-1.854971	-171.211922
09643		-16.080129	-1.945362	-171.273145
09644		-16.038639	-2.010458	-171.330238
09645		-15.991001	-2.046816	-171.375941
09646		-15.928956	-2.068351	-171.415007
09647		-15.881357	-2.090865	-171.448867
09648		-15.845165	-2.119797	-171.480156
09649		-15.828098	-2.152226	-171.508666
09650		-15.822323	-2.182609	-171.540830
09651		-15.819908	-2.214771	-171.573777
09652		-15.804497	-2.242389	-171.611162
09653		-15.777057	-2.262298	-171.648849
09654		-15.738249	-2.283047	-171.687070
09655		-15.697945	-2.302990	-171.731950
09656		-15.663446	-2.327628	-171.776444
09657		-15.639204	-2.363040	-171.822562
09658		-15.610539	-2.406088	-171.868278
09659		-15.575167	-2.452142	-171.919270
09660		-15.532444	-2.496396	-171.972461
09661		-15.496883	-2.539950	-172.030023
09662		-15.469648	-2.579315	-172.084500
09663		-15.448538	-2.623834	-172.148338
09664		-15.450983	-2.658405	-172.209166
09665		-15.488950	-2.697034	-172.270303
09666		-15.478894	-2.746463	-172.315823
09667		-15.346775	-2.807996	-172.356334
09668		-15.291782	-2.862911	-172.428810
09669		-15.269648	-2.922520	-172.513649
09670		-15.239413	-2.977160	-172.598554
09671		-15.220871	-3.018602	-172.683456
09672		-15.223276	-3.054959	-172.766320
09673		-15.209115	-3.082216	-172.840702
09674		-15.189244	-3.099203	-172.906581
09675		-15.174498	-3.112070	-172.959137
09676		-15.158729	-3.117884	-173.002374
09677		-15.150913	-3.112288	-173.045241
09678		-15.145506	-3.098472	-173.082995
09679		-15.149798	-3.077496	-173.114602
09680		-15.163699	-3.051643	-173.145944
09681		-15.194362	-3.019987	-173.176140
09682		-15.228503	-2.987870	-173.209395
09683		-15.283248	-2.951554	-173.243569
09684		-15.328477	-2.908379	-173.286596
09685		-15.374225	-2.856502	-173.333062
09686		-15.430706	-2.808200	-173.384250
09687		-15.481056	-2.755469	-173.439790
09688		-15.550166	-2.703128	-173.501923
09689		-15.642513	-2.647479	-173.567507
09690		-15.743235	-2.585189	-173.633449
09691		-15.839632	-2.513493	-173.707468
09692		-15.970084	-2.440206	-173.783657
09693		-16.082479	-2.361125	-173.860610
09694		-16.205546	-2.281422	-173.931321
09695		-16.304412	-2.200370	-174.006007
09696		-16.420087	-2.114220	-174.071243
09697		-16.516232	-2.034685	-174.126564
09698		-16.613139	-1.948496	-174.171666
09699		-16.695056	-1.863864	-174.214229
09700		-16.770153	-1.774184	-174.250315
09701		-16.851302	-1.680208	-174.271794
09702		-16.940670	-1.577965	-174.290781
09703		-17.036294	-1.472174	-174.293190
09704		-17.117940	-1.372632	-174.280557
09705		-17.177740	-1.281400	-174.259511
09706		-17.256477	-1.194020	-174.225255
09707		-17.321260	-1.123935	-174.182975
09708		-17.430273	-1.061472	-174.136657
09709		-17.539874	-1.011258	-174.087255
09710		-17.677495	-0.964657	-174.038294
09711		-17.795303	-0.924763	-173.987393
09712		-17.917477	-0.890077	-173.941523
09713		-18.030732	-0.857900	-173.899544
09714		-18.121468	-0.824043	-173.867429
09715		-18.208795	-0.796291	-173.841947
09716		-18.269784	-0.773932	-173.819003
09717		-18.310961	-0.751000	-173.799109
09718		-18.334369	-0.726784	-173.781408
09719		-18.343031	-0.702391	-173.768620
09720		-18.355109	-0.672812	-173.757456
09721		-18.368169	-0.639975	-173.749409
09722		-18.372349	-0.606840	-173.747583
09723		-18.385984	-0.586792	-173.751680
09724		-18.415337	-0.580149	-173.759053
09725		-18.460529	-0.588699	-173.773731
09726		-18.517827	-0.601515	-173.787640
09727		-18.577228	-0.618040	-173.804375
09728		-18.653723	-0.633858	-173.820792
09729		-18.724693	-0.662402	-173.835378
09730		-18.822255	-0.718992	-173.838815
09731		-18.904679	-0.771571	-173.841139
09732		-18.947483	-0.838207	-173.845284
09733		-18.984316	-0.883548	-173.862347
09734		-19.121653	-0.918368	-173.873946
09735		-19.186048	-0.940638	-173.887330
09736		-19.262257	-0.959697	-173.920457
09737		-19.408178	-0.982447	-173.964549
09738		-19.539314	-0.989195	-174.011565
09739		-19.649393	-1.013720	-174.072908
09740		-19.798478	-1.047324	-174.136828
09741		-19.923946	-1.077291	-174.183337
09742		-19.995638	-1.089343	-174.218821
09743		-20.003189	-1.115755	-174.246196
09744		-19.971874	-1.141292	-174.264660
09745		-19.905195	-1.175942	-174.275879
09746		-19.794195	-1.207176	-174.275446
09747		-19.652787	-1.240589	-174.276875
09748		-19.502359	-1.268894	-174.271770
09749		-19.341834	-1.312543	-174.272223
09750		-19.178152	-1.368611	-174.282738
09751		-19.122897	-1.417337	-174.287429
09752		-18.981120	-1.448903	-174.275672
09753		-18.867330	-1.479700	-174.260483
09754		-18.801364	-1.518414	-174.250070
09755		-18.768614	-1.564529	-174.250605
09756		-18.766399	-1.617479	-174.255379
09757		-18.775971	-1.674373	-174.270592
09758		-18.823017	-1.738807	-174.297001
09759		-18.909987	-1.819710	-174.326417
09760		-19.025241	-1.903364	-174.357000
09761		-19.169310	-1.981083	-174.392299
09762		-19.304862	-2.037532	-174.422340
09763		-19.391372	-2.074955	-174.432026
09764		-19.406974	-2.085035	-174.430933
09765		-19.401517	-2.074389	-174.425914
09766		-19.406678	-2.063299	-174.420779
09767		-19.428749	-2.059674	-174.412817
09768		-19.425455	-2.058765	-174.396180
09769		-19.414072	-2.057702	-174.370759
09770		-19.357182	-2.059375	-174.340769
09771		-19.249790	-2.058845	-174.307170
09772		-19.115866	-2.056868	-174.278372
09773		-18.980356	-2.063150	-174.251658
09774		-18.850899	-2.066206	-174.228858
09775		-18.727467	-2.070206	-174.209361
09776		-18.629387	-2.070129	-174.189311
09777		-18.534317	-2.066422	-174.172501
09778		-18.462209	-2.057935	-174.162192
09779		-18.409325	-2.046942	-174.153845
09780		-18.377061	-2.032662	-174.144205
09781		-18.343462	-2.010055	-174.134904
09782		-18.327170	-1.991905	-174.124506
09783		-18.307023	-1.963313	-174.118493
09784		-18.291613	-1.933025	-174.110205
09785		-18.283081	-1.908287	-174.102002
09786		-18.280348	-1.887766	-174.091357
09787		-18.288167	-1.872054	-174.079890
09788		-18.298846	-1.856953	-174.065819
09789		-18.304997	-1.840017	-174.050446
09790		-18.333116	-1.824155	-174.038169
09791		-18.365322	-1.813248	-174.025511
09792		-18.399239	-1.796041	-174.018836
09793		-18.440519	-1.777699	-174.016558
09794		-18.476069	-1.764976	-174.015437
09795		-18.507631	-1.753906	-174.017019
09796		-18.538571	-1.742282	-174.018315
09797		-18.542131	-1.732450	-174.023433
09798		-18.553401	-1.719583	-174.028179
09799		-18.555667	-1.706344	-174.028856
09800		-18.556310	-1.691909	-174.030839
09801		-18.554648	-1.674429	-174.032954
09802		-18.565714	-1.659182	-174.034790
09803		-18.572155	-1.640114	-174.035534
09804		-18.581248	-1.616020	-174.037441
09805		-18.589725	-1.590068	-174.035095
09806		-18.593219	-1.560496	-174.034537
09807		-18.606353	-1.526869	-174.026566
09808		-18.621773	-1.490385	-174.020302
09809		-18.649750	-1.455098	-174.011754
09810		-18.683009	-1.421544	-174.004983
09811		-18.707777	-1.386872	-174.004923
09812		-18.757841	-1.363836	-174.007439
09813		-18.799392	-1.350479	-174.013092
09814		-18.829038	-1.343035	-174.021477
09815		-18.835357	-1.334474	-174.032179
09816		-18.823602	-1.328749	-174.037304
09817		-18.782333	-1.325389	-174.039669
09818		-18.721529	-1.324377	-174.038798
09819		-18.630172	-1.313883	-174.037206
09820		-18.520593	-1.303181	-174.038632
09821		-18.418219	-1.293853	-174.039818
09822		-18.331387	-1.274863	-174.048078
09823		-18.250903	-1.274724	-174.055381
09824		-18.172541	-1.261079	-174.061522
09825		-18.103246	-1.244925	-174.062813
09826		-18.010030	-1.243599	-174.066008
09827		-17.927316	-1.216646	-174.069208
09828		-17.837076	-1.192929	-174.061405
09829		-17.746404	-1.170489	-174.049009
09830		-17.643737	-1.140271	-174.021342
09831		-17.552177	-1.109421	-173.980451
09832		-17.485616	-1.070496	-173.931128
09833		-17.443536	-1.012202	-173.875572
09834		-17.440933	-0.960845	-173.812928
09835		-17.458397	-0.915170	-173.750844
09836		-17.498942	-0.874372	-173.684934
09837		-17.551929	-0.841217	-173.625289
09838		-17.625607	-0.814960	-173.567402
09839		-17.694117	-0.805531	-173.515783
09840		-17.753285	-0.808035	-173.472701
09841		-17.801397	-0.818571	-173.430478
09842		-17.824037	-0.834419	-173.394544
09843		-17.830606	-0.849799	-173.357696
09844		-17.814963	-0.859482	-173.325319
09845		-17.801757	-0.864699	-173.293914
09846		-17.792053	-0.863550	-173.257071
09847		-17.780974	-0.866519	-173.218915
09848		-17.772809	-0.860306	-173.184655
09849		-17.780078	-0.851308	-173.150355
09850		-17.777681	-0.847654	-173.120110
09851		-17.798402	-0.850628	-173.094029
09852		-17.804621	-0.847838	-173.066555
09853		-17.821690	-0.851553	-173.041371
09854		-17.840799	-0.847432	-173.021478
09855		-17.856549	-0.844473	-172.998489
09856		-17.869142	-0.836226	-172.977472
09857		-17.873205	-0.829117	-172.961760
09858		-17.895560	-0.808993	-172.941746
09859		-17.896689	-0.792716	-172.922483
09860		-17.892246	-0.774289	-172.902359
09861		-17.904936	-0.750990	-172.884487
09862		-17.903775	-0.730681	-172.862378
09863		-17.910643	-0.706427	-172.837170
09864		-17.909960	-0.671492	-172.805954
09865		-17.928290	-0.627984	-172.767234
09866		-17.915526	-0.570346	-172.718742
09867		-17.903347	-0.493855	-172.660777
09868		-17.884319	-0.403589	-172.590414
09869		-17.865887	-0.298061	-172.507029
09870		-17.848951	-0.187037	-172.415990
09871		-17.838156	-0.062187	-172.307775
09872		-17.835734	0.054138	-172.199184
09873		-17.845082	0.186134	-172.075978
09874		-17.835952	0.298932	-171.948813
09875		-17.829490	0.402010	-171.821970
09876		-17.781597	0.490143	-171.694788
09877		-17.708466	0.573058	-171.577949
09878		-17.640585	0.640457	-171.460972
09879		-17.546172	0.693162	-171.353260
09880		-17.489133	0.745082	-171.250700
09881		-17.431443	0.795521	-171.150642
09882		-17.398827	0.860985	-171.051806
09883		-17.394858	0.927552	-170.963682
09884		-17.400545	1.003515	-170.888642
09885		-17.382668	1.076604	-170.838498
09886		-17.382909	1.142275	-170.799949
09887		-17.400315	1.211140	-170.763695
09888		-17.424211	1.265446	-170.729254
09889		-17.453603	1.316141	-170.692456
09890		-17.492937	1.368347	-170.651452
09891		-17.490769	1.420497	-170.604668
09892		-17.495294	1.478130	-170.550272
09893		-17.478398	1.540590	-170.491208
09894		-17.459692	1.615422	-170.429725
09895		-17.452951	1.688587	-170.368898
09896		-17.425738	1.760459	-170.309202
09897		-17.426300	1.837615	-170.253241
09898		-17.421231	1.914469	-170.198045
09899		-17.428965	1.996091	-170.136751
09900		-17.418817	2.079922	-170.070399
09901		-17.408971	2.175670	-170.002838
09902		-17.417039	2.277744	-169.931416
09903		-17.419636	2.379711	-169.854775
09904		-17.457464	2.511396	-169.748038
09905		-17.428633	2.654297	-169.622020
09906		-17.297884	2.801808	-169.495504
09907		-17.145644	2.934247	-169.390615
09908		-17.024862	3.074287	-169.313299
09909		-16.981031	3.203478	-169.237274
09910		-16.889595	3.349851	-169.146430
09911		-16.832636	3.490416	-169.060962
09912		-16.792276	3.637458	-168.969975
09913		-16.755216	3.781665	-168.876495
09914		-16.709556	3.924746	-168.784817
09915		-16.674981	4.070274	-168.687910
09916		-16.655825	4.217428	-168.575162
09917		-16.641999	4.371205	-168.443282
09918		-16.598765	4.534587	-168.290064
09919		-16.538349	4.717037	-168.107887
09920		-16.413890	4.904334	-167.904956
09921		-16.285078	5.075509	-167.698112
09922		-16.213258	5.294729	-167.472487
09923		-16.084672	5.486007	-167.255144
09924		-15.976638	5.692793	-167.038082
09925		-15.883950	5.893319	-166.837489
09926		-15.811660	6.079721	-166.662483
09927		-15.816081	6.275892	-166.515450
09928		-15.836246	6.449809	-166.398350
09929		-15.927934	6.628682	-166.306751
09930		-15.977600	6.798700	-166.240702
09931		-16.112943	6.949581	-166.204745
09932		-16.250710	7.090060	-166.196225
09933		-16.429064	7.211092	-166.205230
09934		-16.590544	7.307938	-166.229862
09935		-16.747909	7.401266	-166.252651
09936		-16.889590	7.454011	-166.286366
09937		-16.991535	7.493038	-166.318832
09938		-17.049080	7.513346	-166.355483
09939		-17.094908	7.536958	-166.389382
09940		-17.098470	7.548112	-166.413606
09941		-17.102138	7.552124	-166.437860
09942		-17.064599	7.568053	-166.450491
09943		-17.034937	7.566523	-166.465479
09944		-17.015007	7.576105	-166.478023
09945		-17.003029	7.582467	-166.485956
09946		-17.011511	7.587669	-166.496337
09947		-17.032997	7.595948	-166.504092
09948		-17.060469	7.612335	-166.508693
09949		-17.090436	7.627400	-166.508607
09950		-17.113508	7.652855	-166.510779
09951		-17.124838	7.678393	-166.504713
09952		-17.121011	7.703207	-166.497273
09953		-17.098829	7.737362	-166.486808
09954		-17.070185	7.772333	-166.478507
09955		-17.051600	7.812603	-166.463085
09956		-17.028024	7.851280	-166.447396
09957		-16.984685	7.892939	-166.425900
09958		-16.937320	7.954792	-166.398727
09959		-16.869593	8.024098	-166.375928
09960		-16.740242	8.136672	-166.343926
09961		-16.486518	8.240072	-166.325300
09962		-16.212745	8.376496	-166.318029
09963		-15.895648	8.504068	-166.304846
09964		-15.589639	8.631752	-166.288803
09965		-15.300725	8.762060	-166.273920
09966		-15.039761	8.888056	-166.267253
09967		-14.891817	8.980250	-166.266812
09968		-14.870073	9.038705	-166.265504
09969		-14.837907	9.080980	-166.270580
09970		-14.769003	9.137392	-166.272248
09971		-14.690871	9.200636	-166.267851
09972		-14.662368	9.248948	-166.265923
09973		-14.596934	9.310424	-166.258224
09974		-14.536600	9.379352	-166.256520
09975		-14.539841	9.445997	-166.251674
09976		-14.559210	9.506194	-166.234460
09977		-14.564792	9.564976	-166.208437
09978		-14.560129	9.613348	-166.168917
09979		-14.543098	9.657960	-166.130077
09980		-14.499133	9.697361	-166.087634
09981		-14.442845	9.736985	-166.041388
09982		-14.377422	9.780207	-166.003669
09983		-14.321218	9.827215	-165.972083
09984		-14.300493	9.877033	-165.953207
09985		-14.324726	9.916287	-165.934637
09986		-14.345815	9.960353	-165.919635
09987		-14.376848	10.004845	-165.905966
09988		-14.423600	10.055930	-165.893115
09989		-14.465720	10.102851	-165.874900
09990		-14.502575	10.151015	-165.852601
09991		-14.521407	10.203821	-165.824436
09992		-14.525782	10.256637	-165.799077
09993		-14.532323	10.315327	-165.776713
09994		-14.558145	10.368714	-165.759999
09995		-14.607742	10.418056	-165.745933
09996		-14.678725	10.465956	-165.737344
09997		-14.765166	10.520924	-165.731433
09998		-14.871947	10.573107	-165.731197
09999		-14.990101	10.628855	-165.735612
10000		-15.100566	10.677410	-165.737392
10001		-15.218250	10.725925	-165.739790
10002		-15.334920	10.770116	-165.745065
10003		-15.463002	10.808587	-165.751915
10004		-15.576313	10.842319	-165.762755
10005		-15.654231	10.871047	-165.772343
10006		-15.715861	10.897417	-165.782284
10007		-15.769433	10.926878	-165.796361
10008		-15.841844	10.947389	-165.811412
10009		-15.937343	10.963549	-165.830570
10010		-16.054173	10.970761	-165.854215
10011		-16.195217	10.965416	-165.880610
10012		-16.342531	10.949694	-165.898800
10013		-16.444007	10.952556	-165.904239
10014		-16.455204	10.968334	-165.891081
10015		-16.413582	10.996033	-165.878699
10016		-16.420867	11.009848	-165.864799
10017		-16.412989	11.035600	-165.838913
10018		-16.397182	11.051654	-165.816691
10019		-16.416480	11.075359	-165.803696
10020		-16.472587	11.088756	-165.788954
10021		-16.510438	11.103655	-165.766817
10022		-16.531018	11.108825	-165.747380
10023		-16.549257	11.111547	-165.728068
10024		-16.548891	11.113508	-165.702921
10025		-16.523239	11.119301	-165.677093
10026		-16.493174	11.121244	-165.651978
10027		-16.471653	11.121702	-165.625095
10028		-16.453958	11.125566	-165.595206
10029		-16.443083	11.125348	-165.569018
10030		-16.446626	11.120325	-165.545411
10031		-16.454089	11.115166	-165.518285
10032		-16.454998	11.107137	-165.489671
10033		-16.456719	11.093337	-165.459771
10034		-16.461885	11.074479	-165.430435
10035		-16.465513	11.057412	-165.397349
10036		-16.469396	11.038958	-165.364288
10037		-16.474054	11.019906	-165.331571
10038		-16.481339	11.000169	-165.298484
10039		-16.497200	10.979319	-165.267605
10040		-16.519185	10.959211	-165.233802
10041		-16.552943	10.934351	-165.202726
10042		-16.589572	10.906040	-165.169070
10043		-16.621428	10.875645	-165.136003
10044		-16.649231	10.842052	-165.100977
10045		-16.668932	10.806976	-165.064544
10046		-16.680619	10.771546	-165.023079
10047		-16.687321	10.732029	-164.980825
10048		-16.690830	10.688424	-164.931115
10049		-16.695865	10.640333	-164.874749
10050		-16.703955	10.583011	-164.812127
10051		-16.710808	10.520663	-164.742006
10052		-16.710240	10.448641	-164.664935
10053		-16.702304	10.368545	-164.582037
10054		-16.694123	10.280930	-164.491002
10055		-16.675850	10.180912	-164.395787
10056		-16.651939	10.071477	-164.294739
10057		-16.643420	9.948135	-164.193193
10058		-16.659237	9.813707	-164.091170
10059		-16.679483	9.673531	-163.993771
10060		-16.710936	9.523784	-163.903729
10061		-16.738893	9.377607	-163.815705
10062		-16.753152	9.219136	-163.731212
10063		-16.750539	9.045510	-163.647797
10064		-16.709634	8.850860	-163.572573
10065		-16.669772	8.645561	-163.495262
10066		-16.593696	8.419375	-163.428666
10067		-16.491698	8.176868	-163.368799
10068		-16.440400	7.912802	-163.322743
10069		-16.374243	7.595036	-163.314634
10070		-16.368148	7.304432	-163.305922
10071		-16.277705	6.992982	-163.288163
10072		-16.196611	6.670257	-163.275607
10073		-16.126650	6.348975	-163.271987
10074		-16.043015	6.025446	-163.273186
10075		-16.008040	5.710901	-163.301768
10076		-15.982980	5.358814	-163.351887
10077		-15.984678	4.983821	-163.422313
10078		-15.930914	4.574569	-163.505526
10079		-15.905126	4.150554	-163.597940
10080		-15.856659	3.723720	-163.695221
10081		-15.776872	3.289464	-163.790621
10082		-15.653129	2.851618	-163.885134
10083		-15.469906	2.408544	-163.976888
10084		-15.258225	1.956227	-164.071697
10085		-15.032204	1.510544	-164.167773
10086		-14.785072	1.075708	-164.271567
10087		-14.543962	0.659190	-164.386092
10088		-14.326406	0.266948	-164.493524
10089		-14.092248	-0.124606	-164.603276
10090		-13.882052	-0.499279	-164.726423
10091		-13.696432	-0.862644	-164.854769
10092		-13.541000	-1.202375	-164.991178
10093		-13.406258	-1.501640	-165.141457
10094		-13.303133	-1.755684	-165.304056
10095		-13.224273	-1.967307	-165.473930
10096		-13.160508	-2.136961	-165.650146
10097		-13.110949	-2.280627	-165.838943
10098		-13.100908	-2.400145	-166.034418
10099		-13.161590	-2.500228	-166.235013
10100		-13.267187	-2.584849	-166.442722
10101		-13.417283	-2.664257	-166.650418
10102		-13.560079	-2.727085	-166.853245
10103		-13.656482	-2.783203	-167.048038
10104		-13.731841	-2.826667	-167.233120
10105		-13.790031	-2.872962	-167.403114
10106		-13.825777	-2.918096	-167.556982
10107		-13.841099	-2.968437	-167.703054
10108		-13.844595	-3.024564	-167.841034
10109		-13.855862	-3.083372	-167.977600
10110		-13.878224	-3.146777	-168.114570
10111		-13.901783	-3.210573	-168.245799
10112		-13.898527	-3.273268	-168.373170
10113		-13.888052	-3.332387	-168.500117
10114		-13.875520	-3.392029	-168.623997
10115		-13.866257	-3.452648	-168.742156
10116		-13.857093	-3.512582	-168.858576
10117		-13.838125	-3.568091	-168.972240
10118		-13.823378	-3.619149	-169.083752
10119		-13.800815	-3.661026	-169.188979
10120		-13.765256	-3.703129	-169.289426
10121		-13.728592	-3.741007	-169.384496
10122		-13.696014	-3.773172	-169.474352
10123		-13.675487	-3.802477	-169.563655
10124		-13.668621	-3.832026	-169.652148
10125		-13.677668	-3.861663	-169.735552
10126		-13.686584	-3.884624	-169.815709
10127		-13.699266	-3.891332	-169.896609
10128		-13.692621	-3.897759	-169.976643
10129		-13.693733	-3.896304	-170.048138
10130		-13.682296	-3.892435	-170.109165
10131		-13.690893	-3.885579	-170.169735
10132		-13.710896	-3.873194	-170.236222
10133		-13.745222	-3.856244	-170.306642
10134		-13.767236	-3.833014	-170.377571
10135		-13.796050	-3.800501	-170.453096
10136		-13.837467	-3.767315	-170.534595
10137		-13.901554	-3.734264	-170.619813
10138		-13.975759	-3.698543	-170.706818
10139		-14.029887	-3.664671	-170.797135
10140		-14.070357	-3.634841	-170.889098
10141		-14.100839	-3.613056	-170.982814
10142		-14.119705	-3.599134	-171.079846
10143		-14.134097	-3.583565	-171.180676
10144		-14.144571	-3.578177	-171.280416
10145		-14.165289	-3.575096	-171.386237
10146		-14.185935	-3.576799	-171.492660
10147		-14.212279	-3.578221	-171.592674
10148		-14.225039	-3.581716	-171.695654
10149		-14.248124	-3.584821	-171.797832
10150		-14.285707	-3.586131	-171.906132
10151		-14.350120	-3.577756	-172.014285
10152		-14.416862	-3.567310	-172.127212
10153		-14.495323	-3.548160	-172.236924
10154		-14.562233	-3.525582	-172.337901
10155		-14.634027	-3.500807	-172.440538
10156		-14.695030	-3.470845	-172.538153
10157		-14.737652	-3.435231	-172.629438
10158		-14.780026	-3.398279	-172.719883
10159		-14.841728	-3.356853	-172.809710
10160		-14.903735	-3.320737	-172.896173
10161		-14.973665	-3.280706	-172.980994
10162		-15.026008	-3.234839	-173.065448
10163		-15.101881	-3.189468	-173.154107
10164		-15.168951	-3.138518	-173.237827
10165		-15.244205	-3.089138	-173.324585
10166		-15.326606	-3.033834	-173.415054
10167		-15.402437	-2.973439	-173.501388
10168		-15.477606	-2.909158	-173.591098
10169		-15.561114	-2.845287	-173.682031
10170		-15.670294	-2.774123	-173.769404
10171		-15.763531	-2.699625	-173.856655
10172		-15.879125	-2.619068	-173.947703
10173		-16.016604	-2.532333	-174.032788
10174		-16.130404	-2.437635	-174.119596
10175		-16.266050	-2.342739	-174.209001
10176		-16.383355	-2.253892	-174.289014
10177		-16.510971	-2.171016	-174.358498
10178		-16.600495	-2.092332	-174.414175
10179		-16.682994	-2.024234	-174.452385
10180		-16.734082	-1.958589	-174.470322
10181		-16.759516	-1.902763	-174.467869
10182		-16.783029	-1.846204	-174.453366
10183		-16.842668	-1.799093	-174.428672
10184		-16.916664	-1.760093	-174.401786
10185		-17.035940	-1.720570	-174.377104
10186		-17.167575	-1.684114	-174.348742
10187		-17.280474	-1.649901	-174.321068
10188		-17.385282	-1.612077	-174.293699
10189		-17.460308	-1.575557	-174.270296
10190		-17.534699	-1.537393	-174.255094
10191		-17.604433	-1.496852	-174.242702
10192		-17.662463	-1.454042	-174.236634
10193		-17.701405	-1.411248	-174.235385
10194		-17.744570	-1.375129	-174.233664
10195		-17.777153	-1.342091	-174.230770
10196		-17.801832	-1.311466	-174.227454
10197		-17.821476	-1.281017	-174.222279
10198		-17.840909	-1.245945	-174.217727
10199		-17.867547	-1.213709	-174.214595
10200		-17.900853	-1.176677	-174.210776
10201		-17.935550	-1.138471	-174.209818
10202		-17.983299	-1.100932	-174.210952
10203		-18.024066	-1.063496	-174.215300
10204		-18.057010	-1.030462	-174.218992
10205		-18.085321	-0.998355	-174.227057
10206		-18.107193	-0.966585	-174.235757
10207		-18.125706	-0.942074	-174.244590
10208		-18.146621	-0.923929	-174.256047
10209		-18.179551	-0.913224	-174.270931
10210		-18.219767	-0.912237	-174.288624
10211		-18.295481	-0.920789	-174.306003
10212		-18.403974	-0.940860	-174.322537
10213		-18.526385	-0.966068	-174.342752
10214		-18.652428	-0.995099	-174.370598
10215		-18.784975	-1.039671	-174.403713
10216		-18.919532	-1.118095	-174.433181
10217		-19.000414	-1.214748	-174.488685
10218		-19.200855	-1.308942	-174.550388
10219		-19.401121	-1.383818	-174.606171
10220		-19.598447	-1.451187	-174.667457
10221		-19.753446	-1.502578	-174.737449
10222		-19.903061	-1.558002	-174.805980
10223		-20.036339	-1.605770	-174.869622
10224		-20.165978	-1.654157	-174.916912
10225		-20.240135	-1.700016	-174.947657
10226		-20.289246	-1.741659	-174.962526
10227		-20.330051	-1.776688	-174.967589
10228		-20.321089	-1.813458	-174.979456
10229		-20.376120	-1.834684	-174.994256
10230		-20.361776	-1.863094	-175.005518
10231		-20.346954	-1.902975	-175.021803
10232		-20.310750	-1.956309	-175.044162
10233		-20.271419	-2.002962	-175.068809
10234		-20.243576	-2.069368	-175.079406
10235		-20.186202	-2.126996	-175.085592
10236		-20.106184	-2.194543	-175.086540
10237		-20.068328	-2.264624	-175.088100
10238		-19.998360	-2.332639	-175.089379
10239		-19.935079	-2.404805	-175.094555
10240		-19.847991	-2.482984	-175.108918
10241		-19.816315	-2.555817	-175.131045
10242		-19.814744	-2.633703	-175.153294
10243		-19.883545	-2.717651	-175.179140
10244		-19.960424	-2.800295	-175.208517
10245		-20.072045	-2.877091	-175.227174
10246		-20.158258	-2.939844	-175.238573
10247		-20.228940	-2.997332	-175.242271
10248		-20.314117	-3.041269	-175.225953
10249		-20.325018	-3.067851	-175.191221
10250		-20.273823	-3.068778	-175.178117
10251		-20.275445	-3.077328	-175.169032
10252		-20.248030	-3.084609	-175.161385
10253		-20.221077	-3.086162	-175.151617
10254		-20.187029	-3.088144	-175.135092
10255		-20.149682	-3.082418	-175.112694
10256		-20.093714	-3.065203	-175.093660
10257		-20.025982	-3.048971	-175.072187
10258		-19.961731	-3.027840	-175.045206
10259		-19.881040	-3.014444	-175.016396
10260		-19.839458	-3.003117	-174.989626
10261		-19.788050	-2.991244	-174.965797
10262		-19.750471	-2.980076	-174.944196
10263		-19.693215	-2.968177	-174.928566
10264		-19.649550	-2.958816	-174.913736
10265		-19.603157	-2.953593	-174.899765
10266		-19.571791	-2.952360	-174.884064
10267		-19.506076	-2.940054	-174.863980
10268		-19.454950	-2.944780	-174.842059
10269		-19.375030	-2.934565	-174.815148
10270		-19.305264	-2.933721	-174.784165
10271		-19.208635	-2.936280	-174.745484
10272		-19.107543	-2.935388	-174.695852
10273		-19.002786	-2.941153	-174.634931
10274		-18.918699	-2.945855	-174.569867
10275		-18.817813	-2.951070	-174.500809
10276		-18.694810	-2.967981	-174.432914
10277		-18.574864	-2.982047	-174.372032
10278		-18.438064	-3.004482	-174.315608
10279		-18.307730	-3.024896	-174.268913
10280		-18.155847	-3.047503	-174.228171
10281		-18.029765	-3.064856	-174.193447
10282		-17.914562	-3.071645	-174.163035
10283		-17.795435	-3.078212	-174.137602
10284		-17.712765	-3.074168	-174.120725
10285		-17.604964	-3.072429	-174.105484
10286		-17.540866	-3.061373	-174.093183
10287		-17.486042	-3.051225	-174.085500
10288		-17.454677	-3.042320	-174.078899
10289		-17.426862	-3.036831	-174.074591
10290		-17.406191	-3.027152	-174.073735
10291		-17.375722	-3.016833	-174.075839
10292		-17.344972	-3.004199	-174.080296
10293		-17.300539	-2.985679	-174.089417
10294		-17.257378	-2.968880	-174.103216
10295		-17.210199	-2.949895	-174.122193
10296		-17.156066	-2.933566	-174.144433
10297		-17.089509	-2.918809	-174.168945
10298		-16.998627	-2.894160	-174.189152
10299		-16.880916	-2.881354	-174.206753
10300		-16.742546	-2.873434	-174.214943
10301		-16.590489	-2.853729	-174.221268
10302		-16.452791	-2.826533	-174.229020
10303		-16.318001	-2.808291	-174.234951
10304		-16.199401	-2.782568	-174.244286
10305		-16.079432	-2.758506	-174.252497
10306		-15.968222	-2.743884	-174.264275
10307		-15.873608	-2.729033	-174.278551
10308		-15.756003	-2.724633	-174.295865
10309		-15.652482	-2.718896	-174.311481
10310		-15.546191	-2.713197	-174.331821
10311		-15.438497	-2.701395	-174.342750
10312		-15.333711	-2.688505	-174.345239
10313		-15.235291	-2.668386	-174.345709
10314		-15.165778	-2.662426	-174.352794
10315		-15.112416	-2.653438	-174.361579
10316		-15.089948	-2.647928	-174.372120
10317		-15.101315	-2.660576	-174.379154
10318		-15.109506	-2.678479	-174.393161
10319		-15.117621	-2.710256	-174.398359
10320		-15.140224	-2.732662	-174.396027
10321		-15.143343	-2.766346	-174.394302
10322		-15.171865	-2.795316	-174.395368
10323		-15.215643	-2.826228	-174.396058
10324		-15.248841	-2.854132	-174.392531
10325		-15.284169	-2.888237	-174.385271
10326		-15.326101	-2.913388	-174.375387
10327		-15.360638	-2.942874	-174.361057
10328		-15.385026	-2.976932	-174.339833
10329		-15.409304	-3.009155	-174.320719
10330		-15.436936	-3.039587	-174.297480
10331		-15.456963	-3.075797	-174.273614
10332		-15.476026	-3.105029	-174.247998
10333		-15.499482	-3.138381	-174.220070
10334		-15.514422	-3.167219	-174.186152
10335		-15.540829	-3.190018	-174.146634
10336		-15.555633	-3.215250	-174.097678
10337		-15.558257	-3.227476	-174.042788
10338		-15.556049	-3.232851	-173.973909
10339		-15.540229	-3.231452	-173.899684
10340		-15.534874	-3.224068	-173.819399
10341		-15.542979	-3.211374	-173.733484
10342		-15.556369	-3.210093	-173.650018
10343		-15.562091	-3.199123	-173.559585
10344		-15.574375	-3.190415	-173.471308
10345		-15.598623	-3.183749	-173.379834
10346		-15.612398	-3.171511	-173.280484
10347		-15.617729	-3.159561	-173.173600
10348		-15.612361	-3.134985	-173.057553
10349		-15.584176	-3.108019	-172.927806
10350		-15.552867	-3.071459	-172.789434
10351		-15.524499	-3.020103	-172.646279
10352		-15.509332	-2.954538	-172.500598
10353		-15.533701	-2.891281	-172.353970
10354		-15.564350	-2.827110	-172.209806
10355		-15.576083	-2.753595	-172.056997
10356		-15.568690	-2.676536	-171.903857
10357		-15.556466	-2.592307	-171.734879
10358		-15.515024	-2.502046	-171.548291
10359		-15.454192	-2.406950	-171.355244
10360		-15.374858	-2.304426	-171.153418
10361		-15.298864	-2.206778	-170.945616
10362		-15.185561	-2.096163	-170.724873
10363		-15.037197	-1.989732	-170.500300
10364		-14.892650	-1.890740	-170.283831
10365		-14.758194	-1.803275	-170.074219
10366		-14.666192	-1.715958	-169.871793
10367		-14.598094	-1.632288	-169.688734
10368		-14.504612	-1.553769	-169.523083
10369		-14.432514	-1.474296	-169.368916
10370		-14.400756	-1.382186	-169.223627
10371		-14.355491	-1.286318	-169.078780
10372		-14.298875	-1.182310	-168.935055
10373		-14.234123	-1.080123	-168.794878
10374		-14.171230	-0.964297	-168.653392
10375		-14.099166	-0.848671	-168.517106
10376		-14.049193	-0.722279	-168.389987
10377		-14.034661	-0.583615	-168.270307
10378		-14.042895	-0.435558	-168.157089
10379		-14.077951	-0.266132	-168.057170
10380		-14.166517	-0.092803	-167.963585
10381		-14.266603	0.087721	-167.872446
10382		-14.376903	0.291165	-167.748795
10383		-14.367549	0.527645	-167.592302
10384		-14.211485	0.754853	-167.466889
10385		-14.154244	0.973759	-167.349548
10386		-14.046236	1.198849	-167.239427
10387		-13.983988	1.433870	-167.142335
10388		-13.933855	1.657124	-167.045251
10389		-13.920286	1.890972	-166.952531
10390		-13.915285	2.134560	-166.862860
10391		-13.897910	2.368873	-166.781235
10392		-13.973637	2.621198	-166.693601
10393		-14.068106	2.878668	-166.599438
10394		-14.088377	3.131535	-166.505713
10395		-14.095767	3.390772	-166.417747
10396		-14.134285	3.653547	-166.350838
10397		-14.257181	3.910313	-166.301911
10398		-14.378189	4.174476	-166.267342
10399		-14.536504	4.426911	-166.247788
10400		-14.714642	4.670280	-166.242824
10401		-14.948313	4.911667	-166.247821
10402		-15.141806	5.097944	-166.256027
10403		-15.363168	5.300280	-166.287690
10404		-15.618299	5.506569	-166.346705
10405		-15.961120	5.719889	-166.408821
10406		-16.271335	5.936064	-166.471445
10407		-16.569413	6.131668	-166.532794
10408		-16.866122	6.310564	-166.587720
10409		-17.133297	6.473021	-166.631707
10410		-17.400737	6.621091	-166.675286
10411		-17.741315	6.775318	-166.724704
10412		-18.056995	6.928730	-166.773195
10413		-18.321992	7.096701	-166.816906
10414		-18.535871	7.256880	-166.853216
10415		-18.694159	7.413410	-166.873878
10416		-18.786509	7.561383	-166.878118
10417		-18.822600	7.700419	-166.865136
10418		-18.825047	7.828372	-166.841905
10419		-18.818360	7.943195	-166.812148
10420		-18.824999	8.050214	-166.777221
10421		-18.844840	8.148721	-166.743588
10422		-18.879553	8.235912	-166.708154
10423		-18.921359	8.314784	-166.671502
10424		-18.961256	8.386853	-166.638769
10425		-18.990255	8.444742	-166.613056
10426		-19.010241	8.497620	-166.584428
10427		-19.030148	8.541251	-166.556101
10428		-19.044935	8.578248	-166.531783
10429		-19.053952	8.606655	-166.508458
10430		-19.062605	8.629055	-166.486118
10431		-19.071964	8.653658	-166.466323
10432		-19.077783	8.672124	-166.449575
10433		-19.088308	8.688285	-166.435996
10434		-19.101279	8.704262	-166.424016
10435		-19.113635	8.722902	-166.410925
10436		-19.119129	8.741397	-166.398921
10437		-19.122887	8.766554	-166.385792
10438		-19.122523	8.787741	-166.374735
10439		-19.121546	8.815030	-166.356241
10440		-19.128771	8.845830	-166.338388
10441		-19.135739	8.880154	-166.320763
10442		-19.148688	8.920026	-166.301828
10443		-19.174229	8.968464	-166.278686
10444		-19.210378	9.008511	-166.249803
10445		-19.240215	9.047121	-166.222727
10446		-19.283591	9.085291	-166.186029
10447		-19.306782	9.132463	-166.146677
10448		-19.298350	9.184680	-166.106527
10449		-19.264437	9.237244	-166.068022
10450		-19.229596	9.289695	-166.027155
10451		-19.190689	9.354983	-165.993621
10452		-19.103964	9.432556	-165.982216
10453		-19.037147	9.503973	-165.984148
10454		-18.995124	9.566380	-165.994404
10455		-19.054181	9.618221	-165.999431
10456		-19.074932	9.688459	-166.003717
10457		-19.028652	9.759506	-166.000841
10458		-18.962091	9.831824	-165.987333
10459		-18.855581	9.906499	-165.969962
10460		-18.737640	9.977210	-165.941364
10461		-18.620352	10.051184	-165.915289
10462		-18.479314	10.133723	-165.891194
10463		-18.347138	10.214450	-165.872649
10464		-18.268782	10.281692	-165.860448
10465		-18.259225	10.340172	-165.862967
10466		-18.311367	10.391161	-165.877616
10467		-18.394352	10.437470	-165.905757
10468		-18.487988	10.484943	-165.938656
10469		-18.591168	10.529064	-165.969727
10470		-18.674595	10.572525	-165.999958
10471		-18.744422	10.614993	-166.031581
10472		-18.802803	10.648937	-166.063120
10473		-18.842505	10.674908	-166.097782
10474		-18.886044	10.695243	-166.135993
10475		-18.944581	10.706170	-166.176572
10476		-19.006339	10.705933	-166.215572
10477		-19.065306	10.704585	-166.253520
10478		-19.126902	10.694154	-166.299598
10479		-19.214412	10.681522	-166.351691
10480		-19.315325	10.669204	-166.405124
10481		-19.413105	10.655379	-166.468915
10482		-19.531144	10.643200	-166.535382
10483		-19.661195	10.629996	-166.596854
10484		-19.766621	10.615777	-166.658410
10485		-19.874352	10.593296	-166.712936
10486		-19.973944	10.561359	-166.760321
10487		-20.039021	10.540366	-166.805436
10488		-20.077306	10.504235	-166.844186
10489		-20.107793	10.468184	-166.881043
10490		-20.139932	10.446140	-166.912582
10491		-20.125411	10.433162	-166.927638
10492		-20.052392	10.431649	-166.918109
10493		-19.921388	10.424752	-166.886987
10494		-19.745204	10.409983	-166.826224
10495		-19.467986	10.391321	-166.729493
10496		-19.106966	10.353311	-166.603949
10497		-18.751865	10.303165	-166.452600
10498		-18.401467	10.242867	-166.280386
10499		-18.081734	10.172122	-166.095392
10500		-17.796799	10.090445	-165.900388
10501		-17.548789	10.002395	-165.705684
10502		-17.352472	9.905827	-165.514112
10503		-17.177682	9.802889	-165.321498
10504		-17.010928	9.694483	-165.135999
10505		-16.865124	9.577315	-164.961404
10506		-16.752526	9.458759	-164.798452
10507		-16.651129	9.343742	-164.643386
10508		-16.568000	9.236091	-164.503171
10509		-16.506800	9.138507	-164.378004
10510		-16.465412	9.046856	-164.266360
10511		-16.446028	8.967895	-164.173081
10512		-16.452734	8.900677	-164.098766
10513		-16.465917	8.853877	-164.038850
10514		-16.463727	8.816708	-163.996081
10515		-16.467494	8.788757	-163.969723
10516		-16.483601	8.770110	-163.957944
10517		-16.504497	8.770277	-163.955501
10518		-16.536746	8.780373	-163.963246
10519		-16.584894	8.798509	-163.978312
10520		-16.641098	8.826546	-163.999703
10521		-16.692286	8.857340	-164.024341
10522		-16.742971	8.890228	-164.052120
10523		-16.802452	8.924922	-164.083168
10524		-16.868220	8.961139	-164.112394
10525		-16.937493	8.998059	-164.138727
10526		-17.003697	9.033207	-164.163196
10527		-17.065739	9.068604	-164.183194
10528		-17.119385	9.101786	-164.197188
10529		-17.166179	9.130000	-164.208262
10530		-17.212243	9.152791	-164.217278
10531		-17.249714	9.173379	-164.228652
10532		-17.286521	9.192488	-164.239585
10533		-17.316718	9.209171	-164.251049
10534		-17.343644	9.221159	-164.259078
10535		-17.347257	9.230858	-164.262857
10536		-17.330436	9.238072	-164.263366
10537		-17.298810	9.237953	-164.257904
10538		-17.249490	9.225675	-164.242428
10539		-17.175209	9.201374	-164.216340
10540		-17.083295	9.161240	-164.182690
10541		-16.966678	9.107710	-164.140384
10542		-16.845687	9.036575	-164.094093
10543		-16.714422	8.952977	-164.035976
10544		-16.573207	8.854103	-163.966177
10545		-16.434277	8.743517	-163.885130
10546		-16.293673	8.620238	-163.805462
10547		-16.241626	8.489489	-163.700171
10548		-16.175046	8.348765	-163.604795
10549		-16.130728	8.197385	-163.506680
10550		-16.126190	8.038890	-163.410765
10551		-16.106930	7.878609	-163.319567
10552		-16.102468	7.708132	-163.232376
10553		-16.110854	7.533457	-163.147553
10554		-16.075685	7.346470	-163.076464
10555		-16.060290	7.152582	-163.025124
10556		-16.119189	6.943643	-162.968180
10557		-16.106509	6.722667	-162.915753
10558		-16.039320	6.475748	-162.880086
10559		-15.948792	6.217343	-162.847162
10560		-15.845010	5.937278	-162.811779
10561		-15.743140	5.643639	-162.773298
10562		-15.612498	5.331762	-162.734342
10563		-15.458963	4.996624	-162.692042
10564		-15.245893	4.647106	-162.653246
10565		-14.958857	4.290378	-162.620981
10566		-14.688960	3.909167	-162.593930
10567		-14.478799	3.531497	-162.569983
10568		-14.309005	3.146138	-162.543056
10569		-14.146732	2.750856	-162.522065
10570		-13.936365	2.356499	-162.507392
10571		-13.679272	1.956105	-162.504574
10572		-13.478891	1.604086	-162.515750
10573		-13.190410	1.223001	-162.552871
10574		-12.889581	0.828101	-162.609543
10575		-12.677331	0.448442	-162.685292
10576		-12.561415	0.073116	-162.774545
10577		-12.479620	-0.285794	-162.882370
10578		-12.377943	-0.621195	-163.004371
10579		-12.218467	-0.933958	-163.141447
10580		-12.021813	-1.229487	-163.294465
10581		-11.830198	-1.507089	-163.458375
10582		-11.672383	-1.772578	-163.629529
10583		-11.555620	-2.025444	-163.809744
10584		-11.480975	-2.268878	-163.994516
10585		-11.410519	-2.501340	-164.183066
10586		-11.347436	-2.715686	-164.364348
10587		-11.282243	-2.907356	-164.548615
10588		-11.219998	-3.089913	-164.726114
10589		-11.160044	-3.252940	-164.896051
10590		-11.115616	-3.403312	-165.062832
10591		-11.078084	-3.539310	-165.228676
10592		-11.066549	-3.669393	-165.394603
10593		-11.052455	-3.795642	-165.558516
10594		-11.008659	-3.911097	-165.719606
10595		-10.967703	-4.021336	-165.874420
10596		-10.915258	-4.126445	-166.024636
10597		-10.834761	-4.227606	-166.171389
10598		-10.771107	-4.322791	-166.320651
10599		-10.727081	-4.414890	-166.470679
10600		-10.704353	-4.504208	-166.620862
10601		-10.686484	-4.590561	-166.768459
10602		-10.676236	-4.675862	-166.921439
10603		-10.668169	-4.765216	-167.078887
10604		-10.644040	-4.852950	-167.240294
10605		-10.635229	-4.937390	-167.411477
10606		-10.638891	-5.017174	-167.577504
10607		-10.629357	-5.091295	-167.746600
10608		-10.603852	-5.164199	-167.914560
10609		-10.570225	-5.234561	-168.075453
10610		-10.519275	-5.303564	-168.232546
10611		-10.459000	-5.364258	-168.382607
10612		-10.400558	-5.421014	-168.529341
10613		-10.341593	-5.466488	-168.670557
10614		-10.294878	-5.502268	-168.801806
10615		-10.261118	-5.520794	-168.922379
10616		-10.223335	-5.522743	-169.028706
10617		-10.170358	-5.503863	-169.119022
10618		-10.083905	-5.470232	-169.195727
10619		-9.975421	-5.426974	-169.264114
10620		-9.862867	-5.379445	-169.326027
10621		-9.762271	-5.333463	-169.389044
10622		-9.690003	-5.291937	-169.457638
10623		-9.657938	-5.249995	-169.532303
10624		-9.658719	-5.214188	-169.626975
10625		-9.690865	-5.175665	-169.732857
10626		-9.748315	-5.135236	-169.842536
10627		-9.777739	-5.098529	-169.967288
10628		-9.800022	-5.067254	-170.103663
10629		-9.811096	-5.038872	-170.246069
10630		-9.820505	-5.016240	-170.400717
10631		-9.835183	-4.988306	-170.555968
10632		-9.850818	-4.962391	-170.716928
10633		-9.878752	-4.933598	-170.881742
10634		-9.924981	-4.907522	-171.047523
10635		-9.962980	-4.873423	-171.208503
10636		-9.982655	-4.831765	-171.362419
10637		-9.967874	-4.788067	-171.503093
10638		-9.942931	-4.741611	-171.636192
10639		-9.918510	-4.696482	-171.759808
10640		-9.928379	-4.646521	-171.869563
10641		-9.953385	-4.590671	-171.969616
10642		-9.983854	-4.529554	-172.061956
10643		-10.029287	-4.461808	-172.146658
10644		-10.090848	-4.389698	-172.223832
10645		-10.160882	-4.305750	-172.292690
10646		-10.236048	-4.216463	-172.352755
10647		-10.305510	-4.119865	-172.407277
10648		-10.384993	-4.020707	-172.458284
10649		-10.471020	-3.919085	-172.506452
10650		-10.578864	-3.811596	-172.549240
10651		-10.687693	-3.709988	-172.588823
10652		-10.791360	-3.605478	-172.627535
10653		-10.911349	-3.489423	-172.672251
10654		-11.030302	-3.384687	-172.715933
10655		-11.155162	-3.280492	-172.756357
10656		-11.281973	-3.181253	-172.793748
10657		-11.404952	-3.077797	-172.829486
10658		-11.548299	-2.979145	-172.871479
10659		-11.727836	-2.875921	-172.908925
10660		-11.881904	-2.770333	-172.941296
10661		-12.036493	-2.681656	-172.971313
10662		-12.194373	-2.598237	-172.993877
10663		-12.329656	-2.527838	-172.998655
10664		-12.465953	-2.469128	-172.989103
10665		-12.566133	-2.422642	-172.969975
10666		-12.684725	-2.379973	-172.946037
10667		-12.812765	-2.342590	-172.921179
10668		-12.963689	-2.298222	-172.897888
10669		-13.112005	-2.254435	-172.883150
10670		-13.281176	-2.210540	-172.868264
10671		-13.418203	-2.163063	-172.856437
10672		-13.527855	-2.115814	-172.844056
10673		-13.618609	-2.073844	-172.828404
10674		-13.691689	-2.034684	-172.808760
10675		-13.756179	-1.994079	-172.788762
10676		-13.825033	-1.950604	-172.771562
10677		-13.898856	-1.900476	-172.756465
10678		-13.998296	-1.845170	-172.745222
10679		-14.100817	-1.785354	-172.735935
10680		-14.202434	-1.719364	-172.730215
10681		-14.307184	-1.652011	-172.728151
10682		-14.402496	-1.593207	-172.728632
10683		-14.495636	-1.544972	-172.727648
10684		-14.572150	-1.507364	-172.722234
10685		-14.621398	-1.475220	-172.714115
10686		-14.653205	-1.446311	-172.704980
10687		-14.676499	-1.415795	-172.693486
10688		-14.703313	-1.380545	-172.684588
10689		-14.747915	-1.339936	-172.676190
10690		-14.802873	-1.301131	-172.674125
10691		-14.873480	-1.267528	-172.676244
10692		-14.945337	-1.246721	-172.684732
10693		-15.035058	-1.233339	-172.693236
10694		-15.138247	-1.228080	-172.705867
10695		-15.255802	-1.229327	-172.715798
10696		-15.374244	-1.225854	-172.725975
10697		-15.507077	-1.225783	-172.740842
10698		-15.653083	-1.234681	-172.758506
10699		-15.817397	-1.245521	-172.780989
10700		-16.001983	-1.261239	-172.804334
10701		-16.185084	-1.278060	-172.830485
10702		-16.352311	-1.293668	-172.852873
10703		-16.516191	-1.307923	-172.872437
10704		-16.657187	-1.308319	-172.883397
10705		-16.756387	-1.293809	-172.887902
10706		-16.834385	-1.268034	-172.882397
10707		-16.887852	-1.230326	-172.878873
10708		-16.978418	-1.210158	-172.883070
10709		-17.089496	-1.214033	-172.896176
10710		-17.220344	-1.236223	-172.913990
10711		-17.335385	-1.254341	-172.941097
10712		-17.438472	-1.275789	-172.978918
10713		-17.551622	-1.296150	-173.027751
10714		-17.667360	-1.309542	-173.083120
10715		-17.790246	-1.315539	-173.136893
10716		-17.920884	-1.321262	-173.192862
10717		-18.083948	-1.328653	-173.249723
10718		-18.256322	-1.347487	-173.308831
10719		-18.434371	-1.371468	-173.362711
10720		-18.613241	-1.401919	-173.418212
10721		-18.755182	-1.440694	-173.480546
10722		-18.921004	-1.491684	-173.549247
10723		-19.043282	-1.539432	-173.621199
10724		-19.176714	-1.584344	-173.687332
10725		-19.345851	-1.639383	-173.747424
10726		-19.542347	-1.689691	-173.816126
10727		-19.750179	-1.742337	-173.885717
10728		-19.963227	-1.797036	-173.963733
10729		-20.180372	-1.855348	-174.044789
10730		-20.391274	-1.915255	-174.140671
10731		-20.651321	-1.984277	-174.235038
10732		-20.912863	-2.052223	-174.339407
10733		-21.179376	-2.122696	-174.434184
10734		-21.473720	-2.195120	-174.523310
10735		-21.754516	-2.255995	-174.599978
10736		-21.944622	-2.297859	-174.650916
10737		-21.911632	-2.280504	-174.676499
10738		-21.743303	-2.274710	-174.701522
10739		-21.597268	-2.281317	-174.732144
10740		-21.508544	-2.299675	-174.762328
10741		-21.434190	-2.324966	-174.782049
10742		-21.391585	-2.334365	-174.787272
10743		-21.293349	-2.337793	-174.794802
10744		-21.194727	-2.332909	-174.803823
10745		-21.093406	-2.329944	-174.806829
10746		-21.031620	-2.319510	-174.803793
10747		-20.989667	-2.312729	-174.791564
10748		-20.973897	-2.294926	-174.765222
10749		-20.979626	-2.271238	-174.733147
10750		-20.966578	-2.241622	-174.703077
10751		-20.971741	-2.208601	-174.680375
10752		-20.967057	-2.175393	-174.659125
10753		-20.978788	-2.138834	-174.650406
10754		-20.991802	-2.104187	-174.646318
10755		-21.013317	-2.071531	-174.644879
10756		-21.042761	-2.039891	-174.641452
10757		-21.055939	-2.013701	-174.630751
10758		-21.066432	-1.986889	-174.612023
10759		-21.073840	-1.970279	-174.588770
10760		-21.082337	-1.958972	-174.566441
10761		-21.076930	-1.950590	-174.547500
10762		-21.064455	-1.944002	-174.532045
10763		-21.055185	-1.938497	-174.521775
10764		-21.041643	-1.932260	-174.513792
10765		-21.015405	-1.922324	-174.505871
10766		-20.985623	-1.915146	-174.504039
10767		-20.952877	-1.907716	-174.500500
10768		-20.921529	-1.900599	-174.497866
10769		-20.890709	-1.890029	-174.494797
10770		-20.858172	-1.880869	-174.490892
10771		-20.825031	-1.865908	-174.483358
10772		-20.778940	-1.848642	-174.474018
10773		-20.728927	-1.830081	-174.455612
10774		-20.663011	-1.815034	-174.419863
10775		-20.577264	-1.801624	-174.374671
10776		-20.499031	-1.800460	-174.310326
10777		-20.378811	-1.787610	-174.234730
10778		-20.256387	-1.782379	-174.152997
10779		-20.101098	-1.755523	-174.079240
10780		-19.991359	-1.741109	-174.030440
10781		-19.926923	-1.732129	-173.997126
10782		-19.879745	-1.729439	-173.971637
10783		-19.849186	-1.740344	-173.953066
10784		-19.791158	-1.746225	-173.935869
10785		-19.748256	-1.763249	-173.921234
10786		-19.636734	-1.791327	-173.909012
10787		-19.531339	-1.806279	-173.901774
10788		-19.412728	-1.813569	-173.897392
10789		-19.337341	-1.816992	-173.903957
10790		-19.299800	-1.815539	-173.914225
10791		-19.302426	-1.828622	-173.943110
10792		-19.332638	-1.842384	-173.964679
10793		-19.398506	-1.849060	-173.981867
10794		-19.445117	-1.861741	-173.989651
10795		-19.480333	-1.868180	-173.993632
10796		-19.510526	-1.874609	-173.999237
10797		-19.527326	-1.881736	-174.005986
10798		-19.543900	-1.892486	-174.016187
10799		-19.574822	-1.907903	-174.023634
10800		-19.637715	-1.924514	-174.024760
10801		-19.694606	-1.944171	-174.022305
10802		-19.746837	-1.961952	-174.009858
10803		-19.767396	-1.977062	-173.994079
10804		-19.789296	-1.988024	-173.977692
10805		-19.813613	-1.999672	-173.955267
10806		-19.836532	-2.016050	-173.936484
10807		-19.868456	-2.026579	-173.912966
10808		-19.908668	-2.036675	-173.886642
10809		-19.946702	-2.041361	-173.856012
10810		-19.972563	-2.045614	-173.825519
10811		-20.002994	-2.043704	-173.791183
10812		-20.048287	-2.030309	-173.752061
10813		-20.084997	-2.005712	-173.704450
10814		-20.108511	-1.967258	-173.652666
10815		-20.144964	-1.922428	-173.596257
10816		-20.170412	-1.871167	-173.534542
10817		-20.187940	-1.818166	-173.462156
10818		-20.190537	-1.759885	-173.382315
10819		-20.198767	-1.696698	-173.289009
10820		-20.194173	-1.629252	-173.184095
10821		-20.187069	-1.544759	-173.057715
10822		-20.174970	-1.449163	-172.914730
10823		-20.118625	-1.327995	-172.743060
10824		-20.051263	-1.190884	-172.556584
10825		-19.950761	-1.043854	-172.354280
10826		-19.871183	-0.890114	-172.141488
10827		-19.759656	-0.733090	-171.917315
10828		-19.679987	-0.573469	-171.693498
10829		-19.615060	-0.417385	-171.467581
10830		-19.557943	-0.259921	-171.247872
10831		-19.508924	-0.099836	-171.025833
10832		-19.452485	0.062019	-170.812396
10833		-19.373577	0.219442	-170.604949
10834		-19.290743	0.372571	-170.408728
10835		-19.178236	0.532800	-170.213650
10836		-19.045650	0.686366	-170.028043
10837		-18.892953	0.831281	-169.849586
10838		-18.749828	0.978219	-169.674127
10839		-18.611573	1.148079	-169.508800
10840		-18.505085	1.319380	-169.359737
10841		-18.510958	1.487191	-169.231907
10842		-18.518794	1.644860	-169.114430
10843		-18.514997	1.780766	-169.013324
10844		-18.525848	1.917008	-168.925811
10845		-18.552930	2.043680	-168.828346
10846		-18.552445	2.171368	-168.728796
10847		-18.552463	2.297335	-168.634256
10848		-18.554186	2.415755	-168.539399
10849		-18.553667	2.532073	-168.449034
10850		-18.522469	2.648290	-168.358611
10851		-18.503515	2.767025	-168.271998
10852		-18.510597	2.885717	-168.189075
10853		-18.516913	3.004172	-168.101807
10854		-18.527979	3.124339	-168.010474
10855		-18.526684	3.238320	-167.919597
10856		-18.535372	3.347232	-167.822317
10857		-18.517090	3.452384	-167.714274
10858		-18.464635	3.614027	-167.608696
10859		-18.384160	3.724823	-167.514342
10860		-18.375678	3.847807	-167.425321
10861		-18.366546	3.969201	-167.339626
10862		-18.394178	4.096130	-167.244767
10863		-18.416017	4.219647	-167.147329
10864		-18.398856	4.345676	-167.041669
10865		-18.341811	4.463353	-166.930235
10866		-18.317461	4.572974	-166.823958
10867		-18.300496	4.711972	-166.716661
10868		-18.264579	4.843497	-166.613849
10869		-18.250088	4.957581	-166.517492
10870		-18.210917	5.073243	-166.430928
10871		-18.251944	5.187684	-166.347543
10872		-18.324041	5.303801	-166.277242
10873		-18.436933	5.433876	-166.215467
10874		-18.540156	5.569187	-166.160492
10875		-18.662702	5.717971	-166.116352
10876		-18.829092	5.862540	-166.087479
10877		-19.021398	6.005146	-166.071450
10878		-19.211811	6.138068	-166.061974
10879		-19.422702	6.240537	-166.047617
10880		-19.666169	6.364368	-166.063753
10881		-19.946956	6.499673	-166.084696
10882		-20.316982	6.672779	-166.101466
10883		-20.570899	6.836304	-166.110242
10884		-20.811049	6.996747	-166.116531
10885		-21.041815	7.137380	-166.126135
10886		-21.249744	7.264133	-166.130070
10887		-21.430807	7.373912	-166.130093
10888		-21.637612	7.473308	-166.150312
10889		-21.909303	7.575195	-166.187756
10890		-22.267736	7.691243	-166.234494
10891		-22.545152	7.813093	-166.284574
10892		-22.841823	7.938171	-166.339515
10893		-23.068776	8.052616	-166.392688
10894		-23.235919	8.159896	-166.431854
10895		-23.333818	8.256969	-166.458502
10896		-23.377135	8.336615	-166.478514
10897		-23.378136	8.402122	-166.496733
10898		-23.354136	8.452325	-166.514043
10899		-23.334495	8.491047	-166.528174
10900		-23.306902	8.521023	-166.543276
10901		-23.274794	8.539370	-166.556176
10902		-23.241211	8.554756	-166.561110
10903		-23.189938	8.564141	-166.558744
10904		-23.132371	8.572751	-166.552083
10905		-23.067857	8.584146	-166.537964
10906		-22.999945	8.600490	-166.520319
10907		-22.941084	8.622233	-166.503523
10908		-22.888553	8.643456	-166.484501
10909		-22.823637	8.665577	-166.460523
10910		-22.750970	8.680651	-166.435061
10911		-22.676836	8.697712	-166.405967
10912		-22.608684	8.721791	-166.377887
10913		-22.536006	8.746664	-166.348163
10914		-22.451453	8.773496	-166.319368
10915		-22.359841	8.804444	-166.298891
10916		-22.263274	8.848600	-166.287232
10917		-22.181976	8.894799	-166.283033
10918		-22.091907	8.971328	-166.282952
10919		-21.982725	9.036622	-166.287316
10920		-21.912380	9.084738	-166.279773
10921		-21.777471	9.148912	-166.269506
10922		-21.595360	9.226859	-166.248526
10923		-21.405921	9.306869	-166.227233
10924		-21.262815	9.388095	-166.207477
10925		-21.149706	9.480428	-166.188423
10926		-21.086652	9.571319	-166.176534
10927		-21.096697	9.655593	-166.164828
10928		-21.168139	9.735020	-166.149724
10929		-21.236549	9.819572	-166.129827
10930		-21.272796	9.903143	-166.104819
10931		-21.292219	9.987081	-166.081951
