// General information: 
//  MT Manager version: 2022.2.0 
//  XDA version: 2022.2.0 build 7381 rev 124627 built on 2023-07-19
// Device information: 
//  DeviceId: 00B44856
//  ProductCode: MTW2-3A7G6
//  Firmware Version: 4.3.5
//  Hardware Version: 2.0.0
// Device settings: 
//  Filter Profile: human(46.1)
//  Option Flags: Orientation Smoother Disabled, Position/Velocity Smoother Disabled, Continuous Zero Rotation Update Disabled, AHS Disabled, ICC Disabled
// Coordinate system: ENU
PacketCounter	SampleTimeFine	Roll	Pitch	Yaw
31344		6.200423	26.405602	-4.061879
31345		6.214098	26.414428	-4.060373
31346		6.217013	26.425998	-4.058867
31347		6.212075	26.433439	-4.056861
31348		6.211055	26.441011	-4.055580
31349		6.214358	26.441649	-4.054182
31350		6.219655	26.441654	-4.053532
31351		6.223357	26.439168	-4.053479
31352		6.225617	26.440805	-4.055436
31353		6.225009	26.442434	-4.061814
31354		6.225583	26.445689	-4.066048
31355		6.228815	26.441026	-4.068628
31356		6.220830	26.438345	-4.069933
31357		6.226778	26.433761	-4.068157
31358		6.236347	26.436162	-4.065325
31359		6.240285	26.442620	-4.064343
31360		6.245524	26.453107	-4.067958
31361		6.254814	26.459384	-4.076759
31362		6.263912	26.460661	-4.087593
31363		6.273363	26.453593	-4.098908
31364		6.279260	26.448846	-4.109432
31365		6.284781	26.443137	-4.117493
31366		6.282438	26.441357	-4.123487
31367		6.274406	26.441278	-4.124064
31368		6.266967	26.442048	-4.122330
31369		6.263787	26.443704	-4.124757
31370		6.262633	26.445918	-4.135108
31371		6.266281	26.444567	-4.150046
31372		6.278390	26.438935	-4.162022
31373		6.294159	26.424441	-4.170528
31374		6.315799	26.405618	-4.175830
31375		6.347729	26.389653	-4.180498
31376		6.386074	26.376747	-4.182768
31377		6.427875	26.365594	-4.190016
31378		6.472011	26.353371	-4.203515
31379		6.529608	26.334321	-4.220250
31380		6.604910	26.305807	-4.239975
31381		6.695100	26.276895	-4.265925
31382		6.801222	26.246923	-4.294085
31383		6.931355	26.215619	-4.327940
31384		7.080217	26.192296	-4.366658
31385		7.238308	26.171694	-4.414483
31386		7.399698	26.150783	-4.462810
31387		7.551858	26.120589	-4.514639
31388		7.700764	26.084709	-4.563825
31389		7.840536	26.051295	-4.616208
31390		7.974221	26.021485	-4.671403
31391		8.101075	26.005061	-4.727861
31392		8.214913	26.002863	-4.778785
31393		8.312397	26.007385	-4.826191
31394		8.389895	26.008008	-4.866995
31395		8.447902	26.003893	-4.911268
31396		8.493442	26.004299	-4.954034
31397		8.531995	26.010236	-5.002636
31398		8.559738	26.021561	-5.055162
31399		8.583007	26.033236	-5.113810
31400		8.598963	26.049572	-5.174733
31401		8.616450	26.061589	-5.233147
31402		8.631987	26.075724	-5.292575
31403		8.643753	26.091943	-5.350236
31404		8.659701	26.105678	-5.407098
31405		8.683758	26.117951	-5.456942
31406		8.718707	26.121152	-5.504703
31407		8.775003	26.119337	-5.551169
31408		8.841971	26.108769	-5.596894
31409		8.899281	26.089160	-5.649163
31410		8.957177	26.086203	-5.698730
31411		9.017750	26.097496	-5.742576
31412		9.070702	26.108474	-5.786713
31413		9.122237	26.112889	-5.826943
31414		9.173827	26.114718	-5.864189
31415		9.231339	26.114648	-5.896057
31416		9.289578	26.108753	-5.924888
31417		9.348327	26.101040	-5.957296
31418		9.407138	26.088306	-5.994313
31419		9.472070	26.075040	-6.043533
31420		9.563918	26.070466	-6.102161
31421		9.699725	26.077789	-6.177595
31422		9.871262	26.087247	-6.275199
31423		10.076243	26.087795	-6.395091
31424		10.320372	26.087347	-6.517516
31425		10.598736	26.088690	-6.630692
31426		10.888672	26.087409	-6.730524
31427		11.173176	26.070426	-6.823593
31428		11.446945	26.044000	-6.921182
31429		11.715460	26.015107	-7.021794
31430		11.988431	25.995871	-7.116236
31431		12.258911	25.975357	-7.205276
31432		12.515474	25.948834	-7.290531
31433		12.765276	25.910095	-7.372490
31434		13.016889	25.856005	-7.446815
31435		13.273172	25.789510	-7.519193
31436		13.538821	25.722634	-7.583769
31437		13.801056	25.648658	-7.648327
31438		14.045960	25.567053	-7.718378
31439		14.280856	25.485865	-7.792325
31440		14.519807	25.399689	-7.855969
31441		14.767060	25.305529	-7.911421
31442		15.022446	25.210223	-7.961775
31443		15.293138	25.114375	-8.003342
31444		15.572879	25.013980	-8.038404
31445		15.854822	24.912739	-8.069976
31446		16.121788	24.809710	-8.099820
31447		16.365148	24.699506	-8.130999
31448		16.592427	24.582733	-8.163589
31449		16.818079	24.461894	-8.189086
31450		17.042524	24.333630	-8.210785
31451		17.264421	24.195064	-8.225915
31452		17.485558	24.058410	-8.239117
31453		17.717212	23.924247	-8.252574
31454		17.958394	23.795538	-8.267893
31455		18.208058	23.666567	-8.280991
31456		18.450530	23.536541	-8.295223
31457		18.696833	23.405266	-8.302197
31458		18.941907	23.265446	-8.301767
31459		19.188119	23.116366	-8.294340
31460		19.430826	22.969373	-8.276959
31461		19.660482	22.823598	-8.255591
31462		19.876746	22.672201	-8.241395
31463		20.081388	22.526895	-8.226770
31464		20.269280	22.382937	-8.211415
31465		20.443967	22.244595	-8.197862
31466		20.618811	22.106345	-8.177363
31467		20.793485	21.966796	-8.155948
31468		20.958384	21.824253	-8.135928
31469		21.113428	21.676364	-8.116100
31470		21.272173	21.528720	-8.097048
31471		21.445591	21.380090	-8.078949
31472		21.629110	21.231819	-8.069984
31473		21.826695	21.087423	-8.065837
31474		22.037477	20.942222	-8.062868
31475		22.266661	20.792261	-8.057656
31476		22.490242	20.638253	-8.052743
31477		22.685332	20.472377	-8.057103
31478		22.852985	20.307908	-8.063459
31479		23.009203	20.162371	-8.065864
31480		23.155932	20.037876	-8.059980
31481		23.301327	19.919498	-8.049955
31482		23.458801	19.791221	-8.043911
31483		23.636112	19.657290	-8.046779
31484		23.810339	19.520227	-8.043863
31485		23.965252	19.382380	-8.046216
31486		24.108937	19.241530	-8.052888
31487		24.242738	19.102226	-8.061529
31488		24.388715	18.952714	-8.069686
31489		24.546692	18.792646	-8.079272
31490		24.703768	18.621008	-8.095925
31491		24.837203	18.459956	-8.120211
31492		24.960702	18.318989	-8.136287
31493		25.096249	18.197003	-8.142666
31494		25.248262	18.068727	-8.141246
31495		25.402195	17.935668	-8.140780
31496		25.554785	17.804325	-8.145977
31497		25.697093	17.663736	-8.168958
31498		25.833427	17.515688	-8.205260
31499		25.956920	17.377937	-8.237136
31500		26.048412	17.253630	-8.256110
31501		26.138237	17.131421	-8.271053
31502		26.247597	17.001378	-8.282247
31503		26.372167	16.861299	-8.298542
31504		26.486603	16.718557	-8.325265
31505		26.588054	16.578143	-8.357441
31506		26.705584	16.420508	-8.393894
31507		26.850990	16.259005	-8.426218
31508		26.985294	16.105766	-8.453589
31509		27.115557	15.949035	-8.479019
31510		27.236256	15.791347	-8.519701
31511		27.332423	15.647069	-8.562661
31512		27.399296	15.518193	-8.593636
31513		27.456493	15.385259	-8.621414
31514		27.501998	15.235650	-8.648878
31515		27.540544	15.071180	-8.683088
31516		27.593265	14.909617	-8.719678
31517		27.657650	14.745864	-8.759160
31518		27.724691	14.587849	-8.794234
31519		27.794995	14.437225	-8.824475
31520		27.848158	14.286905	-8.849524
31521		27.902148	14.134775	-8.866641
31522		27.964486	13.972259	-8.888887
31523		28.016515	13.808972	-8.922578
31524		28.075040	13.647379	-8.960711
31525		28.119888	13.478625	-9.001846
31526		28.129845	13.318861	-9.037403
31527		28.115933	13.169813	-9.060817
31528		28.089219	13.014463	-9.083303
31529		28.062699	12.849837	-9.110799
31530		28.038480	12.682888	-9.140683
31531		28.020456	12.533322	-9.168165
31532		28.031773	12.393830	-9.201627
31533		28.049504	12.249994	-9.244375
31534		28.036054	12.103918	-9.285922
31535		28.000650	11.974645	-9.311353
31536		27.958606	11.851628	-9.319663
31537		27.933570	11.733980	-9.321269
31538		27.914965	11.609833	-9.333061
31539		27.890190	11.487015	-9.350762
31540		27.856981	11.367736	-9.366521
31541		27.825103	11.259153	-9.389975
31542		27.785230	11.159672	-9.417467
31543		27.741219	11.076177	-9.441813
31544		27.701285	10.995868	-9.470630
31545		27.676180	10.923542	-9.498802
31546		27.682245	10.856353	-9.535544
31547		27.687280	10.781062	-9.580153
31548		27.665191	10.710337	-9.608835
31549		27.606888	10.641974	-9.628735
31550		27.533086	10.587540	-9.645751
31551		27.463110	10.552721	-9.665589
31552		27.397793	10.519791	-9.691941
31553		27.337103	10.484866	-9.725288
31554		27.298103	10.451943	-9.766964
31555		27.265132	10.418034	-9.807498
31556		27.232463	10.394766	-9.844987
31557		27.208874	10.370776	-9.886622
31558		27.197047	10.352471	-9.923402
31559		27.190450	10.334267	-9.967232
31560		27.172935	10.309454	-10.011323
31561		27.156323	10.295301	-10.047190
31562		27.141476	10.278954	-10.077415
31563		27.121071	10.276339	-10.102626
31564		27.108446	10.285903	-10.126839
31565		27.099773	10.292596	-10.161192
31566		27.084674	10.296147	-10.187804
31567		27.076103	10.302004	-10.216284
31568		27.068542	10.309664	-10.241295
31569		27.071825	10.330687	-10.262821
31570		27.110694	10.354578	-10.291006
31571		27.149306	10.370443	-10.321786
31572		27.167002	10.376266	-10.349617
31573		27.182579	10.378679	-10.373323
31574		27.198454	10.384645	-10.396522
31575		27.219081	10.393399	-10.414162
31576		27.244572	10.401335	-10.427424
31577		27.276671	10.410409	-10.439292
31578		27.328521	10.425223	-10.456958
31579		27.381118	10.442979	-10.481446
31580		27.420080	10.460587	-10.510006
31581		27.459541	10.474705	-10.529789
31582		27.508216	10.491987	-10.545694
31583		27.554566	10.512666	-10.561700
31584		27.593691	10.533520	-10.577118
31585		27.633121	10.550636	-10.594418
31586		27.670328	10.568371	-10.614413
31587		27.706564	10.583497	-10.635930
31588		27.737935	10.607094	-10.657046
31589		27.768185	10.633017	-10.682346
31590		27.793828	10.656080	-10.705279
31591		27.814790	10.679777	-10.721415
31592		27.841729	10.712804	-10.731310
31593		27.868999	10.747628	-10.736286
31594		27.901119	10.779462	-10.741489
31595		27.946436	10.797061	-10.748859
31596		27.977059	10.813189	-10.749864
31597		28.002746	10.836459	-10.751102
31598		28.020759	10.849908	-10.751978
31599		28.030170	10.868525	-10.748620
31600		28.032898	10.891610	-10.743838
31601		28.035793	10.914786	-10.744249
31602		28.039089	10.932576	-10.748306
31603		28.041406	10.950719	-10.751298
31604		28.042794	10.967954	-10.756174
31605		28.042019	10.982513	-10.759158
31606		28.050951	11.010916	-10.756131
31607		28.069035	11.041560	-10.750647
31608		28.090720	11.074005	-10.740598
31609		28.115867	11.110706	-10.726103
31610		28.151812	11.148466	-10.697811
31611		28.192777	11.180982	-10.660756
31612		28.253341	11.214617	-10.614750
31613		28.327962	11.244737	-10.581392
31614		28.404057	11.267748	-10.561417
31615		28.477659	11.291342	-10.551944
31616		28.553981	11.318627	-10.548431
31617		28.624760	11.347324	-10.549495
31618		28.681879	11.376624	-10.552946
31619		28.725942	11.410155	-10.553169
31620		28.753816	11.449478	-10.552324
31621		28.770675	11.492375	-10.543896
31622		28.784548	11.553564	-10.530568
31623		28.818802	11.629373	-10.516422
31624		28.877610	11.695401	-10.508429
31625		28.944345	11.749942	-10.507707
31626		28.992988	11.800438	-10.510771
31627		29.025478	11.851541	-10.510615
31628		29.048359	11.909351	-10.499744
31629		29.066548	11.970377	-10.482460
31630		29.076235	12.034184	-10.464707
31631		29.096318	12.112433	-10.441449
31632		29.132456	12.193581	-10.426421
31633		29.180181	12.266677	-10.419973
31634		29.232712	12.336852	-10.416929
31635		29.283298	12.395188	-10.409417
31636		29.328242	12.449355	-10.393087
31637		29.363402	12.510448	-10.370961
31638		29.397894	12.584571	-10.338050
31639		29.453636	12.672263	-10.302556
31640		29.521833	12.759262	-10.270748
31641		29.574929	12.851527	-10.241009
31642		29.615248	12.954157	-10.205310
31643		29.660422	13.053070	-10.168975
31644		29.696057	13.137191	-10.131902
31645		29.732266	13.219866	-10.089134
31646		29.785580	13.308640	-10.043495
31647		29.850480	13.396305	-10.003781
31648		29.916693	13.484582	-9.975412
31649		29.974890	13.587574	-9.945516
31650		30.016002	13.696604	-9.908333
31651		30.034930	13.806319	-9.875653
31652		30.044115	13.916374	-9.843055
31653		30.065687	14.033337	-9.798609
31654		30.097113	14.143779	-9.745338
31655		30.134289	14.242236	-9.700842
31656		30.177239	14.336523	-9.666453
31657		30.232605	14.431982	-9.634660
31658		30.285384	14.526272	-9.599113
31659		30.329931	14.607778	-9.555931
31660		30.359274	14.680957	-9.519702
31661		30.383205	14.752155	-9.471225
31662		30.419079	14.816404	-9.410838
31663		30.457668	14.851624	-9.353379
31664		30.488114	14.869227	-9.299717
31665		30.507689	14.865542	-9.250524
31666		30.512356	14.844425	-9.198587
31667		30.509130	14.815622	-9.145822
31668		30.482262	14.794108	-9.084557
31669		30.433694	14.769903	-9.027355
31670		30.356774	14.755396	-8.993476
31671		30.275381	14.768312	-8.980088
31672		30.177679	14.817214	-8.958016
31673		30.104999	14.913091	-8.907157
31674		30.056739	15.051166	-8.821998
31675		29.990388	15.174742	-8.768479
31676		29.897496	15.291413	-8.762341
31677		29.826192	15.399318	-8.784645
31678		29.781232	15.501024	-8.810019
31679		29.747426	15.617598	-8.815248
31680		29.752957	15.730672	-8.831637
31681		29.744706	15.847705	-8.867324
31682		29.745929	15.974128	-8.911806
31683		29.736002	16.113192	-8.943934
31684		29.698491	16.268720	-8.973478
31685		29.638525	16.437948	-8.997831
31686		29.562211	16.609040	-9.012745
31687		29.461804	16.762538	-9.025798
31688		29.346644	16.908137	-9.042429
31689		29.240988	17.049331	-9.062352
31690		29.157016	17.194295	-9.072022
31691		29.086250	17.342207	-9.071422
31692		28.999389	17.495379	-9.068373
31693		28.916183	17.677623	-9.039764
31694		28.828722	17.877653	-8.991764
31695		28.701705	18.065728	-8.952344
31696		28.548753	18.246700	-8.928804
31697		28.400860	18.438477	-8.917752
31698		28.241246	18.644582	-8.921432
31699		28.075677	18.860528	-8.936839
31700		27.935273	19.077351	-8.961598
31701		27.794571	19.285475	-8.990112
31702		27.654704	19.491013	-9.012274
31703		27.548670	19.673064	-9.017206
31704		27.481764	19.834145	-9.013363
31705		27.410537	19.994990	-9.010038
31706		27.310232	20.172643	-9.012373
31707		27.176950	20.361167	-9.018212
31708		27.035337	20.547809	-9.032879
31709		26.861488	20.730590	-9.060790
31710		26.675398	20.911459	-9.078660
31711		26.484391	21.069736	-9.082807
31712		26.280772	21.210009	-9.086569
31713		26.085734	21.343019	-9.084305
31714		25.913043	21.478509	-9.075781
31715		25.732361	21.623339	-9.071629
31716		25.529309	21.786824	-9.074315
31717		25.324585	21.967396	-9.081830
31718		25.147969	22.164234	-9.078288
31719		24.979796	22.363959	-9.070508
31720		24.838928	22.545835	-9.063943
31721		24.702907	22.709846	-9.066705
31722		24.552127	22.870614	-9.070995
31723		24.411401	23.024001	-9.073782
31724		24.287471	23.170113	-9.069252
31725		24.160449	23.322483	-9.070169
31726		24.009929	23.492572	-9.070276
31727		23.865955	23.664427	-9.071033
31728		23.727229	23.835210	-9.068972
31729		23.590238	23.996393	-9.069694
31730		23.447254	24.142024	-9.078793
31731		23.301747	24.281000	-9.093194
31732		23.163386	24.433026	-9.095659
31733		23.023816	24.589124	-9.080484
31734		22.883660	24.743574	-9.058351
31735		22.727599	24.892834	-9.039859
31736		22.553401	25.036458	-9.023984
31737		22.367209	25.170478	-9.016213
31738		22.184720	25.296098	-9.016352
31739		22.029982	25.415165	-9.009902
31740		21.885326	25.532656	-8.999637
31741		21.739204	25.658299	-8.991285
31742		21.588507	25.785387	-8.981487
31743		21.429570	25.906119	-8.980265
31744		21.286492	26.023574	-8.979547
31745		21.158234	26.145054	-8.972143
31746		21.031535	26.272259	-8.957327
31747		20.898245	26.396098	-8.944157
31748		20.752470	26.515151	-8.938543
31749		20.609602	26.633839	-8.931873
31750		20.474772	26.759746	-8.922104
31751		20.340751	26.877983	-8.912480
31752		20.190507	26.984409	-8.913312
31753		20.034573	27.090305	-8.913797
31754		19.891635	27.200292	-8.901127
31755		19.766768	27.303668	-8.882925
31756		19.649509	27.399596	-8.868965
31757		19.531058	27.488037	-8.863286
31758		19.397258	27.578698	-8.869702
31759		19.253915	27.663275	-8.880046
31760		19.102278	27.743759	-8.891238
31761		18.951570	27.817678	-8.901823
31762		18.823399	27.897255	-8.904956
31763		18.731571	27.983205	-8.891024
31764		18.647148	28.081090	-8.874097
31765		18.572719	28.176808	-8.860821
31766		18.492655	28.260172	-8.856886
31767		18.404103	28.333553	-8.865283
31768		18.305056	28.399951	-8.880463
31769		18.205647	28.456027	-8.898914
31770		18.113208	28.507368	-8.917750
31771		18.022702	28.552429	-8.934201
31772		17.915885	28.592282	-8.949700
31773		17.792933	28.629396	-8.968568
31774		17.661042	28.670147	-8.981246
31775		17.522829	28.706010	-8.997433
31776		17.375771	28.734196	-9.015013
31777		17.225111	28.753067	-9.028779
31778		17.081710	28.763624	-9.034698
31779		16.937668	28.768428	-9.031193
31780		16.790456	28.770959	-9.026406
31781		16.634982	28.769162	-9.025334
31782		16.493538	28.781222	-9.020395
31783		16.362822	28.812105	-9.009627
31784		16.224144	28.845347	-9.001750
31785		16.068798	28.873795	-8.997072
31786		15.904349	28.893744	-8.995383
31787		15.747619	28.904963	-8.989198
31788		15.597118	28.906804	-8.981073
31789		15.448125	28.898040	-8.974120
31790		15.313722	28.887972	-8.961630
31791		15.201237	28.886462	-8.940290
31792		15.119282	28.893672	-8.903800
31793		15.062535	28.893923	-8.867202
31794		15.018364	28.876276	-8.845039
31795		14.986853	28.838996	-8.839049
31796		14.972636	28.789745	-8.842626
31797		14.977587	28.743027	-8.849301
31798		14.994125	28.702150	-8.859058
31799		15.011014	28.665877	-8.867214
31800		15.027788	28.636184	-8.870789
31801		15.045246	28.613172	-8.871108
31802		15.055367	28.595694	-8.870297
31803		15.056095	28.579434	-8.864302
31804		15.035634	28.561729	-8.862772
31805		15.001024	28.552443	-8.859970
31806		14.965194	28.550899	-8.854853
31807		14.930447	28.545467	-8.848740
31808		14.903394	28.534717	-8.843119
31809		14.889006	28.520512	-8.841095
31810		14.885677	28.508387	-8.838170
31811		14.885315	28.496164	-8.837825
31812		14.885710	28.487316	-8.835611
31813		14.882398	28.481511	-8.832773
31814		14.877502	28.475827	-8.826879
31815		14.866358	28.470453	-8.823949
31816		14.852891	28.464880	-8.822151
31817		14.840137	28.459505	-8.817262
31818		14.832330	28.454965	-8.809224
31819		14.825428	28.453240	-8.800371
31820		14.823607	28.451410	-8.795092
31821		14.822416	28.449115	-8.794624
31822		14.825522	28.448232	-8.790920
31823		14.833122	28.445808	-8.788793
31824		14.841584	28.445313	-8.784313
31825		14.854185	28.444763	-8.779492
31826		14.866326	28.441094	-8.776741
31827		14.875672	28.437485	-8.779664
31828		14.886302	28.435244	-8.777900
31829		14.900564	28.429141	-8.771745
31830		14.909934	28.422518	-8.766530
31831		14.919728	28.412549	-8.760236
31832		14.927408	28.402102	-8.753919
31833		14.935233	28.393885	-8.747380
31834		14.940918	28.390432	-8.740441
31835		14.941622	28.389043	-8.740121
31836		14.939484	28.386307	-8.736701
31837		14.935078	28.384515	-8.739564
31838		14.936362	28.384156	-8.738698
31839		14.939958	28.383961	-8.736710
31840		14.947153	28.382238	-8.735831
31841		14.957750	28.379812	-8.735177
31842		14.972566	28.377913	-8.735558
31843		14.988474	28.377640	-8.738127
31844		15.005994	28.374884	-8.741810
31845		15.017162	28.368337	-8.745732
31846		15.023517	28.364833	-8.746106
31847		15.025267	28.364915	-8.743365
31848		15.022218	28.368299	-8.740681
31849		15.020729	28.368647	-8.737684
31850		15.021573	28.368581	-8.735554
31851		15.026788	28.371300	-8.738928
31852		15.038012	28.376653	-8.740325
31853		15.050780	28.380969	-8.748993
31854		15.065908	28.386042	-8.757971
31855		15.083324	28.396839	-8.769049
31856		15.099502	28.409490	-8.786037
31857		15.111281	28.415983	-8.811295
31858		15.127159	28.419204	-8.838524
31859		15.141656	28.419857	-8.871097
31860		15.163048	28.422574	-8.904203
31861		15.184032	28.417218	-8.934065
31862		15.204668	28.407097	-8.961918
31863		15.217976	28.389066	-8.992546
31864		15.222989	28.365476	-9.021828
31865		15.223031	28.338099	-9.050911
31866		15.216828	28.312818	-9.081168
31867		15.214007	28.295901	-9.110486
31868		15.215698	28.285721	-9.138545
31869		15.219319	28.279164	-9.171128
31870		15.228406	28.274674	-9.204786
31871		15.250953	28.264742	-9.241577
31872		15.275542	28.253554	-9.281070
31873		15.307547	28.235934	-9.324962
31874		15.345471	28.207194	-9.373180
31875		15.399164	28.172523	-9.426474
31876		15.465787	28.139560	-9.475913
31877		15.546439	28.108602	-9.527939
31878		15.645733	28.081252	-9.580569
31879		15.759455	28.051582	-9.634190
31880		15.880446	28.022358	-9.686546
31881		16.003211	27.989010	-9.741474
31882		16.129396	27.956945	-9.794710
31883		16.262799	27.929439	-9.840182
31884		16.392240	27.904092	-9.881021
31885		16.509311	27.874746	-9.919254
31886		16.623727	27.840899	-9.949947
31887		16.736304	27.808079	-9.976706
31888		16.851997	27.776385	-9.999486
31889		16.967791	27.736722	-10.023833
31890		17.079667	27.693371	-10.051809
31891		17.192851	27.646644	-10.073417
31892		17.304468	27.588387	-10.093555
31893		17.418101	27.526555	-10.110936
31894		17.535195	27.462590	-10.122401
31895		17.648765	27.396044	-10.132591
31896		17.767670	27.332733	-10.140582
31897		17.899199	27.273783	-10.147561
31898		18.042430	27.212074	-10.149863
31899		18.182650	27.142227	-10.152537
31900		18.315375	27.065063	-10.157177
31901		18.452784	26.984333	-10.158209
31902		18.599799	26.900199	-10.155531
31903		18.763081	26.803869	-10.151281
31904		18.926628	26.697900	-10.153777
31905		19.089264	26.590103	-10.158651
31906		19.256645	26.481975	-10.161042
31907		19.422685	26.370365	-10.160554
31908		19.590203	26.257866	-10.161671
31909		19.755595	26.141350	-10.160604
31910		19.914555	26.021177	-10.157960
31911		20.066664	25.888863	-10.159503
31912		20.214371	25.745948	-10.160110
31913		20.354759	25.598204	-10.158366
31914		20.485209	25.450671	-10.151651
31915		20.603157	25.293710	-10.143174
31916		20.720659	25.131540	-10.132001
31917		20.847003	24.973069	-10.112974
31918		20.965635	24.813116	-10.091521
31919		21.073367	24.647362	-10.074563
31920		21.179188	24.483352	-10.064921
31921		21.294239	24.326481	-10.053899
31922		21.414777	24.170555	-10.038302
31923		21.529463	24.015238	-10.027991
31924		21.652375	23.863066	-10.016961
31925		21.789194	23.704177	-10.009745
31926		21.931571	23.533856	-10.009680
31927		22.076099	23.363095	-10.018910
31928		22.223372	23.190645	-10.030869
31929		22.364173	23.018881	-10.038259
31930		22.505680	22.845932	-10.048883
31931		22.653976	22.675451	-10.057590
31932		22.808301	22.508164	-10.061902
31933		22.971158	22.341791	-10.071043
31934		23.133665	22.167345	-10.082888
31935		23.289001	21.994983	-10.095570
31936		23.437429	21.828311	-10.098077
31937		23.581220	21.661718	-10.090338
31938		23.719632	21.502321	-10.074867
31939		23.850055	21.338331	-10.062838
31940		23.986530	21.176291	-10.058327
31941		24.138963	21.015701	-10.049447
31942		24.297313	20.831205	-10.040175
31943		24.457846	20.628369	-10.037493
31944		24.610319	20.432297	-10.041899
31945		24.750842	20.253688	-10.048606
31946		24.873407	20.081867	-10.058439
31947		24.986488	19.907799	-10.059873
31948		25.092152	19.723398	-10.065204
31949		25.202206	19.542730	-10.065909
31950		25.321899	19.372394	-10.062234
31951		25.444121	19.211870	-10.059824
31952		25.565789	19.052697	-10.060464
31953		25.676726	18.893255	-10.068870
31954		25.788890	18.734768	-10.074930
31955		25.913829	18.561326	-10.085530
31956		26.043000	18.375127	-10.100245
31957		26.166861	18.190801	-10.119545
31958		26.294475	18.031121	-10.133654
31959		26.417516	17.890697	-10.146534
31960		26.544965	17.754546	-10.158766
31961		26.671587	17.604731	-10.178079
31962		26.787797	17.445647	-10.199649
31963		26.888315	17.279153	-10.229679
31964		26.977271	17.120701	-10.267687
31965		27.049323	16.975581	-10.309405
31966		27.115297	16.841611	-10.353889
31967		27.193300	16.709104	-10.392863
31968		27.294105	16.558701	-10.429900
31969		27.406466	16.393163	-10.462164
31970		27.513322	16.211738	-10.493375
31971		27.593888	16.025111	-10.530187
31972		27.676136	15.835501	-10.572918
31973		27.772037	15.646976	-10.629616
31974		27.868440	15.482615	-10.682308
31975		27.942142	15.333232	-10.726677
31976		28.006387	15.193239	-10.763811
31977		28.088149	15.056123	-10.798631
31978		28.184842	14.903728	-10.834561
31979		28.277782	14.744836	-10.892975
31980		28.352018	14.590249	-10.955044
31981		28.427618	14.446869	-11.015533
31982		28.495698	14.306767	-11.071523
31983		28.561380	14.167371	-11.128339
31984		28.634238	14.024988	-11.185293
31985		28.717671	13.886298	-11.235602
31986		28.784171	13.755146	-11.292135
31987		28.827688	13.618361	-11.360514
31988		28.860357	13.475560	-11.438026
31989		28.893526	13.327017	-11.512432
31990		28.911713	13.178816	-11.577319
31991		28.911300	13.044315	-11.641663
31992		28.901063	12.918651	-11.711580
31993		28.867614	12.812306	-11.778231
31994		28.843002	12.718614	-11.834810
31995		28.825194	12.637570	-11.893674
31996		28.825272	12.570933	-11.966317
31997		28.849892	12.490964	-12.059699
31998		28.865201	12.381783	-12.159401
31999		28.877444	12.282496	-12.247177
32000		28.891557	12.191796	-12.322099
32001		28.896983	12.105320	-12.381246
32002		28.894735	12.021594	-12.434848
32003		28.868026	11.931076	-12.489493
32004		28.822201	11.860729	-12.533911
32005		28.800552	11.798775	-12.565453
32006		28.801848	11.734939	-12.603274
32007		28.807160	11.670642	-12.636439
32008		28.802245	11.606422	-12.665081
32009		28.802011	11.539859	-12.695967
32010		28.815116	11.472463	-12.730830
32011		28.839131	11.406578	-12.765523
32012		28.854828	11.340964	-12.793676
32013		28.857998	11.273088	-12.821744
32014		28.849702	11.203833	-12.848938
32015		28.843070	11.144332	-12.869097
32016		28.844327	11.093039	-12.883846
32017		28.843595	11.045966	-12.899556
32018		28.840112	11.002483	-12.923903
32019		28.849237	10.964945	-12.950010
32020		28.886576	10.936781	-12.980324
32021		28.916481	10.905646	-13.007012
32022		28.923588	10.884900	-13.027323
32023		28.929623	10.877083	-13.049507
32024		28.942860	10.877908	-13.076383
32025		28.957991	10.881216	-13.104974
32026		28.971991	10.879378	-13.136749
32027		28.967233	10.871787	-13.171694
32028		28.957749	10.867923	-13.201459
32029		28.953280	10.868454	-13.238305
32030		28.970093	10.861213	-13.275821
32031		28.996925	10.859918	-13.315798
32032		29.048739	10.882889	-13.354258
32033		29.093203	10.900846	-13.397528
32034		29.111788	10.911473	-13.438571
32035		29.112658	10.920177	-13.472152
32036		29.112839	10.927655	-13.493017
32037		29.109021	10.939775	-13.497616
32038		29.104788	10.959003	-13.498666
32039		29.099298	10.979973	-13.498899
32040		29.089169	11.002458	-13.494982
32041		29.081706	11.024640	-13.494049
32042		29.082117	11.040269	-13.503065
32043		29.090141	11.059138	-13.515360
32044		29.122452	11.088366	-13.525063
32045		29.161434	11.113243	-13.536375
32046		29.198438	11.137584	-13.547255
32047		29.228097	11.157456	-13.557516
32048		29.245501	11.177873	-13.563863
32049		29.254140	11.196710	-13.567346
32050		29.261776	11.221398	-13.569315
32051		29.271086	11.239691	-13.572815
32052		29.274694	11.254843	-13.581080
32053		29.272130	11.267460	-13.590067
32054		29.271861	11.283632	-13.598921
32055		29.278637	11.301262	-13.608617
32056		29.292262	11.320584	-13.620302
32057		29.306031	11.338935	-13.627405
32058		29.317130	11.357594	-13.631532
32059		29.317443	11.376591	-13.630194
32060		29.315823	11.394243	-13.626276
32061		29.307000	11.404498	-13.624408
32062		29.299812	11.418335	-13.618022
32063		29.294942	11.424949	-13.616326
32064		29.290692	11.430376	-13.614834
32065		29.282139	11.433977	-13.616928
32066		29.270084	11.442552	-13.616057
32067		29.258170	11.449964	-13.617021
32068		29.249241	11.459974	-13.616915
32069		29.244441	11.465490	-13.615463
32070		29.243174	11.475476	-13.619265
32071		29.235695	11.484057	-13.622848
32072		29.227897	11.497218	-13.626877
32073		29.234254	11.510056	-13.632822
32074		29.240292	11.513801	-13.640277
32075		29.239904	11.519871	-13.647326
32076		29.239940	11.529178	-13.652330
32077		29.235191	11.533277	-13.654123
32078		29.230409	11.536315	-13.655304
32079		29.221979	11.537505	-13.650910
32080		29.208810	11.542518	-13.644883
32081		29.197124	11.544799	-13.636186
32082		29.189148	11.548023	-13.627109
32083		29.183802	11.551451	-13.625684
32084		29.189161	11.556246	-13.624129
32085		29.199834	11.557885	-13.627827
32086		29.209684	11.562122	-13.635103
32087		29.217519	11.570466	-13.639446
32088		29.230369	11.578968	-13.641050
32089		29.239416	11.588842	-13.645350
32090		29.245773	11.599713	-13.645138
32091		29.252671	11.614734	-13.641150
32092		29.256064	11.634719	-13.634420
32093		29.256943	11.655503	-13.621955
32094		29.254620	11.675203	-13.604738
32095		29.251068	11.695938	-13.588396
32096		29.247237	11.721151	-13.568635
32097		29.247361	11.745585	-13.546864
32098		29.248692	11.770413	-13.520804
32099		29.243701	11.796648	-13.488101
32100		29.233813	11.830553	-13.456775
32101		29.235092	11.873914	-13.432890
32102		29.247663	11.920209	-13.417658
32103		29.252856	11.962718	-13.400169
32104		29.253041	12.015842	-13.381220
32105		29.267752	12.075187	-13.365400
32106		29.302969	12.131322	-13.356294
32107		29.342478	12.193971	-13.344829
32108		29.381949	12.271946	-13.334663
32109		29.416351	12.351438	-13.321571
32110		29.447886	12.438376	-13.306234
32111		29.472717	12.535831	-13.290717
32112		29.497650	12.645620	-13.275725
32113		29.534709	12.758212	-13.266379
32114		29.574352	12.869533	-13.257974
32115		29.618408	12.989287	-13.238385
32116		29.669130	13.122357	-13.209007
32117		29.735497	13.256501	-13.171549
32118		29.790387	13.396791	-13.121335
32119		29.838149	13.546603	-13.070347
32120		29.887731	13.702349	-13.019927
32121		29.942841	13.856492	-12.968268
32122		29.998322	14.005713	-12.912692
32123		30.053416	14.147156	-12.871305
32124		30.121792	14.285315	-12.846858
32125		30.209113	14.443072	-12.818346
32126		30.312704	14.613587	-12.771337
32127		30.405656	14.785320	-12.702937
32128		30.473070	14.951965	-12.618321
32129		30.528417	15.105245	-12.534062
32130		30.573177	15.245060	-12.457089
32131		30.618602	15.374448	-12.379448
32132		30.660924	15.501580	-12.303922
32133		30.694548	15.614353	-12.238433
32134		30.724363	15.716742	-12.180170
32135		30.754400	15.824076	-12.118896
32136		30.776872	15.950970	-12.043403
32137		30.800875	16.090096	-11.947313
32138		30.827389	16.222952	-11.845090
32139		30.842007	16.341606	-11.749288
32140		30.858673	16.452961	-11.657995
32141		30.899677	16.562754	-11.578734
32142		30.952899	16.676559	-11.516075
32143		31.007867	16.783790	-11.466200
32144		31.031647	16.883854	-11.422234
32145		31.012960	16.984618	-11.377277
32146		30.968201	17.094571	-11.321190
32147		30.918118	17.203858	-11.258995
32148		30.877500	17.299486	-11.206219
32149		30.860742	17.376739	-11.174754
32150		30.893890	17.445619	-11.155770
32151		30.964778	17.513248	-11.135046
32152		31.053941	17.583337	-11.111583
32153		31.141845	17.665843	-11.098883
32154		31.219049	17.757900	-11.102562
32155		31.295055	17.845302	-11.118555
32156		31.417733	17.891862	-11.199079
32157		31.424127	17.984445	-11.195434
32158		31.372383	18.104810	-11.159995
32159		31.294722	18.227163	-11.104516
32160		31.208302	18.353917	-11.033178
32161		31.125482	18.479719	-10.949842
32162		31.039045	18.598180	-10.864764
32163		30.956089	18.706323	-10.791297
32164		30.886151	18.820641	-10.727579
32165		30.827507	18.951760	-10.671567
32166		30.774062	19.099126	-10.614927
32167		30.721802	19.246575	-10.563085
32168		30.651458	19.408392	-10.519106
32169		30.533035	19.564377	-10.468899
32170		30.391442	19.718096	-10.416385
32171		30.229805	19.873305	-10.364765
32172		30.055412	20.035791	-10.318574
32173		29.904551	20.205486	-10.272596
32174		29.788463	20.390171	-10.214934
32175		29.695470	20.580366	-10.163959
32176		29.604688	20.762845	-10.126595
32177		29.502354	20.941076	-10.096815
32178		29.391015	21.122397	-10.065791
32179		29.272889	21.304409	-10.032001
32180		29.137121	21.486726	-9.998791
32181		28.978743	21.666003	-9.971714
32182		28.804344	21.847732	-9.948113
32183		28.654620	22.030668	-9.912900
32184		28.528927	22.211987	-9.858814
32185		28.405830	22.386635	-9.800361
32186		28.267645	22.552279	-9.756097
32187		28.121031	22.715967	-9.737980
32188		27.998450	22.881473	-9.732869
32189		27.912868	23.053867	-9.736545
32190		27.831641	23.241148	-9.741327
32191		27.716134	23.429524	-9.760724
32192		27.560780	23.623464	-9.783750
32193		27.372124	23.826913	-9.805192
32194		27.210004	24.082938	-9.787144
32195		27.044450	24.362109	-9.704902
32196		26.723379	24.535023	-9.658088
32197		26.511298	24.646690	-9.631940
32198		26.302488	24.755835	-9.615674
32199		26.084980	24.873877	-9.606602
32200		25.868889	25.009957	-9.595295
32201		25.654676	25.148200	-9.579511
32202		25.440360	25.276180	-9.563749
32203		25.244156	25.397435	-9.550127
32204		25.077602	25.526583	-9.534462
32205		24.910352	25.644826	-9.524221
32206		24.721561	25.751057	-9.512896
32207		24.514903	25.854231	-9.497730
32208		24.300166	25.956750	-9.469006
32209		24.076611	26.051939	-9.428565
32210		23.853024	26.143655	-9.373605
32211		23.640223	26.228924	-9.307858
32212		23.434499	26.314330	-9.243236
32213		23.213519	26.391531	-9.185498
32214		22.976513	26.474635	-9.129498
32215		22.740526	26.555930	-9.076222
32216		22.504089	26.628152	-9.026337
32217		22.264135	26.685743	-8.983666
32218		22.020150	26.735097	-8.946434
32219		21.786669	26.777739	-8.909802
32220		21.561464	26.814025	-8.875128
32221		21.373530	26.850044	-8.846678
32222		21.212636	26.884904	-8.821353
32223		21.070414	26.924628	-8.798731
32224		20.934568	26.975646	-8.776465
32225		20.798966	27.031928	-8.756840
32226		20.656595	27.087620	-8.742990
32227		20.503282	27.135702	-8.732463
32228		20.342402	27.171355	-8.733738
32229		20.180046	27.205379	-8.736081
32230		20.026396	27.235972	-8.737370
32231		19.877837	27.260426	-8.731130
32232		19.726220	27.284545	-8.718995
32233		19.578683	27.301877	-8.706338
32234		19.436839	27.323585	-8.690452
32235		19.306322	27.356733	-8.659402
32236		19.187227	27.400077	-8.617126
32237		19.062695	27.441487	-8.576390
32238		18.935905	27.476451	-8.538066
32239		18.815960	27.505395	-8.502783
32240		18.696967	27.534385	-8.469908
32241		18.573742	27.561761	-8.439156
32242		18.441702	27.586408	-8.414819
32243		18.312757	27.605472	-8.392144
32244		18.182266	27.616799	-8.367281
32245		18.050582	27.622122	-8.342134
32246		17.903243	27.628389	-8.324973
32247		17.744521	27.631402	-8.309648
32248		17.579279	27.624878	-8.294869
32249		17.406169	27.611296	-8.276452
32250		17.226750	27.596634	-8.252290
32251		17.045542	27.580043	-8.223006
32252		16.866430	27.563501	-8.192993
32253		16.683001	27.543018	-8.166154
32254		16.493720	27.520993	-8.143574
32255		16.295381	27.502821	-8.120150
32256		16.090334	27.487475	-8.097518
32257		15.884013	27.469979	-8.070849
32258		15.677541	27.454275	-8.040697
32259		15.459901	27.441855	-8.010696
32260		15.237909	27.439100	-7.978049
32261		15.025939	27.434085	-7.949389
32262		14.842725	27.424326	-7.912694
32263		14.710226	27.422153	-7.856167
32264		14.609741	27.416926	-7.800498
32265		14.519403	27.377150	-7.773365
32266		14.460818	27.306875	-7.773812
32267		14.464872	27.242696	-7.784024
32268		14.505035	27.201049	-7.799908
32269		14.558999	27.167915	-7.818610
32270		14.601132	27.128912	-7.838630
32271		14.634880	27.095937	-7.847907
32272		14.652960	27.078194	-7.850774
32273		14.649638	27.065883	-7.851432
32274		14.632941	27.054791	-7.845061
32275		14.610419	27.036576	-7.825502
32276		14.582987	27.012096	-7.800090
32277		14.545646	26.988722	-7.779607
32278		14.512478	26.971959	-7.765653
32279		14.493433	26.956788	-7.766939
32280		14.492559	26.938143	-7.774258
32281		14.506335	26.917494	-7.779878
32282		14.529709	26.905392	-7.781621
32283		14.548569	26.904518	-7.781779
32284		14.562106	26.913745	-7.776478
32285		14.562423	26.918760	-7.772601
32286		14.558317	26.918954	-7.768241
32287		14.554023	26.917240	-7.760889
32288		14.551085	26.916027	-7.753148
32289		14.550586	26.912295	-7.746878
32290		14.554582	26.908165	-7.745869
32291		14.563107	26.902138	-7.745292
32292		14.568461	26.900669	-7.743617
32293		14.575109	26.902800	-7.741667
32294		14.574445	26.908918	-7.735396
32295		14.574472	26.911343	-7.729325
32296		14.573389	26.909851	-7.722353
32297		14.570255	26.901969	-7.716743
32298		14.564231	26.891639	-7.708784
32299		14.559429	26.883762	-7.701220
32300		14.557389	26.878128	-7.696838
32301		14.554718	26.873107	-7.696972
32302		14.561879	26.874527	-7.700606
32303		14.576869	26.881507	-7.703885
32304		14.594369	26.895957	-7.706862
32305		14.606715	26.909239	-7.709405
32306		14.611980	26.916213	-7.711890
32307		14.613093	26.916164	-7.716808
32308		14.617766	26.915805	-7.719757
32309		14.623142	26.913392	-7.727032
32310		14.626651	26.914443	-7.733357
32311		14.631877	26.910278	-7.746627
32312		14.634104	26.903003	-7.762951
32313		14.639160	26.899091	-7.777378
32314		14.644084	26.899780	-7.792164
32315		14.644426	26.902318	-7.802172
32316		14.644882	26.905593	-7.815817
32317		14.639776	26.909724	-7.831775
32318		14.634229	26.911093	-7.851011
32319		14.628495	26.908409	-7.872166
32320		14.623817	26.901542	-7.895603
32321		14.623598	26.891608	-7.920147
32322		14.631018	26.882897	-7.941696
32323		14.643759	26.875016	-7.958115
32324		14.662694	26.868331	-7.972122
32325		14.676544	26.860039	-7.994600
32326		14.677550	26.851446	-8.024502
32327		14.669565	26.835675	-8.063544
32328		14.660228	26.815625	-8.108194
32329		14.650784	26.795325	-8.153872
32330		14.647474	26.783642	-8.191864
32331		14.642266	26.779039	-8.223759
32332		14.631133	26.773714	-8.255939
32333		14.616280	26.768421	-8.286566
32334		14.601158	26.765353	-8.318848
32335		14.587631	26.760365	-8.349954
32336		14.578461	26.749480	-8.383199
32337		14.580087	26.736315	-8.414898
32338		14.590931	26.730840	-8.444624
32339		14.607806	26.731678	-8.477184
32340		14.627215	26.732852	-8.505355
32341		14.641204	26.722789	-8.536281
32342		14.658191	26.709274	-8.565780
32343		14.688541	26.696526	-8.593678
32344		14.731833	26.684488	-8.622146
32345		14.781788	26.672993	-8.654039
32346		14.838897	26.663622	-8.686276
32347		14.900052	26.655900	-8.722106
32348		14.973814	26.654296	-8.755576
32349		15.053621	26.648895	-8.783792
32350		15.141530	26.641282	-8.815631
32351		15.231482	26.627707	-8.848365
32352		15.322305	26.612933	-8.884267
32353		15.415614	26.594871	-8.926649
32354		15.514162	26.576890	-8.969006
32355		15.615751	26.557908	-9.017966
32356		15.732607	26.535295	-9.066376
32357		15.852483	26.510569	-9.121937
32358		15.979106	26.472935	-9.178819
32359		16.110052	26.425430	-9.240325
32360		16.252371	26.377406	-9.299867
32361		16.403478	26.331053	-9.352519
32362		16.562930	26.287886	-9.400834
32363		16.728856	26.241054	-9.445945
32364		16.894915	26.191373	-9.495400
32365		17.061255	26.142210	-9.542788
32366		17.221553	26.089381	-9.587199
32367		17.391427	26.035258	-9.628628
32368		17.572175	25.982415	-9.666968
32369		17.777025	25.915053	-9.714417
32370		17.956280	25.858500	-9.760114
32371		18.155324	25.809042	-9.803730
32372		18.355313	25.761627	-9.844150
32373		18.551760	25.713661	-9.881666
32374		18.756587	25.666564	-9.914972
32375		18.966269	25.613865	-9.942540
32376		19.171273	25.557410	-9.966000
32377		19.366173	25.498398	-9.987404
32378		19.555268	25.437080	-10.008034
32379		19.729913	25.374846	-10.029714
32380		19.907479	25.306103	-10.054917
32381		20.088695	25.239578	-10.082570
32382		20.271871	25.177222	-10.103195
32383		20.459456	25.110198	-10.115431
32384		20.645667	25.039177	-10.117579
32385		20.821949	24.963400	-10.121592
32386		20.987138	24.883199	-10.125538
32387		21.146946	24.804340	-10.130129
32388		21.309407	24.727900	-10.127914
32389		21.477487	24.648130	-10.123213
32390		21.670500	24.565407	-10.117042
32391		21.881980	24.482862	-10.109200
32392		22.093427	24.407120	-10.099401
32393		22.298889	24.329530	-10.090658
32394		22.496307	24.245205	-10.089718
32395		22.689904	24.152570	-10.094544
32396		22.884953	24.060454	-10.091567
32397		23.066739	23.958784	-10.091993
32398		23.240915	23.854235	-10.095505
32399		23.404200	23.751265	-10.096493
32400		23.556682	23.648103	-10.093732
32401		23.711371	23.536512	-10.089498
32402		23.866864	23.422979	-10.083125
32403		24.016079	23.313487	-10.073422
32404		24.163200	23.204910	-10.063579
32405		24.303669	23.092366	-10.055295
32406		24.434877	22.966555	-10.055615
32407		24.559709	22.818489	-10.070932
32408		24.696989	22.680956	-10.083513
32409		24.840574	22.557210	-10.089642
32410		24.991643	22.441905	-10.090005
32411		25.145435	22.337842	-10.094250
32412		25.297658	22.237095	-10.092958
32413		25.447139	22.124134	-10.094476
32414		25.591315	21.997410	-10.105689
32415		25.726689	21.854381	-10.123969
32416		25.863039	21.705113	-10.145602
32417		26.012153	21.566557	-10.161369
32418		26.173362	21.445333	-10.169232
32419		26.333615	21.334663	-10.170573
32420		26.484807	21.214668	-10.180327
32421		26.641921	21.079307	-10.199109
32422		26.809169	20.942167	-10.221958
32423		26.984092	20.791322	-10.256091
32424		27.150104	20.643421	-10.288564
32425		27.279785	20.507609	-10.318236
32426		27.394754	20.370857	-10.344772
32427		27.505694	20.229022	-10.384022
32428		27.622641	20.087364	-10.421621
32429		27.754068	19.948118	-10.457660
32430		27.883050	19.812969	-10.480600
32431		27.998523	19.671669	-10.503018
32432		28.114519	19.523417	-10.528945
32433		28.238496	19.373535	-10.564429
32434		28.372406	19.235027	-10.594014
32435		28.512087	19.115337	-10.611432
32436		28.644984	18.982974	-10.624017
32437		28.762050	18.831815	-10.647818
32438		28.874549	18.672828	-10.671906
32439		28.966878	18.525368	-10.694539
32440		29.045087	18.375914	-10.728326
32441		29.127992	18.217151	-10.776303
32442		29.227120	18.062769	-10.825282
32443		29.340283	17.922547	-10.863191
32444		29.451900	17.792767	-10.890129
32445		29.566366	17.661678	-10.911210
32446		29.671600	17.509326	-10.945582
32447		29.767970	17.342249	-10.997755
32448		29.872300	17.180240	-11.047180
32449		29.980234	17.011924	-11.093136
32450		30.055592	16.834983	-11.133627
32451		30.108965	16.666156	-11.173648
32452		30.153909	16.511872	-11.209081
32453		30.198992	16.368822	-11.236589
32454		30.259593	16.226943	-11.266203
32455		30.327377	16.070025	-11.306181
32456		30.389514	15.892880	-11.358983
32457		30.451312	15.703386	-11.417916
32458		30.496215	15.524983	-11.478874
32459		30.530722	15.360046	-11.538076
32460		30.563879	15.180333	-11.595088
32461		30.614159	14.995639	-11.651315
32462		30.660302	14.828670	-11.710875
32463		30.692366	14.659403	-11.778127
32464		30.738960	14.490273	-11.838654
32465		30.809973	14.333398	-11.894517
32466		30.866306	14.174325	-11.960554
32467		30.889126	14.020123	-12.029377
32468		30.907547	13.873134	-12.087650
32469		30.939122	13.721588	-12.147877
32470		30.985391	13.559940	-12.206191
32471		31.035596	13.401760	-12.265964
32472		31.071253	13.241257	-12.325905
32473		31.090739	13.088263	-12.376909
32474		31.107162	12.955556	-12.420674
32475		31.123045	12.824180	-12.467286
32476		31.131889	12.696082	-12.518265
32477		31.139423	12.572294	-12.568270
32478		31.144220	12.474153	-12.609173
32479		31.169004	12.373558	-12.639805
32480		31.192259	12.266032	-12.677377
32481		31.204532	12.162998	-12.719877
32482		31.212343	12.063691	-12.766498
32483		31.210156	11.960326	-12.814638
32484		31.203107	11.864799	-12.851403
32485		31.184127	11.779158	-12.885199
32486		31.179424	11.697616	-12.931652
32487		31.198611	11.620961	-12.993649
32488		31.223501	11.546345	-13.048709
32489		31.227709	11.470786	-13.091091
32490		31.206721	11.384732	-13.132843
32491		31.173379	11.301489	-13.169396
32492		31.157189	11.224662	-13.205335
32493		31.130397	11.153428	-13.233716
32494		31.109400	11.082609	-13.261400
32495		31.111467	11.014418	-13.291248
32496		31.123437	10.957235	-13.322802
32497		31.126959	10.902438	-13.353082
32498		31.123339	10.837073	-13.385588
32499		31.107628	10.764998	-13.409603
32500		31.084484	10.705916	-13.438465
32501		31.063052	10.638545	-13.467231
32502		31.045419	10.584907	-13.492372
32503		31.041736	10.560720	-13.512143
32504		31.033689	10.539281	-13.540746
32505		31.009970	10.510261	-13.569861
32506		30.990430	10.492431	-13.604988
32507		30.981774	10.474654	-13.638871
32508		30.972070	10.462520	-13.667625
32509		30.962855	10.463540	-13.689760
32510		30.956826	10.464964	-13.712132
32511		30.950302	10.464255	-13.735563
32512		30.947666	10.465093	-13.763392
32513		30.949916	10.460780	-13.796091
32514		30.947417	10.451322	-13.833420
32515		30.955069	10.443574	-13.868642
32516		30.992252	10.436843	-13.885734
32517		31.033722	10.427600	-13.912380
32518		31.062186	10.418896	-13.934571
32519		31.085157	10.414924	-13.951752
32520		31.112945	10.418889	-13.971916
32521		31.145219	10.424296	-13.993105
32522		31.182645	10.440246	-14.012073
32523		31.222054	10.455635	-14.031806
32524		31.251338	10.478251	-14.047028
32525		31.283478	10.495215	-14.061786
32526		31.309996	10.507689	-14.074952
32527		31.319683	10.519442	-14.081077
32528		31.308444	10.531864	-14.076486
32529		31.286535	10.548271	-14.063975
32530		31.252680	10.569788	-14.047736
32531		31.214859	10.598471	-14.038270
32532		31.179902	10.631149	-14.024695
32533		31.152567	10.664209	-14.006700
32534		31.129376	10.694471	-13.995730
32535		31.105942	10.720131	-13.989587
32536		31.082354	10.738038	-13.988271
32537		31.062155	10.753211	-13.988558
32538		31.044440	10.767260	-13.983857
32539		31.026965	10.777948	-13.982192
32540		31.012625	10.790590	-13.980937
32541		30.994210	10.810647	-13.983780
32542		30.989936	10.833528	-13.993301
32543		30.995547	10.855672	-14.009479
32544		31.005851	10.872641	-14.025149
32545		31.020464	10.891567	-14.036654
32546		31.042573	10.911435	-14.043172
32547		31.059426	10.933139	-14.047340
32548		31.069263	10.954184	-14.053364
32549		31.077922	10.971934	-14.056271
32550		31.087146	10.991576	-14.060800
32551		31.104273	11.008893	-14.067508
32552		31.127815	11.027861	-14.077721
32553		31.156434	11.048831	-14.088558
32554		31.183642	11.069256	-14.094249
32555		31.199518	11.083767	-14.098306
32556		31.206842	11.100716	-14.098744
32557		31.207836	11.116600	-14.100349
32558		31.204825	11.134220	-14.100007
32559		31.196529	11.152835	-14.095636
32560		31.185382	11.176671	-14.090627
32561		31.177196	11.195868	-14.090626
32562		31.169689	11.213081	-14.089484
32563		31.155781	11.229488	-14.086788
32564		31.141022	11.249517	-14.083890
32565		31.129055	11.265425	-14.080914
32566		31.109002	11.289030	-14.078907
32567		31.082608	11.309898	-14.073928
32568		31.051739	11.329744	-14.068915
32569		31.022846	11.349869	-14.066694
32570		30.996486	11.370955	-14.064461
32571		30.979389	11.398427	-14.060552
32572		30.979953	11.422198	-14.060445
32573		30.985799	11.445108	-14.063712
32574		30.988313	11.468796	-14.064245
32575		30.985060	11.489885	-14.060540
32576		30.977009	11.513357	-14.048531
32577		30.961143	11.537774	-14.033138
32578		30.936923	11.562585	-14.019419
32579		30.909201	11.592041	-14.001120
32580		30.899192	11.641322	-13.984780
32581		30.913614	11.693135	-13.972278
32582		30.936220	11.747700	-13.957057
32583		30.954269	11.802302	-13.936553
32584		30.964665	11.865537	-13.907848
32585		30.983767	11.936461	-13.878808
32586		31.012610	12.010382	-13.860000
32587		31.035662	12.087392	-13.847292
32588		31.050451	12.164131	-13.837527
32589		31.076430	12.249287	-13.825122
32590		31.121724	12.336131	-13.813996
32591		31.167956	12.416941	-13.800804
32592		31.198881	12.507307	-13.781018
32593		31.222526	12.602837	-13.756255
32594		31.234842	12.691539	-13.728634
32595		31.230169	12.784734	-13.693970
32596		31.211444	12.890720	-13.656664
32597		31.187585	12.997444	-13.618098
32598		31.165505	13.110630	-13.581312
32599		31.152822	13.219177	-13.553787
32600		31.160678	13.318920	-13.539334
32601		31.179145	13.414293	-13.530965
32602		31.199177	13.517250	-13.507728
32603		31.213846	13.625622	-13.471664
32604		31.228853	13.742790	-13.424114
32605		31.234590	13.867880	-13.365044
32606		31.234984	14.001957	-13.298587
32607		31.237530	14.135535	-13.236406
32608		31.237686	14.268671	-13.178993
32609		31.243138	14.403970	-13.119253
32610		31.266024	14.544780	-13.062473
32611		31.315428	14.690053	-13.018094
32612		31.388776	14.838041	-12.992974
32613		31.474082	14.981147	-12.972265
32614		31.556319	15.124663	-12.947078
32615		31.626479	15.267134	-12.917803
32616		31.682599	15.413632	-12.869759
32617		31.717632	15.563948	-12.800869
32618		31.745064	15.717504	-12.731108
32619		31.767690	15.862811	-12.667985
32620		31.795091	16.006112	-12.607795
32621		31.829080	16.152433	-12.550461
32622		31.848217	16.284657	-12.517272
32623		31.839141	16.401956	-12.491177
32624		31.820955	16.526351	-12.458098
32625		31.812782	16.656934	-12.410023
32626		31.806375	16.784709	-12.352656
32627		31.806287	16.904106	-12.289616
32628		31.811260	17.018819	-12.219556
32629		31.811664	17.129125	-12.136382
32630		31.796934	17.233315	-12.046592
32631		31.772053	17.332608	-11.957500
32632		31.752244	17.431315	-11.879250
32633		31.759017	17.521306	-11.815049
32634		31.809284	17.602295	-11.766586
32635		31.891262	17.682311	-11.728874
32636		31.965288	17.759288	-11.680692
32637		32.014408	17.820516	-11.645992
32638		32.027523	17.878233	-11.617768
32639		32.009672	17.943762	-11.576797
32640		31.978741	18.014359	-11.517756
32641		31.958696	18.054864	-11.442275
32642		31.969291	18.033778	-11.355978
32643		31.985417	17.955965	-11.261179
32644		32.027146	17.852449	-11.167079
32645		32.120050	17.738877	-11.101758
32646		32.087173	17.701399	-10.985180
32647		32.062345	17.716674	-10.907039
32648		32.031872	17.795406	-10.843716
32649		31.994836	17.917760	-10.776371
32650		31.926538	18.077243	-10.703064
32651		31.823648	18.246580	-10.633852
32652		31.705778	18.417831	-10.568113
32653		31.581604	18.585896	-10.501895
32654		31.431489	18.749222	-10.450731
32655		31.283977	18.905144	-10.402468
32656		31.167739	19.058269	-10.359264
32657		31.059854	19.220761	-10.333342
32658		30.929588	19.411633	-10.309558
32659		30.786110	19.626500	-10.287056
32660		30.639534	19.847931	-10.261753
32661		30.481219	20.070519	-10.235742
32662		30.323049	20.279871	-10.209211
32663		30.176777	20.476647	-10.170709
32664		30.016918	20.657259	-10.131998
32665		29.852222	20.830601	-10.097996
32666		29.703970	20.995484	-10.054653
32667		29.538237	21.150270	-10.019162
32668		29.323101	21.311040	-9.987461
32669		29.080443	21.495273	-9.954874
32670		28.846798	21.713771	-9.914167
32671		28.636672	21.952647	-9.874815
32672		28.534962	22.242145	-9.799408
32673		28.396602	22.521952	-9.686373
32674		28.149174	22.693604	-9.602894
32675		27.952836	22.828980	-9.531509
32676		27.711625	22.950625	-9.471271
32677		27.440841	23.060738	-9.419727
32678		27.209481	23.183123	-9.361151
32679		27.048679	23.315126	-9.301082
32680		26.909971	23.454952	-9.251947
32681		26.746848	23.606923	-9.219197
32682		26.545322	23.772998	-9.195915
32683		26.304799	23.945233	-9.181166
32684		26.049275	24.125522	-9.150107
32685		25.783424	24.308708	-9.103090
32686		25.507830	24.472986	-9.041727
32687		25.239534	24.616760	-8.980412
32688		24.984127	24.752393	-8.922506
32689		24.746905	24.891394	-8.860844
32690		24.529420	25.030424	-8.800205
32691		24.337694	25.165453	-8.745500
32692		24.159628	25.299461	-8.693122
32693		23.994141	25.428625	-8.646491
32694		23.834831	25.552869	-8.610099
32695		23.676109	25.668077	-8.580007
32696		23.498192	25.773695	-8.556698
32697		23.292326	25.873790	-8.540878
32698		23.074925	25.986819	-8.521619
32699		22.857585	26.104411	-8.506592
32700		22.648147	26.218389	-8.485936
32701		22.455033	26.333680	-8.471683
32702		22.262689	26.443061	-8.461880
32703		22.053050	26.545033	-8.463292
32704		21.833121	26.643534	-8.467609
32705		21.616917	26.731807	-8.467775
32706		21.410421	26.804605	-8.464809
32707		21.222890	26.853534	-8.464078
32708		21.047428	26.901464	-8.467368
32709		20.865581	26.959904	-8.478200
32710		20.675731	27.017653	-8.494782
32711		20.502213	27.075798	-8.506601
32712		20.338096	27.146445	-8.511124
32713		20.173385	27.218016	-8.514292
32714		20.011134	27.287405	-8.513761
32715		19.838860	27.347559	-8.514185
32716		19.656691	27.398290	-8.515247
32717		19.459687	27.444394	-8.518236
32718		19.250961	27.487715	-8.520263
32719		19.033590	27.528127	-8.527570
32720		18.818144	27.565019	-8.535682
32721		18.614868	27.594869	-8.537111
32722		18.425517	27.620544	-8.533871
32723		18.238130	27.641441	-8.530903
32724		18.072967	27.655213	-8.526245
32725		17.924059	27.677715	-8.517116
32726		17.774983	27.705664	-8.503867
32727		17.622731	27.734251	-8.489397
32728		17.472239	27.770069	-8.465671
32729		17.313423	27.809116	-8.444015
32730		17.144779	27.841442	-8.422867
32731		16.961668	27.858973	-8.407911
32732		16.773273	27.866710	-8.399588
32733		16.583936	27.869294	-8.389058
32734		16.410176	27.875731	-8.375529
32735		16.244999	27.883436	-8.361929
32736		16.102962	27.889579	-8.343790
32737		15.990730	27.895705	-8.315302
32738		15.902458	27.903801	-8.275796
32739		15.833377	27.895489	-8.243849
32740		15.782926	27.868397	-8.229027
32741		15.755374	27.826980	-8.233222
32742		15.749819	27.791180	-8.250131
32743		15.763494	27.768015	-8.274231
32744		15.781130	27.745367	-8.303544
32745		15.796673	27.717540	-8.334350
32746		15.810343	27.695114	-8.358790
32747		15.821797	27.674854	-8.379320
32748		15.814497	27.650177	-8.397911
32749		15.795492	27.619213	-8.405928
32750		15.765495	27.589592	-8.407175
32751		15.736050	27.564232	-8.397977
32752		15.710721	27.547369	-8.386461
32753		15.684919	27.528886	-8.383659
32754		15.666854	27.503956	-8.388924
32755		15.657285	27.471994	-8.400920
32756		15.653924	27.438890	-8.411616
32757		15.656139	27.407839	-8.419370
32758		15.654505	27.384474	-8.425117
32759		15.648267	27.369638	-8.428586
32760		15.635578	27.360095	-8.435468
32761		15.622029	27.354773	-8.442819
32762		15.606975	27.352800	-8.451211
32763		15.590209	27.355878	-8.461332
32764		15.572726	27.360295	-8.471930
32765		15.554307	27.368303	-8.488811
32766		15.528379	27.379826	-8.507120
32767		15.495884	27.395663	-8.529276
32768		15.460149	27.412200	-8.550784
32769		15.426035	27.426508	-8.570085
32770		15.399583	27.442106	-8.586252
32771		15.381632	27.455105	-8.603489
32772		15.372684	27.467040	-8.617821
32773		15.371915	27.480188	-8.629843
32774		15.374561	27.485103	-8.637738
32775		15.379519	27.480770	-8.644760
32776		15.387967	27.466160	-8.652944
32777		15.397961	27.445563	-8.660501
32778		15.408239	27.422495	-8.666628
32779		15.426119	27.399767	-8.659469
32780		15.452225	27.378618	-8.655038
32781		15.481087	27.364702	-8.647640
32782		15.514058	27.356663	-8.638221
32783		15.551673	27.351767	-8.627446
32784		15.585990	27.345802	-8.622532
32785		15.616134	27.337788	-8.619484
32786		15.650085	27.331814	-8.612225
32787		15.676844	27.328665	-8.613999
32788		15.701786	27.328905	-8.613915
32789		15.721728	27.327627	-8.622149
32790		15.739803	27.327681	-8.634573
32791		15.748094	27.326997	-8.651242
32792		15.755030	27.329401	-8.667640
32793		15.765222	27.334324	-8.678494
32794		15.780243	27.343120	-8.687047
32795		15.802763	27.355751	-8.698111
32796		15.825325	27.368285	-8.714114
32797		15.843367	27.374350	-8.735741
32798		15.852428	27.376251	-8.761511
32799		15.859713	27.371132	-8.787165
32800		15.870554	27.367218	-8.810644
32801		15.884282	27.367281	-8.836457
32802		15.903142	27.369492	-8.868309
32803		15.923364	27.368887	-8.910750
32804		15.954413	27.372973	-8.955543
32805		15.988643	27.381113	-9.005172
32806		16.026521	27.388419	-9.057906
32807		16.072176	27.397843	-9.111082
32808		16.134208	27.408917	-9.160098
32809		16.208361	27.416100	-9.202765
32810		16.286451	27.418661	-9.241995
32811		16.377158	27.422936	-9.280087
32812		16.468123	27.431931	-9.320601
32813		16.553377	27.435637	-9.365774
32814		16.640127	27.437947	-9.415244
32815		16.737468	27.444278	-9.458065
32816		16.843238	27.449335	-9.492574
32817		16.958645	27.453118	-9.524464
32818		17.081878	27.451838	-9.553455
32819		17.210568	27.447025	-9.576699
32820		17.335537	27.432300	-9.595407
32821		17.462401	27.410953	-9.611231
32822		17.580742	27.381963	-9.628288
32823		17.692999	27.343555	-9.648570
32824		17.796002	27.307083	-9.668334
32825		17.888692	27.270588	-9.685975
32826		17.980804	27.241811	-9.695495
32827		18.070615	27.218107	-9.695713
32828		18.155824	27.199518	-9.683391
32829		18.227458	27.181709	-9.673717
32830		18.298195	27.169369	-9.664421
32831		18.370799	27.159912	-9.660928
32832		18.444351	27.147720	-9.666430
32833		18.526329	27.127942	-9.680843
32834		18.625103	27.106070	-9.693425
32835		18.745026	27.076640	-9.708052
32836		18.881134	27.040042	-9.727234
32837		19.032931	27.004538	-9.747806
32838		19.182243	26.970061	-9.766680
32839		19.329739	26.933863	-9.784424
32840		19.478454	26.896386	-9.797780
32841		19.627522	26.848803	-9.810404
32842		19.778298	26.793230	-9.821317
32843		19.934860	26.730718	-9.823808
32844		20.095778	26.660672	-9.818409
32845		20.244658	26.583566	-9.815315
32846		20.377528	26.496998	-9.814729
32847		20.502409	26.398592	-9.816663
32848		20.630103	26.300412	-9.816491
32849		20.768272	26.203423	-9.810538
32850		20.910812	26.099972	-9.795441
32851		21.060766	25.985472	-9.780210
32852		21.224497	25.867647	-9.765523
32853		21.389206	25.756472	-9.751703
32854		21.547721	25.642039	-9.733358
32855		21.704785	25.515478	-9.724163
32856		21.850925	25.382084	-9.724717
32857		21.988230	25.241604	-9.734753
32858		22.134796	25.096470	-9.744840
32859		22.295681	24.948037	-9.750196
32860		22.474520	24.801298	-9.752393
32861		22.665603	24.650310	-9.750153
32862		22.879722	24.494189	-9.740567
32863		23.097998	24.338567	-9.734057
32864		23.295165	24.180244	-9.733854
32865		23.466116	24.020957	-9.738608
32866		23.618444	23.855916	-9.745493
32867		23.761495	23.691448	-9.752190
32868		23.925595	23.539980	-9.747482
32869		24.104667	23.392532	-9.733854
32870		24.297013	23.229906	-9.719975
32871		24.497373	23.048074	-9.713854
32872		24.683413	22.859171	-9.713795
32873		24.836989	22.675254	-9.715101
32874		24.968824	22.506070	-9.704583
32875		25.087879	22.342645	-9.686983
32876		25.207647	22.179436	-9.666414
32877		25.320508	22.015363	-9.648476
32878		25.437564	21.849646	-9.635540
32879		25.564195	21.678460	-9.635216
32880		25.696139	21.516123	-9.641817
32881		25.829590	21.367631	-9.642060
32882		25.959096	21.218047	-9.630627
32883		26.082215	21.059052	-9.616551
32884		26.190391	20.901482	-9.598520
32885		26.298525	20.730114	-9.581763
32886		26.420102	20.544917	-9.570540
32887		26.535593	20.364321	-9.571929
32888		26.647923	20.192648	-9.582281
32889		26.774743	20.032703	-9.586514
32890		26.908636	19.884141	-9.576748
32891		27.030916	19.733094	-9.563161
32892		27.141625	19.576657	-9.558619
32893		27.253329	19.406131	-9.561549
32894		27.354826	19.225114	-9.577075
32895		27.453951	19.058115	-9.584804
32896		27.541300	18.906815	-9.571213
32897		27.629689	18.751661	-9.546882
32898		27.742067	18.591768	-9.522577
32899		27.837595	18.441002	-9.510429
32900		27.922224	18.303129	-9.487075
32901		28.009165	18.156092	-9.472335
32902		28.084547	18.001290	-9.474309
32903		28.159038	17.842228	-9.483432
32904		28.254410	17.663105	-9.497683
32905		28.344025	17.471378	-9.513054
32906		28.396199	17.301652	-9.510404
32907		28.419932	17.141384	-9.498687
32908		28.449396	16.981499	-9.489684
32909		28.483717	16.809842	-9.502459
32910		28.524580	16.637604	-9.516635
32911		28.553140	16.469486	-9.531442
32912		28.557098	16.289474	-9.555272
32913		28.544915	16.103333	-9.589819
32914		28.541155	15.923779	-9.634714
32915		28.554248	15.766727	-9.665909
32916		28.567978	15.629089	-9.687357
32917		28.586967	15.486704	-9.713396
32918		28.600908	15.338639	-9.749690
32919		28.607359	15.180885	-9.778945
32920		28.619127	15.018870	-9.811579
32921		28.637586	14.849908	-9.863234
32922		28.645222	14.683816	-9.919678
32923		28.652614	14.541511	-9.961894
32924		28.664514	14.410341	-10.003183
32925		28.683002	14.281551	-10.048907
32926		28.695838	14.149230	-10.095405
32927		28.717277	14.011628	-10.145687
32928		28.764642	13.873218	-10.189586
32929		28.813948	13.735524	-10.227157
32930		28.858259	13.597979	-10.269057
32931		28.880678	13.470002	-10.320651
32932		28.894653	13.349091	-10.365865
32933		28.910100	13.228233	-10.415152
32934		28.914299	13.124556	-10.461036
32935		28.916004	13.019579	-10.505897
32936		28.917294	12.910795	-10.551888
32937		28.926812	12.809282	-10.595854
32938		28.961287	12.718941	-10.638194
32939		28.999047	12.636078	-10.687232
32940		29.020647	12.558817	-10.736399
32941		29.015117	12.483012	-10.780034
32942		29.012645	12.408430	-10.815784
32943		29.034750	12.322185	-10.867060
32944		29.067933	12.237714	-10.922643
32945		29.120353	12.174429	-10.968937
32946		29.172264	12.104247	-11.012272
32947		29.209866	12.042279	-11.055406
32948		29.226620	11.971669	-11.102249
32949		29.230397	11.906242	-11.147672
32950		29.246982	11.840336	-11.189278
32951		29.272293	11.771958	-11.237651
32952		29.290342	11.707712	-11.282786
32953		29.314217	11.646720	-11.311361
32954		29.298367	11.581099	-11.338651
32955		29.278649	11.527501	-11.356251
32956		29.257523	11.471535	-11.385882
32957		29.204268	11.414574	-11.412580
32958		29.160169	11.351151	-11.420274
32959		29.151736	11.263208	-11.432321
32960		29.108203	11.153967	-11.466100
32961		29.040080	11.073735	-11.499823
32962		28.966081	11.011466	-11.543828
32963		28.907042	10.946276	-11.587946
32964		28.848593	10.887376	-11.634609
32965		28.784689	10.836724	-11.677792
32966		28.738984	10.793791	-11.717195
32967		28.705209	10.745169	-11.759384
32968		28.670434	10.706850	-11.801213
32969		28.634020	10.667164	-11.846250
32970		28.594123	10.632801	-11.889856
32971		28.571305	10.604601	-11.931460
32972		28.568282	10.577594	-11.972682
32973		28.560216	10.555350	-12.018727
32974		28.553306	10.536582	-12.065212
32975		28.557625	10.514821	-12.100654
32976		28.564529	10.495752	-12.125444
32977		28.575106	10.489460	-12.142938
32978		28.593198	10.487612	-12.160640
32979		28.616131	10.480844	-12.180336
32980		28.639425	10.481130	-12.201387
32981		28.662943	10.481064	-12.225963
32982		28.683474	10.488439	-12.248849
32983		28.703711	10.495691	-12.277519
32984		28.731128	10.504737	-12.312164
32985		28.773905	10.515708	-12.346652
32986		28.814914	10.533768	-12.378011
32987		28.850047	10.548565	-12.402570
32988		28.870005	10.565236	-12.421532
32989		28.878045	10.578827	-12.428122
32990		28.892767	10.591605	-12.427341
32991		28.905404	10.597914	-12.428978
32992		28.925782	10.604296	-12.433738
32993		28.955312	10.608067	-12.451222
32994		28.979724	10.610691	-12.470489
32995		29.007059	10.615981	-12.484434
32996		29.040242	10.615714	-12.496294
32997		29.070698	10.617014	-12.503659
32998		29.100796	10.621694	-12.508702
32999		29.128594	10.619404	-12.511832
33000		29.140580	10.619896	-12.510194
33001		29.145941	10.625272	-12.507601
33002		29.152278	10.625073	-12.508184
33003		29.163742	10.628756	-12.510596
33004		29.188642	10.635523	-12.516097
33005		29.204675	10.640387	-12.521373
33006		29.220451	10.645204	-12.522234
33007		29.229213	10.650224	-12.521775
33008		29.226231	10.656019	-12.520698
33009		29.212944	10.661679	-12.517522
33010		29.197803	10.666110	-12.516199
33011		29.182073	10.664463	-12.509453
33012		29.163231	10.665785	-12.508623
33013		29.149531	10.669084	-12.508252
33014		29.143191	10.675241	-12.504325
33015		29.144205	10.680369	-12.504374
33016		29.149044	10.685361	-12.504946
33017		29.160522	10.691368	-12.509778
33018		29.166161	10.699762	-12.516840
33019		29.167558	10.707841	-12.527301
33020		29.170639	10.715767	-12.534214
33021		29.172807	10.718382	-12.542609
33022		29.174090	10.722290	-12.548679
33023		29.172272	10.726614	-12.556370
33024		29.172215	10.731593	-12.562260
33025		29.175160	10.738540	-12.564543
33026		29.179784	10.749158	-12.565670
33027		29.188481	10.755698	-12.565967
33028		29.187861	10.756284	-12.569587
33029		29.183306	10.759622	-12.572354
33030		29.186788	10.762442	-12.583296
33031		29.194345	10.765822	-12.598477
33032		29.205230	10.769712	-12.617574
33033		29.217396	10.776606	-12.637660
33034		29.229212	10.784539	-12.652879
33035		29.237201	10.790298	-12.664973
33036		29.250641	10.795590	-12.671235
33037		29.255123	10.804312	-12.680567
33038		29.271732	10.808731	-12.685049
33039		29.292044	10.814591	-12.685582
33040		29.316491	10.821455	-12.681116
33041		29.348083	10.823657	-12.671109
33042		29.374846	10.825411	-12.656385
33043		29.393003	10.831736	-12.638930
33044		29.407667	10.844611	-12.622980
33045		29.427399	10.860160	-12.605811
33046		29.444827	10.879159	-12.585389
33047		29.465274	10.899704	-12.560126
33048		29.481945	10.922723	-12.526392
33049		29.494729	10.944236	-12.487870
33050		29.504306	10.963667	-12.449807
33051		29.506610	10.986194	-12.408229
33052		29.507937	11.008373	-12.360064
33053		29.521987	11.038017	-12.312828
33054		29.545156	11.072801	-12.273687
33055		29.580746	11.111978	-12.239637
33056		29.622252	11.157237	-12.200619
33057		29.661974	11.211426	-12.155360
33058		29.695453	11.271884	-12.104999
33059		29.717875	11.338362	-12.052854
33060		29.736202	11.417738	-11.991359
33061		29.767971	11.505081	-11.915359
33062		29.816587	11.588749	-11.835724
33063		29.893828	11.666943	-11.752663
33064		29.986478	11.762322	-11.662922
33065		30.077383	11.869768	-11.579598
33066		30.151588	11.989033	-11.503912
33067		30.216874	12.132492	-11.423814
33068		30.266616	12.296334	-11.333101
33069		30.304770	12.461437	-11.231345
33070		30.345563	12.612321	-11.130746
33071		30.393321	12.760427	-11.028348
33072		30.442896	12.917592	-10.921279
33073		30.488364	13.080194	-10.815303
33074		30.524352	13.253249	-10.715329
33075		30.553585	13.434404	-10.617357
33076		30.576244	13.616199	-10.530098
33077		30.594499	13.796492	-10.458746
33078		30.631952	13.970952	-10.392497
33079		30.680461	14.123974	-10.324425
33080		30.719448	14.272254	-10.255429
33081		30.739100	14.434400	-10.181907
33082		30.747663	14.613013	-10.106369
33083		30.738434	14.798176	-10.038086
33084		30.675403	14.996680	-9.976135
33085		30.585562	15.192564	-9.935957
33086		30.498465	15.379517	-9.898119
33087		30.452832	15.542473	-9.862081
33088		30.478833	15.690500	-9.824435
33089		30.570347	15.811514	-9.804018
33090		30.665270	15.920932	-9.807245
33091		30.726848	16.063666	-9.813594
33092		30.775906	16.238010	-9.804583
33093		30.797802	16.422820	-9.776247
33094		30.793091	16.597995	-9.748429
33095		30.763016	16.761078	-9.740888
33096		30.698861	16.918297	-9.750888
33097		30.637257	17.073242	-9.772305
33098		30.669398	17.205391	-9.819768
33099		30.666214	17.351139	-9.814065
33100		30.671192	17.480666	-9.836001
33101		30.656297	17.622359	-9.873060
33102		30.600683	17.778340	-9.906315
33103		30.490132	17.937549	-9.934465
33104		30.337584	18.102626	-9.956148
33105		30.170248	18.274135	-9.959475
33106		30.031405	18.450769	-9.940411
33107		29.918543	18.619932	-9.908917
33108		29.806670	18.772716	-9.867750
33109		29.685929	18.901407	-9.826478
33110		29.539843	19.006753	-9.804871
33111		29.398912	19.115986	-9.788335
33112		29.288039	19.244738	-9.768688
33113		29.203247	19.396213	-9.751398
33114		29.114120	19.579975	-9.720129
33115		28.995498	19.779816	-9.670345
33116		28.846302	19.964620	-9.616829
33117		28.684087	20.118429	-9.568414
33118		28.514792	20.243746	-9.536525
33119		28.356368	20.353207	-9.515350
33120		28.200019	20.454973	-9.507084
33121		28.025482	20.555347	-9.509810
33122		27.867328	20.666983	-9.509780
33123		27.742442	20.789151	-9.499232
33124		27.617140	20.917833	-9.481051
33125		27.484345	21.047317	-9.455247
33126		27.346443	21.167173	-9.426702
33127		27.194543	21.273279	-9.404298
33128		27.041648	21.377603	-9.388164
33129		26.872988	21.489455	-9.383778
33130		26.678702	21.597537	-9.389851
33131		26.469770	21.712774	-9.397434
33132		26.247008	21.847115	-9.399784
33133		26.019182	21.987574	-9.396556
33134		25.803135	22.120356	-9.404617
33135		25.592065	22.244130	-9.417575
33136		25.409916	22.367217	-9.429090
33137		25.264745	22.493236	-9.437396
33138		25.111606	22.625970	-9.443516
33139		24.948109	22.762958	-9.445151
33140		24.798624	22.905657	-9.441117
33141		24.656025	23.069286	-9.428705
33142		24.476306	23.237103	-9.416399
33143		24.277352	23.404833	-9.404975
33144		24.087533	23.579840	-9.382490
33145		23.914207	23.753714	-9.360301
33146		23.739743	23.911900	-9.354600
33147		23.544634	24.056580	-9.361168
33148		23.336423	24.187867	-9.374860
33149		23.145646	24.313319	-9.385166
33150		22.977286	24.446255	-9.392819
33151		22.831291	24.577081	-9.401424
33152		22.695990	24.703345	-9.415944
33153		22.528102	24.837921	-9.429534
33154		22.326006	24.967456	-9.439456
33155		22.097725	25.073448	-9.457218
33156		21.862563	25.168534	-9.470752
33157		21.619071	25.260761	-9.473404
33158		21.373312	25.360417	-9.468441
33159		21.129961	25.468299	-9.463695
33160		20.881075	25.576558	-9.466903
33161		20.633164	25.677878	-9.474748
33162		20.376736	25.770760	-9.488850
33163		20.113859	25.860201	-9.500941
33164		19.862028	25.943430	-9.501514
33165		19.619275	26.006444	-9.495406
33166		19.412753	26.053433	-9.475020
33167		19.241135	26.082528	-9.448747
33168		19.084795	26.098503	-9.425792
33169		18.928649	26.109865	-9.409389
33170		18.766112	26.132822	-9.386901
33171		18.599762	26.175952	-9.357177
33172		18.426125	26.239209	-9.321054
33173		18.241791	26.314909	-9.282561
33174		18.052980	26.381825	-9.237736
33175		17.865251	26.435693	-9.199795
33176		17.670684	26.482051	-9.165434
33177		17.477089	26.524398	-9.136302
33178		17.304136	26.561624	-9.107388
33179		17.154582	26.600581	-9.083293
33180		17.031738	26.644304	-9.062049
33181		16.916603	26.688225	-9.043553
33182		16.798363	26.736981	-9.027402
33183		16.684186	26.789579	-9.009591
33184		16.562622	26.834800	-8.994264
33185		16.429174	26.866586	-8.982764
33186		16.281984	26.889318	-8.977808
33187		16.135178	26.908407	-8.970716
33188		15.993642	26.926389	-8.957580
33189		15.851761	26.944244	-8.935641
33190		15.710911	26.962370	-8.909692
33191		15.567934	26.985060	-8.877822
33192		15.411171	27.007564	-8.850197
33193		15.250798	27.031940	-8.825276
33194		15.088616	27.057684	-8.803725
33195		14.916293	27.078001	-8.786141
33196		14.727488	27.090708	-8.769305
33197		14.540158	27.101910	-8.752261
33198		14.346347	27.106122	-8.735516
33199		14.158046	27.109248	-8.718042
33200		13.998495	27.120725	-8.689171
33201		13.867801	27.148489	-8.646342
33202		13.729122	27.187779	-8.605098
33203		13.600653	27.174213	-8.586967
33204		13.538022	27.084421	-8.582941
33205		13.537431	26.976266	-8.577437
33206		13.563107	26.904093	-8.567175
33207		13.553416	26.870712	-8.563652
33208		13.480790	26.860254	-8.568973
33209		13.357621	26.860967	-8.571882
33210		13.205080	26.865991	-8.561427
33211		13.037061	26.867604	-8.536375
33212		12.862959	26.873159	-8.497380
33213		12.681858	26.874594	-8.451943
33214		12.520301	26.855231	-8.410779
33215		12.399673	26.805485	-8.378221
33216		12.328117	26.754022	-8.352128
33217		12.299279	26.715714	-8.331734
33218		12.287122	26.688963	-8.317874
33219		12.272007	26.675417	-8.308589
33220		12.248504	26.681454	-8.301621
33221		12.218892	26.697990	-8.298711
33222		12.182807	26.700260	-8.299416
33223		12.152644	26.673194	-8.306384
33224		12.136396	26.626863	-8.314391
33225		12.133961	26.580621	-8.317691
33226		12.132798	26.554284	-8.319342
33227		12.118808	26.554002	-8.319849
33228		12.092712	26.566160	-8.322685
33229		12.057003	26.582555	-8.327550
33230		12.024309	26.596349	-8.329329
33231		12.002736	26.606266	-8.328395
33232		11.994687	26.605616	-8.322120
33233		11.994057	26.590300	-8.315082
33234		11.994485	26.568550	-8.312435
33235		11.997107	26.547704	-8.314436
33236		11.998334	26.537833	-8.318545
33237		11.994020	26.531230	-8.324274
33238		11.994330	26.526533	-8.322207
33239		11.998807	26.521545	-8.319081
33240		12.010764	26.514276	-8.314379
33241		12.032048	26.508841	-8.309257
33242		12.053209	26.508934	-8.302268
33243		12.066212	26.504427	-8.299716
33244		12.069110	26.497687	-8.299094
33245		12.068304	26.487217	-8.298235
33246		12.069288	26.481943	-8.296252
33247		12.072857	26.474646	-8.289860
33248		12.080485	26.465574	-8.282736
33249		12.095363	26.455244	-8.277548
33250		12.114166	26.447018	-8.270995
33251		12.139220	26.442315	-8.267025
33252		12.172828	26.436113	-8.264041
33253		12.206301	26.430064	-8.263521
33254		12.241064	26.422751	-8.269320
33255		12.272471	26.416551	-8.275824
33256		12.300903	26.411556	-8.277644
33257		12.322926	26.402691	-8.280079
33258		12.336110	26.391652	-8.284372
33259		12.355205	26.382958	-8.289128
33260		12.374157	26.374504	-8.301040
33261		12.383511	26.363948	-8.317655
33262		12.389338	26.354223	-8.342187
33263		12.394317	26.347493	-8.368058
33264		12.403929	26.345671	-8.397978
33265		12.426915	26.349394	-8.431643
33266		12.466151	26.361557	-8.464419
33267		12.501117	26.377240	-8.499425
33268		12.522513	26.396416	-8.528414
33269		12.546123	26.408468	-8.552227
33270		12.568113	26.419388	-8.572027
33271		12.589598	26.428974	-8.591769
33272		12.608688	26.437680	-8.614999
33273		12.618551	26.444950	-8.639735
33274		12.622408	26.448765	-8.664838
33275		12.622078	26.453806	-8.685943
33276		12.625149	26.453872	-8.707248
33277		12.628497	26.450640	-8.728118
33278		12.630405	26.446548	-8.749653
33279		12.637043	26.441791	-8.771445
33280		12.648949	26.444273	-8.789547
33281		12.664339	26.448366	-8.806379
33282		12.678851	26.448841	-8.825882
33283		12.701596	26.447109	-8.845036
33284		12.729542	26.447297	-8.869760
33285		12.758692	26.451250	-8.894815
33286		12.794918	26.462363	-8.917954
33287		12.830986	26.466561	-8.940297
33288		12.865353	26.471726	-8.964877
33289		12.900229	26.483350	-8.995767
33290		12.936911	26.496280	-9.033543
33291		12.977303	26.506835	-9.070043
33292		13.026825	26.514502	-9.101263
33293		13.084970	26.515279	-9.129975
33294		13.153119	26.512199	-9.159271
33295		13.231719	26.508438	-9.185326
33296		13.321306	26.501899	-9.207664
33297		13.424515	26.491308	-9.229919
33298		13.538461	26.478389	-9.250705
33299		13.661943	26.457761	-9.267141
33300		13.801608	26.437366	-9.286443
33301		13.951453	26.412344	-9.299968
33302		14.100162	26.389217	-9.316157
33303		14.245971	26.361738	-9.331561
33304		14.395566	26.329410	-9.342642
33305		14.548410	26.292387	-9.351012
33306		14.709102	26.244739	-9.356784
33307		14.867815	26.193603	-9.364874
33308		15.031674	26.135302	-9.369286
33309		15.190924	26.068546	-9.371164
33310		15.341999	25.997505	-9.367831
33311		15.495026	25.927007	-9.364622
33312		15.643577	25.857393	-9.365034
33313		15.786677	25.785989	-9.368290
33314		15.935038	25.720256	-9.367759
33315		16.091449	25.653879	-9.359923
33316		16.256118	25.587639	-9.353643
33317		16.418390	25.518782	-9.346285
33318		16.567486	25.450511	-9.343176
33319		16.709029	25.378599	-9.345324
33320		16.847693	25.296257	-9.352920
33321		17.004672	25.213417	-9.364982
33322		17.178495	25.136193	-9.376187
33323		17.359807	25.058663	-9.386101
33324		17.537366	24.977674	-9.400494
33325		17.712181	24.895392	-9.417894
33326		17.881462	24.805831	-9.439101
33327		18.055458	24.702297	-9.458168
33328		18.229178	24.591145	-9.481743
33329		18.414475	24.478417	-9.502233
33330		18.606305	24.366176	-9.512377
33331		18.795259	24.252489	-9.518273
33332		18.980710	24.146330	-9.519939
33333		19.159349	24.038411	-9.525489
33334		19.333024	23.926777	-9.534840
33335		19.512749	23.814731	-9.543554
33336		19.705470	23.702589	-9.552207
33337		19.900133	23.583068	-9.565757
33338		20.098488	23.457551	-9.582690
33339		20.299901	23.325708	-9.596397
33340		20.490074	23.188993	-9.609656
33341		20.676671	23.049528	-9.617771
33342		20.858493	22.904525	-9.628192
33343		21.043266	22.767573	-9.640489
33344		21.236125	22.641494	-9.652772
33345		21.434625	22.515935	-9.671276
33346		21.630588	22.397646	-9.692563
33347		21.828153	22.274485	-9.711660
33348		22.033470	22.135637	-9.725781
33349		22.246576	21.995121	-9.744233
33350		22.457193	21.855874	-9.754213
33351		22.643156	21.708521	-9.764720
33352		22.810019	21.557307	-9.770482
33353		22.975816	21.402222	-9.774242
33354		23.132001	21.244869	-9.783020
33355		23.297552	21.090808	-9.789731
33356		23.486585	20.954482	-9.798001
33357		23.674020	20.835517	-9.802971
33358		23.862868	20.713901	-9.802469
33359		24.048929	20.567894	-9.803394
33360		24.219296	20.406958	-9.806852
33361		24.375694	20.236669	-9.820763
33362		24.533768	20.071764	-9.837724
33363		24.695760	19.918781	-9.848723
33364		24.859631	19.769963	-9.852541
33365		25.009204	19.603889	-9.865499
33366		25.158665	19.426876	-9.888545
33367		25.323370	19.246678	-9.910422
33368		25.475268	19.075804	-9.933908
33369		25.636764	18.927123	-9.949132
33370		25.812350	18.787178	-9.962083
33371		25.973556	18.641371	-9.984670
33372		26.117250	18.479538	-10.013562
33373		26.238952	18.301840	-10.054950
33374		26.346941	18.125512	-10.095424
33375		26.456934	17.962863	-10.126753
33376		26.587597	17.807263	-10.148400
33377		26.726881	17.653605	-10.163229
33378		26.850390	17.496915	-10.179705
33379		26.959747	17.336682	-10.197621
33380		27.055066	17.185562	-10.214063
33381		27.161903	17.050207	-10.221511
33382		27.275512	16.926725	-10.225264
33383		27.385171	16.811406	-10.231616
33384		27.481963	16.682679	-10.253824
33385		27.564331	16.539187	-10.293103
33386		27.642767	16.394616	-10.333369
33387		27.732442	16.251210	-10.371126
33388		27.838495	16.100217	-10.407442
33389		27.952470	15.953557	-10.445597
33390		28.060379	15.811059	-10.479845
33391		28.148746	15.651964	-10.517723
33392		28.215759	15.487831	-10.559549
33393		28.265940	15.335753	-10.608926
33394		28.326917	15.197752	-10.661912
33395		28.386374	15.055905	-10.718987
33396		28.461787	14.913622	-10.761727
33397		28.556929	14.764973	-10.798539
33398		28.659665	14.605867	-10.844003
33399		28.747193	14.445757	-10.894504
33400		28.817072	14.291057	-10.945776
33401		28.878032	14.137918	-10.995536
33402		28.944304	13.992355	-11.035053
33403		29.009029	13.851634	-11.064592
33404		29.070534	13.709246	-11.095177
33405		29.106361	13.567292	-11.128700
33406		29.125130	13.435052	-11.164906
33407		29.152413	13.302354	-11.214601
33408		29.182046	13.156461	-11.280048
33409		29.229109	13.014009	-11.354494
33410		29.300326	12.878828	-11.437087
33411		29.372871	12.743901	-11.514324
33412		29.446808	12.614584	-11.581188
33413		29.541781	12.484114	-11.647158
33414		29.641221	12.345160	-11.719592
33415		29.711274	12.207209	-11.794229
33416		29.743873	12.078108	-11.863332
33417		29.763700	11.936821	-11.934421
33418		29.804707	11.797791	-12.013948
33419		29.873818	11.671100	-12.100865
33420		29.941666	11.556107	-12.183887
33421		29.997201	11.450755	-12.256487
33422		30.030161	11.355709	-12.325988
33423		30.068066	11.270142	-12.394199
33424		30.106821	11.174487	-12.469516
33425		30.132349	11.078517	-12.545468
33426		30.147170	10.995147	-12.614170
33427		30.164971	10.927513	-12.685776
33428		30.181395	10.858908	-12.766165
33429		30.216994	10.796225	-12.843623
33430		30.267943	10.726357	-12.924089
33431		30.334602	10.659510	-13.005666
33432		30.412512	10.594063	-13.092950
33433		30.472739	10.537169	-13.169699
33434		30.507974	10.493772	-13.240940
33435		30.532394	10.450976	-13.302754
33436		30.552205	10.410518	-13.366289
33437		30.575473	10.362533	-13.434121
33438		30.601267	10.313362	-13.492143
33439		30.625794	10.271148	-13.543661
33440		30.644636	10.230956	-13.599886
33441		30.663882	10.195741	-13.654195
33442		30.685158	10.160194	-13.710523
33443		30.694026	10.113357	-13.762368
33444		30.694880	10.081308	-13.814776
33445		30.705861	10.056116	-13.866831
33446		30.714233	10.037247	-13.916229
33447		30.711556	10.025360	-13.958520
33448		30.715209	10.002616	-14.010555
33449		30.718459	9.970967	-14.065351
33450		30.714165	9.948024	-14.113936
33451		30.712275	9.926141	-14.158291
33452		30.712018	9.900971	-14.198166
33453		30.697878	9.890210	-14.233680
33454		30.684569	9.893866	-14.268073
33455		30.668727	9.895354	-14.299531
33456		30.651206	9.903207	-14.332791
33457		30.641302	9.913991	-14.363677
33458		30.633242	9.929622	-14.391606
33459		30.628842	9.946780	-14.416084
33460		30.628840	9.960939	-14.438497
33461		30.623660	9.973506	-14.456945
33462		30.615326	9.988789	-14.472796
33463		30.614283	10.006607	-14.490505
33464		30.609852	10.023297	-14.507914
33465		30.597384	10.041724	-14.529043
33466		30.591759	10.055087	-14.553755
33467		30.591254	10.067436	-14.574617
33468		30.594000	10.087715	-14.587481
33469		30.605771	10.108393	-14.598153
33470		30.619443	10.124057	-14.606432
33471		30.640254	10.138657	-14.611180
33472		30.664770	10.147116	-14.620146
33473		30.691550	10.155549	-14.630188
33474		30.719996	10.163504	-14.639363
33475		30.748637	10.172985	-14.649577
33476		30.784846	10.191319	-14.658552
33477		30.822358	10.211903	-14.666401
33478		30.855457	10.227216	-14.674485
33479		30.889208	10.233672	-14.689589
33480		30.910898	10.247671	-14.699790
33481		30.930328	10.265245	-14.705549
33482		30.942711	10.278530	-14.711882
33483		30.946909	10.289724	-14.708318
33484		30.945494	10.296016	-14.706220
33485		30.935908	10.306429	-14.698811
33486		30.926771	10.316738	-14.691954
33487		30.912904	10.325328	-14.687683
33488		30.901100	10.340481	-14.683738
33489		30.894370	10.352435	-14.682464
33490		30.889767	10.365158	-14.677561
33491		30.893740	10.372324	-14.668084
33492		30.890869	10.378812	-14.663885
33493		30.885192	10.386793	-14.655943
33494		30.875700	10.398026	-14.644948
33495		30.866783	10.407936	-14.637890
33496		30.855009	10.421163	-14.632629
33497		30.845751	10.432604	-14.630904
33498		30.837904	10.443577	-14.633076
33499		30.833616	10.454997	-14.636968
33500		30.838942	10.467681	-14.643530
33501		30.853766	10.476409	-14.650220
33502		30.871247	10.482368	-14.657958
33503		30.883057	10.486982	-14.664589
33504		30.886512	10.490675	-14.673496
33505		30.883900	10.496058	-14.686784
33506		30.879356	10.508063	-14.699537
33507		30.874082	10.520035	-14.708410
33508		30.868319	10.528125	-14.719002
33509		30.860319	10.536555	-14.732333
33510		30.849571	10.546587	-14.738503
33511		30.836198	10.555540	-14.741004
33512		30.818613	10.564540	-14.741479
33513		30.800245	10.577364	-14.740769
33514		30.782380	10.586375	-14.746258
33515		30.760567	10.594009	-14.755985
33516		30.738767	10.599247	-14.757682
33517		30.718250	10.606764	-14.758338
33518		30.707732	10.616355	-14.758528
33519		30.704579	10.626996	-14.760085
33520		30.698545	10.638581	-14.761253
33521		30.689164	10.649361	-14.765795
33522		30.680350	10.663187	-14.775165
33523		30.678775	10.674873	-14.781883
33524		30.682933	10.686405	-14.789482
33525		30.693835	10.696068	-14.797031
33526		30.711354	10.712755	-14.805613
33527		30.734027	10.728028	-14.808712
33528		30.755720	10.743784	-14.811497
33529		30.764439	10.764041	-14.815710
33530		30.774466	10.788584	-14.817121
33531		30.781324	10.810123	-14.823708
33532		30.782887	10.832751	-14.822979
33533		30.792267	10.853811	-14.819115
33534		30.803602	10.878826	-14.820987
33535		30.805097	10.907083	-14.821390
33536		30.796765	10.936955	-14.824541
33537		30.785292	10.965585	-14.825474
33538		30.770135	11.001039	-14.828793
33539		30.746147	11.035955	-14.832607
33540		30.714492	11.071164	-14.831859
33541		30.676065	11.110304	-14.828368
33542		30.631381	11.151057	-14.822567
33543		30.580030	11.190973	-14.820592
33544		30.523686	11.232558	-14.815820
33545		30.474658	11.274771	-14.811445
33546		30.430240	11.313761	-14.807870
33547		30.381448	11.348208	-14.809303
33548		30.334116	11.386244	-14.809762
33549		30.299987	11.421603	-14.808001
33550		30.271610	11.454893	-14.806089
33551		30.241816	11.484992	-14.806008
33552		30.204270	11.513189	-14.807849
33553		30.166937	11.541439	-14.810426
33554		30.131661	11.573853	-14.811403
33555		30.089610	11.602235	-14.811987
33556		30.042841	11.632867	-14.814281
33557		29.998771	11.660918	-14.813175
33558		29.947077	11.691594	-14.809769
33559		29.886529	11.727777	-14.803508
33560		29.832227	11.771107	-14.792161
33561		29.791785	11.813626	-14.781280
33562		29.764379	11.864262	-14.771083
33563		29.765751	11.920215	-14.767360
33564		29.784034	11.971716	-14.771623
33565		29.797192	12.024762	-14.776568
33566		29.792162	12.083945	-14.779224
33567		29.778655	12.151361	-14.777277
33568		29.757314	12.233518	-14.770406
33569		29.743348	12.332572	-14.760299
33570		29.770600	12.439202	-14.753593
33571		29.824432	12.531936	-14.749392
33572		29.883416	12.633436	-14.744252
33573		29.949051	12.745314	-14.748230
33574		30.016546	12.863482	-14.760127
33575		30.062474	12.990510	-14.765287
33576		30.079958	13.121681	-14.757034
33577		30.076753	13.248238	-14.742759
33578		30.069807	13.379338	-14.713578
33579		30.075045	13.522250	-14.674638
33580		30.096340	13.668713	-14.636640
33581		30.140668	13.810628	-14.603746
33582		30.181201	13.945854	-14.579992
33583		30.200524	14.070826	-14.560354
33584		30.193228	14.191137	-14.539629
33585		30.166284	14.314536	-14.518076
33586		30.131549	14.444018	-14.491757
33587		30.092318	14.586476	-14.463788
33588		30.055799	14.734498	-14.431384
33589		30.023224	14.887914	-14.401464
33590		29.996342	15.039094	-14.363379
33591		29.968995	15.184040	-14.331569
33592		29.951490	15.318658	-14.305083
33593		29.932861	15.442869	-14.280478
33594		29.907773	15.562658	-14.253739
33595		29.855495	15.671996	-14.235110
33596		29.793187	15.778469	-14.208648
33597		29.722877	15.886759	-14.175587
33598		29.657409	15.997414	-14.134264
33599		29.605924	16.108172	-14.092401
33600		29.572522	16.223075	-14.049744
33601		29.564430	16.338037	-14.011976
33602		29.562576	16.449402	-13.982693
33603		29.555867	16.565510	-13.943644
33604		29.553698	16.684928	-13.910454
33605		29.568442	16.791992	-13.893285
33606		29.600311	16.895336	-13.870415
33607		29.625894	17.003352	-13.828557
33608		29.643632	17.118465	-13.771554
33609		29.644437	17.234268	-13.709494
33610		29.641137	17.353207	-13.645752
33611		29.634795	17.475405	-13.591047
33612		29.634794	17.594416	-13.555201
33613		29.642807	17.718209	-13.527962
33614		29.670183	17.838851	-13.513140
33615		29.715085	17.946560	-13.524091
33616		29.757771	18.043265	-13.541560
33617		29.799571	18.132000	-13.548386
33618		29.819800	18.223512	-13.528839
33619		29.812525	18.325753	-13.482535
33620		29.790783	18.438284	-13.415784
33621		29.763683	18.557726	-13.333276
33622		29.727444	18.675134	-13.235945
33623		29.695303	18.782324	-13.144662
33624		29.684671	18.882056	-13.072864
33625		29.706801	18.963135	-13.040142
33626		29.742190	19.023333	-13.043984
33627		29.794135	19.087343	-13.044663
33628		29.851610	19.160799	-13.025694
33629		29.883792	19.243649	-12.993787
33630		29.883373	19.329684	-12.953327
33631		29.843999	19.419404	-12.898281
33632		29.785574	19.502707	-12.847879
33633		29.760485	19.563275	-12.822061
33634		29.664791	19.659197	-12.744414
33635		29.597633	19.741032	-12.672900
33636		29.531334	19.813252	-12.614633
33637		29.476872	19.890210	-12.569586
33638		29.427111	19.984561	-12.521965
33639		29.392655	20.087587	-12.463395
33640		29.369430	20.194110	-12.397877
33641		29.333946	20.296896	-12.332867
33642		29.282400	20.404371	-12.268700
33643		29.211139	20.504886	-12.222323
33644		29.125690	20.595296	-12.205908
33645		29.019994	20.694149	-12.201180
33646		28.897833	20.804365	-12.197150
33647		28.767071	20.913359	-12.197712
33648		28.630600	21.028931	-12.198735
33649		28.479751	21.165084	-12.192357
33650		28.317070	21.317615	-12.177857
33651		28.145226	21.473296	-12.156678
33652		27.956470	21.630543	-12.137974
33653		27.744612	21.798216	-12.127297
33654		27.554492	22.010512	-12.067350
33655		27.437762	22.247294	-11.966744
33656		27.166849	22.406013	-11.892789
33657		26.957247	22.511384	-11.854492
33658		26.762398	22.619633	-11.807124
33659		26.563803	22.736686	-11.749784
33660		26.384463	22.867482	-11.681387
33661		26.226672	22.998102	-11.612979
33662		26.109870	23.115707	-11.546486
33663		26.006499	23.214209	-11.496645
33664		25.904737	23.310928	-11.455779
33665		25.776325	23.398222	-11.423833
33666		25.621802	23.480092	-11.395339
33667		25.476943	23.577225	-11.352023
33668		25.345076	23.694133	-11.287759
33669		25.208029	23.820310	-11.218690
33670		25.069034	23.941230	-11.151303
33671		24.935633	24.061324	-11.083700
33672		24.793400	24.195763	-11.010329
33673		24.638842	24.335774	-10.931575
33674		24.469022	24.464583	-10.856523
33675		24.293190	24.578568	-10.792695
33676		24.121074	24.688673	-10.723406
33677		23.954602	24.802495	-10.650731
33678		23.788802	24.918237	-10.565441
33679		23.624398	25.039379	-10.470023
33680		23.454735	25.160004	-10.373539
33681		23.270616	25.261382	-10.295707
33682		23.068445	25.359915	-10.238286
33683		22.854691	25.476923	-10.188856
33684		22.639496	25.608891	-10.142681
33685		22.426365	25.734431	-10.109620
33686		22.221668	25.855600	-10.089244
33687		22.018351	25.974216	-10.069977
33688		21.823772	26.089675	-10.048999
33689		21.643949	26.199118	-10.022017
33690		21.473061	26.299092	-9.984963
33691		21.303215	26.392281	-9.947055
33692		21.136721	26.490516	-9.905617
33693		20.967143	26.584619	-9.855139
33694		20.787021	26.674798	-9.793931
33695		20.598645	26.762713	-9.729528
33696		20.417449	26.850012	-9.666903
33697		20.246142	26.934278	-9.609526
33698		20.084435	27.012843	-9.558879
33699		19.928358	27.082933	-9.509918
33700		19.767411	27.148740	-9.463229
33701		19.601445	27.215112	-9.413599
33702		19.431243	27.275263	-9.359549
33703		19.259143	27.325451	-9.309222
33704		19.073141	27.370495	-9.264902
33705		18.876044	27.406481	-9.229195
33706		18.675826	27.433647	-9.200372
33707		18.491091	27.455110	-9.174651
33708		18.314978	27.475451	-9.149549
33709		18.141319	27.500660	-9.126468
33710		17.966660	27.526407	-9.105752
33711		17.793016	27.552994	-9.081904
33712		17.621326	27.581077	-9.057073
33713		17.452575	27.610126	-9.030249
33714		17.288814	27.638681	-8.999230
33715		17.128804	27.668523	-8.964620
33716		16.964897	27.700285	-8.933968
33717		16.798367	27.730175	-8.904537
33718		16.628287	27.754887	-8.877986
33719		16.453589	27.769398	-8.855827
33720		16.283701	27.777831	-8.833823
33721		16.121333	27.783883	-8.812737
33722		15.965754	27.789837	-8.797184
33723		15.815444	27.798013	-8.783180
33724		15.673532	27.805519	-8.771996
33725		15.540041	27.808248	-8.760277
33726		15.411620	27.806606	-8.752621
33727		15.290546	27.799265	-8.741965
33728		15.184281	27.791758	-8.722715
33729		15.099147	27.789426	-8.692074
33730		15.026565	27.795158	-8.651615
33731		14.963424	27.787234	-8.618118
33732		14.903684	27.763220	-8.604765
33733		14.865908	27.732139	-8.605477
33734		14.851228	27.713450	-8.611590
33735		14.846644	27.705062	-8.621340
33736		14.838661	27.691004	-8.633094
33737		14.829944	27.670070	-8.642189
33738		14.822664	27.656679	-8.645936
33739		14.817385	27.641541	-8.644137
33740		14.809859	27.617797	-8.647952
33741		14.792734	27.579755	-8.646732
33742		14.769313	27.539854	-8.640558
33743		14.737405	27.503421	-8.631021
33744		14.696808	27.471485	-8.625580
33745		14.654801	27.446746	-8.626386
33746		14.620799	27.427077	-8.631903
33747		14.602878	27.413195	-8.636342
33748		14.594739	27.402126	-8.641436
33749		14.588216	27.390425	-8.645021
33750		14.579014	27.378453	-8.647386
33751		14.564856	27.366832	-8.645763
33752		14.547519	27.356410	-8.640597
33753		14.531030	27.348599	-8.633634
33754		14.518581	27.341342	-8.624721
33755		14.511786	27.334996	-8.620838
33756		14.505467	27.321666	-8.621644
33757		14.506175	27.307039	-8.620767
33758		14.505208	27.295677	-8.620796
33759		14.504931	27.285947	-8.621090
33760		14.503284	27.276341	-8.620356
33761		14.501125	27.265388	-8.619681
33762		14.501087	27.256461	-8.615488
33763		14.507021	27.246503	-8.606131
33764		14.511765	27.242207	-8.598613
33765		14.515293	27.236244	-8.592366
33766		14.517834	27.230365	-8.587842
33767		14.514428	27.219102	-8.586337
33768		14.508904	27.204924	-8.586103
33769		14.502093	27.192689	-8.585426
33770		14.496211	27.180610	-8.580439
33771		14.490696	27.172206	-8.578293
33772		14.487412	27.165553	-8.571582
33773		14.476981	27.152821	-8.574006
33774		14.470703	27.135860	-8.584218
33775		14.470749	27.113558	-8.603620
33776		14.476361	27.091581	-8.626814
33777		14.492127	27.071273	-8.649912
33778		14.514681	27.061439	-8.672937
33779		14.533618	27.063162	-8.694373
33780		14.546119	27.065965	-8.718777
33781		14.558820	27.059778	-8.747087
33782		14.571779	27.055468	-8.777884
33783		14.600041	27.055179	-8.809181
33784		14.636773	27.070742	-8.833866
33785		14.676418	27.096681	-8.851473
33786		14.715050	27.119461	-8.873600
33787		14.743559	27.131885	-8.903329
33788		14.764096	27.136159	-8.943202
33789		14.787253	27.135961	-8.987373
33790		14.819068	27.143972	-9.026768
33791		14.856749	27.157165	-9.058605
33792		14.904944	27.168910	-9.084572
33793		14.958382	27.173072	-9.109476
33794		15.011123	27.167314	-9.139014
33795		15.055889	27.158150	-9.179653
33796		15.104305	27.149552	-9.230746
33797		15.156662	27.143930	-9.282411
33798		15.213504	27.142886	-9.333054
33799		15.277291	27.140875	-9.382897
33800		15.344968	27.137476	-9.425792
33801		15.416024	27.131149	-9.463199
33802		15.497313	27.129059	-9.495104
33803		15.584167	27.129407	-9.524721
33804		15.683902	27.126192	-9.553645
33805		15.791782	27.124138	-9.583295
33806		15.901152	27.114711	-9.613211
33807		16.009576	27.100427	-9.642746
33808		16.115410	27.083286	-9.671225
33809		16.215562	27.063339	-9.697880
33810		16.315076	27.045400	-9.721954
33811		16.425037	27.030779	-9.741239
33812		16.540614	27.017849	-9.763193
33813		16.657252	27.008473	-9.788613
33814		16.787116	26.998207	-9.815328
33815		16.930443	26.992422	-9.841174
33816		17.079772	26.985942	-9.866183
33817		17.230921	26.974777	-9.889639
33818		17.380869	26.961950	-9.910695
33819		17.524493	26.943449	-9.931690
33820		17.660650	26.918898	-9.955451
33821		17.798517	26.892242	-9.977477
33822		17.938662	26.870987	-9.999932
33823		18.079833	26.845829	-10.021963
33824		18.226123	26.818911	-10.046447
33825		18.382217	26.792355	-10.067793
33826		18.539201	26.764518	-10.084693
33827		18.685551	26.723371	-10.099906
33828		18.818159	26.671242	-10.114741
33829		18.952683	26.611684	-10.128293
33830		19.089415	26.552008	-10.136327
33831		19.230255	26.496286	-10.142737
33832		19.363723	26.443997	-10.153616
33833		19.496677	26.389211	-10.165235
33834		19.647281	26.331698	-10.173494
33835		19.808399	26.272200	-10.177752
33836		19.967879	26.205546	-10.178230
33837		20.131444	26.134387	-10.181347
33838		20.300907	26.065184	-10.182901
33839		20.474146	25.988401	-10.183909
33840		20.644544	25.909002	-10.185300
33841		20.810481	25.830582	-10.183331
33842		20.965621	25.756199	-10.176923
33843		21.115647	25.680935	-10.168320
33844		21.268928	25.598488	-10.161635
33845		21.431610	25.518464	-10.154461
33846		21.592441	25.435050	-10.142785
33847		21.750234	25.347613	-10.128880
33848		21.901585	25.256417	-10.119983
33849		22.053245	25.166020	-10.117118
33850		22.209214	25.077390	-10.116920
33851		22.363702	24.991700	-10.119213
33852		22.523988	24.903343	-10.123173
33853		22.689397	24.818435	-10.131410
33854		22.855968	24.736273	-10.137362
33855		23.014613	24.651236	-10.144831
33856		23.157058	24.564799	-10.151480
33857		23.290150	24.473225	-10.162105
33858		23.421276	24.377761	-10.170806
33859		23.559421	24.285175	-10.173489
33860		23.689881	24.191856	-10.178708
33861		23.812537	24.092694	-10.184972
33862		23.928422	23.978431	-10.197652
33863		24.056567	23.860420	-10.210192
33864		24.192520	23.748677	-10.218976
33865		24.327350	23.641061	-10.222104
33866		24.455900	23.535002	-10.225539
33867		24.575083	23.419016	-10.238408
33868		24.686674	23.300010	-10.255053
33869		24.795802	23.177660	-10.272532
33870		24.911197	23.046711	-10.283085
33871		25.027483	22.911495	-10.292640
33872		25.142292	22.782644	-10.296032
33873		25.259232	22.658569	-10.295427
33874		25.369360	22.536873	-10.288864
33875		25.473222	22.402755	-10.283149
33876		25.572261	22.258189	-10.282632
33877		25.672853	22.110008	-10.283605
33878		25.776521	21.959456	-10.285081
33879		25.883053	21.809758	-10.281186
33880		25.993284	21.671969	-10.265500
33881		26.107691	21.528462	-10.248381
33882		26.219305	21.372839	-10.240052
33883		26.326951	21.213165	-10.238791
33884		26.426834	21.060912	-10.243188
33885		26.525473	20.912408	-10.248021
33886		26.635794	20.764582	-10.251406
33887		26.743047	20.614993	-10.250867
33888		26.830328	20.453655	-10.254218
33889		26.910000	20.280769	-10.264568
33890		26.994107	20.107436	-10.279539
33891		27.092175	19.937049	-10.290768
33892		27.189498	19.764255	-10.311062
33893		27.287915	19.602672	-10.325409
33894		27.382214	19.445607	-10.330601
33895		27.462726	19.287069	-10.327690
33896		27.542282	19.132723	-10.322368
33897		27.626611	18.973605	-10.319722
33898		27.718634	18.818325	-10.314813
33899		27.820066	18.658570	-10.312898
33900		27.924973	18.486537	-10.317304
33901		28.018421	18.311015	-10.340067
33902		28.086401	18.147310	-10.361832
33903		28.134432	17.993349	-10.376914
33904		28.185904	17.831529	-10.395476
33905		28.256563	17.652970	-10.423208
33906		28.340713	17.461214	-10.455185
33907		28.437881	17.279017	-10.481953
33908		28.539376	17.105820	-10.508604
33909		28.622526	16.943890	-10.541699
33910		28.683439	16.796611	-10.570647
33911		28.734822	16.643572	-10.599574
33912		28.788957	16.470744	-10.640234
33913		28.841765	16.303447	-10.679350
33914		28.896206	16.145606	-10.713899
33915		28.958323	15.981955	-10.750166
33916		29.014662	15.817338	-10.790767
33917		29.074273	15.648972	-10.838415
33918		29.152205	15.461416	-10.888851
33919		29.238905	15.287398	-10.932005
33920		29.312788	15.127761	-10.976152
33921		29.370371	14.975642	-11.021873
33922		29.420378	14.826272	-11.061376
33923		29.459326	14.673183	-11.096420
33924		29.487509	14.513696	-11.134641
33925		29.530835	14.357425	-11.184830
33926		29.577017	14.202845	-11.251516
33927		29.624274	14.057376	-11.325575
33928		29.670378	13.914632	-11.402187
33929		29.717736	13.770206	-11.471787
33930		29.766428	13.618985	-11.536507
33931		29.806811	13.461458	-11.595630
33932		29.840427	13.308697	-11.663291
33933		29.871544	13.169064	-11.734383
33934		29.883983	13.036034	-11.802483
33935		29.874846	12.908721	-11.858590
33936		29.865367	12.786138	-11.911947
33937		29.860931	12.656039	-11.964162
33938		29.847219	12.536710	-12.010578
33939		29.844154	12.422195	-12.049548
33940		29.848788	12.302810	-12.093932
33941		29.859459	12.181298	-12.144386
33942		29.866244	12.066904	-12.199661
33943		29.856089	11.961869	-12.256235
33944		29.828714	11.867209	-12.306611
33945		29.790124	11.785183	-12.350382
33946		29.748381	11.708484	-12.390854
33947		29.727916	11.627101	-12.430748
33948		29.719355	11.540597	-12.463796
33949		29.699432	11.460984	-12.486571
33950		29.665115	11.378135	-12.515340
33951		29.633660	11.304533	-12.549167
33952		29.615437	11.234881	-12.597388
33953		29.600494	11.164770	-12.650571
33954		29.570612	11.106186	-12.696009
33955		29.537237	11.057195	-12.734178
33956		29.509384	11.013165	-12.772289
33957		29.499122	10.967120	-12.814964
33958		29.489451	10.928902	-12.855388
33959		29.468861	10.893287	-12.896561
33960		29.446542	10.857172	-12.941349
33961		29.424675	10.824485	-12.983506
33962		29.394960	10.802752	-13.018296
33963		29.359599	10.791470	-13.052084
33964		29.322086	10.782555	-13.086669
33965		29.288090	10.779646	-13.118446
33966		29.258482	10.784818	-13.155229
33967		29.241217	10.788811	-13.189181
33968		29.231376	10.791699	-13.227835
33969		29.215717	10.788303	-13.268270
33970		29.199398	10.779814	-13.307427
33971		29.166100	10.769045	-13.335249
33972		29.125381	10.758795	-13.361674
33973		29.080546	10.751928	-13.386159
33974		29.027141	10.752387	-13.407945
33975		28.980289	10.756917	-13.430763
33976		28.941104	10.756972	-13.451524
33977		28.909974	10.761617	-13.468942
33978		28.888856	10.767586	-13.492189
33979		28.869018	10.772723	-13.505307
33980		28.841768	10.776875	-13.516953
33981		28.812978	10.779223	-13.522445
33982		28.788165	10.781168	-13.530874
33983		28.760451	10.782353	-13.532867
33984		28.724476	10.790240	-13.529210
33985		28.691538	10.798699	-13.521425
33986		28.653610	10.803242	-13.515521
33987		28.615892	10.806619	-13.515972
33988		28.596278	10.808087	-13.524103
33989		28.588007	10.814562	-13.543026
33990		28.588817	10.823574	-13.566687
33991		28.596986	10.836974	-13.593473
33992		28.602799	10.849276	-13.624501
33993		28.606433	10.860712	-13.650366
33994		28.607436	10.875504	-13.672909
33995		28.607855	10.892258	-13.687869
33996		28.603821	10.910583	-13.692771
33997		28.601209	10.928151	-13.695802
33998		28.600137	10.935734	-13.704935
33999		28.597127	10.939493	-13.716717
34000		28.592897	10.943308	-13.731666
34001		28.585893	10.949083	-13.743471
34002		28.583620	10.953197	-13.751414
34003		28.583839	10.963037	-13.759447
34004		28.596844	10.966833	-13.770940
34005		28.609442	10.977623	-13.780537
34006		28.619758	10.987708	-13.795294
34007		28.645555	10.997840	-13.807026
34008		28.669895	11.007561	-13.825772
34009		28.693234	11.015327	-13.844534
34010		28.713196	11.022741	-13.856334
34011		28.732987	11.031141	-13.864876
34012		28.743999	11.039574	-13.871759
34013		28.744698	11.043872	-13.874424
34014		28.736984	11.049476	-13.873496
34015		28.727943	11.056400	-13.870357
34016		28.722495	11.066227	-13.868546
34017		28.724244	11.073181	-13.870804
34018		28.727806	11.084305	-13.876157
34019		28.732030	11.094044	-13.885180
34020		28.733403	11.109722	-13.890980
34021		28.738648	11.126279	-13.894319
34022		28.739532	11.142534	-13.895016
34023		28.744413	11.157413	-13.886206
34024		28.744634	11.171124	-13.877609
34025		28.739713	11.177602	-13.869992
34026		28.727365	11.178513	-13.864914
34027		28.720437	11.180491	-13.860486
34028		28.720925	11.185194	-13.863407
34029		28.731609	11.184684	-13.873054
34030		28.745684	11.183543	-13.878501
34031		28.771072	11.185163	-13.879230
34032		28.784924	11.188870	-13.878117
34033		28.793395	11.194014	-13.874038
34034		28.800666	11.195389	-13.870478
34035		28.808363	11.201807	-13.873332
34036		28.821770	11.209557	-13.877280
34037		28.833279	11.213907	-13.884961
34038		28.845045	11.222235	-13.892810
34039		28.852956	11.231784	-13.899470
34040		28.858077	11.241186	-13.906511
34041		28.866606	11.247907	-13.911051
34042		28.871464	11.254945	-13.920848
34043		28.876706	11.263558	-13.926874
34044		28.879637	11.273702	-13.931759
34045		28.879464	11.287595	-13.931365
34046		28.880410	11.300438	-13.930376
34047		28.879933	11.305842	-13.927732
34048		28.878128	11.315032	-13.922553
34049		28.876655	11.322732	-13.917696
34050		28.871326	11.329545	-13.915196
34051		28.864145	11.337516	-13.912096
34052		28.851805	11.350595	-13.908221
34053		28.837804	11.368695	-13.901453
34054		28.827372	11.387378	-13.893492
34055		28.825656	11.407539	-13.887516
34056		28.830905	11.432923	-13.884722
34057		28.852136	11.467646	-13.882411
34058		28.897149	11.518109	-13.882252
34059		28.958270	11.564632	-13.881877
34060		29.019691	11.624248	-13.873843
34061		29.096339	11.687154	-13.860293
34062		29.171259	11.750275	-13.843818
34063		29.242464	11.825556	-13.819245
34064		29.313774	11.909299	-13.795905
34065		29.388296	11.995544	-13.777800
34066		29.464373	12.077894	-13.761830
34067		29.534033	12.156589	-13.741254
34068		29.611161	12.246332	-13.717431
34069		29.684797	12.337353	-13.695954
34070		29.733941	12.440998	-13.664602
34071		29.752464	12.557733	-13.614852
34072		29.742210	12.680683	-13.553476
34073		29.710335	12.807971	-13.489450
34074		29.677397	12.936275	-13.430518
34075		29.639077	13.068256	-13.375702
34076		29.604800	13.209398	-13.321429
34077		29.569485	13.348829	-13.264507
34078		29.522707	13.484328	-13.201124
34079		29.462760	13.617631	-13.130299
34080		29.421448	13.750011	-13.063090
34081		29.414422	13.879645	-13.001729
34082		29.426578	13.999405	-12.945517
34083		29.432437	14.109297	-12.891535
34084		29.430997	14.218262	-12.836046
34085		29.421759	14.328510	-12.779025
34086		29.408364	14.440057	-12.718920
34087		29.399194	14.562683	-12.656195
34088		29.411899	14.685089	-12.607293
34089		29.450480	14.796628	-12.572411
34090		29.505646	14.904818	-12.537988
34091		29.562284	15.013616	-12.502448
34092		29.617936	15.142251	-12.451723
34093		29.664445	15.287080	-12.382344
34094		29.722103	15.435455	-12.301327
34095		29.794822	15.561105	-12.229373
34096		29.841740	15.668387	-12.155201
34097		29.860144	15.772707	-12.068029
34098		29.867750	15.874465	-11.986943
34099		29.890850	15.963030	-11.922653
34100		29.900267	16.052688	-11.864699
34101		29.896996	16.144489	-11.812761
34102		29.881576	16.247268	-11.764921
34103		29.869952	16.365358	-11.716065
34104		29.872814	16.493484	-11.661278
34105		29.883827	16.612184	-11.612858
34106		29.878755	16.713772	-11.579902
34107		29.860343	16.820557	-11.558932
34108		29.841961	16.939446	-11.533640
34109		29.825244	17.056138	-11.510421
34110		29.795205	17.175843	-11.489347
34111		29.760163	17.290311	-11.466272
34112		29.723825	17.389400	-11.453993
34113		29.697837	17.475607	-11.456844
34114		29.686237	17.565227	-11.462782
34115		29.692428	17.669847	-11.453697
34116		29.702122	17.793287	-11.428001
34117		29.716490	17.912029	-11.413105
34118		29.751323	18.022178	-11.412694
34119		29.700289	18.166583	-11.358707
34120		29.667086	18.287860	-11.302590
34121		29.628623	18.379513	-11.259679
34122		29.560753	18.462637	-11.231497
34123		29.461172	18.555278	-11.212857
34124		29.354904	18.666132	-11.191345
34125		29.246913	18.789950	-11.159542
34126		29.138861	18.931370	-11.119703
34127		29.036321	19.092251	-11.069658
34128		28.970001	19.257771	-11.005756
34129		28.954762	19.411444	-10.932611
34130		28.974960	19.553921	-10.845252
34131		29.024174	19.687815	-10.735824
34132		29.072813	19.822766	-10.619402
34133		29.070352	19.944236	-10.514376
34134		28.990656	20.046566	-10.452513
34135		28.874039	20.154206	-10.419517
34136		28.747237	20.262722	-10.390542
34137		28.608455	20.377879	-10.347372
34138		28.441745	20.509464	-10.283249
34139		28.261603	20.660136	-10.204803
34140		28.065634	20.833976	-10.125388
34141		27.872522	21.016243	-10.058967
34142		27.704685	21.197973	-10.004372
34143		27.557918	21.368930	-9.963977
34144		27.418403	21.533319	-9.938507
34145		27.281655	21.694667	-9.926142
34146		27.144694	21.857231	-9.912066
34147		27.004577	22.021137	-9.884941
34148		26.838162	22.186912	-9.858365
34149		26.659658	22.354695	-9.837184
34150		26.477588	22.517596	-9.823386
34151		26.301161	22.667203	-9.809872
34152		26.148670	22.823891	-9.789721
34153		25.986751	22.987805	-9.768974
34154		25.797682	23.150450	-9.753838
34155		25.589876	23.311875	-9.739084
34156		25.382638	23.473646	-9.717945
34157		25.168951	23.633049	-9.691073
34158		24.947203	23.787974	-9.658879
34159		24.708768	23.935665	-9.630215
34160		24.469459	24.076264	-9.605560
34161		24.247051	24.219442	-9.578073
34162		24.048648	24.361533	-9.551737
34163		23.854312	24.497387	-9.530355
34164		23.665680	24.623908	-9.518688
34165		23.502529	24.755512	-9.508351
34166		23.365063	24.897342	-9.501096
34167		23.215211	25.038789	-9.501081
34168		23.034912	25.171951	-9.502504
34169		22.837960	25.301216	-9.501444
34170		22.647374	25.431168	-9.487473
34171		22.464646	25.560179	-9.465689
34172		22.275651	25.686781	-9.444717
34173		22.058052	25.806624	-9.433374
34174		21.821515	25.920274	-9.420879
34175		21.572294	26.030192	-9.407803
34176		21.316336	26.133457	-9.393291
34177		21.074017	26.225302	-9.383635
34178		20.858842	26.322040	-9.377492
34179		20.650777	26.423136	-9.375251
34180		20.430915	26.513168	-9.380260
34181		20.211388	26.593075	-9.385412
34182		19.990690	26.676033	-9.381717
34183		19.770164	26.759043	-9.364322
34184		19.539529	26.841657	-9.343007
34185		19.310913	26.917968	-9.315486
34186		19.097299	26.993800	-9.283708
34187		18.883401	27.073359	-9.266830
34188		18.669343	27.149663	-9.261643
34189		18.447967	27.224622	-9.266566
34190		18.218317	27.299627	-9.269853
34191		17.987137	27.371717	-9.267914
34192		17.767271	27.432677	-9.262204
34193		17.572825	27.480530	-9.250428
34194		17.387135	27.534011	-9.233562
34195		17.188952	27.581215	-9.216191
34196		16.969602	27.615900	-9.206566
34197		16.734345	27.644765	-9.196951
34198		16.487781	27.662394	-9.189210
34199		16.236919	27.679792	-9.177049
34200		15.977002	27.705627	-9.160661
34201		15.726899	27.736698	-9.138017
34202		15.499287	27.777122	-9.105053
34203		15.275133	27.829064	-9.065067
34204		15.058119	27.887344	-9.022759
34205		14.846517	27.939698	-8.986714
34206		14.608302	27.980897	-8.948440
34207		14.337954	28.013115	-8.912636
34208		14.036880	28.045996	-8.876208
34209		13.742441	28.080150	-8.824996
34210		13.479438	28.114111	-8.750109
34211		13.237085	28.131517	-8.667829
34212		13.025433	28.105543	-8.612073
34213		12.883629	28.025468	-8.589490
34214		12.834354	27.939973	-8.584010
34215		12.836862	27.881514	-8.594358
34216		12.858115	27.829114	-8.620519
34217		12.867418	27.767512	-8.651962
34218		12.858413	27.708900	-8.680244
34219		12.824615	27.663248	-8.705950
34220		12.766424	27.632249	-8.728781
34221		12.690323	27.604519	-8.755407
34222		12.613107	27.580199	-8.764664
34223		12.532571	27.573744	-8.750463
34224		12.443099	27.594658	-8.713950
34225		12.345877	27.634461	-8.668394
34226		12.239890	27.659969	-8.631936
34227		12.138182	27.649746	-8.614257
34228		12.054367	27.612571	-8.622236
34229		12.009340	27.570375	-8.643660
34230		12.000427	27.542563	-8.668148
34231		12.008101	27.522980	-8.692462
34232		12.022299	27.502782	-8.719413
34233		12.040422	27.483466	-8.749254
34234		12.063312	27.473628	-8.779004
34235		12.086724	27.472714	-8.804774
34236		12.105982	27.465680	-8.825833
34237		12.119716	27.449705	-8.838403
34238		12.120720	27.427309	-8.842655
34239		12.110408	27.404670	-8.846420
34240		12.090208	27.389864	-8.847177
34241		12.066529	27.378980	-8.848073
34242		12.040995	27.365521	-8.846456
34243		12.014486	27.346238	-8.846197
34244		11.991434	27.330032	-8.840350
34245		11.960353	27.314899	-8.834459
34246		11.928332	27.298274	-8.821375
34247		11.891262	27.275368	-8.810296
34248		11.859114	27.248636	-8.798169
34249		11.836949	27.223215	-8.789878
34250		11.829475	27.201256	-8.778904
34251		11.831043	27.178150	-8.767537
34252		11.842959	27.150449	-8.754887
34253		11.860753	27.122951	-8.736307
34254		11.880540	27.088163	-8.712631
34255		11.898906	27.048299	-8.685295
34256		11.920082	27.008436	-8.654315
34257		11.941211	26.972062	-8.622586
34258		11.968230	26.939643	-8.587547
34259		11.998443	26.910818	-8.553118
34260		12.029920	26.889695	-8.522017
34261		12.062598	26.877149	-8.487917
34262		12.081768	26.872230	-8.454626
34263		12.092118	26.868964	-8.421609
34264		12.088866	26.862245	-8.391815
34265		12.081189	26.849270	-8.366023
34266		12.073100	26.838374	-8.341667
34267		12.069176	26.825837	-8.321223
34268		12.073545	26.814903	-8.303045
34269		12.083755	26.801353	-8.283917
34270		12.099989	26.792827	-8.268323
34271		12.117997	26.793094	-8.252847
34272		12.135079	26.800455	-8.242357
34273		12.150007	26.807626	-8.237469
34274		12.159619	26.813152	-8.240574
34275		12.174876	26.813046	-8.247211
34276		12.192000	26.805182	-8.261199
34277		12.214687	26.789537	-8.281312
34278		12.250614	26.769829	-8.308259
34279		12.292148	26.749435	-8.345594
34280		12.326404	26.736528	-8.394704
34281		12.352635	26.728967	-8.447928
34282		12.383145	26.726454	-8.493672
34283		12.419523	26.728344	-8.528754
34284		12.447874	26.742162	-8.561057
34285		12.468996	26.758818	-8.600638
34286		12.479342	26.764181	-8.648282
34287		12.482683	26.762642	-8.698934
34288		12.482564	26.755595	-8.752841
34289		12.490692	26.748315	-8.808457
34290		12.507862	26.743391	-8.865381
34291		12.538415	26.735822	-8.919730
34292		12.573122	26.734414	-8.973940
34293		12.618159	26.737196	-9.035049
34294		12.679543	26.744527	-9.098127
34295		12.762638	26.761556	-9.163175
34296		12.861230	26.788762	-9.228171
34297		12.969813	26.808603	-9.296720
34298		13.078867	26.814504	-9.367363
34299		13.183384	26.816646	-9.440805
34300		13.290372	26.829504	-9.516448
34301		13.399462	26.854263	-9.590650
34302		13.523884	26.888309	-9.657827
34303		13.665760	26.924894	-9.716569
34304		13.812585	26.951414	-9.768224
34305		13.945921	26.960505	-9.817223
34306		14.076769	26.961293	-9.869400
34307		14.214613	26.957460	-9.914325
34308		14.364322	26.953416	-9.950907
34309		14.527644	26.952370	-9.986313
34310		14.699220	26.950985	-10.017246
34311		14.866390	26.941361	-10.054645
34312		15.035104	26.932082	-10.097084
34313		15.216167	26.924387	-10.138390
34314		15.413417	26.920318	-10.174466
34315		15.625913	26.913254	-10.198973
34316		15.847378	26.906388	-10.218132
34317		16.066074	26.906119	-10.234340
34318		16.274283	26.896670	-10.251430
34319		16.479628	26.872436	-10.264475
34320		16.688818	26.834653	-10.269026
34321		16.902654	26.779240	-10.271558
34322		17.114871	26.708046	-10.278112
34323		17.331354	26.636892	-10.295145
34324		17.557365	26.571177	-10.314253
34325		17.798428	26.506930	-10.330333
34326		18.054982	26.434594	-10.339499
34327		18.320689	26.347383	-10.345590
34328		18.590489	26.251268	-10.354089
34329		18.849755	26.143827	-10.369240
34330		19.097457	26.025156	-10.391216
34331		19.338907	25.902999	-10.407041
34332		19.574015	25.781483	-10.420369
34333		19.805413	25.656406	-10.430311
34334		20.030227	25.534389	-10.441068
34335		20.247797	25.402467	-10.459015
34336		20.466357	25.269824	-10.480425
34337		20.683690	25.139315	-10.497531
34338		20.883286	25.008863	-10.511124
34339		21.065054	24.879545	-10.513427
34340		21.243273	24.753292	-10.506799
34341		21.420420	24.622615	-10.497676
34342		21.587565	24.477806	-10.494309
34343		21.752352	24.326599	-10.491158
34344		21.915602	24.175559	-10.480199
34345		22.056528	24.025091	-10.471411
34346		22.185118	23.868444	-10.470314
34347		22.325008	23.712357	-10.475557
34348		22.498552	23.568499	-10.476661
34349		22.700296	23.430231	-10.470999
34350		22.885501	23.290239	-10.472158
34351		23.048905	23.138547	-10.479558
34352		23.192441	22.991216	-10.483720
34353		23.325716	22.856265	-10.476908
34354		23.457431	22.719078	-10.463784
34355		23.587211	22.566389	-10.456063
34356		23.705502	22.401146	-10.455843
34357		23.822809	22.226156	-10.465075
34358		23.948028	22.048462	-10.472536
34359		24.063831	21.877286	-10.473518
34360		24.177658	21.713924	-10.469286
34361		24.319515	21.554648	-10.458080
34362		24.495310	21.390346	-10.445644
34363		24.676732	21.220734	-10.435388
34364		24.834326	21.051133	-10.428085
34365		24.951705	20.887407	-10.421767
34366		25.050941	20.736318	-10.409937
34367		25.136877	20.588963	-10.397388
34368		25.229932	20.441241	-10.395852
34369		25.339103	20.291262	-10.407067
34370		25.472198	20.141295	-10.411193
34371		25.605546	19.987053	-10.415699
34372		25.724309	19.836366	-10.409189
34373		25.827144	19.684818	-10.394985
34374		25.899223	19.524180	-10.380043
34375		25.962772	19.372333	-10.372620
34376		26.033375	19.222228	-10.371155
34377		26.132108	19.061948	-10.385576
34378		26.241741	18.898098	-10.412644
34379		26.344336	18.751667	-10.438867
34380		26.442746	18.620448	-10.456901
34381		26.538648	18.488801	-10.472444
34382		26.639055	18.351119	-10.485301
34383		26.733047	18.212048	-10.499239
34384		26.821592	18.081871	-10.503550
34385		26.902314	17.952959	-10.509071
34386		26.976053	17.818884	-10.523347
34387		27.038545	17.678514	-10.546445
34388		27.104740	17.535776	-10.579423
34389		27.202014	17.382422	-10.612658
34390		27.309926	17.217800	-10.642787
34391		27.403494	17.061757	-10.678080
34392		27.478655	16.929170	-10.707102
34393		27.540176	16.806321	-10.730437
34394		27.591853	16.680821	-10.755815
34395		27.631211	16.550527	-10.790326
34396		27.675579	16.413749	-10.830966
34397		27.713881	16.275339	-10.874940
34398		27.754198	16.138424	-10.922233
34399		27.802299	15.994184	-10.979495
34400		27.858951	15.858510	-11.031766
34401		27.923327	15.730943	-11.080541
34402		27.981052	15.606201	-11.131535
34403		28.013393	15.476125	-11.189681
34404		28.015728	15.334012	-11.257907
34405		28.003565	15.197186	-11.323288
34406		27.988149	15.080372	-11.390665
34407		27.980701	14.966437	-11.455249
34408		27.977067	14.844733	-11.523356
34409		27.965894	14.728095	-11.594820
34410		27.966829	14.616905	-11.672753
34411		27.974750	14.498996	-11.765865
34412		27.990843	14.394374	-11.860751
34413		28.028266	14.308512	-11.947584
34414		28.090643	14.226625	-12.028534
34415		28.138821	14.132683	-12.101440
34416		28.169241	14.045185	-12.153838
34417		28.195658	13.955413	-12.191400
34418		28.208090	13.848474	-12.227239
34419		28.215431	13.740485	-12.269119
34420		28.236285	13.649300	-12.318816
34421		28.256507	13.558200	-12.373570
34422		28.266072	13.468416	-12.420455
34423		28.272830	13.379814	-12.462524
34424		28.305302	13.292170	-12.507957
34425		28.349228	13.200433	-12.558866
34426		28.381387	13.113073	-12.606719
34427		28.399621	13.041218	-12.636032
34428		28.398549	12.970371	-12.664931
34429		28.385420	12.901672	-12.689216
34430		28.365315	12.843525	-12.709741
34431		28.349667	12.792107	-12.730413
34432		28.347710	12.742119	-12.759915
34433		28.358850	12.696558	-12.796188
34434		28.375413	12.653373	-12.837918
34435		28.392848	12.606213	-12.883963
34436		28.407153	12.564894	-12.922884
34437		28.404477	12.527771	-12.947648
34438		28.392963	12.490695	-12.957700
34439		28.373939	12.451642	-12.967657
34440		28.352411	12.419792	-12.985485
34441		28.343160	12.388293	-13.005145
34442		28.342580	12.356527	-13.022551
34443		28.349371	12.322281	-13.044667
34444		28.353982	12.279792	-13.075512
34445		28.344251	12.240891	-13.106652
34446		28.330484	12.203713	-13.139657
34447		28.310886	12.169677	-13.172434
34448		28.295023	12.142735	-13.209592
34449		28.281151	12.116362	-13.251475
34450		28.268657	12.084093	-13.299302
34451		28.258182	12.053560	-13.346306
34452		28.257587	12.025094	-13.383686
34453		28.257812	11.990343	-13.423225
34454		28.262228	11.955271	-13.460432
34455		28.262393	11.918985	-13.490827
34456		28.257906	11.878842	-13.527029
34457		28.257483	11.833940	-13.565554
34458		28.255716	11.795894	-13.596976
34459		28.257974	11.762203	-13.636362
34460		28.265155	11.721210	-13.676200
34461		28.271977	11.681914	-13.711075
34462		28.281007	11.638936	-13.741649
34463		28.295759	11.594131	-13.767412
34464		28.326178	11.545870	-13.792378
34465		28.364498	11.492757	-13.811850
34466		28.410053	11.437794	-13.820859
34467		28.456330	11.377329	-13.825397
34468		28.502097	11.310664	-13.829366
34469		28.552549	11.252090	-13.831158
34470		28.607961	11.210957	-13.836684
34471		28.667536	11.176194	-13.846177
34472		28.727379	11.146937	-13.851332
34473		28.784806	11.123227	-13.853398
34474		28.841854	11.099070	-13.853911
34475		28.899537	11.076209	-13.852965
34476		28.945020	11.049812	-13.854111
34477		28.978386	11.014046	-13.856353
34478		28.999672	10.990786	-13.859317
34479		29.032438	10.979164	-13.870169
34480		29.083558	10.970408	-13.879175
34481		29.115122	10.974344	-13.888180
34482		29.140809	10.985407	-13.891421
34483		29.156322	10.991565	-13.892419
34484		29.159225	10.999410	-13.894800
34485		29.157334	11.002755	-13.896470
34486		29.148477	11.010952	-13.899175
34487		29.137002	11.027616	-13.904576
34488		29.129679	11.047787	-13.910283
34489		29.118773	11.069980	-13.911782
34490		29.114898	11.095565	-13.910370
34491		29.109642	11.111780	-13.906054
34492		29.096490	11.126050	-13.908950
34493		29.084316	11.136381	-13.915860
34494		29.075722	11.144680	-13.927016
34495		29.070271	11.149832	-13.944720
34496		29.070521	11.148375	-13.971117
34497		29.074514	11.140951	-14.001987
34498		29.073948	11.131207	-14.033878
34499		29.072748	11.126105	-14.066350
34500		29.073125	11.123933	-14.099278
34501		29.069991	11.123096	-14.134873
34502		29.060101	11.124456	-14.171719
34503		29.051359	11.122340	-14.208650
34504		29.049434	11.126570	-14.248176
34505		29.055931	11.132632	-14.291681
34506		29.067106	11.138947	-14.332537
34507		29.076191	11.149018	-14.372874
34508		29.082731	11.159763	-14.410134
34509		29.089399	11.176957	-14.450198
34510		29.094961	11.196130	-14.489846
34511		29.102550	11.211773	-14.525606
34512		29.105286	11.229164	-14.562453
34513		29.108668	11.249761	-14.599103
34514		29.119119	11.272657	-14.638269
34515		29.131787	11.292452	-14.669510
34516		29.140836	11.310262	-14.698870
34517		29.142897	11.325807	-14.720740
34518		29.137380	11.335980	-14.738072
34519		29.135200	11.343114	-14.752246
34520		29.123780	11.349965	-14.761537
34521		29.114725	11.358346	-14.767459
34522		29.106651	11.363749	-14.776456
34523		29.098995	11.373017	-14.783739
34524		29.100488	11.391856	-14.793086
34525		29.116933	11.413411	-14.794934
34526		29.131853	11.444041	-14.796912
34527		29.150369	11.476653	-14.800741
34528		29.160801	11.514413	-14.802251
