// General information: 
//  MT Manager version: 2022.2.0 
//  XDA version: 2022.2.0 build 7381 rev 124627 built on 2023-07-19
// Device information: 
//  DeviceId: 00B44877
//  ProductCode: MTW2-3A7G6
//  Firmware Version: 4.3.5
//  Hardware Version: 2.0.0
// Device settings: 
//  Filter Profile: human(46.1)
//  Option Flags: Orientation Smoother Disabled, Position/Velocity Smoother Disabled, Continuous Zero Rotation Update Disabled, AHS Disabled, ICC Disabled
// Coordinate system: ENU
PacketCounter	SampleTimeFine	Roll	Pitch	Yaw
31344		1.469854	15.426809	-0.241165
31345		1.474278	15.426971	-0.244522
31346		1.474084	15.424766	-0.248864
31347		1.485780	15.420358	-0.256850
31348		1.496470	15.411358	-0.264729
31349		1.509229	15.397875	-0.271307
31350		1.523306	15.390925	-0.276585
31351		1.534079	15.384096	-0.276969
31352		1.539669	15.378933	-0.276623
31353		1.543307	15.374116	-0.275094
31354		1.551610	15.371013	-0.275528
31355		1.549730	15.365930	-0.281058
31356		1.553529	15.359528	-0.291324
31357		1.559385	15.360490	-0.303749
31358		1.567444	15.363190	-0.317818
31359		1.567504	15.361648	-0.330742
31360		1.567760	15.358374	-0.338397
31361		1.569728	15.354181	-0.344458
31362		1.571033	15.344871	-0.349634
31363		1.572893	15.333827	-0.355901
31364		1.578067	15.328483	-0.366556
31365		1.581420	15.324567	-0.376223
31366		1.581657	15.317443	-0.388635
31367		1.580121	15.309759	-0.402017
31368		1.588979	15.300464	-0.417893
31369		1.601113	15.299263	-0.432744
31370		1.609374	15.297296	-0.447259
31371		1.617050	15.271302	-0.467490
31372		1.633473	15.236748	-0.494446
31373		1.663739	15.201127	-0.529283
31374		1.698782	15.166835	-0.570514
31375		1.736254	15.148377	-0.618915
31376		1.776205	15.139428	-0.667317
31377		1.815550	15.123981	-0.713676
31378		1.855532	15.097583	-0.759899
31379		1.904343	15.071599	-0.812277
31380		1.958469	15.042127	-0.865936
31381		2.005874	14.999646	-0.927452
31382		2.067943	14.960536	-0.994693
31383		2.124576	14.936814	-1.067175
31384		2.162499	14.918437	-1.143683
31385		2.188089	14.906610	-1.217229
31386		2.193346	14.900983	-1.283727
31387		2.180463	14.891289	-1.346596
31388		2.171292	14.878737	-1.404968
31389		2.160221	14.878222	-1.457576
31390		2.151305	14.879922	-1.507131
31391		2.147853	14.881945	-1.556352
31392		2.158434	14.876748	-1.600813
31393		2.169088	14.874194	-1.636414
31394		2.165713	14.867709	-1.669156
31395		2.154625	14.868669	-1.699149
31396		2.144903	14.869913	-1.728509
31397		2.149624	14.870361	-1.753385
31398		2.153822	14.868128	-1.773487
31399		2.162770	14.858892	-1.792790
31400		2.172889	14.848102	-1.815345
31401		2.189270	14.839674	-1.841839
31402		2.217081	14.832058	-1.867297
31403		2.245740	14.822979	-1.896909
31404		2.264408	14.813165	-1.924874
31405		2.272448	14.808600	-1.952901
31406		2.278003	14.814520	-1.980326
31407		2.277715	14.821580	-2.010253
31408		2.300191	14.818504	-2.050367
31409		2.353857	14.810503	-2.095359
31410		2.417036	14.808678	-2.133282
31411		2.468380	14.807086	-2.168372
31412		2.485840	14.809181	-2.191683
31413		2.495198	14.799641	-2.210284
31414		2.497615	14.789112	-2.224338
31415		2.515728	14.778992	-2.234977
31416		2.534296	14.779727	-2.244402
31417		2.538000	14.770873	-2.255703
31418		2.550643	14.760689	-2.273853
31419		2.582443	14.752344	-2.295779
31420		2.607950	14.742957	-2.309517
31421		2.605205	14.732341	-2.321520
31422		2.596502	14.716980	-2.338702
31423		2.606992	14.713258	-2.357210
31424		2.603431	14.716933	-2.380248
31425		2.600313	14.705656	-2.410494
31426		2.596298	14.702942	-2.450709
31427		2.583139	14.700842	-2.498590
31428		2.576986	14.698614	-2.548234
31429		2.577951	14.700893	-2.598679
31430		2.586294	14.705899	-2.649518
31431		2.597825	14.712237	-2.699309
31432		2.593112	14.720699	-2.751974
31433		2.576775	14.727665	-2.807575
31434		2.564063	14.736374	-2.869594
31435		2.568883	14.744283	-2.936717
31436		2.580114	14.756615	-3.002391
31437		2.597174	14.761659	-3.069866
31438		2.601688	14.765665	-3.135743
31439		2.597591	14.767064	-3.201113
31440		2.591101	14.771539	-3.263687
31441		2.582610	14.776782	-3.326707
31442		2.568937	14.782833	-3.386680
31443		2.563695	14.785657	-3.446932
31444		2.568076	14.802374	-3.501672
31445		2.577781	14.811290	-3.552234
31446		2.579303	14.814146	-3.603080
31447		2.576129	14.812179	-3.648574
31448		2.583081	14.810820	-3.691651
31449		2.591936	14.815164	-3.726741
31450		2.603504	14.816320	-3.758554
31451		2.605969	14.812744	-3.788368
31452		2.610313	14.810890	-3.817329
31453		2.624953	14.819536	-3.844234
31454		2.641649	14.834770	-3.868595
31455		2.650011	14.844889	-3.892081
31456		2.658892	14.849767	-3.918849
31457		2.668986	14.862382	-3.945823
31458		2.674560	14.878471	-3.969047
31459		2.669228	14.891112	-3.988564
31460		2.652059	14.906260	-4.006225
31461		2.640183	14.918462	-4.022195
31462		2.625204	14.933352	-4.037330
31463		2.612199	14.949622	-4.051013
31464		2.605038	14.967481	-4.065619
31465		2.588861	14.987736	-4.078335
31466		2.568703	15.000321	-4.092418
31467		2.552414	15.014785	-4.103347
31468		2.538831	15.034839	-4.117010
31469		2.523652	15.049190	-4.128768
31470		2.508752	15.069731	-4.144448
31471		2.491657	15.089296	-4.161936
31472		2.479205	15.112038	-4.182472
31473		2.474407	15.132325	-4.204124
31474		2.473446	15.149614	-4.226183
31475		2.481560	15.168717	-4.247054
31476		2.487779	15.190462	-4.267425
31477		2.480848	15.207939	-4.286215
31478		2.474883	15.229654	-4.307967
31479		2.467189	15.254127	-4.330110
31480		2.453908	15.277805	-4.351478
31481		2.432401	15.296217	-4.371490
31482		2.407336	15.317539	-4.390403
31483		2.383367	15.334917	-4.406286
31484		2.369848	15.353214	-4.422416
31485		2.362480	15.376316	-4.434398
31486		2.353001	15.400446	-4.447419
31487		2.342160	15.419206	-4.461712
31488		2.335400	15.444292	-4.480029
31489		2.328530	15.477345	-4.498527
31490		2.315843	15.515727	-4.517673
31491		2.302787	15.556608	-4.531960
31492		2.271186	15.598367	-4.551214
31493		2.238186	15.631642	-4.566929
31494		2.209966	15.663000	-4.582999
31495		2.166907	15.689741	-4.595254
31496		2.118375	15.711500	-4.607867
31497		2.076763	15.734833	-4.619769
31498		2.031107	15.763515	-4.629413
31499		1.980797	15.783159	-4.640646
31500		1.950490	15.813796	-4.655086
31501		1.936847	15.856122	-4.667877
31502		1.914253	15.887097	-4.679104
31503		1.901322	15.920022	-4.692920
31504		1.889529	15.953703	-4.709288
31505		1.874237	15.982870	-4.727999
31506		1.859158	16.012792	-4.744607
31507		1.839597	16.037183	-4.758518
31508		1.829818	16.066846	-4.769447
31509		1.815711	16.102841	-4.780371
31510		1.805068	16.127725	-4.791556
31511		1.790293	16.155394	-4.799421
31512		1.770118	16.187899	-4.806535
31513		1.754618	16.219709	-4.819658
31514		1.733427	16.266546	-4.837383
31515		1.718305	16.314318	-4.852876
31516		1.703008	16.353772	-4.865472
31517		1.681297	16.389544	-4.876111
31518		1.668209	16.425545	-4.881315
31519		1.650489	16.468529	-4.884465
31520		1.632932	16.506410	-4.890360
31521		1.633651	16.545509	-4.899658
31522		1.654043	16.569160	-4.906709
31523		1.657786	16.579375	-4.907334
31524		1.644723	16.582409	-4.905317
31525		1.620452	16.595285	-4.902770
31526		1.607856	16.609551	-4.902585
31527		1.596958	16.624602	-4.903309
31528		1.583556	16.639755	-4.903937
31529		1.569871	16.646903	-4.903697
31530		1.554428	16.647991	-4.903781
31531		1.539133	16.650078	-4.903606
31532		1.537192	16.651585	-4.909162
31533		1.536355	16.657950	-4.910223
31534		1.534188	16.663211	-4.911091
31535		1.524423	16.662294	-4.910755
31536		1.525057	16.649826	-4.908643
31537		1.522752	16.639158	-4.902910
31538		1.522662	16.625432	-4.897017
31539		1.520275	16.616744	-4.888718
31540		1.520626	16.602322	-4.881338
31541		1.502228	16.590171	-4.869588
31542		1.485752	16.572296	-4.866058
31543		1.481298	16.564139	-4.863884
31544		1.474162	16.564620	-4.863918
31545		1.457961	16.561399	-4.862508
31546		1.447357	16.562081	-4.865011
31547		1.443638	16.562872	-4.864382
31548		1.438601	16.562780	-4.870662
31549		1.437571	16.562706	-4.873020
31550		1.427654	16.564390	-4.872378
31551		1.411974	16.566092	-4.869933
31552		1.401735	16.570432	-4.864359
31553		1.388760	16.575971	-4.857652
31554		1.384893	16.577040	-4.852620
31555		1.387510	16.575766	-4.848063
31556		1.393806	16.570711	-4.846032
31557		1.394109	16.576015	-4.847132
31558		1.387631	16.585355	-4.849202
31559		1.381979	16.587100	-4.855814
31560		1.374943	16.595184	-4.865794
31561		1.370999	16.600609	-4.876556
31562		1.361139	16.605801	-4.887696
31563		1.356521	16.618403	-4.898328
31564		1.358038	16.629217	-4.909011
31565		1.342537	16.641864	-4.920818
31566		1.328518	16.651717	-4.931260
31567		1.318726	16.671250	-4.941090
31568		1.310268	16.685802	-4.948972
31569		1.297406	16.694551	-4.959119
31570		1.292677	16.698069	-4.973099
31571		1.301439	16.709054	-4.988493
31572		1.306598	16.718094	-5.005966
31573		1.316611	16.729045	-5.021535
31574		1.329915	16.742388	-5.034510
31575		1.333963	16.747567	-5.044213
31576		1.341466	16.746384	-5.049290
31577		1.354395	16.752190	-5.050978
31578		1.366035	16.763798	-5.053794
31579		1.383094	16.769080	-5.054775
31580		1.406421	16.774727	-5.056581
31581		1.421221	16.779086	-5.059739
31582		1.429732	16.784996	-5.065115
31583		1.439920	16.791772	-5.071430
31584		1.445769	16.795366	-5.076053
31585		1.452864	16.798402	-5.078892
31586		1.454568	16.809108	-5.078572
31587		1.451796	16.810734	-5.076108
31588		1.437160	16.823751	-5.072156
31589		1.428081	16.834149	-5.069579
31590		1.423810	16.843315	-5.069086
31591		1.424449	16.851966	-5.070466
31592		1.430207	16.861558	-5.070924
31593		1.429996	16.869470	-5.070940
31594		1.415465	16.876519	-5.071162
31595		1.411701	16.886492	-5.071043
31596		1.405479	16.901715	-5.069687
31597		1.394033	16.914455	-5.067436
31598		1.385956	16.924839	-5.062093
31599		1.377115	16.938509	-5.053006
31600		1.362515	16.954037	-5.044841
31601		1.339194	16.971326	-5.036866
31602		1.325284	16.991143	-5.030415
31603		1.318151	17.014796	-5.028116
31604		1.307595	17.042870	-5.026554
31605		1.292651	17.075413	-5.028115
31606		1.277687	17.108098	-5.029986
31607		1.262808	17.141759	-5.031933
31608		1.244768	17.176956	-5.032762
31609		1.217931	17.210527	-5.032024
31610		1.181700	17.239377	-5.034094
31611		1.163648	17.267455	-5.038823
31612		1.151101	17.309616	-5.041713
31613		1.128412	17.352366	-5.047495
31614		1.098530	17.382648	-5.050460
31615		1.067448	17.408144	-5.052766
31616		1.035870	17.437469	-5.054720
31617		1.004413	17.467803	-5.056525
31618		0.977342	17.493675	-5.055318
31619		0.955703	17.510123	-5.054698
31620		0.932017	17.528945	-5.050093
31621		0.914409	17.548783	-5.043240
31622		0.890296	17.565056	-5.035275
31623		0.874938	17.582661	-5.028880
31624		0.863151	17.605146	-5.026735
31625		0.852449	17.621268	-5.025660
31626		0.842740	17.635764	-5.026661
31627		0.829337	17.649942	-5.026782
31628		0.818453	17.665517	-5.027946
31629		0.800381	17.675864	-5.029070
31630		0.782760	17.684480	-5.028127
31631		0.774397	17.687938	-5.026096
31632		0.758923	17.696845	-5.024697
31633		0.746192	17.704470	-5.024079
31634		0.746282	17.708620	-5.022060
31635		0.747335	17.712628	-5.024313
31636		0.748319	17.711473	-5.028019
31637		0.750628	17.708173	-5.027170
31638		0.746153	17.705882	-5.029518
31639		0.743671	17.707373	-5.031439
31640		0.729429	17.719609	-5.035045
31641		0.718326	17.725685	-5.039866
31642		0.718578	17.726545	-5.044667
31643		0.722708	17.723857	-5.049639
31644		0.725001	17.719735	-5.055502
31645		0.731455	17.717935	-5.058021
31646		0.735300	17.723895	-5.058761
31647		0.731515	17.728230	-5.058611
31648		0.734597	17.732049	-5.062238
31649		0.735920	17.734767	-5.065036
31650		0.737424	17.728262	-5.066845
31651		0.740981	17.720783	-5.067880
31652		0.748068	17.717423	-5.064632
31653		0.744029	17.709386	-5.058269
31654		0.737073	17.702080	-5.053084
31655		0.731481	17.704409	-5.051782
31656		0.729491	17.711057	-5.052943
31657		0.729314	17.718070	-5.052578
31658		0.733452	17.722743	-5.053724
31659		0.748380	17.725226	-5.052736
31660		0.762583	17.727051	-5.049820
31661		0.766268	17.725825	-5.042705
31662		0.766006	17.726907	-5.035136
31663		0.762913	17.730700	-5.029390
31664		0.752611	17.738791	-5.024099
31665		0.740249	17.737527	-5.020268
31666		0.737915	17.720667	-5.015955
31667		0.749842	17.699316	-5.005484
31668		0.755195	17.693081	-4.991811
31669		0.759363	17.680387	-4.974959
31670		0.763609	17.676342	-4.961717
31671		0.775515	17.681982	-4.945601
31672		0.793390	17.696453	-4.925928
31673		0.808491	17.699736	-4.902224
31674		0.822966	17.688509	-4.875683
31675		0.828758	17.675970	-4.851481
31676		0.835288	17.662088	-4.827894
31677		0.841907	17.654563	-4.803467
31678		0.846465	17.650074	-4.783970
31679		0.861325	17.641848	-4.762597
31680		0.865772	17.633719	-4.747070
31681		0.866131	17.617750	-4.732466
31682		0.852244	17.612532	-4.719047
31683		0.852685	17.600981	-4.709557
31684		0.857834	17.591611	-4.702045
31685		0.861918	17.581269	-4.697026
31686		0.869793	17.572857	-4.694742
31687		0.868550	17.561149	-4.693019
31688		0.852484	17.541781	-4.689930
31689		0.833506	17.524082	-4.688508
31690		0.807970	17.517948	-4.687089
31691		0.791191	17.513443	-4.681690
31692		0.772253	17.510428	-4.679401
31693		0.768543	17.506933	-4.673894
31694		0.770827	17.503447	-4.666151
31695		0.769212	17.498636	-4.658025
31696		0.759087	17.482247	-4.650529
31697		0.732191	17.469946	-4.641380
31698		0.710098	17.454590	-4.631876
31699		0.694774	17.450253	-4.622665
31700		0.684545	17.443222	-4.615939
31701		0.672918	17.436024	-4.612498
31702		0.664320	17.430497	-4.608984
31703		0.667813	17.426084	-4.608136
31704		0.676896	17.424036	-4.608763
31705		0.678924	17.413638	-4.611007
31706		0.680504	17.402452	-4.612406
31707		0.682472	17.393499	-4.610071
31708		0.677577	17.391161	-4.604821
31709		0.667671	17.389281	-4.592337
31710		0.649160	17.384834	-4.579438
31711		0.638103	17.381146	-4.569330
31712		0.636468	17.381070	-4.561404
31713		0.636340	17.379609	-4.554166
31714		0.636095	17.376035	-4.546212
31715		0.630918	17.371105	-4.533678
31716		0.616228	17.362153	-4.520691
31717		0.605642	17.351546	-4.506231
31718		0.595421	17.351218	-4.493510
31719		0.587379	17.352189	-4.480798
31720		0.577844	17.353638	-4.474030
31721		0.570974	17.358351	-4.468814
31722		0.571296	17.364272	-4.465166
31723		0.574464	17.370057	-4.462511
31724		0.572420	17.376490	-4.456754
31725		0.571361	17.379487	-4.450435
31726		0.567730	17.377217	-4.445281
31727		0.570790	17.368614	-4.438346
31728		0.571273	17.363044	-4.429282
31729		0.567220	17.355035	-4.422817
31730		0.576118	17.345843	-4.415564
31731		0.576484	17.337667	-4.411358
31732		0.581620	17.332487	-4.402032
31733		0.583891	17.329963	-4.394964
31734		0.583958	17.333420	-4.383864
31735		0.596097	17.336240	-4.373124
31736		0.605935	17.341415	-4.362427
31737		0.618972	17.351992	-4.354446
31738		0.632540	17.359471	-4.348659
31739		0.645589	17.364194	-4.339771
31740		0.655228	17.369274	-4.333148
31741		0.657552	17.375028	-4.322432
31742		0.659420	17.380597	-4.312634
31743		0.656856	17.390166	-4.304683
31744		0.651953	17.400861	-4.296290
31745		0.645269	17.410926	-4.288956
31746		0.637209	17.422125	-4.285952
31747		0.637043	17.434168	-4.277503
31748		0.632520	17.444689	-4.269782
31749		0.628404	17.454417	-4.260582
31750		0.619159	17.467601	-4.251099
31751		0.606383	17.482307	-4.239374
31752		0.597970	17.498791	-4.227285
31753		0.591511	17.511554	-4.211712
31754		0.578958	17.518488	-4.190941
31755		0.566731	17.520990	-4.172620
31756		0.564684	17.525101	-4.155331
31757		0.571407	17.535711	-4.141542
31758		0.572417	17.541987	-4.125647
31759		0.569940	17.547882	-4.110536
31760		0.564679	17.555549	-4.096602
31761		0.557774	17.567820	-4.081994
31762		0.557020	17.584143	-4.068315
31763		0.555976	17.602757	-4.055008
31764		0.547341	17.611738	-4.043898
31765		0.542666	17.612467	-4.032223
31766		0.534156	17.617886	-4.020978
31767		0.531584	17.623674	-4.009242
31768		0.523570	17.625339	-3.998528
31769		0.511008	17.626024	-3.985326
31770		0.493358	17.626609	-3.972350
31771		0.468843	17.623871	-3.964491
31772		0.451386	17.616915	-3.960061
31773		0.445106	17.614393	-3.958325
31774		0.450542	17.610055	-3.953951
31775		0.459509	17.601881	-3.947114
31776		0.467053	17.594561	-3.937379
31777		0.473466	17.585110	-3.929756
31778		0.481109	17.580551	-3.922734
31779		0.485816	17.582310	-3.917722
31780		0.500093	17.585057	-3.908036
31781		0.515792	17.588957	-3.897868
31782		0.531116	17.603087	-3.886784
31783		0.549078	17.615637	-3.869770
31784		0.552415	17.625415	-3.847278
31785		0.554537	17.631939	-3.826720
31786		0.552990	17.642147	-3.801949
31787		0.537552	17.653416	-3.778870
31788		0.504360	17.668157	-3.756545
31789		0.465694	17.679146	-3.736818
31790		0.444273	17.688538	-3.722240
31791		0.420708	17.690661	-3.703550
31792		0.399398	17.688533	-3.683538
31793		0.385442	17.687339	-3.661258
31794		0.368530	17.685990	-3.647199
31795		0.359442	17.689347	-3.635162
31796		0.345383	17.698945	-3.625222
31797		0.329994	17.710546	-3.619863
31798		0.325796	17.717819	-3.618935
31799		0.337766	17.720804	-3.622832
31800		0.345323	17.722647	-3.629617
31801		0.359830	17.724370	-3.638593
31802		0.369128	17.728839	-3.648848
31803		0.379532	17.730528	-3.656615
31804		0.383345	17.727542	-3.662717
31805		0.387932	17.724967	-3.662956
31806		0.387599	17.724603	-3.663921
31807		0.386579	17.725621	-3.663880
31808		0.379347	17.726029	-3.661162
31809		0.367634	17.726522	-3.656345
31810		0.362637	17.728350	-3.653412
31811		0.358036	17.725185	-3.650596
31812		0.356313	17.720380	-3.646310
31813		0.358174	17.715587	-3.646063
31814		0.364124	17.713834	-3.645028
31815		0.375380	17.715508	-3.644901
31816		0.379198	17.724022	-3.645455
31817		0.379710	17.728510	-3.646175
31818		0.383683	17.728734	-3.646166
31819		0.386825	17.728100	-3.644361
31820		0.396223	17.724549	-3.638309
31821		0.408750	17.722561	-3.631180
31822		0.420645	17.717471	-3.622865
31823		0.439819	17.713876	-3.614447
31824		0.455236	17.711894	-3.608449
31825		0.467682	17.711549	-3.604598
31826		0.482756	17.711400	-3.600379
31827		0.498787	17.704177	-3.598830
31828		0.511431	17.696142	-3.596054
31829		0.522627	17.692002	-3.595354
31830		0.532433	17.687342	-3.596624
31831		0.546199	17.683371	-3.595716
31832		0.556661	17.679766	-3.593844
31833		0.566900	17.673879	-3.591542
31834		0.573801	17.671874	-3.587773
31835		0.581578	17.666944	-3.585800
31836		0.584488	17.667237	-3.581641
31837		0.586633	17.667889	-3.575986
31838		0.590004	17.669126	-3.572759
31839		0.589015	17.667987	-3.568043
31840		0.597042	17.665418	-3.566264
31841		0.610341	17.668902	-3.561377
31842		0.622029	17.672640	-3.555800
31843		0.630412	17.671310	-3.549310
31844		0.640582	17.671600	-3.542841
31845		0.652984	17.670622	-3.540254
31846		0.663628	17.669299	-3.538919
31847		0.678817	17.667133	-3.537134
31848		0.694464	17.666544	-3.538320
31849		0.704849	17.664495	-3.539614
31850		0.712831	17.662454	-3.540012
31851		0.722719	17.658252	-3.539768
31852		0.735468	17.657755	-3.540119
31853		0.744733	17.655209	-3.538421
31854		0.749012	17.654143	-3.538829
31855		0.757994	17.650301	-3.541065
31856		0.774112	17.650686	-3.543184
31857		0.795132	17.648942	-3.544748
31858		0.828092	17.645541	-3.539440
31859		0.856581	17.641754	-3.529946
31860		0.901129	17.621495	-3.515275
31861		0.988730	17.589285	-3.493589
31862		1.061906	17.563253	-3.457432
31863		1.090178	17.544698	-3.422218
31864		1.096991	17.517541	-3.398398
31865		1.113613	17.493349	-3.386571
31866		1.128527	17.482070	-3.383265
31867		1.138058	17.463930	-3.381681
31868		1.142283	17.439173	-3.384257
31869		1.159685	17.417445	-3.390820
31870		1.181434	17.384885	-3.391297
31871		1.187878	17.349860	-3.388646
31872		1.167244	17.331600	-3.384405
31873		1.157028	17.319336	-3.385866
31874		1.153672	17.307513	-3.395719
31875		1.159709	17.298133	-3.407311
31876		1.175314	17.289932	-3.425259
31877		1.184959	17.287053	-3.444384
31878		1.194051	17.283208	-3.466346
31879		1.200687	17.285041	-3.488370
31880		1.199970	17.285784	-3.512843
31881		1.195236	17.279703	-3.538426
31882		1.184519	17.267991	-3.565615
31883		1.184038	17.258478	-3.592431
31884		1.185626	17.258169	-3.620887
31885		1.190578	17.252141	-3.648158
31886		1.187535	17.246695	-3.676532
31887		1.181698	17.242942	-3.702854
31888		1.165026	17.239654	-3.728879
31889		1.166588	17.232971	-3.754578
31890		1.177855	17.230100	-3.778218
31891		1.186782	17.239252	-3.800860
31892		1.188627	17.244415	-3.823745
31893		1.181346	17.254029	-3.841206
31894		1.158858	17.272907	-3.856983
31895		1.152700	17.290928	-3.871873
31896		1.143573	17.312670	-3.885666
31897		1.125672	17.329159	-3.897825
31898		1.122552	17.340315	-3.908164
31899		1.112119	17.353226	-3.914440
31900		1.102068	17.360270	-3.920722
31901		1.087681	17.366523	-3.928022
31902		1.076074	17.377026	-3.938428
31903		1.074488	17.388607	-3.952008
31904		1.057601	17.403497	-3.966554
31905		1.044580	17.410754	-3.983448
31906		1.041652	17.422236	-4.000702
31907		1.046535	17.423483	-4.012903
31908		1.048625	17.421308	-4.024543
31909		1.052425	17.423793	-4.033210
31910		1.046825	17.416396	-4.048002
31911		1.029943	17.418140	-4.066181
31912		1.009683	17.424260	-4.084680
31913		0.993005	17.433479	-4.104895
31914		0.980442	17.447053	-4.124858
31915		0.960382	17.471733	-4.144777
31916		0.949747	17.490315	-4.168744
31917		0.929558	17.505680	-4.192657
31918		0.916336	17.518787	-4.217955
31919		0.909734	17.520331	-4.243327
31920		0.902684	17.519780	-4.267125
31921		0.906837	17.514672	-4.287632
31922		0.903971	17.506080	-4.307037
31923		0.902911	17.493822	-4.326753
31924		0.908625	17.481211	-4.345654
31925		0.906812	17.470441	-4.364878
31926		0.907657	17.473264	-4.387817
31927		0.916408	17.474544	-4.409593
31928		0.919630	17.473030	-4.427545
31929		0.920680	17.469431	-4.443099
31930		0.915327	17.463829	-4.456250
31931		0.909784	17.455939	-4.468857
31932		0.907973	17.453581	-4.484308
31933		0.909871	17.456836	-4.499120
31934		0.912664	17.459721	-4.514667
31935		0.914679	17.459236	-4.532758
31936		0.912996	17.459728	-4.550925
31937		0.911713	17.464832	-4.566043
31938		0.901017	17.467814	-4.581621
31939		0.893591	17.476368	-4.599337
31940		0.892980	17.492338	-4.619148
31941		0.892386	17.503046	-4.636808
31942		0.884502	17.516672	-4.654352
31943		0.875288	17.524163	-4.671503
31944		0.872942	17.525629	-4.686456
31945		0.868470	17.526072	-4.699528
31946		0.854533	17.530392	-4.713914
31947		0.853791	17.536386	-4.726454
31948		0.854136	17.545669	-4.740654
31949		0.855449	17.549148	-4.752843
31950		0.849592	17.565651	-4.765728
31951		0.849772	17.582709	-4.777400
31952		0.849943	17.600970	-4.790304
31953		0.851655	17.616905	-4.802806
31954		0.852142	17.633868	-4.816099
31955		0.852699	17.649531	-4.824728
31956		0.849499	17.653334	-4.832018
31957		0.850464	17.656550	-4.841268
31958		0.852391	17.657060	-4.852780
31959		0.861942	17.659147	-4.865271
31960		0.866738	17.666135	-4.880486
31961		0.874024	17.669694	-4.890472
31962		0.876546	17.671238	-4.898848
31963		0.882209	17.675776	-4.906504
31964		0.883113	17.679110	-4.916592
31965		0.891028	17.684308	-4.922049
31966		0.897847	17.691914	-4.927960
31967		0.898838	17.695030	-4.934135
31968		0.897542	17.701676	-4.940823
31969		0.911671	17.715636	-4.952858
31970		0.923482	17.730661	-4.964137
31971		0.930334	17.735099	-4.975782
31972		0.923197	17.738641	-4.986931
31973		0.919697	17.745479	-4.996139
31974		0.920904	17.748100	-5.008788
31975		0.917009	17.755708	-5.019295
31976		0.902871	17.761426	-5.029303
31977		0.897341	17.769557	-5.040887
31978		0.903201	17.778652	-5.053900
31979		0.917749	17.790256	-5.064721
31980		0.930046	17.793356	-5.075218
31981		0.941502	17.790264	-5.085257
31982		0.950886	17.787996	-5.096402
31983		0.947752	17.794558	-5.106571
31984		0.949015	17.803736	-5.118046
31985		0.954163	17.813102	-5.128881
31986		0.956304	17.817758	-5.143403
31987		0.958543	17.817049	-5.155303
31988		0.956637	17.823326	-5.167323
31989		0.953605	17.832945	-5.180157
31990		0.951212	17.843601	-5.189794
31991		0.939005	17.852596	-5.200534
31992		0.924694	17.861387	-5.208579
31993		0.903764	17.872061	-5.215800
31994		0.883482	17.880204	-5.224142
31995		0.866476	17.888689	-5.236017
31996		0.858961	17.899541	-5.247548
31997		0.855433	17.911728	-5.258482
31998		0.856362	17.915198	-5.268582
31999		0.845717	17.915411	-5.277034
32000		0.832445	17.914333	-5.285504
32001		0.822060	17.911514	-5.292120
32002		0.809144	17.908551	-5.298793
32003		0.790475	17.900169	-5.301133
32004		0.772849	17.887267	-5.302523
32005		0.765302	17.879212	-5.302551
32006		0.765812	17.878275	-5.302732
32007		0.773911	17.877430	-5.301327
32008		0.774028	17.869566	-5.299834
32009		0.783745	17.857929	-5.296284
32010		0.796132	17.850073	-5.294580
32011		0.812249	17.841224	-5.292726
32012		0.828983	17.828730	-5.291443
32013		0.848997	17.816019	-5.291755
32014		0.869024	17.808779	-5.290498
32015		0.884356	17.799085	-5.286513
32016		0.897446	17.783244	-5.287026
32017		0.916914	17.770231	-5.289002
32018		0.938637	17.758158	-5.292105
32019		0.963956	17.742916	-5.294418
32020		0.985730	17.725497	-5.298978
32021		0.996613	17.709708	-5.302219
32022		1.009455	17.692152	-5.308451
32023		1.022731	17.681455	-5.315671
32024		1.036453	17.671264	-5.322331
32025		1.051932	17.655034	-5.328477
32026		1.071238	17.638609	-5.333194
32027		1.094149	17.619187	-5.336922
32028		1.110048	17.601725	-5.339917
32029		1.120083	17.584130	-5.340643
32030		1.126392	17.575644	-5.343368
32031		1.135854	17.571761	-5.348072
32032		1.152220	17.576006	-5.352834
32033		1.170778	17.575678	-5.360448
32034		1.188927	17.569761	-5.371012
32035		1.209144	17.562908	-5.380637
32036		1.229450	17.557386	-5.390697
32037		1.248858	17.549810	-5.398273
32038		1.252809	17.545182	-5.403866
32039		1.258940	17.540369	-5.406178
32040		1.262116	17.534886	-5.406116
32041		1.264658	17.531854	-5.404721
32042		1.272484	17.531738	-5.400673
32043		1.283942	17.528437	-5.395626
32044		1.301649	17.529936	-5.389613
32045		1.312719	17.535090	-5.385513
32046		1.324907	17.537473	-5.382892
32047		1.336435	17.537176	-5.380931
32048		1.351231	17.535020	-5.382080
32049		1.364909	17.534367	-5.381097
32050		1.373138	17.527595	-5.378890
32051		1.381125	17.522009	-5.371850
32052		1.386613	17.517464	-5.365327
32053		1.390497	17.513334	-5.355971
32054		1.391885	17.510918	-5.349123
32055		1.389625	17.511525	-5.342720
32056		1.392072	17.514025	-5.340451
32057		1.393971	17.515411	-5.341041
32058		1.396149	17.520382	-5.338665
32059		1.396775	17.515713	-5.339050
32060		1.400907	17.511076	-5.336519
32061		1.395553	17.509351	-5.332218
32062		1.392096	17.511120	-5.326181
32063		1.389071	17.513810	-5.321066
32064		1.388427	17.514515	-5.319618
32065		1.392495	17.516198	-5.319698
32066		1.398231	17.518063	-5.320779
32067		1.398670	17.516445	-5.322553
32068		1.399976	17.514644	-5.321940
32069		1.395088	17.515678	-5.321531
32070		1.385032	17.515169	-5.320827
32071		1.386156	17.517013	-5.319820
32072		1.382342	17.522457	-5.322086
32073		1.376395	17.526872	-5.322253
32074		1.372114	17.531312	-5.323590
32075		1.364426	17.529823	-5.326897
32076		1.361694	17.531909	-5.328409
32077		1.354067	17.530414	-5.327763
32078		1.348585	17.528792	-5.328309
32079		1.339307	17.526124	-5.325937
32080		1.331942	17.527583	-5.323759
32081		1.319563	17.530279	-5.319629
32082		1.315229	17.531801	-5.314182
32083		1.314896	17.534702	-5.304609
32084		1.317299	17.533721	-5.293378
32085		1.328078	17.532962	-5.284416
32086		1.336059	17.533449	-5.274396
32087		1.339618	17.525461	-5.266425
32088		1.349079	17.523608	-5.260642
32089		1.357000	17.524024	-5.254275
32090		1.360676	17.523745	-5.245288
32091		1.358701	17.520735	-5.234534
32092		1.356927	17.521308	-5.224891
32093		1.360733	17.523813	-5.214819
32094		1.362663	17.522411	-5.204832
32095		1.365921	17.522250	-5.194924
32096		1.364818	17.526729	-5.184870
32097		1.357929	17.533834	-5.175616
32098		1.348282	17.538536	-5.170075
32099		1.342750	17.538719	-5.159238
32100		1.337211	17.541295	-5.154005
32101		1.337540	17.542828	-5.146044
32102		1.340078	17.544766	-5.137534
32103		1.346986	17.547929	-5.129286
32104		1.351208	17.551010	-5.125837
32105		1.363649	17.556226	-5.121417
32106		1.374734	17.567436	-5.118066
32107		1.380486	17.576400	-5.116365
32108		1.378453	17.582415	-5.117469
32109		1.376598	17.586559	-5.121173
32110		1.375173	17.588785	-5.122757
32111		1.380568	17.592548	-5.125633
32112		1.391599	17.597260	-5.127507
32113		1.409297	17.599369	-5.127337
32114		1.428012	17.597069	-5.126439
32115		1.445830	17.593211	-5.121622
32116		1.466430	17.593189	-5.117934
32117		1.484463	17.591504	-5.109586
32118		1.490910	17.594371	-5.099387
32119		1.493406	17.595672	-5.088716
32120		1.495746	17.601258	-5.080383
32121		1.495788	17.604643	-5.070403
32122		1.499811	17.601873	-5.057455
32123		1.506402	17.600495	-5.045020
32124		1.518506	17.604232	-5.029778
32125		1.538120	17.613987	-5.017594
32126		1.553538	17.623637	-5.004504
32127		1.569318	17.632467	-4.993495
32128		1.572615	17.645442	-4.981503
32129		1.570016	17.658652	-4.969616
32130		1.571233	17.672412	-4.958420
32131		1.568333	17.688177	-4.946739
32132		1.559984	17.704319	-4.932446
32133		1.559379	17.720937	-4.917944
32134		1.551514	17.737512	-4.902412
32135		1.539552	17.749018	-4.885131
32136		1.527776	17.757530	-4.870313
32137		1.517070	17.768590	-4.854715
32138		1.504771	17.782682	-4.841864
32139		1.498783	17.790138	-4.832293
32140		1.499496	17.796388	-4.825398
32141		1.501003	17.802284	-4.819604
32142		1.516891	17.806447	-4.812622
32143		1.530889	17.812455	-4.801807
32144		1.541648	17.814959	-4.790240
32145		1.556770	17.819387	-4.777744
32146		1.565916	17.823092	-4.765738
32147		1.567329	17.826609	-4.755574
32148		1.583984	17.835875	-4.748438
32149		1.601374	17.844751	-4.742945
32150		1.623352	17.845467	-4.741388
32151		1.650583	17.842976	-4.740146
32152		1.675121	17.837974	-4.742057
32153		1.695730	17.827160	-4.749593
32154		1.720145	17.821637	-4.757468
32155		1.743250	17.816434	-4.763885
32156		1.745036	17.808563	-4.767272
32157		1.735239	17.799516	-4.766479
32158		1.729849	17.790703	-4.762032
32159		1.719922	17.783555	-4.754194
32160		1.708572	17.773356	-4.743866
32161		1.705943	17.759275	-4.732370
32162		1.702345	17.749777	-4.718342
32163		1.707468	17.737021	-4.701716
32164		1.724432	17.722265	-4.683610
32165		1.736955	17.697883	-4.666465
32166		1.756063	17.671587	-4.654538
32167		1.785521	17.649132	-4.646011
32168		1.807900	17.634774	-4.636953
32169		1.818863	17.622122	-4.629899
32170		1.827212	17.614756	-4.621430
32171		1.819439	17.615002	-4.614140
32172		1.811183	17.613784	-4.603964
32173		1.803124	17.614792	-4.593597
32174		1.792038	17.615823	-4.583192
32175		1.784022	17.618571	-4.575637
32176		1.763914	17.631320	-4.564340
32177		1.753042	17.641665	-4.551196
32178		1.743774	17.643825	-4.537719
32179		1.729804	17.638085	-4.522958
32180		1.738002	17.633754	-4.508411
32181		1.744296	17.626449	-4.494232
32182		1.748423	17.618246	-4.478689
32183		1.752936	17.616355	-4.466269
32184		1.758677	17.620716	-4.455028
32185		1.763139	17.623703	-4.442459
32186		1.765569	17.623322	-4.433414
32187		1.782793	17.621026	-4.423113
32188		1.797657	17.622003	-4.414014
32189		1.817448	17.614532	-4.405805
32190		1.835872	17.611193	-4.395799
32191		1.839808	17.603093	-4.388745
32192		1.834289	17.591896	-4.379719
32193		1.859724	17.591191	-4.366910
32194		1.834090	17.633483	-4.338010
32195		1.792441	17.652969	-4.309093
32196		1.795222	17.655427	-4.286529
32197		1.783502	17.652937	-4.270859
32198		1.785575	17.659888	-4.262144
32199		1.789453	17.663118	-4.254237
32200		1.776692	17.645653	-4.246958
32201		1.762326	17.629914	-4.241103
32202		1.755501	17.619233	-4.238228
32203		1.765936	17.611598	-4.230937
32204		1.767122	17.605099	-4.221120
32205		1.776627	17.596567	-4.212538
32206		1.793788	17.593699	-4.204615
32207		1.806516	17.594758	-4.194125
32208		1.816195	17.593459	-4.178290
32209		1.826494	17.588818	-4.157176
32210		1.832652	17.584613	-4.133168
32211		1.844860	17.581629	-4.106720
32212		1.856471	17.575982	-4.081161
32213		1.886099	17.571935	-4.055823
32214		1.910620	17.568053	-4.028956
32215		1.928353	17.565389	-3.999809
32216		1.944984	17.557838	-3.969900
32217		1.953677	17.548280	-3.943938
32218		1.961737	17.534952	-3.921957
32219		1.970405	17.524322	-3.898919
32220		1.980565	17.517413	-3.881162
32221		2.004560	17.509451	-3.868067
32222		2.037604	17.507810	-3.857452
32223		2.075260	17.512163	-3.845208
32224		2.108993	17.513866	-3.831998
32225		2.134025	17.507299	-3.817962
32226		2.149815	17.501874	-3.801374
32227		2.147383	17.492943	-3.785721
32228		2.144164	17.484415	-3.772711
32229		2.142664	17.481759	-3.760392
32230		2.121839	17.484017	-3.750772
32231		2.093721	17.478766	-3.741732
32232		2.074696	17.470786	-3.737910
32233		2.075586	17.455912	-3.735049
32234		2.091302	17.437928	-3.723012
32235		2.108145	17.412148	-3.704158
32236		2.116057	17.385639	-3.684625
32237		2.111907	17.364109	-3.664629
32238		2.102381	17.344726	-3.648329
32239		2.090700	17.332047	-3.637452
32240		2.080723	17.325481	-3.632136
32241		2.080742	17.309697	-3.627342
32242		2.075858	17.284425	-3.619911
32243		2.063836	17.254564	-3.608293
32244		2.049942	17.221849	-3.593550
32245		2.047457	17.194366	-3.573592
32246		2.034300	17.178150	-3.553864
32247		2.024194	17.162563	-3.536342
32248		2.021879	17.149509	-3.522316
32249		2.019672	17.144718	-3.509437
32250		2.020497	17.146065	-3.494062
32251		2.020625	17.150455	-3.476319
32252		2.012634	17.159287	-3.453674
32253		1.994707	17.166415	-3.428895
32254		1.969608	17.173894	-3.400799
32255		1.939275	17.180261	-3.374378
32256		1.921644	17.190985	-3.350573
32257		1.910929	17.204389	-3.328655
32258		1.899990	17.219224	-3.305952
32259		1.891695	17.242059	-3.278715
32260		1.872684	17.262386	-3.247638
32261		1.834295	17.279883	-3.215239
32262		1.784719	17.283649	-3.183677
32263		1.709662	17.288707	-3.159465
32264		1.639401	17.296225	-3.149839
32265		1.585795	17.312980	-3.149010
32266		1.546114	17.331694	-3.149457
32267		1.519635	17.345353	-3.150409
32268		1.490782	17.354545	-3.148911
32269		1.462939	17.361359	-3.151232
32270		1.441727	17.364601	-3.155276
32271		1.430878	17.365514	-3.162166
32272		1.423537	17.366432	-3.170033
32273		1.422998	17.362276	-3.180308
32274		1.423570	17.354746	-3.189755
32275		1.435101	17.347189	-3.195322
32276		1.452043	17.335846	-3.198176
32277		1.458819	17.331225	-3.195481
32278		1.461582	17.329562	-3.186787
32279		1.470186	17.331117	-3.176580
32280		1.471795	17.331105	-3.166223
32281		1.468116	17.331101	-3.158785
32282		1.470498	17.336194	-3.152332
32283		1.471923	17.342288	-3.151527
32284		1.473537	17.342838	-3.151417
32285		1.467843	17.343020	-3.153713
32286		1.459963	17.341783	-3.152305
32287		1.452397	17.345222	-3.147769
32288		1.448352	17.349770	-3.141049
32289		1.441280	17.354233	-3.133505
32290		1.433922	17.360056	-3.125663
32291		1.428802	17.356436	-3.120637
32292		1.421977	17.357834	-3.115145
32293		1.418879	17.358258	-3.109531
32294		1.414992	17.359126	-3.106674
32295		1.410923	17.363579	-3.103712
32296		1.407200	17.366794	-3.101407
32297		1.402381	17.367320	-3.099216
32298		1.407537	17.363527	-3.098151
32299		1.423862	17.355970	-3.100610
32300		1.438216	17.349853	-3.105934
32301		1.458429	17.348153	-3.110545
32302		1.480129	17.343466	-3.117701
32303		1.492059	17.340117	-3.121670
32304		1.507878	17.336490	-3.123561
32305		1.520383	17.328572	-3.125647
32306		1.528570	17.319418	-3.126774
32307		1.533684	17.315602	-3.125634
32308		1.541622	17.308957	-3.126667
32309		1.555544	17.303451	-3.125668
32310		1.571203	17.303527	-3.123704
32311		1.584245	17.297861	-3.123371
32312		1.593057	17.291496	-3.123817
32313		1.605570	17.284781	-3.126882
32314		1.625009	17.284045	-3.132886
32315		1.645780	17.285169	-3.137590
32316		1.662819	17.280534	-3.139274
32317		1.679930	17.271613	-3.134640
32318		1.690535	17.260366	-3.131304
32319		1.693326	17.253776	-3.130213
32320		1.699439	17.251464	-3.132903
32321		1.712130	17.253214	-3.137160
32322		1.717328	17.256080	-3.143050
32323		1.723767	17.265666	-3.144023
32324		1.733690	17.275185	-3.142116
32325		1.745998	17.282460	-3.139619
32326		1.749197	17.287280	-3.138517
32327		1.753322	17.294094	-3.139455
32328		1.765660	17.307550	-3.137820
32329		1.764952	17.317987	-3.129071
32330		1.773610	17.309285	-3.120898
32331		1.785593	17.293136	-3.112816
32332		1.784148	17.274338	-3.101465
32333		1.763987	17.257642	-3.093360
32334		1.744250	17.239696	-3.085236
32335		1.734011	17.222942	-3.075676
32336		1.737145	17.196410	-3.066644
32337		1.747949	17.157391	-3.059842
32338		1.758296	17.117925	-3.054686
32339		1.771702	17.085706	-3.050992
32340		1.775360	17.054199	-3.050253
32341		1.771774	17.036661	-3.054741
32342		1.772511	17.030370	-3.060450
32343		1.779728	17.025341	-3.068313
32344		1.788164	17.000531	-3.075935
32345		1.808671	16.960889	-3.083873
32346		1.831257	16.924787	-3.088500
32347		1.855992	16.890194	-3.093292
32348		1.859060	16.868012	-3.098748
32349		1.856982	16.859635	-3.106734
32350		1.859205	16.855849	-3.117091
32351		1.856395	16.853282	-3.129457
32352		1.865468	16.848830	-3.148524
32353		1.885815	16.842526	-3.170230
32354		1.904317	16.838245	-3.192202
32355		1.928983	16.837587	-3.216830
32356		1.956764	16.837759	-3.240000
32357		1.962262	16.843043	-3.266634
32358		1.963208	16.849606	-3.296132
32359		1.972448	16.858540	-3.324332
32360		1.986144	16.876732	-3.357411
32361		2.016686	16.897802	-3.391027
32362		2.043025	16.913271	-3.425694
32363		2.061144	16.927481	-3.456841
32364		2.074608	16.929596	-3.485515
32365		2.087016	16.928424	-3.515858
32366		2.097004	16.928906	-3.548787
32367		2.110488	16.931528	-3.579679
32368		2.136190	16.937732	-3.608131
32369		2.147438	16.946208	-3.636286
32370		2.164635	16.945952	-3.666459
32371		2.188039	16.948969	-3.696214
32372		2.209780	16.952586	-3.728006
32373		2.234851	16.962704	-3.760261
32374		2.256240	16.967155	-3.793564
32375		2.273534	16.961531	-3.825100
32376		2.287462	16.956583	-3.853451
32377		2.302783	16.954034	-3.877995
32378		2.313254	16.949606	-3.899040
32379		2.332480	16.948608	-3.920066
32380		2.347599	16.957020	-3.942101
32381		2.346864	16.972142	-3.959349
32382		2.352232	16.982212	-3.980287
32383		2.356349	16.993251	-4.001270
32384		2.355476	17.006168	-4.022777
32385		2.355548	17.021817	-4.044309
32386		2.343413	17.039909	-4.064857
32387		2.334651	17.058435	-4.085123
32388		2.320812	17.084328	-4.104104
32389		2.305018	17.112755	-4.125865
32390		2.299552	17.135177	-4.147505
32391		2.299050	17.169654	-4.168292
32392		2.297204	17.203420	-4.187224
32393		2.285982	17.230819	-4.206262
32394		2.276359	17.256463	-4.223930
32395		2.266936	17.272187	-4.240887
32396		2.244660	17.294393	-4.256324
32397		2.237977	17.312856	-4.269363
32398		2.234538	17.320554	-4.282286
32399		2.231648	17.330985	-4.294324
32400		2.228220	17.339245	-4.305369
32401		2.224879	17.349761	-4.316983
32402		2.211888	17.363184	-4.327813
32403		2.199660	17.375072	-4.339398
32404		2.184956	17.389037	-4.347669
32405		2.170722	17.403363	-4.358477
32406		2.156191	17.419251	-4.373235
32407		2.139396	17.441175	-4.387294
32408		2.134003	17.459886	-4.400762
32409		2.123755	17.468770	-4.415122
32410		2.109645	17.476711	-4.431403
32411		2.100265	17.484568	-4.444348
32412		2.083147	17.492893	-4.458028
32413		2.065019	17.499062	-4.469584
32414		2.036950	17.510646	-4.484651
32415		2.016164	17.529809	-4.497624
32416		2.002985	17.547642	-4.510880
32417		1.986316	17.564190	-4.526311
32418		1.974281	17.579250	-4.540942
32419		1.965537	17.593653	-4.555145
32420		1.961225	17.601162	-4.568708
32421		1.961540	17.607585	-4.583374
32422		1.968169	17.619707	-4.594700
32423		1.970761	17.636749	-4.608555
32424		1.969515	17.653508	-4.622288
32425		1.963111	17.671953	-4.632438
32426		1.952121	17.684087	-4.640376
32427		1.944431	17.693818	-4.648818
32428		1.934514	17.710388	-4.655125
32429		1.923957	17.730774	-4.664891
32430		1.907749	17.749607	-4.673744
32431		1.890553	17.766952	-4.682943
32432		1.870521	17.786523	-4.691981
32433		1.845486	17.800678	-4.699943
32434		1.818429	17.817502	-4.707675
32435		1.799476	17.833962	-4.713747
32436		1.786358	17.846061	-4.724392
32437		1.773850	17.852841	-4.734400
32438		1.754712	17.865364	-4.741804
32439		1.740150	17.876385	-4.748114
32440		1.725154	17.886432	-4.753590
32441		1.711818	17.895636	-4.759335
32442		1.698926	17.905042	-4.763990
32443		1.688741	17.916983	-4.768942
32444		1.679571	17.922987	-4.776808
32445		1.677929	17.928517	-4.785606
32446		1.676820	17.932661	-4.793683
32447		1.670514	17.937750	-4.800282
32448		1.663321	17.940721	-4.806754
32449		1.654821	17.944033	-4.813303
32450		1.649187	17.944274	-4.817777
32451		1.630869	17.940329	-4.821860
32452		1.610854	17.944698	-4.826692
32453		1.594045	17.945968	-4.827978
32454		1.584498	17.945601	-4.830303
32455		1.581149	17.950365	-4.833312
32456		1.573537	17.954017	-4.837265
32457		1.564100	17.955178	-4.837109
32458		1.557925	17.953723	-4.838490
32459		1.557706	17.950568	-4.842398
32460		1.559725	17.948832	-4.848378
32461		1.566060	17.947354	-4.856825
32462		1.567602	17.943884	-4.865742
32463		1.568149	17.938133	-4.874575
32464		1.572167	17.931724	-4.886799
32465		1.577453	17.923935	-4.902300
32466		1.574559	17.924313	-4.918864
32467		1.572404	17.924018	-4.930443
32468		1.576120	17.921102	-4.938810
32469		1.576382	17.919552	-4.946418
32470		1.574260	17.911177	-4.954839
32471		1.578075	17.900766	-4.967955
32472		1.585669	17.896415	-4.981990
32473		1.598337	17.891339	-4.995783
32474		1.608386	17.886133	-5.003568
32475		1.613895	17.883932	-5.009977
32476		1.615327	17.878458	-5.016399
32477		1.610215	17.872345	-5.018491
32478		1.603817	17.864833	-5.024461
32479		1.602843	17.855113	-5.030640
32480		1.608154	17.840416	-5.037501
32481		1.613004	17.827136	-5.044364
32482		1.626130	17.815311	-5.047858
32483		1.631496	17.802649	-5.050566
32484		1.639442	17.790256	-5.053952
32485		1.655903	17.776869	-5.058342
32486		1.671741	17.767696	-5.062467
32487		1.681548	17.760480	-5.068333
32488		1.686138	17.748728	-5.074575
32489		1.696331	17.738434	-5.081857
32490		1.701572	17.731570	-5.087931
32491		1.702459	17.723395	-5.094917
32492		1.702699	17.711330	-5.098430
32493		1.700640	17.696773	-5.099526
32494		1.695614	17.680917	-5.106170
32495		1.695014	17.668488	-5.112023
32496		1.695450	17.659570	-5.118295
32497		1.696761	17.651673	-5.123827
32498		1.693401	17.644114	-5.130444
32499		1.691411	17.630535	-5.131897
32500		1.690337	17.617724	-5.135232
32501		1.683347	17.607362	-5.137273
32502		1.674889	17.602460	-5.140539
32503		1.680142	17.597196	-5.144832
32504		1.691867	17.592470	-5.147366
32505		1.702789	17.581188	-5.145333
32506		1.719529	17.565245	-5.143808
32507		1.737985	17.550078	-5.140825
32508		1.751216	17.533238	-5.137775
32509		1.765051	17.519225	-5.137744
32510		1.774986	17.512422	-5.141138
32511		1.782242	17.502840	-5.143232
32512		1.793388	17.494388	-5.146225
32513		1.806111	17.482285	-5.150801
32514		1.823988	17.469643	-5.155432
32515		1.837646	17.460216	-5.157918
32516		1.849712	17.452356	-5.162391
32517		1.865903	17.440875	-5.163867
32518		1.875006	17.434213	-5.167977
32519		1.892456	17.430387	-5.172748
32520		1.909047	17.426810	-5.178892
32521		1.920854	17.422758	-5.183185
32522		1.926159	17.417452	-5.187643
32523		1.926667	17.412014	-5.188288
32524		1.922387	17.406276	-5.188022
32525		1.915721	17.402931	-5.192044
32526		1.917428	17.404176	-5.196082
32527		1.914588	17.400786	-5.200235
32528		1.911691	17.396971	-5.200419
32529		1.902244	17.395572	-5.195257
32530		1.886299	17.403920	-5.185744
32531		1.863790	17.413394	-5.170346
32532		1.846844	17.420374	-5.157173
32533		1.839602	17.422370	-5.143444
32534		1.837637	17.425291	-5.134543
32535		1.846588	17.421934	-5.122562
32536		1.855515	17.418251	-5.113342
32537		1.862125	17.411048	-5.106153
32538		1.872230	17.402058	-5.101666
32539		1.878510	17.403297	-5.103458
32540		1.884841	17.403435	-5.104522
32541		1.883637	17.405456	-5.109474
32542		1.882160	17.403134	-5.112005
32543		1.879883	17.401295	-5.112397
32544		1.879384	17.402805	-5.113168
32545		1.879707	17.403725	-5.115008
32546		1.875670	17.400690	-5.119388
32547		1.872864	17.395955	-5.122754
32548		1.872974	17.398687	-5.128486
32549		1.861589	17.401780	-5.133280
32550		1.855069	17.402879	-5.134664
32551		1.849651	17.409719	-5.136439
32552		1.852407	17.415959	-5.138984
32553		1.854571	17.418506	-5.141661
32554		1.855984	17.414211	-5.142354
32555		1.858767	17.411185	-5.145425
32556		1.872669	17.405356	-5.148983
32557		1.876395	17.406366	-5.150402
32558		1.877743	17.402925	-5.147299
32559		1.875681	17.402127	-5.143583
32560		1.868547	17.401991	-5.140012
32561		1.866183	17.402706	-5.135352
32562		1.868159	17.404148	-5.132079
32563		1.869058	17.400979	-5.128050
32564		1.870899	17.398429	-5.125821
32565		1.871007	17.396984	-5.120747
32566		1.865220	17.399195	-5.115727
32567		1.861463	17.396731	-5.109994
32568		1.851013	17.398840	-5.107662
32569		1.841879	17.401097	-5.107386
32570		1.837636	17.405121	-5.108792
32571		1.835978	17.410073	-5.112857
32572		1.833909	17.412621	-5.117224
32573		1.835592	17.412599	-5.120460
32574		1.839284	17.407573	-5.126283
32575		1.842129	17.404138	-5.131101
32576		1.841598	17.402375	-5.135082
32577		1.843670	17.400849	-5.138580
32578		1.847423	17.400671	-5.139564
32579		1.842266	17.402457	-5.140324
32580		1.841561	17.408959	-5.141628
32581		1.846838	17.412992	-5.142909
32582		1.854228	17.416056	-5.145966
32583		1.863415	17.419508	-5.148970
32584		1.876722	17.420607	-5.150820
32585		1.886976	17.420042	-5.153182
32586		1.890696	17.420282	-5.152264
32587		1.886727	17.423659	-5.149895
32588		1.881404	17.425118	-5.147370
32589		1.874073	17.431137	-5.144410
32590		1.872078	17.440119	-5.142325
32591		1.873733	17.445286	-5.139279
32592		1.876204	17.447588	-5.136866
32593		1.873984	17.452642	-5.128758
32594		1.871219	17.458479	-5.119255
32595		1.867059	17.463536	-5.109716
32596		1.864806	17.471875	-5.099475
32597		1.858750	17.485977	-5.086854
32598		1.848800	17.497880	-5.073567
32599		1.841646	17.504968	-5.059466
32600		1.844830	17.510457	-5.047131
32601		1.851107	17.517060	-5.035225
32602		1.856949	17.524007	-5.023204
32603		1.872030	17.533998	-5.015935
32604		1.888347	17.541193	-5.007832
32605		1.894663	17.548492	-4.998658
32606		1.898484	17.555163	-4.991263
32607		1.897155	17.562351	-4.983728
32608		1.893844	17.572607	-4.977960
32609		1.888840	17.583168	-4.973328
32610		1.892838	17.589714	-4.971898
32611		1.898392	17.594789	-4.968720
32612		1.912715	17.603314	-4.963611
32613		1.933471	17.613897	-4.954659
32614		1.945959	17.619181	-4.950127
32615		1.953933	17.631015	-4.945969
32616		1.967489	17.644507	-4.936717
32617		1.969082	17.652551	-4.926465
32618		1.963280	17.658779	-4.914437
32619		1.964398	17.667659	-4.901682
32620		1.953267	17.681129	-4.888808
32621		1.937394	17.695237	-4.874473
32622		1.922630	17.717239	-4.857706
32623		1.903745	17.735044	-4.837522
32624		1.880032	17.750897	-4.818095
32625		1.858650	17.761751	-4.799802
32626		1.829780	17.776608	-4.782229
32627		1.812456	17.780694	-4.764982
32628		1.798356	17.785625	-4.750101
32629		1.793429	17.793176	-4.735543
32630		1.789013	17.798084	-4.727162
32631		1.780081	17.798259	-4.718713
32632		1.775092	17.799498	-4.710790
32633		1.769806	17.805673	-4.703768
32634		1.773306	17.810122	-4.701139
32635		1.784459	17.814561	-4.696481
32636		1.805867	17.813466	-4.694193
32637		1.824700	17.805067	-4.688638
32638		1.828587	17.797900	-4.686541
32639		1.824719	17.791057	-4.684238
32640		1.823575	17.786862	-4.682947
32641		1.821253	17.787018	-4.680657
32642		1.820004	17.792211	-4.676963
32643		1.826909	17.797981	-4.674205
32644		1.826555	17.804191	-4.670072
32645		1.831775	17.804141	-4.661904
32646		1.824617	17.808442	-4.649434
32647		1.821098	17.807902	-4.635283
32648		1.831318	17.806210	-4.620372
32649		1.838761	17.800683	-4.604156
32650		1.845886	17.787698	-4.588587
32651		1.840439	17.783854	-4.575758
32652		1.845191	17.775292	-4.561301
32653		1.839997	17.774989	-4.548659
32654		1.826419	17.773875	-4.531674
32655		1.805597	17.779370	-4.514083
32656		1.795223	17.783802	-4.495037
32657		1.788182	17.785045	-4.478711
32658		1.791008	17.784260	-4.460819
32659		1.797552	17.784568	-4.447728
32660		1.812381	17.778149	-4.434917
32661		1.826447	17.773705	-4.425634
32662		1.831515	17.768978	-4.416091
32663		1.838302	17.762163	-4.405733
32664		1.835952	17.756746	-4.394836
32665		1.840664	17.746724	-4.386984
32666		1.854355	17.741054	-4.378384
32667		1.868077	17.738853	-4.371491
32668		1.885143	17.735754	-4.356780
32669		1.900549	17.736098	-4.340136
32670		1.906775	17.737427	-4.318037
32671		1.940769	17.740176	-4.298392
32672		1.930721	17.777950	-4.270021
32673		1.907216	17.792032	-4.246781
32674		1.910290	17.795897	-4.230010
32675		1.901689	17.807198	-4.216344
32676		1.894841	17.819364	-4.201766
32677		1.873964	17.821362	-4.182275
32678		1.846781	17.810350	-4.159212
32679		1.813777	17.816182	-4.131844
32680		1.786649	17.829010	-4.103170
32681		1.757062	17.834926	-4.075418
32682		1.741235	17.836125	-4.051705
32683		1.715078	17.845454	-4.031271
32684		1.679994	17.854757	-4.015252
32685		1.645689	17.854483	-4.001702
32686		1.607693	17.857643	-3.984255
32687		1.581358	17.861395	-3.966655
32688		1.569941	17.861280	-3.947182
32689		1.565222	17.858940	-3.925830
32690		1.563363	17.849985	-3.907343
32691		1.564393	17.848300	-3.890961
32692		1.563452	17.846827	-3.876941
32693		1.567458	17.840322	-3.865935
32694		1.566111	17.835086	-3.858352
32695		1.572144	17.829220	-3.851212
32696		1.588990	17.822698	-3.846935
32697		1.605484	17.810384	-3.841026
32698		1.619499	17.793595	-3.830992
32699		1.628989	17.773216	-3.821627
32700		1.639544	17.747807	-3.810923
32701		1.639496	17.731077	-3.795950
32702		1.637572	17.716881	-3.784224
32703		1.639824	17.705043	-3.776417
32704		1.641285	17.694662	-3.770214
32705		1.628982	17.685503	-3.765020
32706		1.622360	17.676519	-3.760654
32707		1.619288	17.674301	-3.753786
32708		1.613272	17.670569	-3.747345
32709		1.609783	17.665079	-3.744857
32710		1.609726	17.658962	-3.739047
32711		1.597985	17.653718	-3.731352
32712		1.584608	17.650478	-3.723848
32713		1.578473	17.645594	-3.717094
32714		1.573680	17.641843	-3.708620
32715		1.565916	17.640427	-3.700109
32716		1.567780	17.638688	-3.693983
32717		1.578095	17.636777	-3.685265
32718		1.586021	17.637022	-3.676827
32719		1.601830	17.633503	-3.666085
32720		1.613846	17.631782	-3.653753
32721		1.625186	17.629943	-3.636984
32722		1.630915	17.624742	-3.622611
32723		1.636993	17.621178	-3.605377
32724		1.635863	17.617348	-3.590817
32725		1.634409	17.616735	-3.579066
32726		1.626991	17.616331	-3.565471
32727		1.606964	17.609643	-3.550739
32728		1.586839	17.606854	-3.535501
32729		1.570767	17.608868	-3.519277
32730		1.548856	17.609276	-3.498183
32731		1.526486	17.609387	-3.478566
32732		1.503796	17.609526	-3.460085
32733		1.480847	17.608032	-3.437116
32734		1.454694	17.610084	-3.415836
32735		1.427696	17.617102	-3.390669
32736		1.405873	17.623904	-3.363114
32737		1.374953	17.628715	-3.336873
32738		1.349035	17.625364	-3.316924
32739		1.330802	17.618082	-3.302052
32740		1.320962	17.617745	-3.292491
32741		1.314948	17.622793	-3.281549
32742		1.307429	17.626960	-3.270372
32743		1.292224	17.628173	-3.257893
32744		1.277315	17.624344	-3.244250
32745		1.271480	17.618424	-3.236218
32746		1.271926	17.622130	-3.230754
32747		1.274531	17.615426	-3.228722
32748		1.282624	17.603909	-3.228026
32749		1.294659	17.591354	-3.230800
32750		1.313701	17.572893	-3.231500
32751		1.336254	17.558842	-3.228304
32752		1.355072	17.550989	-3.220948
32753		1.373143	17.541993	-3.208744
32754		1.396001	17.534195	-3.193987
32755		1.409043	17.525119	-3.171994
32756		1.412837	17.517171	-3.156294
32757		1.430666	17.513443	-3.142873
32758		1.458944	17.514954	-3.133609
32759		1.493491	17.518236	-3.127672
32760		1.526808	17.523631	-3.120569
32761		1.558267	17.529527	-3.108314
32762		1.587566	17.532652	-3.089419
32763		1.619805	17.535612	-3.060186
32764		1.641257	17.541424	-3.024798
32765		1.651054	17.539448	-2.981910
32766		1.666141	17.545797	-2.937469
32767		1.676298	17.548913	-2.892829
32768		1.680818	17.551839	-2.847801
32769		1.676439	17.559987	-2.811255
32770		1.678540	17.570382	-2.782733
32771		1.678794	17.586204	-2.767604
32772		1.666132	17.605583	-2.758910
32773		1.654827	17.625682	-2.749840
32774		1.656372	17.648847	-2.745053
32775		1.659354	17.675362	-2.738651
32776		1.667741	17.702823	-2.736725
32777		1.671295	17.727884	-2.736755
32778		1.678473	17.744475	-2.740895
32779		1.688981	17.756744	-2.746687
32780		1.715579	17.757867	-2.759262
32781		1.748226	17.755655	-2.775780
32782		1.789854	17.755203	-2.798239
32783		1.837131	17.755910	-2.821754
32784		1.873463	17.744874	-2.844468
32785		1.898984	17.729670	-2.864714
32786		1.923010	17.719599	-2.881325
32787		1.946747	17.712245	-2.891374
32788		1.966227	17.702747	-2.901586
32789		1.990991	17.687987	-2.908399
32790		2.013573	17.665445	-2.915425
32791		2.021842	17.644838	-2.921327
32792		2.015182	17.629081	-2.925423
32793		2.007092	17.617078	-2.931232
32794		2.008793	17.611838	-2.935615
32795		2.009182	17.604308	-2.940638
32796		2.010485	17.588468	-2.948490
32797		2.010717	17.565093	-2.952076
32798		2.007042	17.546532	-2.958077
32799		2.001488	17.535208	-2.962219
32800		1.994416	17.523421	-2.971917
32801		2.002456	17.506278	-2.984421
32802		2.016136	17.491021	-2.996737
32803		2.024830	17.480104	-3.007656
32804		2.043568	17.479198	-3.019942
32805		2.075196	17.484052	-3.034762
32806		2.084521	17.485447	-3.047176
32807		2.082368	17.489248	-3.062171
32808		2.086634	17.497731	-3.079731
32809		2.087927	17.496031	-3.103389
32810		2.099272	17.491353	-3.128914
32811		2.116684	17.486023	-3.157929
32812		2.136574	17.479607	-3.182137
32813		2.152084	17.472914	-3.202528
32814		2.149540	17.468182	-3.217786
32815		2.143139	17.469134	-3.230926
32816		2.134407	17.482223	-3.243960
32817		2.136455	17.494436	-3.259587
32818		2.134455	17.497411	-3.278658
32819		2.152112	17.486283	-3.299727
32820		2.191170	17.457296	-3.319312
32821		2.244246	17.410674	-3.331349
32822		2.270418	17.360773	-3.337065
32823		2.290793	17.308523	-3.334670
32824		2.316677	17.265080	-3.328029
32825		2.322839	17.226378	-3.322119
32826		2.331655	17.183168	-3.321320
32827		2.370745	17.145255	-3.322787
32828		2.398999	17.111992	-3.328503
32829		2.412151	17.088874	-3.337275
32830		2.422080	17.071184	-3.343849
32831		2.424562	17.055517	-3.347621
32832		2.423367	17.036788	-3.349598
32833		2.421689	17.026826	-3.352294
32834		2.418399	17.032052	-3.351375
32835		2.411264	17.026810	-3.352468
32836		2.407364	17.022432	-3.356582
32837		2.398150	17.011935	-3.362643
32838		2.387628	17.003563	-3.367969
32839		2.385472	16.996302	-3.376112
32840		2.388675	16.992417	-3.382805
32841		2.383597	16.989268	-3.389135
32842		2.383934	16.998990	-3.395815
32843		2.376452	17.006348	-3.403491
32844		2.367539	17.014308	-3.417289
32845		2.367256	17.013203	-3.427817
32846		2.369607	17.005098	-3.438161
32847		2.375558	16.990532	-3.448682
32848		2.385075	16.975624	-3.460528
32849		2.387556	16.964994	-3.476175
32850		2.386118	16.957529	-3.496045
32851		2.385832	16.953626	-3.520348
32852		2.392930	16.946925	-3.544800
32853		2.418297	16.932011	-3.569401
32854		2.445274	16.918772	-3.589110
32855		2.466100	16.910399	-3.601942
32856		2.474222	16.903645	-3.613113
32857		2.477160	16.905500	-3.628118
32858		2.475259	16.916814	-3.648482
32859		2.475863	16.913137	-3.669101
32860		2.491922	16.896359	-3.689579
32861		2.516931	16.880765	-3.705573
32862		2.531500	16.868514	-3.719228
32863		2.541996	16.859765	-3.734661
32864		2.556798	16.856256	-3.753688
32865		2.563125	16.858316	-3.772663
32866		2.560031	16.862741	-3.792085
32867		2.559226	16.861441	-3.809700
32868		2.550896	16.858477	-3.826197
32869		2.548438	16.853046	-3.844005
32870		2.548782	16.850702	-3.859737
32871		2.554275	16.847669	-3.874786
32872		2.550394	16.848133	-3.890645
32873		2.544982	16.842716	-3.906949
32874		2.549166	16.839001	-3.922241
32875		2.541699	16.839718	-3.936879
32876		2.529055	16.844345	-3.948693
32877		2.513280	16.851681	-3.958771
32878		2.508697	16.849676	-3.964142
32879		2.510542	16.844899	-3.970588
32880		2.511660	16.838740	-3.979429
32881		2.515245	16.834090	-3.994110
32882		2.514571	16.836802	-4.011066
32883		2.510353	16.842588	-4.025262
32884		2.499305	16.841324	-4.038278
32885		2.497518	16.837044	-4.048824
32886		2.492636	16.836034	-4.055763
32887		2.497272	16.831016	-4.059071
32888		2.500173	16.827194	-4.059815
32889		2.499510	16.820413	-4.062975
32890		2.514009	16.818940	-4.067229
32891		2.540391	16.817133	-4.074945
32892		2.556008	16.814159	-4.084094
32893		2.561113	16.815596	-4.090810
32894		2.565294	16.820587	-4.100225
32895		2.566109	16.829355	-4.108816
32896		2.562747	16.842125	-4.118337
32897		2.547031	16.849395	-4.127804
32898		2.526871	16.857657	-4.135464
32899		2.499626	16.866530	-4.140387
32900		2.471801	16.870632	-4.145983
32901		2.451327	16.878670	-4.149532
32902		2.434233	16.884441	-4.151882
32903		2.404725	16.892945	-4.151189
32904		2.374074	16.904806	-4.148836
32905		2.347378	16.920009	-4.151965
32906		2.318270	16.934089	-4.159363
32907		2.300039	16.954546	-4.169100
32908		2.291964	16.970341	-4.178206
32909		2.278462	16.980779	-4.180961
32910		2.252376	16.993986	-4.181463
32911		2.231818	17.005111	-4.181824
32912		2.200483	17.027319	-4.184034
32913		2.165799	17.056000	-4.183994
32914		2.133459	17.084406	-4.187768
32915		2.111147	17.108116	-4.195252
32916		2.092926	17.129675	-4.206149
32917		2.082889	17.140981	-4.215811
32918		2.054946	17.157330	-4.227126
32919		2.031821	17.170110	-4.240027
32920		2.015043	17.184727	-4.257146
32921		2.011120	17.198840	-4.271318
32922		2.001363	17.209258	-4.284514
32923		1.995165	17.213655	-4.296171
32924		1.991763	17.220723	-4.308316
32925		1.983555	17.236470	-4.322122
32926		1.965908	17.258311	-4.335775
32927		1.952126	17.275461	-4.352188
32928		1.942616	17.288831	-4.368099
32929		1.936073	17.300982	-4.384169
32930		1.929538	17.314782	-4.398752
32931		1.931103	17.326705	-4.413627
32932		1.929135	17.336746	-4.426450
32933		1.919144	17.342385	-4.438008
32934		1.907157	17.340295	-4.449570
32935		1.898434	17.341103	-4.464406
32936		1.889887	17.347059	-4.478474
32937		1.889097	17.357716	-4.492138
32938		1.888775	17.362326	-4.498929
32939		1.890831	17.359764	-4.505600
32940		1.898425	17.355720	-4.510603
32941		1.903526	17.352405	-4.510303
32942		1.908608	17.345244	-4.511331
32943		1.917767	17.341304	-4.512260
32944		1.930704	17.342902	-4.516449
32945		1.949305	17.344833	-4.520844
32946		1.960236	17.352058	-4.525172
32947		1.971591	17.357707	-4.529135
32948		1.971990	17.365389	-4.532022
32949		1.948630	17.366956	-4.534064
32950		1.924728	17.371705	-4.539881
32951		1.910369	17.383383	-4.548425
32952		1.895455	17.390224	-4.557697
32953		1.886745	17.390080	-4.564721
32954		1.880779	17.392751	-4.572592
32955		1.875673	17.396361	-4.575100
32956		1.871040	17.400166	-4.575918
32957		1.868155	17.398059	-4.572091
32958		1.870984	17.396304	-4.569234
32959		1.865088	17.396518	-4.565656
32960		1.859216	17.402318	-4.559743
32961		1.848007	17.404681	-4.555539
32962		1.834756	17.401008	-4.554214
32963		1.818072	17.407207	-4.557601
32964		1.810659	17.415138	-4.560882
32965		1.799159	17.420909	-4.563918
32966		1.800657	17.423115	-4.572675
32967		1.802848	17.428331	-4.577087
32968		1.803403	17.436660	-4.582109
32969		1.806032	17.441748	-4.587284
32970		1.804099	17.438677	-4.592235
32971		1.785938	17.441951	-4.599737
32972		1.772680	17.443361	-4.602988
32973		1.761028	17.438887	-4.607336
32974		1.748411	17.432807	-4.610021
32975		1.736394	17.425913	-4.609828
32976		1.725672	17.420219	-4.607892
32977		1.710679	17.413974	-4.609741
32978		1.702439	17.407461	-4.612780
32979		1.706102	17.402325	-4.617262
32980		1.703234	17.402610	-4.619773
32981		1.691486	17.401464	-4.620760
32982		1.683391	17.398387	-4.624648
32983		1.678069	17.399013	-4.628696
32984		1.674196	17.397154	-4.636667
32985		1.672159	17.397997	-4.645844
32986		1.676821	17.398546	-4.656679
32987		1.684236	17.396502	-4.662668
32988		1.699609	17.389886	-4.666603
32989		1.705257	17.384755	-4.668482
32990		1.708572	17.379937	-4.667458
32991		1.711722	17.378417	-4.662988
32992		1.713928	17.376289	-4.657396
32993		1.723152	17.376711	-4.649912
32994		1.732225	17.377690	-4.641477
32995		1.748168	17.373371	-4.633949
32996		1.768118	17.370170	-4.626625
32997		1.781078	17.364327	-4.619745
32998		1.791959	17.356271	-4.615596
32999		1.801907	17.348409	-4.612487
33000		1.809859	17.341026	-4.609963
33001		1.810496	17.340930	-4.608793
33002		1.807689	17.343927	-4.604714
33003		1.802860	17.344196	-4.604487
33004		1.800208	17.341188	-4.604857
33005		1.802281	17.342941	-4.603625
33006		1.801477	17.346578	-4.609528
33007		1.798539	17.352416	-4.613718
33008		1.793804	17.358941	-4.618538
33009		1.787549	17.364122	-4.620637
33010		1.784855	17.371712	-4.622984
33011		1.777889	17.381930	-4.620184
33012		1.766722	17.392163	-4.618963
33013		1.763432	17.404331	-4.617627
33014		1.763530	17.407807	-4.617495
33015		1.769447	17.412175	-4.619861
33016		1.780716	17.418346	-4.622512
33017		1.787407	17.421487	-4.623859
33018		1.795915	17.423925	-4.625709
33019		1.805123	17.423960	-4.625854
33020		1.806906	17.426717	-4.631410
33021		1.805767	17.436687	-4.635622
33022		1.808511	17.442745	-4.641292
33023		1.819042	17.446917	-4.648438
33024		1.826451	17.454337	-4.651575
33025		1.828419	17.462739	-4.653715
33026		1.832597	17.466728	-4.655493
33027		1.840651	17.470628	-4.656744
33028		1.848088	17.475275	-4.661167
33029		1.860269	17.476914	-4.665433
33030		1.875070	17.481600	-4.668838
33031		1.891783	17.482175	-4.670454
33032		1.900681	17.481994	-4.672280
33033		1.904877	17.484349	-4.675530
33034		1.908172	17.483397	-4.678766
33035		1.907509	17.484913	-4.688046
33036		1.908112	17.483673	-4.696629
33037		1.908801	17.484629	-4.700552
33038		1.910033	17.485358	-4.704968
33039		1.911982	17.483669	-4.707594
33040		1.921659	17.482213	-4.708398
33041		1.931579	17.488040	-4.702920
33042		1.932249	17.498947	-4.696025
33043		1.934741	17.500806	-4.688331
33044		1.931571	17.505169	-4.678685
33045		1.922887	17.509792	-4.665087
33046		1.908667	17.514889	-4.653548
33047		1.901908	17.514025	-4.645572
33048		1.902413	17.513708	-4.639855
33049		1.905620	17.513235	-4.635705
33050		1.908420	17.516933	-4.630207
33051		1.908440	17.521962	-4.623276
33052		1.907552	17.526439	-4.614860
33053		1.900809	17.540040	-4.607346
33054		1.892882	17.552444	-4.601929
33055		1.885043	17.561607	-4.599587
33056		1.884432	17.567410	-4.600730
33057		1.890409	17.572744	-4.603575
33058		1.894992	17.574101	-4.605318
33059		1.894404	17.573219	-4.608037
33060		1.886804	17.576388	-4.610215
33061		1.869825	17.576664	-4.612648
33062		1.856011	17.575942	-4.614847
33063		1.852896	17.583226	-4.618649
33064		1.875928	17.592828	-4.624757
33065		1.893577	17.599505	-4.630128
33066		1.911645	17.598617	-4.631241
33067		1.933089	17.599382	-4.624618
33068		1.954149	17.603320	-4.610924
33069		1.964539	17.611484	-4.595197
33070		1.978965	17.623497	-4.577921
33071		1.985254	17.628912	-4.559074
33072		1.980585	17.626831	-4.542638
33073		1.969427	17.626747	-4.526823
33074		1.963350	17.630598	-4.513255
33075		1.970976	17.641692	-4.499219
33076		1.968318	17.655098	-4.481233
33077		1.963698	17.656394	-4.465977
33078		1.966638	17.655004	-4.445330
33079		1.953660	17.647235	-4.418200
33080		1.946286	17.628629	-4.387900
33081		1.939846	17.607860	-4.360448
33082		1.956397	17.569860	-4.334593
33083		1.986495	17.510685	-4.305008
33084		2.006619	17.447347	-4.277350
33085		2.029071	17.386278	-4.251234
33086		2.053020	17.355529	-4.229513
33087		2.061090	17.335177	-4.212861
33088		2.071546	17.312907	-4.207154
33089		2.079800	17.312169	-4.206105
33090		2.102867	17.310005	-4.209983
33091		2.128489	17.298721	-4.222821
33092		2.138818	17.280396	-4.237231
33093		2.149946	17.264563	-4.249024
33094		2.167720	17.246222	-4.251836
33095		2.170606	17.229388	-4.250289
33096		2.165182	17.203095	-4.244449
33097		2.160269	17.173671	-4.234902
33098		2.141997	17.151610	-4.220221
33099		2.124859	17.143989	-4.209051
33100		2.114346	17.138880	-4.198802
33101		2.100827	17.133263	-4.189735
33102		2.104985	17.120424	-4.184724
33103		2.121167	17.117857	-4.179541
33104		2.102995	17.113690	-4.171899
33105		2.063610	17.107589	-4.157814
33106		2.013055	17.098931	-4.146112
33107		1.969402	17.083910	-4.134764
33108		1.932996	17.077225	-4.124117
33109		1.897093	17.074069	-4.112447
33110		1.869039	17.078504	-4.098856
33111		1.846749	17.083142	-4.084955
33112		1.823857	17.085880	-4.070672
33113		1.805301	17.073648	-4.055924
33114		1.778561	17.063205	-4.041177
33115		1.762268	17.052700	-4.025542
33116		1.772958	17.038925	-4.009342
33117		1.807054	17.021948	-3.990576
33118		1.837952	16.992251	-3.969378
33119		1.856435	16.960875	-3.942841
33120		1.878738	16.936562	-3.916868
33121		1.918024	16.914661	-3.896306
33122		1.944421	16.884190	-3.879831
33123		1.968629	16.838525	-3.862807
33124		1.982544	16.781897	-3.846429
33125		2.011777	16.717811	-3.832378
33126		2.049780	16.663409	-3.821348
33127		2.087210	16.614272	-3.815151
33128		2.132129	16.575774	-3.809104
33129		2.168381	16.528199	-3.802769
33130		2.199392	16.474997	-3.797113
33131		2.228472	16.430674	-3.786993
33132		2.245630	16.396838	-3.777592
33133		2.252883	16.362168	-3.765804
33134		2.246031	16.332289	-3.755880
33135		2.239899	16.301085	-3.750198
33136		2.243676	16.274639	-3.745882
33137		2.248783	16.256676	-3.739308
33138		2.249427	16.244753	-3.730165
33139		2.255178	16.242766	-3.722786
33140		2.265148	16.238601	-3.713151
33141		2.268017	16.237242	-3.701712
33142		2.270238	16.235647	-3.687807
33143		2.263935	16.237369	-3.673396
33144		2.261018	16.230803	-3.657192
33145		2.254411	16.220603	-3.641173
33146		2.250629	16.213022	-3.625416
33147		2.257536	16.209388	-3.612657
33148		2.261671	16.206580	-3.600995
33149		2.257567	16.197158	-3.588294
33150		2.259627	16.196033	-3.572542
33151		2.258193	16.198652	-3.556581
33152		2.278496	16.210557	-3.540554
33153		2.290411	16.221782	-3.523812
33154		2.302791	16.231689	-3.507657
33155		2.307760	16.248258	-3.495452
33156		2.312480	16.264693	-3.484538
33157		2.314727	16.286476	-3.469970
33158		2.315771	16.298149	-3.453457
33159		2.314882	16.316032	-3.434101
33160		2.309243	16.328052	-3.416017
33161		2.307944	16.348870	-3.399544
33162		2.306551	16.363681	-3.383910
33163		2.311399	16.377800	-3.371628
33164		2.327204	16.372192	-3.358699
33165		2.357484	16.367455	-3.349888
33166		2.381468	16.355017	-3.337527
33167		2.396677	16.327313	-3.324857
33168		2.413714	16.296184	-3.314199
33169		2.442994	16.267686	-3.304907
33170		2.473352	16.245222	-3.293777
33171		2.502002	16.215196	-3.274839
33172		2.514086	16.195320	-3.254729
33173		2.513699	16.183312	-3.230496
33174		2.513905	16.172209	-3.207180
33175		2.512583	16.171364	-3.183817
33176		2.502194	16.167500	-3.162107
33177		2.479910	16.165771	-3.145019
33178		2.461698	16.165046	-3.127724
33179		2.468580	16.180363	-3.112554
33180		2.469312	16.194607	-3.101286
33181		2.483488	16.218068	-3.086441
33182		2.480077	16.247900	-3.072594
33183		2.488139	16.268715	-3.063255
33184		2.498895	16.296500	-3.051496
33185		2.489497	16.315984	-3.039039
33186		2.483238	16.330398	-3.027488
33187		2.477635	16.341284	-3.019245
33188		2.465956	16.347879	-3.013288
33189		2.447832	16.357728	-3.008543
33190		2.411365	16.365776	-3.004181
33191		2.398759	16.393985	-2.995460
33192		2.392382	16.422177	-2.982682
33193		2.388347	16.443288	-2.964730
33194		2.363489	16.466731	-2.937934
33195		2.338594	16.487356	-2.912633
33196		2.314384	16.520503	-2.879638
33197		2.277989	16.552692	-2.842937
33198		2.237552	16.581727	-2.805839
33199		2.205708	16.604659	-2.765254
33200		2.147872	16.625668	-2.727104
33201		2.075543	16.635247	-2.698086
33202		2.005185	16.639787	-2.677587
33203		1.956216	16.642264	-2.664024
33204		1.897566	16.645154	-2.642491
33205		1.810007	16.635061	-2.611362
33206		1.730035	16.621716	-2.576984
33207		1.667579	16.629066	-2.541132
33208		1.593061	16.631805	-2.507820
33209		1.532158	16.628556	-2.479663
33210		1.481344	16.627172	-2.453275
33211		1.430990	16.626663	-2.422448
33212		1.377684	16.624498	-2.392676
33213		1.335770	16.615161	-2.365343
33214		1.298659	16.613241	-2.335429
33215		1.240613	16.619121	-2.305020
33216		1.173697	16.618576	-2.273683
33217		1.123881	16.610923	-2.245330
33218		1.081054	16.604869	-2.221206
33219		1.040745	16.594106	-2.208310
33220		1.016406	16.580710	-2.203102
33221		0.996837	16.572138	-2.201577
33222		0.975022	16.568904	-2.201476
33223		0.946105	16.569644	-2.195095
33224		0.912324	16.563387	-2.184272
33225		0.879413	16.549985	-2.171462
33226		0.831372	16.539469	-2.158939
33227		0.783601	16.546792	-2.148115
33228		0.760370	16.548323	-2.140056
33229		0.736463	16.551635	-2.130236
33230		0.719250	16.546984	-2.118282
33231		0.718697	16.532589	-2.107320
33232		0.731386	16.519538	-2.095605
33233		0.736548	16.505825	-2.082123
33234		0.734858	16.495626	-2.069912
33235		0.738634	16.484902	-2.061371
33236		0.741882	16.480614	-2.058358
33237		0.742028	16.481457	-2.059954
33238		0.757767	16.477136	-2.069486
33239		0.784448	16.472077	-2.081333
33240		0.806784	16.462405	-2.093098
33241		0.820857	16.462152	-2.097716
33242		0.826740	16.460894	-2.098657
33243		0.835082	16.455993	-2.095422
33244		0.845431	16.456564	-2.091986
33245		0.861861	16.457174	-2.084411
33246		0.878083	16.454785	-2.079246
33247		0.891643	16.446614	-2.076914
33248		0.894146	16.443562	-2.074934
33249		0.904237	16.435597	-2.076293
33250		0.919442	16.427652	-2.080961
33251		0.937336	16.419026	-2.084957
33252		0.953502	16.410473	-2.090740
33253		0.963519	16.398831	-2.093500
33254		0.973904	16.389997	-2.093583
33255		0.984474	16.382813	-2.096268
33256		0.997750	16.381555	-2.101446
33257		1.011638	16.372876	-2.111055
33258		1.043921	16.361188	-2.126391
33259		1.080091	16.346600	-2.142759
33260		1.103720	16.328661	-2.156294
33261		1.120678	16.314780	-2.172516
33262		1.148467	16.291846	-2.185217
33263		1.179515	16.278842	-2.202389
33264		1.221925	16.248640	-2.223669
33265		1.266217	16.222348	-2.247043
33266		1.305606	16.202659	-2.269868
33267		1.339084	16.178848	-2.288238
33268		1.366537	16.163932	-2.303702
33269		1.395100	16.152839	-2.321678
33270		1.427518	16.142184	-2.337310
33271		1.455389	16.130794	-2.352587
33272		1.488697	16.115630	-2.365059
33273		1.513947	16.098415	-2.372009
33274		1.529307	16.083231	-2.375567
33275		1.548368	16.076073	-2.375086
33276		1.570853	16.064121	-2.374491
33277		1.594335	16.053856	-2.375843
33278		1.624902	16.041119	-2.381863
33279		1.658309	16.030385	-2.390389
33280		1.683420	16.015281	-2.399393
33281		1.689808	16.001784	-2.408808
33282		1.704828	15.993514	-2.420067
33283		1.731734	15.987055	-2.436468
33284		1.768428	15.977952	-2.454256
33285		1.809051	15.963181	-2.474662
33286		1.845776	15.948547	-2.489752
33287		1.881953	15.941925	-2.502398
33288		1.905201	15.942406	-2.510172
33289		1.921956	15.948829	-2.517907
33290		1.936326	15.954583	-2.527467
33291		1.939490	15.957655	-2.539176
33292		1.948326	15.953759	-2.557118
33293		1.950808	15.955305	-2.577120
33294		1.952832	15.949960	-2.601626
33295		1.965650	15.949678	-2.623443
33296		1.972959	15.947150	-2.643116
33297		1.981121	15.941718	-2.662965
33298		1.994854	15.938649	-2.685430
33299		2.000156	15.934981	-2.707469
33300		1.998850	15.928966	-2.729359
33301		1.997732	15.919687	-2.754337
33302		1.998000	15.916625	-2.782123
33303		2.004087	15.912591	-2.814677
33304		2.010954	15.910100	-2.850766
33305		2.012841	15.911048	-2.884316
33306		2.018371	15.897304	-2.918314
33307		2.023946	15.885717	-2.952906
33308		2.035220	15.867184	-2.988004
33309		2.066190	15.850182	-3.022056
33310		2.099651	15.833955	-3.054533
33311		2.130134	15.820626	-3.084142
33312		2.160924	15.814176	-3.110030
33313		2.182231	15.811593	-3.133646
33314		2.183839	15.810287	-3.156542
33315		2.182966	15.806666	-3.177556
33316		2.180816	15.808891	-3.201540
33317		2.175747	15.815091	-3.222785
33318		2.156703	15.822847	-3.243862
33319		2.134537	15.822278	-3.263534
33320		2.119089	15.818038	-3.283378
33321		2.105053	15.815559	-3.302981
33322		2.087272	15.812784	-3.325289
33323		2.080385	15.813651	-3.346406
33324		2.076726	15.820612	-3.367730
33325		2.061858	15.823711	-3.390695
33326		2.052088	15.829053	-3.412621
33327		2.051839	15.832648	-3.437008
33328		2.050097	15.838798	-3.463915
33329		2.048556	15.846729	-3.493404
33330		2.040947	15.851887	-3.523023
33331		2.036804	15.854869	-3.555968
33332		2.027600	15.865248	-3.586342
33333		2.016462	15.878978	-3.614907
33334		2.002776	15.898663	-3.643314
33335		1.992335	15.915050	-3.669818
33336		1.984416	15.928395	-3.695637
33337		1.982096	15.945201	-3.723423
33338		1.974674	15.967490	-3.756718
33339		1.959885	15.997025	-3.791069
33340		1.949211	16.022029	-3.822641
33341		1.938515	16.049139	-3.855031
33342		1.936067	16.079783	-3.880985
33343		1.937794	16.110311	-3.905204
33344		1.932326	16.140061	-3.923920
33345		1.917446	16.177379	-3.944159
33346		1.894351	16.218680	-3.965631
33347		1.882074	16.254053	-3.990852
33348		1.863897	16.289569	-4.013847
33349		1.845190	16.331415	-4.035740
33350		1.817317	16.365121	-4.055008
33351		1.787999	16.399704	-4.071754
33352		1.771532	16.436731	-4.090494
33353		1.759142	16.478861	-4.107443
33354		1.737747	16.522661	-4.124995
33355		1.713735	16.569537	-4.137594
33356		1.697846	16.624084	-4.152312
33357		1.687631	16.672774	-4.167801
33358		1.668794	16.715635	-4.185005
33359		1.662133	16.758253	-4.205027
33360		1.665775	16.796949	-4.226815
33361		1.672374	16.818428	-4.245292
33362		1.684919	16.834945	-4.261403
33363		1.690569	16.852102	-4.279336
33364		1.701207	16.872054	-4.293833
33365		1.718280	16.891040	-4.307875
33366		1.740390	16.909383	-4.322429
33367		1.730005	16.941014	-4.337014
33368		1.721817	16.966140	-4.356824
33369		1.724719	16.989422	-4.378004
33370		1.733079	17.004523	-4.400585
33371		1.733865	17.016973	-4.415246
33372		1.743418	17.023045	-4.428857
33373		1.758959	17.026855	-4.437820
33374		1.769243	17.036680	-4.449712
33375		1.774440	17.046387	-4.463676
33376		1.776877	17.057488	-4.476479
33377		1.773760	17.068857	-4.490543
33378		1.765744	17.075943	-4.505073
33379		1.769551	17.086529	-4.522637
33380		1.770104	17.098705	-4.538481
33381		1.762140	17.115104	-4.553283
33382		1.749590	17.132484	-4.566219
33383		1.741716	17.147525	-4.576942
33384		1.751239	17.155895	-4.585871
33385		1.764258	17.162876	-4.589715
33386		1.779147	17.174943	-4.590646
33387		1.795437	17.185029	-4.592816
33388		1.807535	17.194932	-4.596681
33389		1.819306	17.205617	-4.602030
33390		1.834889	17.216002	-4.613611
33391		1.847033	17.227400	-4.625955
33392		1.852838	17.239028	-4.641239
33393		1.868564	17.250335	-4.657802
33394		1.880843	17.264923	-4.671359
33395		1.892686	17.282065	-4.684450
33396		1.900896	17.299456	-4.697073
33397		1.905540	17.308269	-4.710314
33398		1.914787	17.310291	-4.720885
33399		1.919616	17.313735	-4.731036
33400		1.932632	17.312725	-4.743804
33401		1.950000	17.308991	-4.755918
33402		1.969689	17.310433	-4.768774
33403		1.986222	17.317773	-4.780248
33404		1.987927	17.328431	-4.790350
33405		1.998641	17.332820	-4.797892
33406		2.010510	17.334020	-4.808030
33407		2.027615	17.328620	-4.817878
33408		2.057450	17.330115	-4.825972
33409		2.087359	17.329971	-4.835734
33410		2.110086	17.324345	-4.843901
33411		2.137379	17.319874	-4.855316
33412		2.176865	17.311080	-4.862621
33413		2.213442	17.304028	-4.871567
33414		2.245736	17.301735	-4.881767
33415		2.267344	17.292219	-4.887168
33416		2.279124	17.280264	-4.892675
33417		2.290134	17.271548	-4.899791
33418		2.295952	17.263495	-4.907431
33419		2.307651	17.263903	-4.914685
33420		2.322497	17.268177	-4.927319
33421		2.335981	17.271636	-4.939540
33422		2.342614	17.273256	-4.950212
33423		2.339813	17.277017	-4.960076
33424		2.343026	17.279520	-4.971907
33425		2.342498	17.285042	-4.980697
33426		2.330723	17.290855	-4.985444
33427		2.302893	17.301130	-4.993905
33428		2.287627	17.308199	-5.003192
33429		2.280024	17.315820	-5.012774
33430		2.270962	17.322171	-5.025947
33431		2.264162	17.326481	-5.039321
33432		2.254262	17.331803	-5.052962
33433		2.243423	17.335029	-5.066783
33434		2.226506	17.343723	-5.081221
33435		2.202060	17.351194	-5.090570
33436		2.173365	17.360821	-5.102977
33437		2.154560	17.369083	-5.116602
33438		2.137910	17.376846	-5.129484
33439		2.116119	17.386857	-5.139635
33440		2.099934	17.395189	-5.144771
33441		2.084757	17.402373	-5.147636
33442		2.070761	17.407271	-5.144506
33443		2.046473	17.414059	-5.146906
33444		2.021745	17.418386	-5.151104
33445		1.996224	17.432170	-5.156189
33446		1.972806	17.446927	-5.164270
33447		1.952287	17.462670	-5.173647
33448		1.943445	17.482329	-5.185012
33449		1.933705	17.499696	-5.196331
33450		1.929619	17.502686	-5.206268
33451		1.931048	17.505416	-5.214264
33452		1.933708	17.507948	-5.216942
33453		1.928554	17.502999	-5.216576
33454		1.917139	17.500300	-5.216519
33455		1.900857	17.492808	-5.213036
33456		1.879417	17.479877	-5.210560
33457		1.853150	17.468687	-5.206397
33458		1.824775	17.462404	-5.205582
33459		1.801650	17.455564	-5.203908
33460		1.786224	17.450709	-5.203632
33461		1.765335	17.448233	-5.204963
33462		1.751932	17.447849	-5.203046
33463		1.748973	17.444448	-5.199159
33464		1.754055	17.444186	-5.195648
33465		1.759093	17.443920	-5.191953
33466		1.761853	17.444648	-5.187593
33467		1.765839	17.441461	-5.181726
33468		1.768602	17.436497	-5.181130
33469		1.777975	17.435095	-5.180983
33470		1.786331	17.433575	-5.182752
33471		1.793472	17.434712	-5.184474
33472		1.799681	17.438242	-5.183158
33473		1.799978	17.437093	-5.179863
33474		1.804915	17.433862	-5.178870
33475		1.808558	17.439267	-5.177547
33476		1.812835	17.441628	-5.178717
33477		1.805336	17.446297	-5.180697
33478		1.799876	17.449451	-5.182284
33479		1.795009	17.450837	-5.179819
33480		1.792708	17.451462	-5.177848
33481		1.797362	17.452507	-5.173258
33482		1.794191	17.456694	-5.167706
33483		1.794372	17.460257	-5.164007
33484		1.798560	17.464992	-5.160556
33485		1.800528	17.476347	-5.151160
33486		1.802156	17.478945	-5.140834
33487		1.801963	17.485322	-5.131306
33488		1.804512	17.492242	-5.121362
33489		1.807162	17.494850	-5.109173
33490		1.797032	17.493772	-5.100920
33491		1.791704	17.489986	-5.096174
33492		1.795041	17.495141	-5.096833
33493		1.804190	17.501237	-5.094804
33494		1.810984	17.506638	-5.094557
33495		1.812716	17.509284	-5.092294
33496		1.813374	17.510449	-5.088886
33497		1.809859	17.511118	-5.083032
33498		1.794864	17.515098	-5.075233
33499		1.791061	17.514383	-5.070143
33500		1.801143	17.513430	-5.067286
33501		1.810899	17.513314	-5.065945
33502		1.824241	17.510003	-5.068071
33503		1.835400	17.507126	-5.071186
33504		1.847912	17.502790	-5.073778
33505		1.858936	17.501467	-5.075055
33506		1.860262	17.502135	-5.077352
33507		1.857277	17.501606	-5.080683
33508		1.851663	17.500670	-5.084510
33509		1.846099	17.499550	-5.087550
33510		1.843025	17.494544	-5.090087
33511		1.837307	17.491254	-5.093277
33512		1.831158	17.489517	-5.096292
33513		1.827951	17.490513	-5.098423
33514		1.822719	17.493092	-5.101819
33515		1.804828	17.492169	-5.101883
33516		1.792045	17.498365	-5.105610
33517		1.785089	17.505705	-5.106455
33518		1.774987	17.513327	-5.110307
33519		1.767966	17.516509	-5.112676
33520		1.758584	17.520754	-5.114928
33521		1.750737	17.520782	-5.116721
33522		1.739212	17.524383	-5.119662
33523		1.737475	17.528967	-5.119423
33524		1.733099	17.531113	-5.118697
33525		1.725356	17.535806	-5.116268
33526		1.716052	17.540799	-5.115439
33527		1.710723	17.543962	-5.115617
33528		1.705253	17.545953	-5.116917
33529		1.703151	17.550453	-5.118445
33530		1.697281	17.557134	-5.120354
33531		1.692879	17.562534	-5.120846
33532		1.688669	17.571252	-5.121823
33533		1.678408	17.583347	-5.121946
33534		1.666554	17.589846	-5.118486
33535		1.656315	17.596079	-5.113019
33536		1.641565	17.601675	-5.107636
33537		1.622515	17.606875	-5.100706
33538		1.598569	17.612595	-5.092960
33539		1.572487	17.620941	-5.086871
33540		1.550156	17.629031	-5.081561
33541		1.532068	17.631585	-5.078255
33542		1.516447	17.636483	-5.076705
33543		1.504604	17.637942	-5.074313
33544		1.491174	17.643152	-5.068706
33545		1.474413	17.649861	-5.060583
33546		1.451358	17.658777	-5.052952
33547		1.436657	17.668818	-5.048711
33548		1.423456	17.676005	-5.048847
33549		1.414475	17.680122	-5.045618
33550		1.408889	17.685912	-5.045959
33551		1.403692	17.685947	-5.044784
33552		1.396051	17.685082	-5.046186
33553		1.389787	17.689384	-5.048768
33554		1.373448	17.697613	-5.048838
33555		1.354631	17.703659	-5.050280
33556		1.345570	17.710584	-5.055194
33557		1.341631	17.713861	-5.058703
33558		1.336880	17.723169	-5.062520
33559		1.330339	17.728153	-5.066827
33560		1.319886	17.732161	-5.071109
33561		1.313616	17.737834	-5.077229
33562		1.312734	17.745239	-5.083438
33563		1.312289	17.751200	-5.089719
33564		1.306446	17.762829	-5.099507
33565		1.305861	17.768264	-5.112451
33566		1.313406	17.768847	-5.125184
33567		1.320930	17.771243	-5.135521
33568		1.323384	17.775948	-5.143303
33569		1.324037	17.779787	-5.146598
33570		1.323710	17.786545	-5.149960
33571		1.326407	17.790031	-5.152836
33572		1.333976	17.797051	-5.158753
33573		1.347390	17.802959	-5.160653
33574		1.357488	17.812724	-5.161801
33575		1.372492	17.818289	-5.159293
33576		1.384505	17.824239	-5.150062
33577		1.380274	17.833872	-5.133181
33578		1.367407	17.844851	-5.117965
33579		1.352588	17.856661	-5.096436
33580		1.342697	17.866813	-5.076114
33581		1.337315	17.880146	-5.059730
33582		1.340916	17.892889	-5.043968
33583		1.339328	17.899613	-5.025752
33584		1.330868	17.905894	-5.009498
33585		1.320624	17.914510	-4.990204
33586		1.306001	17.923342	-4.967392
33587		1.286920	17.933153	-4.941369
33588		1.267339	17.943709	-4.918211
33589		1.245114	17.957020	-4.896263
33590		1.215329	17.964030	-4.877137
33591		1.192206	17.968977	-4.862260
33592		1.176590	17.975561	-4.849434
33593		1.166575	17.985490	-4.838555
33594		1.154542	18.001685	-4.833831
33595		1.145500	18.015767	-4.829370
33596		1.125718	18.030378	-4.826995
33597		1.100858	18.045524	-4.824189
33598		1.086341	18.058645	-4.820877
33599		1.072967	18.066118	-4.818759
33600		1.058565	18.074345	-4.816095
33601		1.053104	18.081964	-4.813332
33602		1.056684	18.083228	-4.814796
33603		1.051060	18.081110	-4.818401
33604		1.033712	18.091228	-4.821150
33605		1.028800	18.094968	-4.823679
33606		1.028946	18.097033	-4.826370
33607		1.030197	18.092156	-4.827041
33608		1.030456	18.086853	-4.826429
33609		1.034647	18.081540	-4.825204
33610		1.029646	18.085544	-4.822400
33611		1.014461	18.089615	-4.818912
33612		0.997783	18.099575	-4.812380
33613		0.978304	18.108059	-4.806222
33614		0.970842	18.115441	-4.798027
33615		0.966011	18.124217	-4.789894
33616		0.961503	18.132185	-4.780233
33617		0.947237	18.140814	-4.770527
33618		0.947141	18.145206	-4.760090
33619		0.935120	18.147186	-4.746484
33620		0.901099	18.147195	-4.732560
33621		0.879174	18.144043	-4.715129
33622		0.854421	18.143654	-4.700109
33623		0.830021	18.138960	-4.687447
33624		0.818119	18.136057	-4.674969
33625		0.818993	18.139972	-4.659030
33626		0.814085	18.138427	-4.641582
33627		0.806839	18.133255	-4.627427
33628		0.815583	18.129129	-4.611764
33629		0.821888	18.124871	-4.595110
33630		0.809355	18.115463	-4.577001
33631		0.794932	18.098684	-4.558646
33632		0.786968	18.082997	-4.540968
33633		0.787674	18.068426	-4.525441
33634		0.794979	18.060327	-4.508858
33635		0.812458	18.050161	-4.492128
33636		0.832900	18.030548	-4.476292
33637		0.862107	17.999118	-4.463361
33638		0.889607	17.961678	-4.453137
33639		0.918400	17.924989	-4.442833
33640		0.944992	17.894944	-4.436705
33641		0.973407	17.870416	-4.430411
33642		0.990049	17.851615	-4.420512
33643		1.013842	17.825751	-4.410516
33644		1.041446	17.792262	-4.398165
33645		1.053759	17.768262	-4.381623
33646		1.074147	17.740397	-4.365663
33647		1.087948	17.713985	-4.347370
33648		1.091036	17.700398	-4.329846
33649		1.090431	17.694053	-4.310562
33650		1.084767	17.679192	-4.290984
33651		1.086962	17.673822	-4.274475
33652		1.083726	17.669077	-4.253429
33653		1.090257	17.672716	-4.232000
33654		1.069876	17.700884	-4.200597
33655		1.029910	17.722640	-4.173457
33656		1.019510	17.732778	-4.149280
33657		1.001450	17.742501	-4.126851
33658		1.009667	17.739059	-4.104287
33659		1.003679	17.731752	-4.082769
33660		1.003571	17.708905	-4.064376
33661		1.002595	17.688603	-4.050999
33662		1.012165	17.664553	-4.038487
33663		1.034183	17.644702	-4.029871
33664		1.055339	17.638312	-4.024844
33665		1.065457	17.626185	-4.023353
33666		1.075878	17.607341	-4.021342
33667		1.093336	17.581173	-4.016762
33668		1.114026	17.558145	-4.004067
33669		1.140250	17.534844	-3.989145
33670		1.166982	17.518056	-3.971627
33671		1.193854	17.500321	-3.952880
33672		1.214509	17.483674	-3.933427
33673		1.228596	17.458074	-3.917052
33674		1.253168	17.424292	-3.899848
33675		1.293617	17.392348	-3.881531
33676		1.329723	17.372295	-3.864225
33677		1.367361	17.354343	-3.846436
33678		1.397073	17.341262	-3.828391
33679		1.430898	17.326131	-3.808081
33680		1.473617	17.305948	-3.786855
33681		1.504756	17.289031	-3.762980
33682		1.517260	17.267330	-3.736606
33683		1.535718	17.236100	-3.711738
33684		1.545336	17.215673	-3.684049
33685		1.545738	17.199105	-3.658278
33686		1.551223	17.174692	-3.633232
33687		1.553746	17.151481	-3.616545
33688		1.561849	17.135781	-3.604651
33689		1.562602	17.117302	-3.595549
33690		1.566490	17.102521	-3.585632
33691		1.571484	17.098178	-3.574288
33692		1.579109	17.092033	-3.562352
33693		1.576321	17.081338	-3.555166
33694		1.577624	17.069074	-3.552709
33695		1.594328	17.048153	-3.550621
33696		1.608545	17.026265	-3.541078
33697		1.628010	17.003923	-3.530546
33698		1.652649	16.985268	-3.522133
33699		1.667620	16.970709	-3.514632
33700		1.679216	16.957736	-3.505759
33701		1.686780	16.953810	-3.494706
33702		1.684682	16.950640	-3.483896
33703		1.684282	16.939565	-3.474162
33704		1.698455	16.924725	-3.464547
33705		1.713304	16.914287	-3.449663
33706		1.726087	16.897727	-3.429950
33707		1.728805	16.880566	-3.411094
33708		1.727881	16.865979	-3.392613
33709		1.734946	16.844505	-3.376000
33710		1.747944	16.826977	-3.364515
33711		1.762255	16.813292	-3.354582
33712		1.769688	16.818322	-3.344989
33713		1.756016	16.824443	-3.330436
33714		1.741247	16.823060	-3.315490
33715		1.724090	16.830069	-3.302791
33716		1.691949	16.831302	-3.291559
33717		1.666003	16.830354	-3.280611
33718		1.631349	16.835294	-3.267337
33719		1.600661	16.842022	-3.250877
33720		1.576847	16.854118	-3.231877
33721		1.554423	16.863580	-3.207766
33722		1.552953	16.878811	-3.178869
33723		1.547838	16.896864	-3.143159
33724		1.522047	16.905042	-3.109610
33725		1.495740	16.912692	-3.077959
33726		1.462245	16.926786	-3.050008
33727		1.421488	16.941440	-3.026131
33728		1.377994	16.956454	-3.003354
33729		1.324469	16.966196	-2.982669
33730		1.268280	16.973640	-2.965048
33731		1.225528	16.981345	-2.951453
33732		1.186373	16.991193	-2.934063
33733		1.139212	17.001166	-2.917631
33734		1.092826	17.001043	-2.902884
33735		1.055610	17.007060	-2.893326
33736		1.050415	17.004916	-2.892175
33737		1.076359	17.004373	-2.894660
33738		1.099528	17.011093	-2.894968
33739		1.113615	17.004460	-2.895693
33740		1.126149	16.987927	-2.900014
33741		1.139482	16.978387	-2.902891
33742		1.150224	16.970685	-2.907144
33743		1.153881	16.967057	-2.909470
33744		1.156988	16.960458	-2.910218
33745		1.155064	16.956407	-2.907799
33746		1.148370	16.957016	-2.902319
33747		1.123563	16.961764	-2.894778
33748		1.098466	16.973032	-2.885529
33749		1.078215	16.979305	-2.875289
33750		1.052221	16.980324	-2.866002
33751		1.028978	16.973010	-2.858610
33752		1.018144	16.968564	-2.855457
33753		1.017709	16.968560	-2.853813
33754		1.017391	16.969541	-2.852349
33755		1.008810	16.965632	-2.844422
33756		1.001912	16.967869	-2.837431
33757		0.997882	16.972960	-2.830149
33758		0.990286	16.985265	-2.821361
33759		0.986008	16.997016	-2.815050
33760		0.992122	17.007710	-2.808339
33761		0.987858	17.018638	-2.804836
33762		0.979836	17.025913	-2.802590
33763		0.974393	17.034915	-2.804354
33764		0.975893	17.034439	-2.806228
33765		0.983271	17.035078	-2.804508
33766		0.986122	17.035754	-2.800012
33767		0.987376	17.029522	-2.796810
33768		0.991436	17.026880	-2.794565
33769		0.996213	17.026522	-2.792839
33770		0.995667	17.020978	-2.789639
33771		0.993989	17.023428	-2.788985
33772		1.005817	17.022938	-2.791086
33773		1.014491	17.019705	-2.794738
33774		1.029626	17.007628	-2.801222
33775		1.058142	16.993383	-2.807569
33776		1.094202	16.981510	-2.813239
33777		1.133286	16.973090	-2.814483
33778		1.174632	16.960760	-2.819488
33779		1.208469	16.947893	-2.822572
33780		1.240842	16.936263	-2.827406
33781		1.262923	16.926893	-2.832436
33782		1.269275	16.927975	-2.840121
33783		1.307780	16.919479	-2.847970
33784		1.346795	16.908088	-2.852181
33785		1.380931	16.895464	-2.853897
33786		1.411224	16.884247	-2.859730
33787		1.433579	16.867624	-2.860163
33788		1.432277	16.861987	-2.867526
33789		1.439538	16.859425	-2.878691
33790		1.462589	16.858960	-2.893362
33791		1.490813	16.858026	-2.907739
33792		1.526053	16.842415	-2.919724
33793		1.563878	16.819738	-2.928291
33794		1.589798	16.803207	-2.937761
33795		1.614395	16.788141	-2.947694
33796		1.631989	16.783426	-2.958556
33797		1.649852	16.774718	-2.966032
33798		1.672591	16.772578	-2.978339
33799		1.697607	16.776466	-2.991318
33800		1.720222	16.784714	-3.008978
33801		1.736505	16.787964	-3.026656
33802		1.749622	16.781301	-3.046603
33803		1.751581	16.776975	-3.057584
33804		1.744591	16.767168	-3.065785
33805		1.742942	16.757958	-3.072992
33806		1.744917	16.746326	-3.081067
33807		1.755599	16.739964	-3.093089
33808		1.778974	16.738898	-3.109505
33809		1.800806	16.733938	-3.128830
33810		1.819017	16.728429	-3.146577
33811		1.845659	16.723910	-3.157604
33812		1.870654	16.716394	-3.169540
33813		1.899768	16.705671	-3.178467
33814		1.903862	16.709054	-3.188970
33815		1.907973	16.705388	-3.199292
33816		1.919520	16.699282	-3.214330
33817		1.936546	16.699175	-3.230174
33818		1.964613	16.702041	-3.247751
33819		1.996157	16.698446	-3.267888
33820		2.021140	16.694557	-3.288581
33821		2.034776	16.697141	-3.302985
33822		2.047498	16.694420	-3.316827
33823		2.055361	16.692207	-3.325222
33824		2.063983	16.687059	-3.335613
33825		2.080820	16.678267	-3.348579
33826		2.094171	16.676627	-3.366540
33827		2.113805	16.675424	-3.389203
33828		2.137582	16.684038	-3.408057
33829		2.151496	16.690913	-3.422606
33830		2.158500	16.700290	-3.437606
33831		2.164953	16.710864	-3.448527
33832		2.170296	16.718985	-3.461424
33833		2.186781	16.718057	-3.476558
33834		2.203774	16.712843	-3.494475
33835		2.218523	16.707025	-3.513450
33836		2.231785	16.700240	-3.533316
33837		2.237510	16.701343	-3.554805
33838		2.249617	16.710323	-3.573687
33839		2.258923	16.715741	-3.591632
33840		2.266589	16.718038	-3.610562
33841		2.271370	16.723871	-3.628551
33842		2.272179	16.728599	-3.646912
33843		2.274712	16.735566	-3.666871
33844		2.285372	16.740567	-3.684863
33845		2.290239	16.748002	-3.699474
33846		2.298208	16.753446	-3.714623
33847		2.306078	16.755508	-3.728378
33848		2.311561	16.756833	-3.744682
33849		2.316343	16.758333	-3.761251
33850		2.315182	16.761238	-3.775451
33851		2.311722	16.766526	-3.792015
33852		2.312290	16.772825	-3.808856
33853		2.316117	16.783227	-3.823322
33854		2.319855	16.788453	-3.840178
33855		2.325060	16.799326	-3.854447
33856		2.322745	16.809842	-3.867505
33857		2.321863	16.814268	-3.884037
33858		2.325698	16.822715	-3.901716
33859		2.321958	16.837624	-3.916688
33860		2.309685	16.854835	-3.930019
33861		2.295926	16.866943	-3.941754
33862		2.278659	16.876695	-3.954368
33863		2.263450	16.885981	-3.965806
33864		2.250641	16.893208	-3.977910
33865		2.235055	16.899000	-3.990044
33866		2.218822	16.907027	-4.003404
33867		2.204402	16.915490	-4.017318
33868		2.177225	16.932175	-4.033560
33869		2.146064	16.951106	-4.050699
33870		2.117872	16.968655	-4.069257
33871		2.101583	16.984129	-4.089131
33872		2.088638	17.004802	-4.107412
33873		2.079743	17.016335	-4.124134
33874		2.068079	17.026094	-4.138102
33875		2.047678	17.040041	-4.151195
33876		2.037331	17.049415	-4.164913
33877		2.033538	17.053785	-4.175708
33878		2.038788	17.058487	-4.187668
33879		2.037561	17.062032	-4.198550
33880		2.037642	17.063065	-4.208849
33881		2.026054	17.069886	-4.220813
33882		2.020494	17.067835	-4.232263
33883		2.021391	17.074994	-4.240160
33884		2.019359	17.078316	-4.248708
33885		2.017855	17.078354	-4.259616
33886		2.016386	17.082438	-4.268949
33887		2.014127	17.084426	-4.277534
33888		2.012097	17.087736	-4.286078
33889		2.000178	17.093663	-4.292295
33890		1.990730	17.102602	-4.297353
33891		1.970210	17.106997	-4.307523
33892		1.955683	17.113612	-4.314527
33893		1.953053	17.118444	-4.326832
33894		1.959675	17.121936	-4.341547
33895		1.956720	17.130329	-4.353103
33896		1.952985	17.140725	-4.363078
33897		1.951976	17.147402	-4.370569
33898		1.952067	17.153210	-4.375616
33899		1.947187	17.159867	-4.379503
33900		1.942061	17.159863	-4.382335
33901		1.940379	17.161558	-4.387992
33902		1.936007	17.167949	-4.396335
33903		1.934696	17.174408	-4.405504
33904		1.940659	17.177643	-4.413060
33905		1.939859	17.178350	-4.420568
33906		1.943816	17.175816	-4.426184
33907		1.940348	17.175031	-4.433441
33908		1.939033	17.172064	-4.442835
33909		1.952804	17.167231	-4.454174
33910		1.956635	17.166849	-4.464931
33911		1.953196	17.165277	-4.475377
33912		1.944216	17.165790	-4.485328
33913		1.934304	17.163339	-4.499096
33914		1.934438	17.162402	-4.512105
33915		1.932906	17.172874	-4.527374
33916		1.926715	17.179077	-4.538501
33917		1.922612	17.181888	-4.550629
33918		1.922232	17.185267	-4.560943
33919		1.921640	17.193790	-4.573951
33920		1.919269	17.199975	-4.589160
33921		1.918879	17.211843	-4.605837
33922		1.906091	17.229446	-4.625375
33923		1.876993	17.242472	-4.643145
33924		1.857204	17.252210	-4.666019
33925		1.845339	17.266304	-4.689629
33926		1.831715	17.278812	-4.711836
33927		1.821390	17.287713	-4.735739
33928		1.816559	17.294239	-4.761113
33929		1.813748	17.303595	-4.786914
33930		1.815614	17.315557	-4.809651
33931		1.808897	17.331459	-4.826654
33932		1.795752	17.348434	-4.844164
33933		1.775371	17.369434	-4.859364
33934		1.751054	17.392470	-4.876021
33935		1.713166	17.413328	-4.894290
33936		1.665614	17.435141	-4.912948
33937		1.639133	17.456325	-4.929512
33938		1.612012	17.472519	-4.944734
33939		1.581704	17.484555	-4.961084
33940		1.557142	17.494690	-4.974357
33941		1.531115	17.499879	-4.986319
33942		1.505712	17.510864	-4.997335
33943		1.486983	17.525500	-5.008262
33944		1.465907	17.538046	-5.021112
33945		1.447846	17.554531	-5.036234
33946		1.433079	17.575438	-5.053158
33947		1.419594	17.595728	-5.065713
33948		1.410453	17.609142	-5.074015
33949		1.405495	17.617934	-5.086120
33950		1.403486	17.626116	-5.092723
33951		1.398460	17.632505	-5.096757
33952		1.392892	17.637993	-5.100486
33953		1.382970	17.642968	-5.102426
33954		1.369212	17.656403	-5.107441
33955		1.353605	17.674831	-5.117027
33956		1.338945	17.692503	-5.128539
33957		1.326159	17.715615	-5.138257
33958		1.321389	17.738831	-5.147381
33959		1.317074	17.758499	-5.155890
33960		1.312488	17.777719	-5.162599
33961		1.303171	17.788676	-5.166995
33962		1.287329	17.800539	-5.175799
33963		1.284512	17.810768	-5.183591
33964		1.268610	17.818375	-5.191244
33965		1.258515	17.819278	-5.199993
33966		1.249316	17.824332	-5.209312
33967		1.246148	17.825939	-5.215967
33968		1.249906	17.819891	-5.221809
33969		1.256209	17.812212	-5.227028
33970		1.267718	17.804911	-5.232790
33971		1.279955	17.800713	-5.238909
33972		1.290134	17.798830	-5.243079
33973		1.298277	17.799403	-5.244718
33974		1.308058	17.795751	-5.243244
33975		1.307290	17.787698	-5.240569
33976		1.299008	17.781979	-5.233788
33977		1.293337	17.776585	-5.226738
33978		1.286069	17.770040	-5.217639
33979		1.269675	17.767226	-5.209509
33980		1.259720	17.759244	-5.200374
33981		1.259955	17.747943	-5.190766
33982		1.257748	17.738713	-5.181548
33983		1.247763	17.730499	-5.168168
33984		1.240675	17.719989	-5.156646
33985		1.238940	17.711483	-5.148370
33986		1.239895	17.704233	-5.136662
33987		1.240559	17.694581	-5.125293
33988		1.249007	17.684750	-5.114478
33989		1.261837	17.676292	-5.100584
33990		1.275234	17.673035	-5.093519
33991		1.285219	17.671765	-5.091331
33992		1.289499	17.673443	-5.093360
33993		1.288157	17.677250	-5.098137
33994		1.283939	17.677252	-5.103453
33995		1.276708	17.675570	-5.110166
33996		1.267565	17.671111	-5.112316
33997		1.258232	17.667432	-5.115217
33998		1.245145	17.667166	-5.119051
33999		1.238554	17.661041	-5.120599
34000		1.235531	17.656245	-5.121176
34001		1.241442	17.657013	-5.124195
34002		1.255662	17.656221	-5.128103
34003		1.269619	17.654137	-5.132486
34004		1.282288	17.654468	-5.138215
34005		1.289615	17.658188	-5.145476
34006		1.293929	17.655831	-5.149643
34007		1.293619	17.651789	-5.157125
34008		1.291579	17.649490	-5.164123
34009		1.286496	17.646272	-5.169188
34010		1.285005	17.643666	-5.176678
34011		1.290595	17.635888	-5.182501
34012		1.293420	17.632745	-5.191210
34013		1.293999	17.626578	-5.196274
34014		1.287810	17.625921	-5.197777
34015		1.282338	17.626123	-5.194824
34016		1.275934	17.629069	-5.187580
34017		1.271999	17.633192	-5.177605
34018		1.278120	17.639987	-5.167106
34019		1.289292	17.644931	-5.152462
34020		1.298337	17.646236	-5.142007
34021		1.308920	17.645404	-5.128851
34022		1.314427	17.640008	-5.117690
34023		1.327189	17.632712	-5.108705
34024		1.341057	17.629993	-5.099093
34025		1.354581	17.625816	-5.090711
34026		1.365830	17.626941	-5.082514
34027		1.377042	17.625986	-5.073205
34028		1.382138	17.631458	-5.064439
34029		1.383788	17.633558	-5.058891
34030		1.393005	17.634202	-5.054745
34031		1.403371	17.633314	-5.054238
34032		1.412171	17.630453	-5.055046
34033		1.415795	17.626265	-5.058689
34034		1.416648	17.621419	-5.063300
34035		1.415264	17.620955	-5.066940
34036		1.410194	17.620730	-5.069727
34037		1.406846	17.617466	-5.068591
34038		1.407456	17.618479	-5.072887
34039		1.407458	17.620903	-5.077005
34040		1.404090	17.623985	-5.082417
34041		1.402772	17.628954	-5.087500
34042		1.398856	17.632337	-5.092420
34043		1.399975	17.634146	-5.097390
34044		1.391474	17.642861	-5.100504
34045		1.383432	17.639816	-5.104026
34046		1.378656	17.636886	-5.107984
34047		1.383446	17.630861	-5.107626
34048		1.391364	17.626766	-5.105598
34049		1.402216	17.625473	-5.102028
34050		1.412353	17.629453	-5.101258
34051		1.421406	17.637222	-5.100008
34052		1.421438	17.650777	-5.100665
34053		1.417883	17.662738	-5.098316
34054		1.417069	17.671042	-5.098301
34055		1.422585	17.677395	-5.098395
34056		1.428259	17.680776	-5.100677
34057		1.438227	17.681541	-5.103041
34058		1.457066	17.679368	-5.106510
34059		1.482072	17.680061	-5.108594
34060		1.501684	17.676792	-5.111005
34061		1.513284	17.677618	-5.115454
34062		1.518590	17.677340	-5.114836
34063		1.513088	17.677511	-5.112130
34064		1.504044	17.677064	-5.107626
34065		1.496783	17.678981	-5.100639
34066		1.493891	17.680317	-5.095107
34067		1.491787	17.684740	-5.089417
34068		1.497945	17.687456	-5.081037
34069		1.499449	17.693399	-5.069980
34070		1.492002	17.700979	-5.055093
34071		1.483021	17.709753	-5.037937
34072		1.471623	17.719261	-5.016330
34073		1.447829	17.734308	-4.992386
34074		1.424331	17.752763	-4.968441
34075		1.396109	17.774344	-4.946052
34076		1.366490	17.792068	-4.923433
34077		1.337299	17.810372	-4.898196
34078		1.306614	17.822587	-4.876172
34079		1.279168	17.833960	-4.857601
34080		1.258339	17.843651	-4.841941
34081		1.251816	17.853464	-4.830025
34082		1.243572	17.865219	-4.821603
34083		1.223237	17.872864	-4.817305
34084		1.208012	17.872544	-4.811104
34085		1.200427	17.868811	-4.804605
34086		1.188966	17.867213	-4.798812
34087		1.185880	17.865262	-4.789415
34088		1.183514	17.861046	-4.782895
34089		1.183746	17.859249	-4.777141
34090		1.185159	17.854806	-4.771318
34091		1.194781	17.841608	-4.767624
34092		1.219028	17.814255	-4.757401
34093		1.239680	17.785308	-4.744226
34094		1.233678	17.769163	-4.735589
34095		1.220793	17.754501	-4.736725
34096		1.213510	17.738092	-4.747070
34097		1.193988	17.734734	-4.760851
34098		1.156247	17.744629	-4.771769
34099		1.120355	17.749511	-4.773326
34100		1.105245	17.742104	-4.763834
34101		1.095730	17.739823	-4.745889
34102		1.077029	17.742809	-4.715055
34103		1.055259	17.742634	-4.677477
34104		1.023055	17.749620	-4.643175
34105		0.982674	17.764635	-4.613634
34106		0.949827	17.774070	-4.591826
34107		0.935250	17.789835	-4.571981
34108		0.924571	17.807490	-4.553193
34109		0.908141	17.821932	-4.528673
34110		0.909134	17.814521	-4.501196
34111		0.907740	17.810274	-4.469513
34112		0.896540	17.813795	-4.444894
34113		0.898602	17.813144	-4.424611
34114		0.904852	17.809683	-4.409857
34115		0.911947	17.804511	-4.400795
34116		0.919105	17.796157	-4.390408
34117		0.916798	17.787145	-4.381413
34118		0.924404	17.772181	-4.369768
34119		0.938840	17.763034	-4.354148
34120		0.935543	17.748246	-4.337615
34121		0.931688	17.725884	-4.325033
34122		0.933178	17.712283	-4.315307
34123		0.935746	17.698197	-4.306169
34124		0.940046	17.693383	-4.298495
34125		0.945316	17.683712	-4.290653
34126		0.939349	17.670763	-4.282835
34127		0.950714	17.665072	-4.275272
34128		0.962746	17.656918	-4.266860
34129		0.952792	17.642928	-4.254863
34130		0.940404	17.625699	-4.240913
34131		0.923119	17.611387	-4.225778
34132		0.900611	17.601596	-4.212743
34133		0.879489	17.600896	-4.202441
34134		0.861321	17.597735	-4.189330
34135		0.842404	17.594739	-4.172638
34136		0.824278	17.587457	-4.153801
34137		0.802010	17.578990	-4.131420
34138		0.783983	17.577903	-4.106483
34139		0.772626	17.574400	-4.083275
34140		0.773663	17.575407	-4.058143
34141		0.785474	17.582122	-4.032676
34142		0.785454	17.579723	-4.008695
34143		0.777399	17.573217	-3.988056
34144		0.756462	17.570546	-3.972208
34145		0.747476	17.562095	-3.964250
34146		0.745715	17.554665	-3.960596
34147		0.745456	17.550297	-3.956702
34148		0.747662	17.540812	-3.951901
34149		0.756635	17.531997	-3.945696
34150		0.765113	17.525420	-3.935605
34151		0.772815	17.518988	-3.922089
34152		0.785240	17.510231	-3.903007
34153		0.800930	17.493333	-3.880293
34154		0.805974	17.477092	-3.859527
34155		0.807636	17.465847	-3.840948
34156		0.799693	17.451337	-3.824482
34157		0.794012	17.424368	-3.804523
34158		0.786040	17.408807	-3.787762
34159		0.771194	17.403918	-3.773068
34160		0.762484	17.401782	-3.762131
34161		0.754712	17.402009	-3.750119
34162		0.739745	17.405060	-3.735671
34163		0.744547	17.398989	-3.723959
34164		0.762085	17.391753	-3.705882
34165		0.768146	17.377837	-3.683047
34166		0.764808	17.362091	-3.661660
34167		0.760522	17.353417	-3.644660
34168		0.758337	17.344342	-3.630842
34169		0.758987	17.338026	-3.620199
34170		0.760048	17.330073	-3.606885
34171		0.748434	17.326480	-3.592677
34172		0.722688	17.324880	-3.578458
34173		0.693108	17.336861	-3.560893
34174		0.654212	17.345865	-3.543722
34175		0.616034	17.350819	-3.528295
34176		0.580441	17.356938	-3.513746
34177		0.548662	17.357810	-3.501135
34178		0.522515	17.362822	-3.488178
34179		0.496538	17.372239	-3.479570
34180		0.468310	17.388886	-3.472169
34181		0.445902	17.410182	-3.470534
34182		0.425451	17.430748	-3.469007
34183		0.394741	17.450340	-3.465580
34184		0.355172	17.477859	-3.460336
34185		0.320695	17.509073	-3.453267
34186		0.285584	17.531070	-3.446484
34187		0.265730	17.546269	-3.442916
34188		0.252273	17.566549	-3.434463
34189		0.245116	17.584916	-3.426269
34190		0.237181	17.603090	-3.415108
34191		0.224287	17.612663	-3.398200
34192		0.197417	17.623773	-3.384529
34193		0.181804	17.641321	-3.372078
34194		0.166344	17.654891	-3.361359
34195		0.142806	17.662198	-3.353343
34196		0.120751	17.673420	-3.346186
34197		0.101751	17.683525	-3.343375
34198		0.068438	17.687412	-3.338383
34199		0.038492	17.690687	-3.332054
34200		0.024304	17.694696	-3.321667
34201		0.011747	17.694728	-3.307280
34202		-0.000869	17.694602	-3.289595
34203		-0.005745	17.692424	-3.275202
34204		-0.017337	17.692640	-3.263337
34205		-0.036712	17.686155	-3.256149
34206		-0.051917	17.688868	-3.247494
34207		-0.074898	17.696855	-3.232479
34208		-0.111160	17.704946	-3.211522
34209		-0.163383	17.716956	-3.185862
34210		-0.228477	17.734656	-3.158252
34211		-0.293421	17.758703	-3.131908
34212		-0.359522	17.779153	-3.111800
34213		-0.410754	17.804625	-3.090217
34214		-0.468046	17.842375	-3.063429
34215		-0.515134	17.872912	-3.030606
34216		-0.559089	17.892202	-2.998405
34217		-0.615571	17.912136	-2.971081
34218		-0.651436	17.933771	-2.954061
34219		-0.670533	17.957877	-2.950360
34220		-0.678432	17.982083	-2.950181
34221		-0.702540	17.999811	-2.950545
34222		-0.738195	18.014642	-2.941335
34223		-0.769869	18.026709	-2.922474
34224		-0.809245	18.027516	-2.894638
34225		-0.851012	18.024295	-2.863621
34226		-0.896025	18.025944	-2.834909
34227		-0.933550	18.023120	-2.805751
34228		-0.966253	18.028456	-2.782806
34229		-0.999608	18.029138	-2.761570
34230		-1.044467	18.037086	-2.742547
34231		-1.080216	18.047814	-2.732121
34232		-1.089191	18.050348	-2.729621
34233		-1.084747	18.046126	-2.733104
34234		-1.072579	18.034373	-2.734266
34235		-1.062703	18.019837	-2.735995
34236		-1.049162	18.004760	-2.731379
34237		-1.045915	17.990914	-2.726203
34238		-1.046307	17.979183	-2.720771
34239		-1.049096	17.971576	-2.715389
34240		-1.051689	17.961059	-2.708034
34241		-1.049457	17.950923	-2.702629
34242		-1.053561	17.942521	-2.697443
34243		-1.058687	17.929916	-2.688297
34244		-1.055194	17.913060	-2.680747
34245		-1.054565	17.899790	-2.675859
34246		-1.057560	17.885743	-2.673402
34247		-1.061387	17.877081	-2.673943
34248		-1.075371	17.868147	-2.677290
34249		-1.086372	17.862170	-2.683095
34250		-1.097266	17.857203	-2.689121
34251		-1.101210	17.848311	-2.698169
34252		-1.084927	17.834754	-2.709296
34253		-1.057129	17.822963	-2.721793
34254		-1.028577	17.812008	-2.730536
34255		-0.986681	17.798228	-2.735431
34256		-0.939975	17.785276	-2.735610
34257		-0.896671	17.774181	-2.732931
34258		-0.857955	17.763084	-2.727037
34259		-0.804426	17.744991	-2.714433
34260		-0.758351	17.726096	-2.699911
34261		-0.714453	17.712662	-2.684476
34262		-0.687746	17.699263	-2.667341
34263		-0.662384	17.688588	-2.655193
34264		-0.645867	17.681340	-2.643384
34265		-0.636380	17.670407	-2.632708
34266		-0.626210	17.662105	-2.623512
34267		-0.611664	17.653374	-2.614675
34268		-0.606780	17.641329	-2.608445
34269		-0.602212	17.632983	-2.605245
34270		-0.584844	17.624769	-2.608064
34271		-0.568950	17.610774	-2.608948
34272		-0.563793	17.592982	-2.610795
34273		-0.558634	17.574166	-2.611727
34274		-0.555721	17.559558	-2.616810
34275		-0.539356	17.542163	-2.625711
34276		-0.504361	17.515969	-2.636937
34277		-0.475726	17.495924	-2.649504
34278		-0.458884	17.466674	-2.663232
34279		-0.453012	17.440576	-2.677424
34280		-0.449488	17.417529	-2.691711
34281		-0.424076	17.395474	-2.703562
34282		-0.364994	17.358510	-2.714597
34283		-0.306341	17.327124	-2.730616
34284		-0.259051	17.294155	-2.752463
34285		-0.221241	17.265186	-2.778218
34286		-0.181848	17.242333	-2.800956
34287		-0.163814	17.229947	-2.814337
34288		-0.158079	17.223906	-2.826131
34289		-0.140806	17.218539	-2.839096
34290		-0.108676	17.211821	-2.852617
34291		-0.087896	17.206742	-2.864111
34292		-0.067116	17.186412	-2.877987
34293		-0.040593	17.181567	-2.886166
34294		-0.028157	17.166854	-2.893149
34295		0.000651	17.148795	-2.902119
34296		0.026485	17.137063	-2.907970
34297		0.048032	17.125884	-2.911864
34298		0.067174	17.112651	-2.918288
34299		0.068691	17.097294	-2.923677
34300		0.055265	17.099185	-2.932178
34301		0.041280	17.100405	-2.943830
34302		0.046738	17.097009	-2.954490
34303		0.053765	17.095721	-2.963849
34304		0.061113	17.091688	-2.974692
34305		0.076803	17.082095	-2.983748
34306		0.094868	17.070514	-2.989500
34307		0.118529	17.066121	-2.999661
34308		0.151051	17.061962	-3.003437
34309		0.182421	17.058313	-3.006023
34310		0.210903	17.060167	-3.008885
34311		0.237550	17.061824	-3.014785
34312		0.258205	17.063714	-3.022086
34313		0.270001	17.071533	-3.033970
34314		0.281173	17.077397	-3.049695
34315		0.290199	17.077719	-3.063939
34316		0.298115	17.082450	-3.079176
34317		0.301472	17.082356	-3.096306
34318		0.306427	17.082236	-3.111896
34319		0.320115	17.083413	-3.130355
34320		0.328794	17.078895	-3.145418
34321		0.343875	17.073530	-3.160477
34322		0.363449	17.069809	-3.172814
34323		0.382372	17.068097	-3.190062
34324		0.406699	17.064294	-3.205555
34325		0.423621	17.065295	-3.228684
34326		0.455274	17.067649	-3.254579
34327		0.494930	17.074179	-3.284970
34328		0.536787	17.072181	-3.315203
34329		0.566739	17.068402	-3.340882
34330		0.579398	17.062629	-3.364085
34331		0.591607	17.064689	-3.384125
34332		0.601513	17.073814	-3.405494
34333		0.600750	17.074524	-3.424428
34334		0.613555	17.084438	-3.439722
34335		0.611257	17.098603	-3.456845
34336		0.607167	17.113301	-3.473499
34337		0.602006	17.124655	-3.491185
34338		0.589161	17.141299	-3.510401
34339		0.566809	17.163253	-3.524908
34340		0.543781	17.185367	-3.535573
34341		0.510547	17.205718	-3.543504
34342		0.477382	17.226046	-3.551355
34343		0.438528	17.247133	-3.562160
34344		0.401375	17.270333	-3.576040
34345		0.372427	17.288903	-3.589682
34346		0.347497	17.312594	-3.600516
34347		0.304086	17.334238	-3.607198
34348		0.260496	17.360417	-3.617160
34349		0.221967	17.383923	-3.626821
34350		0.194110	17.415147	-3.633843
34351		0.167449	17.432738	-3.640449
34352		0.147408	17.451524	-3.647206
34353		0.127048	17.461701	-3.652405
34354		0.117337	17.470254	-3.660417
34355		0.099545	17.479499	-3.665409
34356		0.086401	17.488683	-3.674807
34357		0.077244	17.504128	-3.685752
34358		0.069296	17.516927	-3.696679
34359		0.064698	17.520780	-3.703112
34360		0.059416	17.519626	-3.712808
34361		0.070985	17.514726	-3.725826
34362		0.102367	17.515880	-3.740082
34363		0.142918	17.517672	-3.753802
34364		0.193328	17.510863	-3.760079
34365		0.229556	17.504312	-3.764688
34366		0.267221	17.498550	-3.764859
34367		0.304390	17.500367	-3.766266
34368		0.336697	17.507088	-3.767654
34369		0.360992	17.516068	-3.766378
34370		0.375761	17.523772	-3.763060
34371		0.391892	17.524955	-3.765279
34372		0.416677	17.526882	-3.771687
34373		0.445055	17.526332	-3.778757
34374		0.475367	17.527131	-3.787196
34375		0.503191	17.527104	-3.789340
34376		0.524172	17.527438	-3.785493
34377		0.543317	17.535829	-3.778824
34378		0.562884	17.543565	-3.774077
34379		0.573070	17.544448	-3.772240
34380		0.577571	17.542809	-3.773098
34381		0.580138	17.542749	-3.778233
34382		0.587495	17.541510	-3.786545
34383		0.590123	17.546479	-3.793259
34384		0.589168	17.552014	-3.798362
34385		0.599226	17.557543	-3.803691
34386		0.606711	17.564716	-3.809838
34387		0.604768	17.572107	-3.813005
34388		0.608591	17.577559	-3.821205
34389		0.617359	17.585419	-3.831728
34390		0.620416	17.590876	-3.840704
34391		0.623439	17.595211	-3.853423
34392		0.629673	17.609769	-3.866436
34393		0.628946	17.623609	-3.877169
34394		0.628616	17.633827	-3.888714
34395		0.623613	17.648168	-3.897392
34396		0.609272	17.670974	-3.910959
34397		0.590213	17.699018	-3.922393
34398		0.576669	17.724886	-3.936072
34399		0.565039	17.747858	-3.952950
34400		0.554716	17.772616	-3.970990
34401		0.548793	17.796732	-3.989572
34402		0.540774	17.823342	-4.010373
34403		0.529041	17.853398	-4.025873
34404		0.514774	17.886405	-4.042423
34405		0.494892	17.917193	-4.060330
34406		0.477115	17.947539	-4.081929
34407		0.467777	17.979448	-4.104100
34408		0.450572	18.011509	-4.126770
34409		0.435752	18.041607	-4.149946
34410		0.421416	18.074337	-4.171043
34411		0.402161	18.104907	-4.193319
34412		0.383153	18.131627	-4.212846
34413		0.362968	18.163047	-4.232722
34414		0.342948	18.186352	-4.253408
34415		0.318049	18.209384	-4.279999
34416		0.287801	18.230498	-4.307044
34417		0.256820	18.251633	-4.334033
34418		0.231700	18.268104	-4.360169
34419		0.204764	18.281466	-4.383802
34420		0.171380	18.295483	-4.407424
34421		0.158941	18.306180	-4.429571
34422		0.162499	18.309625	-4.452148
34423		0.170846	18.314406	-4.468864
34424		0.184428	18.321775	-4.486929
34425		0.191843	18.329498	-4.502062
34426		0.190858	18.336552	-4.516719
34427		0.182338	18.343352	-4.528585
34428		0.174096	18.354434	-4.540483
34429		0.165660	18.368347	-4.554043
34430		0.154905	18.379102	-4.569548
34431		0.144232	18.389109	-4.583896
34432		0.127921	18.400928	-4.597442
34433		0.104865	18.409252	-4.606327
34434		0.077231	18.413895	-4.610007
34435		0.048804	18.419450	-4.614534
34436		0.017161	18.425167	-4.614684
34437		-0.008894	18.437317	-4.613911
34438		-0.026732	18.443349	-4.618230
34439		-0.044964	18.451072	-4.620803
34440		-0.062604	18.457404	-4.623877
34441		-0.076566	18.462373	-4.627552
34442		-0.092292	18.467081	-4.630461
34443		-0.104954	18.472543	-4.634589
34444		-0.118010	18.476452	-4.641351
34445		-0.128433	18.475483	-4.646180
34446		-0.138607	18.478086	-4.650741
34447		-0.152974	18.481361	-4.652410
34448		-0.166601	18.479641	-4.652398
34449		-0.178384	18.480381	-4.653588
34450		-0.196231	18.482287	-4.656708
34451		-0.206112	18.482449	-4.658146
34452		-0.216292	18.480958	-4.661495
34453		-0.224408	18.478882	-4.668048
34454		-0.226169	18.470732	-4.674431
34455		-0.226779	18.464117	-4.681779
34456		-0.218554	18.455668	-4.686937
34457		-0.210953	18.446477	-4.691187
34458		-0.202736	18.431901	-4.694530
34459		-0.191953	18.420121	-4.694126
34460		-0.185824	18.410334	-4.690797
34461		-0.178829	18.392597	-4.687460
34462		-0.164653	18.377785	-4.685766
34463		-0.128946	18.365153	-4.693811
34464		-0.082323	18.355850	-4.709450
34465		-0.031998	18.345879	-4.730241
34466		0.019430	18.326886	-4.755190
34467		0.067711	18.303776	-4.781993
34468		0.123206	18.283887	-4.805969
34469		0.168078	18.259547	-4.828946
34470		0.198230	18.227126	-4.852490
34471		0.249636	18.195029	-4.868933
34472		0.299773	18.161363	-4.880775
34473		0.347153	18.124514	-4.887252
34474		0.405336	18.087416	-4.887611
34475		0.470779	18.055852	-4.883966
34476		0.536043	18.030514	-4.874857
34477		0.590562	18.013995	-4.860144
34478		0.648492	18.003253	-4.842314
34479		0.693179	17.994821	-4.820733
34480		0.735527	17.991778	-4.799464
34481		0.784179	17.987636	-4.779084
34482		0.820204	17.991766	-4.758412
34483		0.837705	18.003017	-4.735747
34484		0.851046	18.011690	-4.714556
34485		0.853853	18.015219	-4.691531
34486		0.848473	18.007924	-4.667774
34487		0.826290	18.008859	-4.644308
34488		0.804767	18.012721	-4.617527
34489		0.786096	18.020282	-4.594542
34490		0.766382	18.026950	-4.579287
34491		0.755663	18.032980	-4.569370
34492		0.745072	18.039429	-4.568670
34493		0.732565	18.037111	-4.568937
34494		0.717154	18.029746	-4.574855
34495		0.705974	18.024715	-4.583650
34496		0.703507	18.020400	-4.596585
34497		0.711606	18.017319	-4.613709
34498		0.717267	18.011834	-4.633951
34499		0.726613	18.009933	-4.656706
34500		0.734826	18.013761	-4.680478
34501		0.731412	18.017109	-4.702342
34502		0.713820	18.022584	-4.723411
34503		0.695851	18.026470	-4.746217
34504		0.675398	18.025872	-4.771894
34505		0.661836	18.021815	-4.798551
34506		0.659865	18.021544	-4.823606
34507		0.661600	18.017188	-4.844036
34508		0.666688	18.013191	-4.859598
34509		0.670795	18.007023	-4.871650
34510		0.671608	18.009119	-4.881950
34511		0.671409	18.012181	-4.889873
34512		0.669132	18.014450	-4.898832
34513		0.666244	18.016996	-4.907141
34514		0.663966	18.018240	-4.915803
34515		0.659760	18.015956	-4.922682
34516		0.652056	18.012457	-4.926402
34517		0.638219	18.013315	-4.927771
34518		0.631426	18.013408	-4.925872
34519		0.623393	18.017211	-4.924083
34520		0.619297	18.021819	-4.923007
34521		0.620922	18.029735	-4.923840
34522		0.618579	18.039555	-4.925910
34523		0.617135	18.048639	-4.925522
34524		0.617087	18.061542	-4.926122
34525		0.612158	18.071460	-4.922596
34526		0.606101	18.079926	-4.917804
34527		0.598464	18.088393	-4.914482
34528		0.590518	18.094177	-4.913153
34529		0.584705	18.098457	-4.914466
34530		0.581422	18.105902	-4.917968
34531		0.587644	18.116668	-4.919754
34532		0.598998	18.128742	-4.923225
34533		0.611266	18.140963	-4.929179
34534		0.623426	18.147729	-4.934852
34535		0.629556	18.155235	-4.936192
34536		0.622775	18.158361	-4.935186
34537		0.612394	18.159191	-4.930613
34538		0.597632	18.167866	-4.922294
34539		0.576356	18.176654	-4.913253
34540		0.564473	18.186077	-4.903325
34541		0.553908	18.196194	-4.893161
34542		0.544723	18.202999	-4.881975
34543		0.544607	18.207188	-4.870416
34544		0.545436	18.208605	-4.856463
34545		0.539843	18.213234	-4.841838
34546		0.547200	18.225315	-4.826538
34547		0.552055	18.240397	-4.810656
34548		0.550793	18.252260	-4.800782
34549		0.546953	18.262083	-4.789432
34550		0.549228	18.266831	-4.785276
34551		0.543957	18.268042	-4.781870
34552		0.545684	18.267786	-4.780254
34553		0.561386	18.270487	-4.777773
34554		0.574483	18.271668	-4.775115
34555		0.589863	18.268561	-4.773305
34556		0.592910	18.277377	-4.769540
34557		0.580457	18.282834	-4.762314
34558		0.567420	18.288772	-4.750308
34559		0.570217	18.290674	-4.736078
34560		0.569925	18.285344	-4.723614
34561		0.577626	18.278261	-4.709495
34562		0.593869	18.272092	-4.691112
34563		0.619123	18.262314	-4.672592
34564		0.632814	18.242790	-4.649509
34565		0.628535	18.211182	-4.628840
34566		0.621823	18.178217	-4.611489
34567		0.614195	18.138251	-4.593482
34568		0.615724	18.065755	-4.570892
34569		0.637829	17.968771	-4.543361
34570		0.667361	17.882596	-4.512997
34571		0.692987	17.819249	-4.483871
34572		0.722845	17.764392	-4.455481
34573		0.751530	17.722307	-4.429546
34574		0.777354	17.679498	-4.405438
34575		0.800953	17.632758	-4.381605
34576		0.851932	17.571179	-4.354724
34577		0.897926	17.516453	-4.327291
34578		0.923703	17.467194	-4.306000
34579		0.930732	17.427024	-4.295097
34580		0.940569	17.401560	-4.288079
34581		0.947935	17.377363	-4.279810
34582		0.948972	17.357466	-4.266249
34583		0.949224	17.333564	-4.251828
34584		0.947337	17.318249	-4.236868
34585		0.926023	17.316877	-4.223881
34586		0.928523	17.318149	-4.216152
34587		0.939956	17.315877	-4.203676
34588		0.929901	17.311255	-4.194547
34589		0.929726	17.305756	-4.189728
34590		0.935093	17.307040	-4.190569
34591		0.927097	17.309602	-4.193223
34592		0.914031	17.304244	-4.197388
34593		0.899566	17.297132	-4.201223
34594		0.892525	17.285977	-4.207824
34595		0.906225	17.285207	-4.219743
34596		0.960041	17.277870	-4.224336
34597		1.008619	17.275054	-4.229887
34598		1.027259	17.286817	-4.238494
34599		1.054727	17.312205	-4.248846
34600		1.078201	17.345737	-4.257635
34601		1.091448	17.363010	-4.263400
34602		1.101294	17.365820	-4.265815
34603		1.108655	17.365826	-4.265697
34604		1.115873	17.351160	-4.262279
34605		1.135850	17.338439	-4.262216
34606		1.159179	17.329871	-4.263478
34607		1.173185	17.327875	-4.267447
34608		1.167046	17.329472	-4.271107
34609		1.155120	17.334914	-4.274550
34610		1.164020	17.332297	-4.277525
34611		1.156149	17.334346	-4.273599
34612		1.161051	17.327015	-4.270114
34613		1.182515	17.318192	-4.259313
34614		1.193964	17.314872	-4.246727
34615		1.190371	17.310891	-4.232900
34616		1.184814	17.307284	-4.219420
34617		1.173652	17.305612	-4.209000
34618		1.161229	17.289723	-4.199072
34619		1.160184	17.261367	-4.182857
34620		1.146446	17.242208	-4.166392
34621		1.116572	17.232497	-4.144836
34622		1.111781	17.224315	-4.123416
34623		1.113186	17.218329	-4.100066
34624		1.133275	17.207296	-4.078525
34625		1.164523	17.196436	-4.056704
34626		1.198688	17.176752	-4.035350
34627		1.226427	17.161232	-4.013738
34628		1.232041	17.159897	-3.984654
34629		1.206539	17.164973	-3.953669
34630		1.152740	17.173446	-3.924481
34631		1.087714	17.178798	-3.894394
34632		1.032803	17.179510	-3.866408
34633		0.988581	17.187767	-3.839468
34634		0.946425	17.193638	-3.811309
34635		0.917025	17.191027	-3.788472
34636		0.884572	17.192142	-3.770795
34637		0.864694	17.191966	-3.756959
34638		0.864327	17.191479	-3.750529
34639		0.872362	17.185956	-3.748554
34640		0.875610	17.180375	-3.748427
34641		0.872243	17.173537	-3.747812
34642		0.863538	17.165862	-3.747941
34643		0.869058	17.161036	-3.750693
34644		0.876040	17.158019	-3.753225
34645		0.875954	17.159091	-3.760865
34646		0.881599	17.161974	-3.771179
34647		0.900870	17.163099	-3.781857
34648		0.921223	17.156564	-3.786784
34649		0.935927	17.142328	-3.786259
34650		0.943420	17.124216	-3.779158
34651		0.951382	17.106968	-3.768003
34652		0.953645	17.097207	-3.752600
34653		0.953445	17.084613	-3.734275
34654		0.949866	17.067998	-3.710173
34655		0.950764	17.052438	-3.681463
34656		0.958298	17.038624	-3.647741
34657		0.960281	17.026120	-3.610931
34658		0.962972	17.019523	-3.576282
