// General information: 
//  MT Manager version: 2022.2.0 
//  XDA version: 2022.2.0 build 7381 rev 124627 built on 2023-07-19
// Device information: 
//  DeviceId: 00B44805
//  ProductCode: MTW2-3A7G6
//  Firmware Version: 4.3.5
//  Hardware Version: 2.0.0
// Device settings: 
//  Filter Profile: human(46.1)
//  Option Flags: Orientation Smoother Disabled, Position/Velocity Smoother Disabled, Continuous Zero Rotation Update Disabled, AHS Disabled, ICC Disabled
// Coordinate system: ENU
PacketCounter	SampleTimeFine	Roll	Pitch	Yaw
31344		71.140649	2.962238	15.845636
31345		71.124785	2.962393	15.847938
31346		71.116424	2.962400	15.848830
31347		71.113560	2.966874	15.846808
31348		71.111833	2.969787	15.843856
31349		71.110741	2.976384	15.841556
31350		71.106756	2.982703	15.837479
31351		71.104687	2.986014	15.833942
31352		71.104915	2.987254	15.832365
31353		71.104915	2.985651	15.830245
31354		71.099180	2.983243	15.830762
31355		71.091457	2.982047	15.833851
31356		71.085462	2.981613	15.835569
31357		71.079870	2.982077	15.836462
31358		71.084621	2.982905	15.835236
31359		71.084384	2.983171	15.835630
31360		71.087589	2.983032	15.834318
31361		71.086177	2.983525	15.834267
31362		71.084440	2.984285	15.838318
31363		71.076079	2.982625	15.838086
31364		71.065500	2.984530	15.838359
31365		71.047008	2.985376	15.843997
31366		71.025790	2.988887	15.848022
31367		71.005589	2.994185	15.850316
31368		70.978156	2.999403	15.852898
31369		70.948379	3.003237	15.858341
31370		70.915843	3.008170	15.863045
31371		70.882365	3.012927	15.868090
31372		70.848884	3.019268	15.875290
31373		70.818297	3.027568	15.882032
31374		70.785192	3.035212	15.884066
31375		70.744611	3.042993	15.887933
31376		70.702341	3.048439	15.894651
31377		70.651326	3.052896	15.900999
31378		70.601141	3.056236	15.905123
31379		70.538365	3.062763	15.912529
31380		70.472138	3.069935	15.919049
31381		70.387014	3.080377	15.929008
31382		70.302391	3.093239	15.944479
31383		70.221597	3.103096	15.963635
31384		70.148013	3.106702	15.983938
31385		70.080008	3.107998	16.003755
31386		70.022915	3.106938	16.024167
31387		69.970727	3.104798	16.041396
31388		69.935469	3.099248	16.057066
31389		69.893191	3.089873	16.071411
31390		69.858170	3.079066	16.085941
31391		69.827701	3.065966	16.097714
31392		69.806619	3.053113	16.106915
31393		69.785289	3.042121	16.115174
31394		69.770980	3.031604	16.121906
31395		69.751728	3.023899	16.129503
31396		69.714885	3.021107	16.137324
31397		69.664537	3.019706	16.147088
31398		69.587696	3.020677	16.158190
31399		69.485656	3.026806	16.174188
31400		69.369180	3.031057	16.194852
31401		69.239263	3.035041	16.220546
31402		69.101945	3.039074	16.253789
31403		68.971665	3.037014	16.287198
31404		68.857932	3.031923	16.322255
31405		68.753201	3.024137	16.354905
31406		68.652539	3.016534	16.384356
31407		68.538637	3.012035	16.410485
31408		68.411548	3.010469	16.439082
31409		68.291163	3.004901	16.463499
31410		68.173611	2.996643	16.486434
31411		68.043832	2.983166	16.507730
31412		67.902117	2.957550	16.527687
31413		67.757273	2.920719	16.538336
31414		67.621573	2.861321	16.549320
31415		67.473737	2.780117	16.563268
31416		67.287660	2.680704	16.581301
31417		67.071798	2.571055	16.602300
31418		66.856575	2.445854	16.625580
31419		66.657026	2.300776	16.642774
31420		66.478151	2.134419	16.660797
31421		66.339617	1.948732	16.669714
31422		66.238658	1.733153	16.675996
31423		66.162612	1.492901	16.681636
31424		66.097572	1.227130	16.687475
31425		66.041087	0.934680	16.690217
31426		65.999290	0.619033	16.694221
31427		65.963688	0.278740	16.696493
31428		65.919852	-0.086075	16.697292
31429		65.863031	-0.473179	16.700867
31430		65.801645	-0.886005	16.707909
31431		65.735381	-1.324213	16.716941
31432		65.668891	-1.785308	16.729281
31433		65.597871	-2.269227	16.743699
31434		65.529371	-2.775583	16.760622
31435		65.461458	-3.289478	16.791614
31436		65.374008	-3.816109	16.829463
31437		65.270478	-4.362346	16.867126
31438		65.178109	-4.932350	16.908891
31439		65.117291	-5.521950	16.960924
31440		65.100197	-6.132086	17.020030
31441		65.121774	-6.764667	17.081831
31442		65.167714	-7.416540	17.146912
31443		65.220765	-8.085730	17.217044
31444		65.275451	-8.766204	17.289923
31445		65.315024	-9.460190	17.367628
31446		65.334887	-10.159171	17.454590
31447		65.330082	-10.864368	17.551287
31448		65.298066	-11.575109	17.659033
31449		65.247181	-12.289522	17.772002
31450		65.199697	-13.009455	17.887931
31451		65.173063	-13.738824	18.006522
31452		65.156745	-14.478402	18.127063
31453		65.143699	-15.222796	18.257450
31454		65.119765	-15.976460	18.400619
31455		65.084054	-16.734774	18.559498
31456		65.027445	-17.494204	18.727164
31457		64.946286	-18.251610	18.898799
31458		64.858554	-19.004777	19.072119
31459		64.777355	-19.756028	19.253449
31460		64.716940	-20.507825	19.441854
31461		64.683519	-21.260985	19.631932
31462		64.663046	-22.012174	19.828700
31463		64.647110	-22.761647	20.031191
31464		64.614186	-23.507196	20.238893
31465		64.556548	-24.243675	20.452424
31466		64.471134	-24.968271	20.674816
31467		64.354723	-25.683268	20.901545
31468		64.212747	-26.385606	21.130114
31469		64.058403	-27.082920	21.364767
31470		63.892497	-27.773006	21.598791
31471		63.720565	-28.454015	21.837295
31472		63.539892	-29.125251	22.078653
31473		63.351529	-29.786332	22.324574
31474		63.157019	-30.439877	22.572188
31475		62.955091	-31.086496	22.825933
31476		62.761756	-31.728059	23.081493
31477		62.573298	-32.365090	23.344280
31478		62.390016	-32.991810	23.610709
31479		62.206807	-33.614753	23.880866
31480		62.009904	-34.230218	24.153433
31481		61.791758	-34.838427	24.425582
31482		61.554923	-35.441903	24.700689
31483		61.291840	-36.038559	24.981698
31484		61.008627	-36.628042	25.265803
31485		60.719213	-37.216382	25.553971
31486		60.431191	-37.799839	25.849341
31487		60.150047	-38.384355	26.152883
31488		59.866138	-38.968439	26.460371
31489		59.576300	-39.553616	26.773179
31490		59.270016	-40.140572	27.089533
31491		58.938274	-40.727271	27.410409
31492		58.595278	-41.315800	27.731264
31493		58.245252	-41.905199	28.064038
31494		57.880810	-42.498098	28.408920
31495		57.497653	-43.092643	28.765484
31496		57.082118	-43.686558	29.135799
31497		56.630208	-44.279656	29.523202
31498		56.153420	-44.868712	29.923693
31499		55.665674	-45.458006	30.330235
31500		55.170678	-46.043196	30.749599
31501		54.677317	-46.628233	31.181753
31502		54.162710	-47.214560	31.626358
31503		53.610733	-47.794802	32.083143
31504		53.030966	-48.363624	32.546638
31505		52.440176	-48.926180	33.027131
31506		51.851610	-49.484203	33.532223
31507		51.265749	-50.045313	34.059457
31508		50.681543	-50.606367	34.595681
31509		50.092976	-51.164582	35.156231
31510		49.471740	-51.722094	35.742335
31511		48.800381	-52.278338	36.352630
31512		48.075275	-52.826159	36.990552
31513		47.295363	-53.365204	37.657134
31514		46.472831	-53.899050	38.348509
31515		45.626315	-54.424884	39.061930
31516		44.771738	-54.945064	39.796873
31517		43.907546	-55.459224	40.562680
31518		43.035620	-55.964760	41.344524
31519		42.140083	-56.464327	42.157811
31520		41.215522	-56.955770	42.987174
31521		40.251694	-57.433622	43.847908
31522		39.240152	-57.895259	44.737445
31523		38.184240	-58.341569	45.660469
31524		37.095808	-58.775311	46.616048
31525		35.964451	-59.195750	47.617209
31526		34.794926	-59.601335	48.649611
31527		33.609415	-59.993398	49.714506
31528		32.433856	-60.371397	50.819974
31529		31.270735	-60.739545	51.956761
31530		30.127754	-61.090912	53.114126
31531		29.012439	-61.426057	54.286333
31532		27.900710	-61.747520	55.476689
31533		26.723761	-62.052812	56.682722
31534		25.493486	-62.335874	57.887747
31535		24.218011	-62.601298	59.097002
31536		22.920037	-62.844305	60.303944
31537		21.636970	-63.070642	61.524864
31538		20.370798	-63.285982	62.768143
31539		19.119918	-63.485104	64.030760
31540		17.868719	-63.672324	65.292091
31541		16.604945	-63.844405	66.547574
31542		15.329665	-64.002692	67.784235
31543		14.051133	-64.146435	69.003800
31544		12.763863	-64.273022	70.209204
31545		11.477905	-64.385190	71.396443
31546		10.207664	-64.480916	72.587411
31547		8.904742	-64.569869	73.798445
31548		7.597028	-64.654345	74.983664
31549		6.307819	-64.728627	76.134332
31550		5.038277	-64.794545	77.244657
31551		3.822015	-64.847335	78.324139
31552		2.642172	-64.891141	79.379246
31553		1.483623	-64.932384	80.403434
31554		0.352247	-64.966591	81.390437
31555		-0.768474	-64.994154	82.346267
31556		-1.848078	-65.013739	83.246124
31557		-2.887208	-65.024859	84.109424
31558		-3.901984	-65.030161	84.929939
31559		-4.877427	-65.034158	85.718107
31560		-5.818900	-65.040397	86.448677
31561		-6.695485	-65.044167	87.129338
31562		-7.519429	-65.043595	87.778233
31563		-8.277724	-65.046721	88.378925
31564		-8.949790	-65.050521	88.941955
31565		-9.568820	-65.051889	89.482997
31566		-10.127300	-65.058824	89.976343
31567		-10.606142	-65.064664	90.425458
31568		-11.023758	-65.070405	90.834964
31569		-11.380985	-65.077726	91.198274
31570		-11.702137	-65.087487	91.537261
31571		-12.015909	-65.099193	91.849006
31572		-12.305535	-65.118065	92.130404
31573		-12.554601	-65.136537	92.378572
31574		-12.766720	-65.154074	92.602746
31575		-12.951013	-65.174867	92.809300
31576		-13.102509	-65.198857	92.987639
31577		-13.212347	-65.223779	93.128993
31578		-13.302038	-65.254978	93.250740
31579		-13.373034	-65.288294	93.345937
31580		-13.431765	-65.325598	93.418647
31581		-13.468322	-65.353250	93.460604
31582		-13.499117	-65.385382	93.483675
31583		-13.523286	-65.413309	93.493664
31584		-13.544475	-65.440323	93.491302
31585		-13.556291	-65.465478	93.471900
31586		-13.548313	-65.492005	93.434130
31587		-13.508477	-65.511488	93.369533
31588		-13.455585	-65.533712	93.298533
31589		-13.379683	-65.555698	93.207689
31590		-13.285079	-65.573164	93.102983
31591		-13.164066	-65.590670	92.978669
31592		-13.021912	-65.609611	92.837551
31593		-12.860831	-65.629054	92.683390
31594		-12.687220	-65.647678	92.521001
31595		-12.508726	-65.658966	92.353785
31596		-12.332890	-65.672353	92.176155
31597		-12.150400	-65.681975	91.997172
31598		-11.967987	-65.690087	91.826467
31599		-11.784088	-65.698217	91.656960
31600		-11.592975	-65.705315	91.484996
31601		-11.387469	-65.707312	91.301579
31602		-11.194657	-65.709038	91.114891
31603		-10.989603	-65.710697	90.906926
31604		-10.772817	-65.708748	90.674037
31605		-10.550878	-65.710315	90.423534
31606		-10.302461	-65.713390	90.151512
31607		-10.012064	-65.713887	89.860042
31608		-9.668215	-65.711690	89.541580
31609		-9.252107	-65.708901	89.186710
31610		-8.769884	-65.707285	88.806252
31611		-8.225039	-65.705583	88.385814
31612		-7.633495	-65.705083	87.923859
31613		-7.027497	-65.706755	87.431858
31614		-6.436342	-65.711414	86.914277
31615		-5.867203	-65.720410	86.373423
31616		-5.327690	-65.730169	85.823238
31617		-4.821578	-65.743807	85.274429
31618		-4.342287	-65.756159	84.728362
31619		-3.866496	-65.770822	84.182655
31620		-3.369608	-65.781288	83.627070
31621		-2.826511	-65.789684	83.066291
31622		-2.236893	-65.795314	82.496477
31623		-1.590897	-65.795015	81.913476
31624		-0.934975	-65.797641	81.335404
31625		-0.291481	-65.803542	80.748025
31626		0.328675	-65.798787	80.148658
31627		0.924969	-65.789367	79.532458
31628		1.513182	-65.772897	78.898888
31629		2.123718	-65.751035	78.242796
31630		2.766811	-65.722524	77.563659
31631		3.442926	-65.690554	76.871421
31632		4.151782	-65.653181	76.169034
31633		4.892132	-65.611199	75.450011
31634		5.666761	-65.559984	74.709905
31635		6.461010	-65.498097	73.952573
31636		7.278613	-65.425950	73.169393
31637		8.115256	-65.342618	72.360907
31638		8.971458	-65.253144	71.527153
31639		9.847496	-65.155277	70.667798
31640		10.718444	-65.051269	69.801973
31641		11.590769	-64.940919	68.917111
31642		12.482265	-64.819161	68.014304
31643		13.395387	-64.679699	67.098063
31644		14.321929	-64.527875	66.180733
31645		15.289350	-64.371628	65.235664
31646		16.270448	-64.205361	64.292471
31647		17.252263	-64.032451	63.343988
31648		18.214785	-63.848088	62.396558
31649		19.157984	-63.651691	61.445933
31650		20.077690	-63.446402	60.499982
31651		21.008818	-63.229967	59.548932
31652		21.946823	-63.004949	58.609264
31653		22.902446	-62.772785	57.676110
31654		23.870943	-62.524082	56.765232
31655		24.859175	-62.270433	55.871959
31656		25.853069	-62.007051	54.998090
31657		26.844809	-61.733556	54.130799
31658		27.806400	-61.448930	53.265961
31659		28.747447	-61.150970	52.392238
31660		29.647394	-60.843848	51.533933
31661		30.516613	-60.528557	50.676984
31662		31.361934	-60.202776	49.837113
31663		32.204637	-59.870068	49.013836
31664		33.056665	-59.529892	48.203183
31665		33.925667	-59.180190	47.398900
31666		34.807070	-58.821784	46.597995
31667		35.689730	-58.459838	45.786959
31668		36.538400	-58.087710	44.969934
31669		37.334370	-57.699185	44.137734
31670		38.080840	-57.302672	43.299143
31671		38.798762	-56.904096	42.460143
31672		39.517092	-56.507880	41.642387
31673		40.247650	-56.108833	40.861478
31674		41.017794	-55.695522	40.143606
31675		41.831403	-55.263635	39.481403
31676		42.679856	-54.821274	38.843301
31677		43.534281	-54.366685	38.219690
31678		44.334142	-53.890694	37.605727
31679		45.043104	-53.392181	36.985408
31680		45.619770	-52.870906	36.366284
31681		46.080479	-52.324889	35.755407
31682		46.479626	-51.762615	35.168162
31683		46.869100	-51.189000	34.610996
31684		47.267242	-50.610409	34.084061
31685		47.686879	-50.028803	33.576558
31686		48.115814	-49.441232	33.095768
31687		48.551503	-48.850071	32.623700
31688		48.977361	-48.254053	32.161486
31689		49.374595	-47.650209	31.706481
31690		49.743231	-47.040210	31.256551
31691		50.087028	-46.427153	30.809978
31692		50.413779	-45.808430	30.373024
31693		50.754394	-45.182196	29.948893
31694		51.121303	-44.559140	29.540700
31695		51.518063	-43.936422	29.149391
31696		51.935722	-43.316600	28.777785
31697		52.359487	-42.697519	28.428376
31698		52.780691	-42.077896	28.090419
31699		53.185392	-41.458293	27.761591
31700		53.563454	-40.834253	27.433648
31701		53.899783	-40.205288	27.093941
31702		54.204492	-39.568676	26.759435
31703		54.493648	-38.927777	26.436642
31704		54.792480	-38.291899	26.131386
31705		55.093507	-37.665008	25.837124
31706		55.397201	-37.039624	25.556125
31707		55.706537	-36.412910	25.284196
31708		55.997913	-35.790219	25.019735
31709		56.266097	-35.170362	24.753732
31710		56.510992	-34.551897	24.489149
31711		56.731324	-33.932878	24.229779
31712		56.939012	-33.316542	23.978043
31713		57.149253	-32.703722	23.729278
31714		57.363137	-32.096203	23.491959
31715		57.581263	-31.491471	23.262533
31716		57.809522	-30.890046	23.041410
31717		58.047213	-30.298247	22.831319
31718		58.312760	-29.715585	22.626791
31719		58.602095	-29.140584	22.427520
31720		58.909138	-28.574629	22.233710
31721		59.207046	-28.008968	22.037631
31722		59.479453	-27.444516	21.837913
31723		59.727719	-26.877239	21.644182
31724		59.943158	-26.316900	21.461175
31725		60.142535	-25.762126	21.279810
31726		60.345510	-25.219818	21.105422
31727		60.568131	-24.682910	20.939900
31728		60.812795	-24.157297	20.780652
31729		61.058330	-23.642172	20.626807
31730		61.286594	-23.128972	20.475958
31731		61.501678	-22.622973	20.321185
31732		61.701803	-22.117956	20.166427
31733		61.883510	-21.613057	20.008851
31734		62.059467	-21.108615	19.855522
31735		62.250904	-20.611049	19.704040
31736		62.462682	-20.118055	19.557376
31737		62.686764	-19.627395	19.410766
31738		62.910299	-19.134385	19.271849
31739		63.127245	-18.645042	19.134234
31740		63.335793	-18.156903	19.008973
31741		63.519442	-17.674863	18.881454
31742		63.648743	-17.191746	18.752370
31743		63.724553	-16.702956	18.621365
31744		63.754814	-16.212188	18.494376
31745		63.756665	-15.719515	18.370015
31746		63.771126	-15.230595	18.248633
31747		63.837206	-14.750155	18.138420
31748		63.969341	-14.281730	18.031634
31749		64.166945	-13.822933	17.932521
31750		64.411798	-13.367412	17.832312
31751		64.670369	-12.917163	17.732080
31752		64.920528	-12.467250	17.626810
31753		65.150186	-12.016131	17.517720
31754		65.349723	-11.563674	17.411977
31755		65.520305	-11.110698	17.307295
31756		65.683198	-10.663687	17.202640
31757		65.843403	-10.226610	17.105034
31758		66.005086	-9.794537	17.004424
31759		66.175027	-9.371682	16.902754
31760		66.338070	-8.953835	16.799659
31761		66.473735	-8.541718	16.691549
31762		66.565871	-8.133211	16.579271
31763		66.611721	-7.725839	16.466402
31764		66.632735	-7.323358	16.354650
31765		66.646684	-6.931954	16.251735
31766		66.670830	-6.550703	16.153672
31767		66.718622	-6.179385	16.061748
31768		66.792616	-5.816279	15.969356
31769		66.883016	-5.463648	15.877394
31770		66.973595	-5.117539	15.788053
31771		67.053669	-4.772733	15.705564
31772		67.100971	-4.424798	15.626457
31773		67.118585	-4.073645	15.551327
31774		67.109539	-3.717583	15.479892
31775		67.084205	-3.355099	15.413198
31776		67.066622	-2.988523	15.355255
31777		67.070101	-2.614399	15.307618
31778		67.099271	-2.233273	15.270689
31779		67.171701	-1.844622	15.240798
31780		67.266416	-1.457155	15.213112
31781		67.350190	-1.070810	15.185930
31782		67.378316	-0.681692	15.155038
31783		67.323476	-0.291013	15.116720
31784		67.192262	0.095710	15.071859
31785		67.022387	0.472698	15.019474
31786		66.843826	0.836896	14.961924
31787		66.721968	1.181597	14.902123
31788		66.679694	1.484926	14.830458
31789		66.792382	1.777409	14.776772
31790		66.915125	2.045119	14.792966
31791		66.938539	2.307251	14.805621
31792		66.994062	2.369843	14.747673
31793		67.143792	2.368153	14.706844
31794		67.274347	2.375733	14.705868
31795		67.405199	2.357033	14.699310
31796		67.530112	2.310727	14.690869
31797		67.614996	2.250041	14.689835
31798		67.630928	2.202522	14.697375
31799		67.638394	2.163602	14.689793
31800		67.623344	2.147389	14.670829
31801		67.620261	2.167104	14.656617
31802		67.613542	2.210649	14.635622
31803		67.629225	2.233807	14.614928
31804		67.632455	2.250498	14.596085
31805		67.643632	2.267190	14.588908
31806		67.651096	2.273520	14.585815
31807		67.668081	2.267962	14.587575
31808		67.684620	2.256875	14.589100
31809		67.700507	2.241703	14.591142
31810		67.702790	2.228603	14.589953
31811		67.696943	2.223056	14.587592
31812		67.681927	2.227293	14.580252
31813		67.666052	2.237355	14.575938
31814		67.651273	2.253902	14.573613
31815		67.631377	2.273360	14.570760
31816		67.614718	2.292745	14.569978
31817		67.604696	2.308102	14.569817
31818		67.594432	2.320760	14.570573
31819		67.583202	2.325083	14.570149
31820		67.570243	2.329039	14.570296
31821		67.557623	2.328966	14.572367
31822		67.544572	2.328225	14.572214
31823		67.535051	2.326684	14.571446
31824		67.530206	2.322920	14.570785
31825		67.532877	2.321888	14.569334
31826		67.537929	2.318893	14.569371
31827		67.546230	2.313936	14.569173
31828		67.554736	2.310463	14.568308
31829		67.567639	2.306323	14.571508
31830		67.580901	2.300304	14.571031
31831		67.592222	2.295560	14.569491
31832		67.605891	2.292128	14.569182
31833		67.616343	2.288765	14.566778
31834		67.625818	2.287104	14.563240
31835		67.634120	2.283916	14.558940
31836		67.644191	2.284584	14.554628
31837		67.655244	2.283551	14.551444
31838		67.666403	2.285683	14.549113
31839		67.673297	2.287757	14.548858
31840		67.675098	2.289852	14.546835
31841		67.671105	2.291116	14.544477
31842		67.673261	2.294200	14.544393
31843		67.671932	2.292918	14.542851
31844		67.676938	2.293198	14.542638
31845		67.681302	2.295963	14.542384
31846		67.688267	2.298094	14.540924
31847		67.688441	2.300863	14.541534
31848		67.687406	2.302483	14.539908
31849		67.690490	2.304043	14.538621
31850		67.698102	2.301949	14.536903
31851		67.707114	2.300744	14.536473
31852		67.721251	2.298215	14.534835
31853		67.740952	2.293468	14.531549
31854		67.763731	2.288997	14.525722
31855		67.783322	2.282833	14.521866
31856		67.794234	2.275748	14.516601
31857		67.799616	2.267400	14.512369
31858		67.793791	2.258824	14.506737
31859		67.779053	2.241399	14.499730
31860		67.770072	2.218434	14.491246
31861		67.749577	2.187214	14.486994
31862		67.723950	2.149647	14.479179
31863		67.681189	2.107749	14.474374
31864		67.625326	2.050658	14.470481
31865		67.539489	1.980214	14.466967
31866		67.444516	1.898100	14.464239
31867		67.361699	1.800578	14.456330
31868		67.299886	1.680244	14.448003
31869		67.256946	1.538932	14.435575
31870		67.235424	1.383802	14.424563
31871		67.257051	1.215024	14.415123
31872		67.317021	1.027318	14.404222
31873		67.390599	0.818539	14.393653
31874		67.455637	0.592190	14.387058
31875		67.498700	0.347968	14.384916
31876		67.525706	0.086563	14.385376
31877		67.543827	-0.191997	14.388536
31878		67.566590	-0.485964	14.394308
31879		67.601558	-0.796028	14.403029
31880		67.646195	-1.119419	14.411345
31881		67.705091	-1.455661	14.421542
31882		67.769061	-1.803453	14.436766
31883		67.829198	-2.159383	14.459927
31884		67.863907	-2.522029	14.491956
31885		67.870757	-2.892564	14.528578
31886		67.843722	-3.269233	14.569679
31887		67.787065	-3.655026	14.620474
31888		67.706196	-4.052824	14.679027
31889		67.619714	-4.463738	14.749083
31890		67.538642	-4.888064	14.828882
31891		67.472597	-5.322229	14.917578
31892		67.431618	-5.770896	15.009902
31893		67.420335	-6.237567	15.106117
31894		67.436521	-6.721001	15.204259
31895		67.471148	-7.216120	15.303520
31896		67.502009	-7.721899	15.407598
31897		67.515870	-8.239953	15.516731
31898		67.513745	-8.767846	15.632202
31899		67.495166	-9.307941	15.754389
31900		67.470668	-9.862956	15.883942
31901		67.434770	-10.431878	16.018790
31902		67.390469	-11.010900	16.155338
31903		67.324437	-11.598891	16.295816
31904		67.226655	-12.193921	16.435987
31905		67.094841	-12.792654	16.577758
31906		66.950269	-13.395679	16.725179
31907		66.810558	-14.006685	16.878052
31908		66.687532	-14.626166	17.034275
31909		66.581948	-15.250726	17.194484
31910		66.494705	-15.875001	17.358082
31911		66.419790	-16.500601	17.528768
31912		66.353039	-17.126966	17.704594
31913		66.283025	-17.755154	17.888552
31914		66.207457	-18.382001	18.077186
31915		66.119357	-19.006824	18.271615
31916		66.006195	-19.628194	18.468994
31917		65.867768	-20.244204	18.669014
31918		65.699669	-20.857019	18.874915
31919		65.506618	-21.465263	19.083696
31920		65.298798	-22.071618	19.294355
31921		65.075798	-22.677067	19.509851
31922		64.847297	-23.281029	19.727650
31923		64.619483	-23.888607	19.945431
31924		64.399683	-24.497483	20.166618
31925		64.182146	-25.109699	20.392622
31926		63.958460	-25.723700	20.617362
31927		63.713139	-26.340912	20.842884
31928		63.426142	-26.956677	21.073924
31929		63.100383	-27.571719	21.306915
31930		62.754193	-28.189010	21.545660
31931		62.400001	-28.816944	21.793146
31932		62.057871	-29.449181	22.050508
31933		61.755879	-30.088387	22.308713
31934		61.493090	-30.732687	22.572352
31935		61.259180	-31.387580	22.838982
31936		61.034104	-32.045016	23.107058
31937		60.797726	-32.705404	23.384219
31938		60.551896	-33.364012	23.663751
31939		60.294732	-34.026995	23.953566
31940		60.021036	-34.687727	24.250059
31941		59.717840	-35.346717	24.557032
31942		59.381727	-36.005227	24.871574
31943		59.000442	-36.664688	25.202316
31944		58.593326	-37.324340	25.537228
31945		58.176490	-37.989804	25.886685
31946		57.754221	-38.658124	26.246623
31947		57.352118	-39.329261	26.618986
31948		56.973791	-40.001168	27.000615
31949		56.607367	-40.679144	27.397417
31950		56.239153	-41.358618	27.801467
31951		55.860859	-42.037066	28.215946
31952		55.462596	-42.707784	28.637545
31953		55.036576	-43.372351	29.067596
31954		54.586131	-44.029880	29.502727
31955		54.098496	-44.678748	29.950539
31956		53.586121	-45.323149	30.406016
31957		53.063253	-45.966367	30.864417
31958		52.551440	-46.601422	31.334224
31959		52.054885	-47.233388	31.821830
31960		51.584586	-47.859009	32.318958
31961		51.118522	-48.483194	32.833292
31962		50.636476	-49.101413	33.356040
31963		50.125413	-49.709899	33.893163
31964		49.587195	-50.305046	34.435514
31965		49.021881	-50.887913	34.983253
31966		48.431440	-51.453865	35.536325
31967		47.817222	-52.008502	36.102602
31968		47.176112	-52.550286	36.683377
31969		46.522916	-53.082737	37.276591
31970		45.856713	-53.601534	37.888586
31971		45.173527	-54.111242	38.503023
31972		44.501788	-54.610026	39.125810
31973		43.817357	-55.103013	39.766792
31974		43.139891	-55.590350	40.408396
31975		42.435676	-56.071573	41.073908
31976		41.709856	-56.540814	41.747708
31977		40.972860	-57.000913	42.436667
31978		40.211331	-57.448525	43.139530
31979		39.436941	-57.887758	43.859026
31980		38.639219	-58.315166	44.594614
31981		37.829630	-58.728925	45.349424
31982		37.018454	-59.129260	46.129372
31983		36.214396	-59.519233	46.932173
31984		35.414168	-59.897260	47.751082
31985		34.586004	-60.264015	48.591821
31986		33.715165	-60.616119	49.441429
31987		32.793512	-60.953625	50.305089
31988		31.824955	-61.272540	51.183054
31989		30.811187	-61.580973	52.072166
31990		29.758906	-61.872360	52.955668
31991		28.683828	-62.156303	53.835587
31992		27.582128	-62.425825	54.720013
31993		26.455612	-62.680107	55.596914
31994		25.327893	-62.912822	56.453801
31995		24.204973	-63.129060	57.301933
31996		23.094837	-63.333768	58.141863
31997		21.966152	-63.527514	58.992766
31998		20.802707	-63.706974	59.839138
31999		19.641974	-63.870795	60.664404
32000		18.485050	-64.018189	61.494555
32001		17.345685	-64.153096	62.317569
32002		16.249663	-64.280186	63.138712
32003		15.192170	-64.402490	63.961168
32004		14.214549	-64.523127	64.760890
32005		13.337783	-64.634843	65.569449
32006		12.533267	-64.745119	66.379346
32007		11.760675	-64.858083	67.189006
32008		11.002470	-64.968868	67.986934
32009		10.235315	-65.072888	68.781323
32010		9.440607	-65.167052	69.565873
32011		8.624566	-65.250641	70.338429
32012		7.782400	-65.334487	71.103048
32013		6.924639	-65.416934	71.871303
32014		6.072691	-65.496017	72.635454
32015		5.225053	-65.576942	73.404449
32016		4.399777	-65.655761	74.173128
32017		3.592880	-65.738223	74.939031
32018		2.811590	-65.821123	75.702307
32019		2.050123	-65.901861	76.460102
32020		1.274272	-65.979867	77.231892
32021		0.467767	-66.053434	77.991411
32022		-0.338400	-66.123533	78.722976
32023		-1.132841	-66.187473	79.440508
32024		-1.934236	-66.246346	80.157207
32025		-2.758275	-66.304999	80.875034
32026		-3.594271	-66.360406	81.580090
32027		-4.439039	-66.415106	82.264128
32028		-5.255836	-66.460064	82.903140
32029		-6.046312	-66.501436	83.516010
32030		-6.790195	-66.535768	84.090739
32031		-7.471166	-66.576225	84.626068
32032		-8.100685	-66.620873	85.149299
32033		-8.682896	-66.655956	85.664147
32034		-9.214723	-66.676112	86.154409
32035		-9.697305	-66.689642	86.613188
32036		-10.133215	-66.702393	87.047224
32037		-10.508626	-66.711964	87.444729
32038		-10.828362	-66.719448	87.811742
32039		-11.099779	-66.730108	88.146588
32040		-11.325758	-66.740514	88.430725
32041		-11.506172	-66.750390	88.661504
32042		-11.656144	-66.761379	88.847909
32043		-11.783747	-66.771551	88.996527
32044		-11.882699	-66.781798	89.114910
32045		-11.966249	-66.787441	89.210186
32046		-12.034160	-66.787772	89.287116
32047		-12.079278	-66.786719	89.345915
32048		-12.105818	-66.783882	89.386657
32049		-12.124256	-66.783448	89.416406
32050		-12.133651	-66.783736	89.437760
32051		-12.139043	-66.781366	89.454244
32052		-12.140043	-66.784356	89.461749
32053		-12.121731	-66.785189	89.458459
32054		-12.093814	-66.786145	89.451722
32055		-12.048924	-66.787131	89.435787
32056		-12.011141	-66.787296	89.424637
32057		-11.978712	-66.788687	89.409949
32058		-11.959168	-66.788819	89.392619
32059		-11.941065	-66.787296	89.371998
32060		-11.928703	-66.782608	89.361370
32061		-11.913260	-66.780216	89.353954
32062		-11.890985	-66.773353	89.346976
32063		-11.878997	-66.766725	89.351159
32064		-11.871442	-66.757362	89.354378
32065		-11.867321	-66.749056	89.356754
32066		-11.865546	-66.737865	89.360655
32067		-11.874754	-66.731219	89.371629
32068		-11.884846	-66.722132	89.381751
32069		-11.902660	-66.712762	89.398058
32070		-11.921775	-66.706447	89.422249
32071		-11.946461	-66.702509	89.447571
32072		-11.961942	-66.697899	89.472416
32073		-11.973772	-66.695262	89.501642
32074		-11.985032	-66.692931	89.536442
32075		-11.994225	-66.693271	89.573786
32076		-11.998313	-66.690671	89.609295
32077		-11.996725	-66.686219	89.651034
32078		-11.985942	-66.689943	89.694294
32079		-11.946103	-66.692270	89.731792
32080		-11.888897	-66.695277	89.763275
32081		-11.812626	-66.700203	89.781078
32082		-11.728542	-66.705898	89.785038
32083		-11.629507	-66.715989	89.761654
32084		-11.531847	-66.722022	89.719908
32085		-11.407984	-66.726911	89.642813
32086		-11.282317	-66.731467	89.552317
32087		-11.140910	-66.737168	89.442864
32088		-10.974576	-66.741537	89.316345
32089		-10.791879	-66.746404	89.175685
32090		-10.585266	-66.752462	89.017332
32091		-10.343238	-66.757858	88.831134
32092		-10.078179	-66.762309	88.626343
32093		-9.786218	-66.767875	88.386610
32094		-9.466376	-66.771987	88.118029
32095		-9.121020	-66.775250	87.812377
32096		-8.744576	-66.774916	87.474467
32097		-8.326699	-66.770578	87.099894
32098		-7.873654	-66.762881	86.691686
32099		-7.371439	-66.753525	86.240494
32100		-6.804500	-66.740246	85.737641
32101		-6.163412	-66.721795	85.180330
32102		-5.483375	-66.699373	84.587253
32103		-4.762929	-66.677381	83.931694
32104		-4.004877	-66.649438	83.215588
32105		-3.191312	-66.611778	82.434320
32106		-2.344559	-66.567348	81.613341
32107		-1.461418	-66.521317	80.746319
32108		-0.539116	-66.461280	79.840384
32109		0.425804	-66.391866	78.894333
32110		1.436359	-66.315674	77.914545
32111		2.501851	-66.228056	76.892960
32112		3.608660	-66.134325	75.841030
32113		4.756108	-66.031895	74.750181
32114		5.918829	-65.921255	73.621375
32115		7.110048	-65.796513	72.440800
32116		8.313422	-65.659572	71.235096
32117		9.501308	-65.513750	70.011238
32118		10.685304	-65.360522	68.757335
32119		11.862596	-65.196996	67.491083
32120		13.036183	-65.020678	66.218877
32121		14.227170	-64.834675	64.933502
32122		15.443937	-64.634419	63.646002
32123		16.741001	-64.405971	62.345736
32124		18.096846	-64.159651	61.068010
32125		19.499172	-63.894284	59.806784
32126		20.891713	-63.616194	58.598237
32127		22.237239	-63.322783	57.422060
32128		23.514974	-63.011346	56.271484
32129		24.739454	-62.683477	55.136289
32130		25.899463	-62.344744	54.032961
32131		27.016716	-62.002571	52.943600
32132		28.095049	-61.652782	51.885150
32133		29.154250	-61.294343	50.850168
32134		30.189005	-60.924152	49.857171
32135		31.223856	-60.544101	48.900281
32136		32.248343	-60.155826	47.993867
32137		33.267926	-59.762790	47.130338
32138		34.270073	-59.367437	46.308121
32139		35.238292	-58.965660	45.512774
32140		36.188083	-58.555035	44.732795
32141		37.119632	-58.139604	43.961959
32142		38.014938	-57.718792	43.206047
32143		38.864212	-57.293650	42.456122
32144		39.659455	-56.859165	41.714300
32145		40.404426	-56.410537	40.974596
32146		41.102323	-55.948663	40.238528
32147		41.773718	-55.471542	39.497868
32148		42.437032	-54.977261	38.761236
32149		43.108664	-54.463311	38.030047
32150		43.789233	-53.939477	37.317698
32151		44.479413	-53.399497	36.622616
32152		45.164765	-52.844549	35.948448
32153		45.855055	-52.275583	35.288230
32154		46.534770	-51.700728	34.658058
32155		47.213442	-51.115463	34.031580
32156		47.910951	-50.523903	33.411120
32157		48.596797	-49.929437	32.809299
32158		49.253601	-49.323293	32.217594
32159		49.907532	-48.708117	31.627503
32160		50.560319	-48.086978	31.055264
32161		51.210728	-47.455130	30.502118
32162		51.855326	-46.818517	29.977334
32163		52.498674	-46.178291	29.479634
32164		53.114834	-45.533064	29.022703
32165		53.703229	-44.886567	28.587157
32166		54.255758	-44.238412	28.178598
32167		54.753696	-43.584542	27.784775
32168		55.185647	-42.928585	27.403029
32169		55.558651	-42.272611	27.031886
32170		55.869387	-41.618846	26.671070
32171		56.141182	-40.965176	26.320549
32172		56.394994	-40.313854	25.988219
32173		56.659904	-39.665866	25.679055
32174		56.951680	-39.024489	25.390804
32175		57.291106	-38.388698	25.116111
32176		57.660110	-37.757064	24.855487
32177		58.045936	-37.120537	24.595813
32178		58.428736	-36.481932	24.342517
32179		58.791233	-35.840321	24.089080
32180		59.089671	-35.194645	23.836016
32181		59.318325	-34.539581	23.572633
32182		59.488855	-33.876867	23.305616
32183		59.618996	-33.205987	23.035387
32184		59.725225	-32.532251	22.759186
32185		59.816201	-31.853130	22.476167
32186		59.897184	-31.170197	22.190174
32187		59.998600	-30.488506	21.899707
32188		60.085167	-29.801588	21.624298
32189		60.157970	-29.107783	21.355734
32190		60.208852	-28.413687	21.093794
32191		60.230334	-27.722480	20.832721
32192		60.237523	-27.037604	20.567709
32193		60.303579	-26.371248	20.307232
32194		60.359241	-25.716465	20.074344
32195		60.537823	-25.070809	19.812887
32196		60.773601	-24.415160	19.607039
32197		61.038371	-23.748734	19.455564
32198		61.314406	-23.102921	19.297661
32199		61.548475	-22.470059	19.151245
32200		61.732211	-21.837373	19.027860
32201		61.853516	-21.207911	18.931715
32202		61.919171	-20.587660	18.860075
32203		61.940219	-19.981930	18.804757
32204		61.939301	-19.399142	18.768250
32205		61.915447	-18.826718	18.765651
32206		61.898668	-18.268295	18.774091
32207		61.908953	-17.727081	18.785794
32208		61.938724	-17.200923	18.801080
32209		61.980371	-16.685174	18.819824
32210		62.041999	-16.181436	18.841636
32211		62.128835	-15.691884	18.873911
32212		62.237426	-15.208176	18.921804
32213		62.384820	-14.737504	18.967667
32214		62.570686	-14.277592	19.011629
32215		62.787048	-13.831513	19.049592
32216		63.012816	-13.396894	19.084257
32217		63.225435	-12.969315	19.113230
32218		63.416590	-12.545498	19.131792
32219		63.598899	-12.126090	19.146676
32220		63.781245	-11.706816	19.156446
32221		63.971237	-11.289222	19.163817
32222		64.161341	-10.875638	19.166637
32223		64.344803	-10.472040	19.149117
32224		64.501780	-10.077469	19.118725
32225		64.616160	-9.689773	19.081373
32226		64.688853	-9.307432	19.038288
32227		64.737852	-8.934369	18.994009
32228		64.779414	-8.570076	18.953957
32229		64.833184	-8.213042	18.916739
32230		64.910400	-7.867347	18.884327
32231		65.023986	-7.529019	18.857587
32232		65.149544	-7.197802	18.836081
32233		65.270126	-6.871054	18.812658
32234		65.378681	-6.553328	18.782608
32235		65.449943	-6.244106	18.741886
32236		65.460526	-5.937229	18.696091
32237		65.403826	-5.632113	18.646447
32238		65.305357	-5.331873	18.599941
32239		65.207133	-5.036796	18.564333
32240		65.142499	-4.751447	18.538891
32241		65.136354	-4.474757	18.520482
32242		65.194583	-4.206011	18.509382
32243		65.300167	-3.944888	18.498266
32244		65.413945	-3.679940	18.490494
32245		65.502745	-3.409459	18.479984
32246		65.538065	-3.125054	18.473708
32247		65.528899	-2.828791	18.473906
32248		65.488078	-2.518930	18.473720
32249		65.440185	-2.201163	18.469330
32250		65.401990	-1.881203	18.459687
32251		65.386629	-1.556262	18.447951
32252		65.405075	-1.227075	18.429650
32253		65.457785	-0.891392	18.405765
32254		65.537850	-0.544413	18.379794
32255		65.648865	-0.181860	18.348248
32256		65.785634	0.199989	18.312222
32257		65.945266	0.595639	18.269363
32258		66.118473	1.000530	18.214206
32259		66.284426	1.408465	18.145655
32260		66.417871	1.763472	18.035594
32261		66.617766	2.138079	17.939121
32262		67.105204	2.470383	17.970235
32263		67.441008	2.507324	17.945691
32264		67.530166	2.418944	17.916625
32265		67.831107	2.361264	17.940919
32266		68.064134	2.284313	17.951803
32267		68.219898	2.166242	17.962783
32268		68.333319	2.037520	17.959604
32269		68.417034	1.944570	17.918998
32270		68.441267	1.914308	17.874099
32271		68.506522	1.959181	17.837780
32272		68.610167	2.042410	17.790161
32273		68.699045	2.089271	17.743940
32274		68.824687	2.112310	17.706989
32275		68.974361	2.113886	17.681274
32276		69.072818	2.115482	17.679572
32277		69.168917	2.101500	17.672177
32278		69.226482	2.078068	17.665950
32279		69.287195	2.054724	17.663565
32280		69.336171	2.035955	17.650631
32281		69.383132	2.025229	17.627026
32282		69.437324	2.024450	17.598621
32283		69.481154	2.029550	17.572071
32284		69.533175	2.040439	17.551409
32285		69.584301	2.048048	17.534737
32286		69.631284	2.052899	17.525855
32287		69.676643	2.052362	17.519405
32288		69.715827	2.052817	17.516451
32289		69.754423	2.049707	17.513344
32290		69.779681	2.049632	17.509706
32291		69.798532	2.054345	17.501960
32292		69.808017	2.063858	17.495260
32293		69.816665	2.071936	17.488583
32294		69.814469	2.076887	17.484574
32295		69.811786	2.083006	17.484004
32296		69.803908	2.088629	17.484556
32297		69.789270	2.093967	17.488349
32298		69.763908	2.098012	17.490839
32299		69.734428	2.100968	17.493330
32300		69.707249	2.102750	17.498348
32301		69.682111	2.100176	17.499980
32302		69.664891	2.097615	17.498828
32303		69.652928	2.093677	17.497318
32304		69.638326	2.091957	17.494440
32305		69.630712	2.087846	17.488858
32306		69.620238	2.087859	17.484347
32307		69.603928	2.088006	17.479906
32308		69.582127	2.089983	17.474489
32309		69.557775	2.091557	17.471423
32310		69.531002	2.094876	17.468328
32311		69.506056	2.097410	17.465780
32312		69.480472	2.100250	17.465401
32313		69.457249	2.103218	17.464275
32314		69.422999	2.108655	17.463513
32315		69.380871	2.112448	17.463998
32316		69.333259	2.118055	17.463492
32317		69.276206	2.124458	17.467127
32318		69.200430	2.129117	17.471563
32319		69.125938	2.132117	17.477810
32320		69.056397	2.134569	17.487143
32321		68.999441	2.135061	17.500745
32322		68.965691	2.128502	17.513631
32323		68.952281	2.117918	17.519821
32324		68.926910	2.106473	17.521982
32325		68.878992	2.092455	17.524598
32326		68.804135	2.076738	17.528801
32327		68.738071	2.051693	17.538065
32328		68.695837	2.016045	17.559203
32329		68.713548	1.962133	17.583811
32330		68.746812	1.893396	17.607440
32331		68.800963	1.815745	17.630766
32332		68.841851	1.737372	17.654986
32333		68.858983	1.652474	17.665635
32334		68.855974	1.565331	17.669291
32335		68.829440	1.482642	17.670349
32336		68.786414	1.399603	17.672449
32337		68.713813	1.313420	17.680957
32338		68.620891	1.226725	17.687320
32339		68.516956	1.133394	17.695059
32340		68.404796	1.029336	17.701881
32341		68.279598	0.915381	17.707576
32342		68.144408	0.793246	17.718505
32343		68.017640	0.657141	17.734182
32344		67.918630	0.505556	17.757198
32345		67.856532	0.334784	17.783370
32346		67.827195	0.145776	17.808309
32347		67.813847	-0.066305	17.831593
32348		67.796764	-0.294928	17.851971
32349		67.764737	-0.537138	17.869836
32350		67.716577	-0.795436	17.884394
32351		67.657326	-1.068818	17.898235
32352		67.599378	-1.355493	17.912616
32353		67.552432	-1.657057	17.927938
32354		67.522179	-1.975350	17.940466
32355		67.504755	-2.306689	17.955575
32356		67.494035	-2.653415	17.968697
32357		67.483397	-3.011141	17.975416
32358		67.464660	-3.381739	17.982757
32359		67.438048	-3.764320	17.989675
32360		67.412701	-4.158249	17.995726
32361		67.406915	-4.570665	17.997535
32362		67.430740	-5.000267	17.991993
32363		67.472450	-5.445470	17.983177
32364		67.516951	-5.900664	17.971283
32365		67.543675	-6.364328	17.957636
32366		67.558797	-6.836031	17.942291
32367		67.575898	-7.318805	17.925400
32368		67.608715	-7.813296	17.908819
32369		67.662071	-8.319502	17.891296
32370		67.736069	-8.834206	17.876606
32371		67.828513	-9.362691	17.870614
32372		67.934763	-9.894221	17.871103
32373		68.055598	-10.432118	17.874947
32374		68.170184	-10.971526	17.883616
32375		68.264602	-11.512004	17.895825
32376		68.317827	-12.050042	17.913234
32377		68.324602	-12.586446	17.935087
32378		68.292053	-13.120893	17.964060
32379		68.229037	-13.656983	18.002821
32380		68.156882	-14.193464	18.051161
32381		68.088714	-14.740197	18.112991
32382		68.032353	-15.288320	18.182524
32383		67.999168	-15.844656	18.263039
32384		67.993014	-16.405529	18.354126
32385		68.004334	-16.971542	18.453540
32386		68.022657	-17.540456	18.555950
32387		68.031304	-18.110740	18.668335
32388		68.010418	-18.676584	18.787086
32389		67.952750	-19.238361	18.908001
32390		67.866593	-19.796477	19.036862
32391		67.761182	-20.354370	19.171172
32392		67.650725	-20.913055	19.310086
32393		67.548258	-21.477171	19.454870
32394		67.460453	-22.041542	19.604812
32395		67.379737	-22.611907	19.760436
32396		67.304873	-23.181495	19.920970
32397		67.235316	-23.752155	20.086454
32398		67.158932	-24.325691	20.258186
32399		67.070253	-24.901627	20.434205
32400		66.966701	-25.473575	20.616544
32401		66.848342	-26.045399	20.802804
32402		66.719871	-26.614968	20.988444
32403		66.590152	-27.186903	21.173906
32404		66.455780	-27.757022	21.361761
32405		66.316331	-28.327936	21.548931
32406		66.181785	-28.893775	21.737904
32407		66.047854	-29.461987	21.926881
32408		65.898064	-30.027034	22.115552
32409		65.717576	-30.593710	22.305220
32410		65.501833	-31.154834	22.497016
32411		65.253886	-31.713583	22.697008
32412		65.002094	-32.267564	22.894148
32413		64.770262	-32.822487	23.094411
32414		64.573998	-33.375291	23.294193
32415		64.413684	-33.931102	23.495286
32416		64.281849	-34.485631	23.700170
32417		64.168263	-35.041064	23.910186
32418		64.056616	-35.594440	24.125389
32419		63.939257	-36.141971	24.345680
32420		63.812787	-36.684048	24.568356
32421		63.666440	-37.223422	24.799700
32422		63.510035	-37.757522	25.030364
32423		63.341010	-38.293272	25.263701
32424		63.160097	-38.827864	25.498288
32425		62.982650	-39.365443	25.735037
32426		62.811725	-39.903160	25.971984
32427		62.637495	-40.447596	26.211622
32428		62.454477	-40.993141	26.459803
32429		62.246654	-41.545580	26.712267
32430		62.010924	-42.092994	26.979436
32431		61.756982	-42.647409	27.256419
32432		61.493113	-43.202602	27.544911
32433		61.215356	-43.764243	27.843287
32434		60.910658	-44.327098	28.146128
32435		60.577432	-44.893815	28.459912
32436		60.221373	-45.459513	28.784532
32437		59.853874	-46.026759	29.117699
32438		59.485232	-46.594501	29.467363
32439		59.141338	-47.169316	29.828228
32440		58.822542	-47.745388	30.204996
32441		58.502387	-48.328139	30.596131
32442		58.160611	-48.906561	30.998415
32443		57.786530	-49.481765	31.417430
32444		57.385943	-50.053040	31.846109
32445		56.955476	-50.623901	32.289585
32446		56.484047	-51.196535	32.749889
32447		55.962887	-51.770050	33.232336
32448		55.401735	-52.339906	33.738442
32449		54.787898	-52.910262	34.274129
32450		54.145331	-53.475349	34.813977
32451		53.484075	-54.040988	35.370769
32452		52.825878	-54.601967	35.952448
32453		52.152465	-55.160461	36.555478
32454		51.482141	-55.709052	37.168751
32455		50.798557	-56.248591	37.803184
32456		50.088037	-56.773813	38.445195
32457		49.322203	-57.280668	39.099093
32458		48.504371	-57.765384	39.761183
32459		47.617476	-58.234823	40.432254
32460		46.665579	-58.680562	41.112969
32461		45.677971	-59.110203	41.810721
32462		44.668425	-59.528086	42.526557
32463		43.650323	-59.932401	43.264952
32464		42.661345	-60.323276	44.018182
32465		41.696043	-60.704102	44.795784
32466		40.721584	-61.074725	45.591947
32467		39.745905	-61.433843	46.385003
32468		38.775608	-61.776480	47.185839
32469		37.809610	-62.110058	48.018234
32470		36.860116	-62.431431	48.852990
32471		35.933500	-62.746434	49.698587
32472		35.008832	-63.050645	50.557520
32473		34.073884	-63.347038	51.425323
32474		33.115683	-63.631878	52.300405
32475		32.128486	-63.905197	53.189480
32476		31.118945	-64.168252	54.083162
32477		30.108859	-64.423910	54.974541
32478		29.100525	-64.669819	55.887293
32479		28.083589	-64.906037	56.817155
32480		27.059430	-65.129705	57.757970
32481		26.017846	-65.342870	58.707202
32482		24.967065	-65.544643	59.658724
32483		23.891188	-65.734823	60.619163
32484		22.802208	-65.913413	61.569211
32485		21.701196	-66.079533	62.517850
32486		20.603931	-66.233012	63.465499
32487		19.478085	-66.375413	64.440351
32488		18.337615	-66.509228	65.414172
32489		17.190668	-66.634457	66.395311
32490		16.056533	-66.747421	67.369054
32491		14.937358	-66.855854	68.358221
32492		13.818582	-66.953936	69.371906
32493		12.707450	-67.044044	70.375026
32494		11.616890	-67.125856	71.365454
32495		10.533032	-67.198670	72.346665
32496		9.446431	-67.264454	73.329586
32497		8.351693	-67.322557	74.316959
32498		7.258320	-67.372913	75.311379
32499		6.168658	-67.419513	76.295015
32500		5.118924	-67.458356	77.268184
32501		4.098281	-67.492578	78.238367
32502		3.116393	-67.527285	79.177497
32503		2.188189	-67.568023	80.097303
32504		1.283726	-67.604926	81.008939
32505		0.405460	-67.636921	81.889190
32506		-0.424484	-67.659672	82.728643
32507		-1.241003	-67.683959	83.542135
32508		-2.018694	-67.705008	84.301907
32509		-2.760464	-67.724268	85.018865
32510		-3.471148	-67.736863	85.689616
32511		-4.135146	-67.751390	86.306329
32512		-4.752546	-67.766431	86.880213
32513		-5.312701	-67.782214	87.402440
32514		-5.804040	-67.793231	87.868991
32515		-6.236838	-67.805469	88.299853
32516		-6.597867	-67.815684	88.690176
32517		-6.913559	-67.826426	89.045852
32518		-7.194508	-67.835845	89.358261
32519		-7.436786	-67.845936	89.622151
32520		-7.651133	-67.854550	89.840872
32521		-7.840621	-67.865061	90.022878
32522		-8.007769	-67.878224	90.183028
32523		-8.162819	-67.891642	90.337059
32524		-8.297276	-67.902407	90.487257
32525		-8.403536	-67.908061	90.631768
32526		-8.517927	-67.912403	90.802396
32527		-8.633824	-67.914694	90.978934
32528		-8.759167	-67.912739	91.167152
32529		-8.884030	-67.908655	91.353613
32530		-9.028590	-67.905366	91.550351
32531		-9.174506	-67.897865	91.741032
32532		-9.334304	-67.888770	91.929236
32533		-9.495320	-67.878321	92.112421
32534		-9.657056	-67.860510	92.292931
32535		-9.802059	-67.840222	92.456627
32536		-9.925273	-67.814838	92.610448
32537		-10.034851	-67.789072	92.753486
32538		-10.125177	-67.764605	92.873673
32539		-10.209513	-67.742677	92.969719
32540		-10.276049	-67.725968	93.036913
32541		-10.326687	-67.710471	93.075897
32542		-10.353841	-67.697217	93.090493
32543		-10.363441	-67.688254	93.087255
32544		-10.346147	-67.682689	93.067338
32545		-10.310348	-67.681287	93.036732
32546		-10.257967	-67.680751	92.996958
32547		-10.190059	-67.685376	92.946494
32548		-10.119840	-67.689045	92.892585
32549		-10.035451	-67.699731	92.820168
32550		-9.950871	-67.709707	92.740334
32551		-9.867471	-67.721739	92.654947
32552		-9.782629	-67.729597	92.563041
32553		-9.706732	-67.737766	92.472445
32554		-9.637219	-67.742922	92.383415
32555		-9.576842	-67.746104	92.305940
32556		-9.511154	-67.742588	92.228551
32557		-9.449421	-67.740558	92.163035
32558		-9.388305	-67.738336	92.105781
32559		-9.329883	-67.736009	92.056556
32560		-9.274206	-67.729456	92.009879
32561		-9.231449	-67.723661	91.974510
32562		-9.198497	-67.714955	91.945351
32563		-9.181555	-67.708017	91.927626
32564		-9.166022	-67.695289	91.908523
32565		-9.153240	-67.682874	91.892196
32566		-9.141112	-67.673039	91.878891
32567		-9.111899	-67.662904	91.850129
32568		-9.063904	-67.652697	91.804851
32569		-8.988555	-67.644601	91.736640
32570		-8.883384	-67.638063	91.640544
32571		-8.743788	-67.637855	91.513722
32572		-8.583152	-67.631887	91.362891
32573		-8.394298	-67.632513	91.174565
32574		-8.181170	-67.633807	90.959548
32575		-7.938285	-67.634473	90.713426
32576		-7.660730	-67.638123	90.439422
32577		-7.344942	-67.647899	90.134352
32578		-6.981238	-67.657849	89.793234
32579		-6.553758	-67.671217	89.395967
32580		-6.049086	-67.684492	88.941837
32581		-5.492172	-67.697828	88.447512
32582		-4.887207	-67.708496	87.908893
32583		-4.222618	-67.716171	87.311072
32584		-3.498393	-67.720056	86.660724
32585		-2.707819	-67.718995	85.955214
32586		-1.874597	-67.712800	85.213418
32587		-1.003524	-67.707966	84.425839
32588		-0.099623	-67.698244	83.595791
32589		0.841759	-67.680731	82.726698
32590		1.782703	-67.654560	81.853027
32591		2.726841	-67.624738	80.961945
32592		3.688182	-67.586730	80.065527
32593		4.661098	-67.541157	79.176921
32594		5.627938	-67.488958	78.301246
32595		6.601921	-67.434632	77.407377
32596		7.578129	-67.373936	76.505169
32597		8.550714	-67.307714	75.593006
32598		9.533463	-67.236738	74.654158
32599		10.516972	-67.155261	73.698534
32600		11.509556	-67.064598	72.734080
32601		12.520675	-66.966671	71.753367
32602		13.559803	-66.855616	70.761587
32603		14.638949	-66.735584	69.756875
32604		15.754074	-66.606904	68.748162
32605		16.905519	-66.468896	67.725096
32606		18.101917	-66.320425	66.677294
32607		19.332601	-66.160355	65.600587
32608		20.561634	-65.990343	64.491969
32609		21.804241	-65.803602	63.333542
32610		23.034017	-65.595075	62.154587
32611		24.270901	-65.367089	60.947128
32612		25.482914	-65.125900	59.737372
32613		26.686038	-64.866683	58.516246
32614		27.881468	-64.590093	57.323482
32615		29.085713	-64.298085	56.163387
32616		30.294189	-63.996641	55.047545
32617		31.532741	-63.687543	53.949100
32618		32.787831	-63.371934	52.887172
32619		34.022931	-63.051607	51.853285
32620		35.179892	-62.724140	50.830026
32621		36.245873	-62.385667	49.832976
32622		37.165984	-62.036320	48.862890
32623		37.982666	-61.671188	47.910457
32624		38.727505	-61.298107	46.995124
32625		39.461988	-60.920846	46.117947
32626		40.201659	-60.547581	45.287174
32627		40.989299	-60.176157	44.488433
32628		41.827735	-59.804682	43.739328
32629		42.726298	-59.428244	43.012366
32630		43.678687	-59.039951	42.294916
32631		44.644126	-58.634812	41.567622
32632		45.574198	-58.204152	40.827266
32633		46.433594	-57.745811	40.071942
32634		47.188848	-57.264195	39.311456
32635		47.856864	-56.751680	38.547456
32636		48.455882	-56.215337	37.800223
32637		49.056074	-55.655559	37.066463
32638		49.687615	-55.079365	36.354310
32639		50.374902	-54.490671	35.640232
32640		51.116107	-53.884252	34.936299
32641		51.877203	-53.254754	34.234841
32642		52.617803	-52.605008	33.540428
32643		53.308006	-51.928696	32.830674
32644		53.915860	-51.224610	32.114096
32645		54.424302	-50.491712	31.382861
32646		54.824477	-49.738597	30.647736
32647		55.153825	-48.968671	29.929516
32648		55.448890	-48.198095	29.255817
32649		55.775313	-47.435218	28.634979
32650		56.178603	-46.684465	28.071095
32651		56.688005	-45.949268	27.544346
32652		57.298924	-45.229144	27.053474
32653		57.964460	-44.516383	26.586046
32654		58.623754	-43.808559	26.137192
32655		59.224536	-43.090187	25.688674
32656		59.698397	-42.362299	25.245711
32657		60.021087	-41.619204	24.814393
32658		60.239491	-40.864070	24.402534
32659		60.423030	-40.105817	24.017997
32660		60.630404	-39.357295	23.659064
32661		60.898900	-38.615637	23.320421
32662		61.232677	-37.883484	23.001431
32663		61.622988	-37.153142	22.698451
32664		62.031373	-36.425285	22.402253
32665		62.403062	-35.688208	22.113114
32666		62.681754	-34.944289	21.831680
32667		62.865873	-34.191726	21.547700
32668		62.955341	-33.436336	21.256677
32669		62.998660	-32.674569	20.967004
32670		63.050849	-31.922838	20.687410
32671		63.218980	-31.195782	20.429000
32672		63.413715	-30.507367	20.206745
32673		63.824803	-29.835168	20.001822
32674		64.347497	-29.167635	19.868609
32675		64.894540	-28.498355	19.755299
32676		65.405449	-27.828353	19.621813
32677		65.821173	-27.153317	19.495488
32678		66.093522	-26.467096	19.370203
32679		66.183219	-25.774174	19.246588
32680		66.125854	-25.084902	19.122361
32681		66.002045	-24.414119	19.004533
32682		65.876639	-23.765725	18.914742
32683		65.807047	-23.139969	18.851631
32684		65.814722	-22.545205	18.801431
32685		65.887988	-21.970364	18.762989
32686		65.991799	-21.414131	18.730597
32687		66.093409	-20.867699	18.697843
32688		66.184102	-20.329484	18.663122
32689		66.272924	-19.794923	18.629436
32690		66.353335	-19.264319	18.594846
32691		66.438853	-18.735883	18.558148
32692		66.526932	-18.210643	18.519457
32693		66.630408	-17.691320	18.478177
32694		66.741279	-17.174499	18.439127
32695		66.868292	-16.661714	18.398501
32696		66.999574	-16.152223	18.357879
32697		67.124940	-15.641950	18.310759
32698		67.231716	-15.129650	18.255753
32699		67.303890	-14.617847	18.188472
32700		67.336608	-14.104853	18.118565
32701		67.334739	-13.593876	18.046241
32702		67.310757	-13.089739	17.979718
32703		67.307489	-12.596220	17.912147
32704		67.352210	-12.110701	17.847196
32705		67.463890	-11.635415	17.782073
32706		67.630977	-11.170699	17.714418
32707		67.833003	-10.711435	17.639846
32708		68.039319	-10.256050	17.567758
32709		68.223184	-9.800853	17.486615
32710		68.368027	-9.342744	17.407397
32711		68.483223	-8.877964	17.326829
32712		68.579465	-8.408167	17.255445
32713		68.686659	-7.939277	17.184969
32714		68.809316	-7.477439	17.116676
32715		68.933376	-7.019394	17.050689
32716		69.043156	-6.560779	16.987362
32717		69.119704	-6.099195	16.928846
32718		69.150355	-5.636723	16.873575
32719		69.122828	-5.171546	16.820560
32720		69.033753	-4.705579	16.765559
32721		68.888109	-4.237397	16.708401
32722		68.700579	-3.771241	16.650356
32723		68.502158	-3.309618	16.587820
32724		68.318904	-2.853315	16.520334
32725		68.159458	-2.394715	16.458607
32726		68.051863	-1.937192	16.398948
32727		68.031379	-1.487615	16.330615
32728		68.099509	-1.048951	16.261944
32729		68.229275	-0.622032	16.190882
32730		68.387893	-0.204539	16.119594
32731		68.529487	0.201067	16.052262
32732		68.617842	0.599539	15.988015
32733		68.651688	0.968592	15.907600
32734		68.688509	1.326096	15.817613
32735		68.816253	1.671951	15.781516
32736		68.976733	1.979153	15.785051
32737		69.064377	2.072436	15.698269
32738		69.286741	2.079873	15.639318
32739		69.481964	2.095215	15.643575
32740		69.669961	2.092834	15.621341
32741		69.808191	2.052788	15.589507
32742		69.932284	1.991572	15.572938
32743		70.005534	1.930468	15.560967
32744		70.023390	1.881293	15.537649
32745		70.022575	1.849460	15.506805
32746		70.043574	1.850148	15.473458
32747		70.035228	1.879940	15.442194
32748		70.056657	1.897465	15.400160
32749		70.111182	1.914922	15.367740
32750		70.157052	1.934609	15.343221
32751		70.228769	1.943129	15.321740
32752		70.289008	1.942179	15.302046
32753		70.367473	1.934208	15.284687
32754		70.438223	1.924201	15.268395
32755		70.514488	1.908353	15.247919
32756		70.577939	1.899020	15.226910
32757		70.628897	1.896149	15.206782
32758		70.656670	1.900196	15.182888
32759		70.694058	1.912861	15.163537
32760		70.722140	1.929314	15.145829
32761		70.765208	1.944001	15.131777
32762		70.806197	1.958792	15.121876
32763		70.854213	1.969877	15.113989
32764		70.899065	1.979670	15.108270
32765		70.940285	1.984540	15.106195
32766		70.964849	1.986709	15.106042
32767		70.981913	1.988968	15.105354
32768		70.988560	1.990290	15.104504
32769		70.991481	1.992346	15.101831
32770		70.987309	1.996448	15.098841
32771		70.975234	2.001120	15.097199
32772		70.958541	2.003556	15.097633
32773		70.939622	2.002483	15.097247
32774		70.922285	2.002341	15.100663
32775		70.911555	1.997588	15.104161
32776		70.903254	1.990944	15.108449
32777		70.905082	1.982441	15.111719
32778		70.908817	1.974880	15.112346
32779		70.928380	1.971458	15.110242
32780		70.944493	1.969069	15.108222
32781		70.966512	1.970548	15.100590
32782		70.992280	1.974561	15.094626
32783		71.029772	1.976000	15.086189
32784		71.074531	1.976413	15.073126
32785		71.129549	1.978280	15.058853
32786		71.183592	1.980427	15.044610
32787		71.229221	1.982739	15.028432
32788		71.282191	1.982151	15.008360
32789		71.325555	1.983377	14.989731
32790		71.366701	1.983228	14.974663
32791		71.384166	1.982792	14.959844
32792		71.403615	1.981147	14.945408
32793		71.408555	1.979033	14.934038
32794		71.411728	1.974799	14.926636
32795		71.407504	1.968573	14.921740
32796		71.385185	1.962174	14.916288
32797		71.365814	1.952221	14.910489
32798		71.331424	1.943164	14.911174
32799		71.295457	1.934128	14.916434
32800		71.257309	1.924173	14.920700
32801		71.209487	1.909745	14.921226
32802		71.154480	1.895650	14.923149
32803		71.057948	1.875523	14.920048
32804		70.930930	1.856365	14.924202
32805		70.762824	1.815226	14.924131
32806		70.613989	1.751707	14.920382
32807		70.463316	1.660333	14.917847
32808		70.252513	1.550114	14.916053
32809		70.046492	1.424411	14.920411
32810		69.890848	1.267082	14.924524
32811		69.807482	1.077041	14.924638
32812		69.793599	0.879166	14.928223
32813		69.849335	0.662484	14.932921
32814		69.925412	0.425016	14.933035
32815		69.996511	0.171324	14.936955
32816		70.050539	-0.097200	14.951363
32817		70.091454	-0.382503	14.971848
32818		70.118649	-0.681082	14.998866
32819		70.136167	-0.985485	15.032124
32820		70.142780	-1.292445	15.069812
32821		70.143453	-1.598490	15.116773
32822		70.124719	-1.901757	15.169487
32823		70.088995	-2.205733	15.227126
32824		70.029680	-2.508429	15.290289
32825		69.958469	-2.808595	15.358848
32826		69.888440	-3.107973	15.433323
32827		69.837100	-3.409271	15.508615
32828		69.798160	-3.714097	15.584274
32829		69.767264	-4.026734	15.658860
32830		69.731956	-4.345099	15.731286
32831		69.678723	-4.671059	15.805943
32832		69.604248	-5.001260	15.884955
32833		69.517023	-5.340783	15.965080
32834		69.438943	-5.693979	16.046265
32835		69.389680	-6.067054	16.130198
32836		69.378006	-6.458836	16.222223
32837		69.404545	-6.866494	16.317966
32838		69.460751	-7.294240	16.416080
32839		69.525281	-7.741073	16.518012
32840		69.568431	-8.200568	16.621055
32841		69.572355	-8.674539	16.728272
32842		69.530837	-9.159648	16.842861
32843		69.465222	-9.655148	16.965416
32844		69.398330	-10.168546	17.096326
32845		69.344205	-10.695347	17.234856
32846		69.305943	-11.238174	17.379604
32847		69.290172	-11.796148	17.531581
32848		69.290961	-12.366123	17.687746
32849		69.290876	-12.950520	17.847136
32850		69.273971	-13.546249	18.007800
32851		69.235682	-14.151523	18.173592
32852		69.174257	-14.770475	18.343314
32853		69.103664	-15.398162	18.513611
32854		69.029178	-16.038016	18.687237
32855		68.936528	-16.689265	18.862440
32856		68.818122	-17.347227	19.043420
32857		68.690291	-18.014692	19.226015
32858		68.560116	-18.695192	19.414303
32859		68.440180	-19.386615	19.608227
32860		68.343834	-20.086602	19.800881
32861		68.272468	-20.792091	19.999293
32862		68.216660	-21.496221	20.198317
32863		68.148071	-22.200519	20.400813
32864		68.049416	-22.900783	20.607579
32865		67.917447	-23.598183	20.816362
32866		67.755929	-24.293937	21.028187
32867		67.574265	-24.988040	21.243424
32868		67.386824	-25.678350	21.465702
32869		67.200813	-26.363451	21.696618
32870		67.033154	-27.048366	21.936897
32871		66.867050	-27.732952	22.186126
32872		66.700413	-28.414910	22.442016
32873		66.514236	-29.094058	22.704757
32874		66.300596	-29.763646	22.971034
32875		66.059465	-30.427763	23.242025
32876		65.782859	-31.081119	23.517493
32877		65.491416	-31.730806	23.798223
32878		65.196991	-32.379447	24.084794
32879		64.898941	-33.027167	24.382678
32880		64.598356	-33.672934	24.694953
32881		64.315230	-34.318273	25.018285
32882		64.057943	-34.968349	25.352137
32883		63.792908	-35.616470	25.693670
32884		63.527638	-36.254418	26.035728
32885		63.244684	-36.888151	26.395662
32886		62.923912	-37.518185	26.761661
32887		62.564327	-38.143501	27.132270
32888		62.180655	-38.766676	27.508690
32889		61.774791	-39.393157	27.902539
32890		61.355401	-40.014954	28.310237
32891		60.934093	-40.642750	28.734065
32892		60.525730	-41.277097	29.174838
32893		60.106122	-41.916793	29.639560
32894		59.678229	-42.556434	30.116906
32895		59.226469	-43.199570	30.604971
32896		58.746716	-43.837602	31.102508
32897		58.256252	-44.474090	31.612039
32898		57.744862	-45.107928	32.137329
32899		57.199682	-45.740337	32.674525
32900		56.649090	-46.363141	33.224516
32901		56.097090	-46.982169	33.803053
32902		55.548580	-47.595423	34.406743
32903		54.999290	-48.207895	35.038227
32904		54.441755	-48.818383	35.697007
32905		53.858797	-49.424819	36.376529
32906		53.264765	-50.016835	37.059101
32907		52.657574	-50.601213	37.757440
32908		52.016466	-51.169779	38.477904
32909		51.317012	-51.731020	39.214899
32910		50.556614	-52.271521	39.964141
32911		49.754859	-52.796122	40.721601
32912		48.929716	-53.302466	41.480523
32913		48.100306	-53.797523	42.258067
32914		47.268215	-54.278217	43.056879
32915		46.452810	-54.746254	43.859773
32916		45.648552	-55.195166	44.684494
32917		44.859071	-55.630669	45.526385
32918		44.066507	-56.046870	46.372123
32919		43.255665	-56.441938	47.218578
32920		42.436353	-56.815196	48.056430
32921		41.581689	-57.174305	48.891773
32922		40.685694	-57.516129	49.713842
32923		39.768551	-57.840521	50.519548
32924		38.830499	-58.146644	51.324841
32925		37.886252	-58.441320	52.124630
32926		36.965271	-58.722769	52.914041
32927		36.079150	-58.994785	53.714718
32928		35.233303	-59.260164	54.528918
32929		34.427214	-59.521151	55.355116
32930		33.640631	-59.773937	56.182694
32931		32.861680	-60.020046	57.011337
32932		32.096734	-60.258294	57.829224
32933		31.310455	-60.493862	58.637527
32934		30.505295	-60.714183	59.433038
32935		29.681690	-60.926548	60.218622
32936		28.839898	-61.130349	60.987402
32937		27.998729	-61.328983	61.734756
32938		27.151736	-61.520582	62.483787
32939		26.289138	-61.702878	63.236343
32940		25.411330	-61.875662	63.990665
32941		24.530011	-62.042769	64.715595
32942		23.680943	-62.193520	65.420148
32943		22.858912	-62.338477	66.141004
32944		22.042601	-62.480244	66.853304
32945		21.247933	-62.621435	67.570379
32946		20.434942	-62.754150	68.298095
32947		19.642021	-62.884026	69.026860
32948		18.842233	-63.009477	69.763108
32949		18.055167	-63.136330	70.502389
32950		17.261043	-63.257314	71.264192
32951		16.433090	-63.379430	72.044522
32952		15.576009	-63.496287	72.841028
32953		14.689880	-63.608279	73.662174
32954		13.781156	-63.716726	74.498788
32955		12.859169	-63.819574	75.349174
32956		11.908530	-63.914725	76.213677
32957		10.905148	-64.003233	77.085225
32958		9.870305	-64.078319	77.932346
32959		8.805365	-64.141053	78.764839
32960		7.696066	-64.195788	79.583738
32961		6.553262	-64.247618	80.379830
32962		5.399698	-64.284190	81.158299
32963		4.226937	-64.309904	81.929593
32964		3.085077	-64.329507	82.664988
32965		2.007895	-64.349643	83.367601
32966		1.036147	-64.359955	84.055043
32967		0.148189	-64.367726	84.725463
32968		-0.669486	-64.376428	85.359647
32969		-1.438314	-64.384745	85.954851
32970		-2.159519	-64.389131	86.494712
32971		-2.822815	-64.392171	86.972303
32972		-3.439884	-64.392807	87.405390
32973		-4.015933	-64.396021	87.794324
32974		-4.532679	-64.396401	88.144842
32975		-4.980085	-64.398483	88.461392
32976		-5.345514	-64.400728	88.743182
32977		-5.624153	-64.406940	89.002905
32978		-5.831178	-64.414912	89.237131
32979		-5.989283	-64.426718	89.437953
32980		-6.097355	-64.440532	89.591411
32981		-6.197244	-64.457513	89.709507
32982		-6.302542	-64.474304	89.800206
32983		-6.409000	-64.490598	89.861489
32984		-6.509999	-64.506692	89.907053
32985		-6.593993	-64.524240	89.948679
32986		-6.669328	-64.543441	90.001030
32987		-6.729781	-64.565665	90.049762
32988		-6.778783	-64.584793	90.094943
32989		-6.803527	-64.609657	90.124640
32990		-6.807505	-64.636078	90.144362
32991		-6.795017	-64.666145	90.142611
32992		-6.779736	-64.698494	90.125463
32993		-6.760527	-64.731604	90.096676
32994		-6.755875	-64.760420	90.063261
32995		-6.743029	-64.786284	90.016456
32996		-6.732890	-64.805819	89.978422
32997		-6.730647	-64.825966	89.950812
32998		-6.721430	-64.843206	89.931018
32999		-6.707501	-64.855308	89.916217
33000		-6.689376	-64.865844	89.903756
33001		-6.649578	-64.873163	89.889406
33002		-6.605641	-64.876640	89.877369
33003		-6.571296	-64.881529	89.872500
33004		-6.548454	-64.879124	89.869250
33005		-6.538944	-64.876866	89.865810
33006		-6.556901	-64.865864	89.882743
33007		-6.589045	-64.853987	89.908171
33008		-6.619938	-64.838850	89.944813
33009		-6.652839	-64.826104	89.988909
33010		-6.677003	-64.809894	90.028610
33011		-6.717834	-64.797459	90.077020
33012		-6.754967	-64.786730	90.116087
33013		-6.795883	-64.777249	90.154049
33014		-6.834434	-64.764176	90.190027
33015		-6.872533	-64.755619	90.233496
33016		-6.906735	-64.749988	90.283414
33017		-6.940946	-64.746372	90.334775
33018		-6.984054	-64.745257	90.387367
33019		-7.034221	-64.746647	90.437533
33020		-7.092468	-64.753457	90.485667
33021		-7.149973	-64.762972	90.531965
33022		-7.204682	-64.777680	90.577819
33023		-7.250617	-64.794451	90.622718
33024		-7.282128	-64.810899	90.664721
33025		-7.301072	-64.828273	90.702916
33026		-7.311545	-64.845289	90.736545
33027		-7.308996	-64.859625	90.761580
33028		-7.304061	-64.870214	90.774539
33029		-7.291007	-64.880513	90.768975
33030		-7.265043	-64.886643	90.746848
33031		-7.230646	-64.891261	90.711711
33032		-7.192670	-64.891099	90.661827
33033		-7.150905	-64.890251	90.599857
33034		-7.100261	-64.886855	90.529178
33035		-7.031415	-64.884863	90.439654
33036		-6.935801	-64.879451	90.336818
33037		-6.805265	-64.876043	90.217966
33038		-6.642037	-64.872728	90.078078
33039		-6.447425	-64.872283	89.914678
33040		-6.221145	-64.870946	89.723682
33041		-5.974942	-64.873605	89.505990
33042		-5.717304	-64.877103	89.261030
33043		-5.445657	-64.882912	88.987065
33044		-5.161093	-64.885768	88.684408
33045		-4.866597	-64.888407	88.365259
33046		-4.555729	-64.888879	88.030323
33047		-4.218709	-64.888933	87.681062
33048		-3.845866	-64.885338	87.315863
33049		-3.415912	-64.879457	86.918076
33050		-2.938703	-64.870049	86.493781
33051		-2.399482	-64.858148	86.017164
33052		-1.805802	-64.840198	85.481677
33053		-1.154842	-64.820571	84.885275
33054		-0.453033	-64.792640	84.233199
33055		0.293784	-64.760308	83.524609
33056		1.077562	-64.717065	82.769993
33057		1.919051	-64.662579	81.959411
33058		2.818569	-64.596875	81.108808
33059		3.815239	-64.517211	80.197352
33060		4.884308	-64.423408	79.249882
33061		6.044088	-64.320013	78.248344
33062		7.272537	-64.207743	77.207715
33063		8.572505	-64.085040	76.117747
33064		9.906503	-63.949415	74.993974
33065		11.260076	-63.802217	73.827594
33066		12.617962	-63.641573	72.635293
33067		13.979177	-63.469315	71.418093
33068		15.335200	-63.284441	70.190933
33069		16.711891	-63.084235	68.946201
33070		18.108785	-62.872686	67.711041
33071		19.544254	-62.650675	66.476214
33072		21.008274	-62.419429	65.254581
33073		22.517422	-62.173088	64.032071
33074		24.049447	-61.913076	62.822851
33075		25.594800	-61.636691	61.611430
33076		27.117615	-61.348612	60.398296
33077		28.611921	-61.040119	59.187317
33078		30.052021	-60.714488	57.992477
33079		31.437867	-60.371068	56.811116
33080		32.778210	-60.010610	55.651137
33081		34.096766	-59.633768	54.513545
33082		35.403841	-59.242203	53.411064
33083		36.717625	-58.830776	52.338138
33084		38.034572	-58.405057	51.286222
33085		39.355009	-57.957103	50.247987
33086		40.664059	-57.488276	49.220725
33087		41.933758	-56.992519	48.206293
33088		43.137737	-56.470410	47.211856
33089		44.272674	-55.919594	46.236445
33090		45.354190	-55.357325	45.268223
33091		46.387101	-54.769887	44.329050
33092		47.351741	-54.162137	43.449432
33093		48.280944	-53.540327	42.607500
33094		49.186299	-52.914624	41.798691
33095		50.073131	-52.278636	41.003525
33096		50.929631	-51.633736	40.230584
33097		51.758156	-50.978607	39.472616
33098		52.532891	-50.317853	38.739900
33099		53.226839	-49.651102	38.025301
33100		53.836531	-48.983864	37.337530
33101		54.399160	-48.312307	36.692546
33102		54.941581	-47.642666	36.097130
33103		55.497393	-46.984743	35.532667
33104		56.068308	-46.343597	34.999901
33105		56.653168	-45.717811	34.487022
33106		57.214040	-45.106185	34.001527
33107		57.734285	-44.495646	33.528806
33108		58.209626	-43.891052	33.064440
33109		58.633337	-43.288568	32.617926
33110		58.994104	-42.686791	32.194326
33111		59.330146	-42.089883	31.792065
33112		59.671387	-41.503593	31.418997
33113		60.046166	-40.930564	31.071021
33114		60.469289	-40.371001	30.745464
33115		60.947605	-39.818064	30.428113
33116		61.438675	-39.269737	30.120808
33117		61.908060	-38.723867	29.808888
33118		62.291852	-38.167597	29.497012
33119		62.565564	-37.599277	29.184200
33120		62.733379	-37.020994	28.873674
33121		62.855923	-36.435435	28.565997
33122		62.974498	-35.848580	28.280216
33123		63.127860	-35.266679	28.018619
33124		63.357580	-34.690740	27.762735
33125		63.677923	-34.123471	27.516802
33126		64.061712	-33.557104	27.281506
33127		64.445624	-32.985946	27.037875
33128		64.752959	-32.403806	26.790753
33129		64.914374	-31.801267	26.534048
33130		64.922857	-31.178443	26.275471
33131		64.841204	-30.535764	26.025612
33132		64.728664	-29.890398	25.791330
33133		64.661751	-29.245121	25.569008
33134		64.686736	-28.612690	25.359841
33135		64.806269	-27.988137	25.158657
33136		65.002429	-27.367290	24.964835
33137		65.233364	-26.748115	24.769859
33138		65.464801	-26.123997	24.566628
33139		65.656964	-25.489103	24.349498
33140		65.789400	-24.846829	24.129018
33141		65.865672	-24.203348	23.911523
33142		65.900710	-23.560411	23.695733
33143		65.936235	-22.920207	23.486315
33144		66.012229	-22.291689	23.287964
33145		66.150679	-21.684226	23.100404
33146		66.339256	-21.093738	22.926146
33147		66.585549	-20.514278	22.759450
33148		66.880367	-19.938733	22.594764
33149		67.200765	-19.363466	22.429670
33150		67.511209	-18.794097	22.267635
33151		67.768266	-18.227636	22.106495
33152		67.948963	-17.662067	21.942512
33153		68.077388	-17.097764	21.779418
33154		68.175719	-16.534802	21.620842
33155		68.266874	-15.979403	21.462110
33156		68.345580	-15.433861	21.307012
33157		68.423465	-14.898524	21.152260
33158		68.494925	-14.371328	21.002317
33159		68.566992	-13.847422	20.852685
33160		68.630027	-13.331359	20.711667
33161		68.673728	-12.823167	20.580383
33162		68.694405	-12.322477	20.459261
33163		68.691409	-11.825696	20.350633
33164		68.664056	-11.331661	20.252804
33165		68.625251	-10.837867	20.160985
33166		68.579709	-10.343843	20.079330
33167		68.548958	-9.844773	20.009786
33168		68.549286	-9.353584	19.955276
33169		68.570399	-8.879932	19.909835
33170		68.578577	-8.425684	19.872118
33171		68.550718	-7.992180	19.836501
33172		68.475132	-7.566973	19.794419
33173		68.382397	-7.149292	19.743986
33174		68.302452	-6.742566	19.690904
33175		68.254361	-6.350394	19.633407
33176		68.249560	-5.973172	19.578111
33177		68.311528	-5.610472	19.527510
33178		68.444723	-5.255925	19.483086
33179		68.640197	-4.911677	19.447320
33180		68.873190	-4.576829	19.415461
33181		69.111045	-4.254496	19.382125
33182		69.316573	-3.936558	19.347168
33183		69.461760	-3.621338	19.310523
33184		69.552463	-3.306772	19.273518
33185		69.623625	-2.996637	19.244808
33186		69.701557	-2.684553	19.217538
33187		69.818491	-2.375061	19.191939
33188		69.983235	-2.068102	19.160760
33189		70.189780	-1.766187	19.126990
33190		70.415789	-1.462773	19.090125
33191		70.639950	-1.150325	19.050525
33192		70.851310	-0.828675	19.008477
33193		71.043600	-0.497618	18.963323
33194		71.202376	-0.153068	18.919178
33195		71.317639	0.207027	18.871336
33196		71.380513	0.583123	18.814667
33197		71.384689	0.976760	18.751726
33198		71.312892	1.356010	18.662543
33199		71.380050	1.723881	18.543566
33200		71.860971	1.988485	18.552121
33201		72.157073	2.031076	18.610316
33202		71.946953	1.915909	18.577314
33203		71.883923	1.822873	18.578519
33204		71.583546	1.747018	18.617440
33205		71.397061	1.694752	18.627506
33206		71.264451	1.703151	18.623256
33207		71.170148	1.741615	18.583456
33208		71.127822	1.805064	18.537183
33209		71.035683	1.932343	18.507019
33210		71.000724	2.055826	18.480880
33211		71.028309	2.077020	18.457413
33212		71.052566	2.053818	18.435818
33213		70.985942	2.043899	18.448911
33214		70.909262	2.041213	18.450321
33215		70.820854	2.049734	18.454239
33216		70.727386	2.066804	18.451580
33217		70.631485	2.088441	18.440600
33218		70.573459	2.105338	18.433104
33219		70.550137	2.109186	18.432795
33220		70.531060	2.103433	18.439010
33221		70.509504	2.091945	18.452747
33222		70.492340	2.082799	18.458714
33223		70.477223	2.079128	18.458384
33224		70.458302	2.077803	18.453269
33225		70.436879	2.080360	18.449730
33226		70.420072	2.082203	18.447173
33227		70.408011	2.082112	18.446304
33228		70.398660	2.082824	18.447410
33229		70.383174	2.086934	18.448168
33230		70.361993	2.090907	18.448845
33231		70.336960	2.092283	18.450069
33232		70.310245	2.093524	18.451296
33233		70.283302	2.092900	18.452758
33234		70.251251	2.089062	18.456597
33235		70.220112	2.086814	18.459629
33236		70.190541	2.084010	18.462701
33237		70.174667	2.081567	18.463797
33238		70.159385	2.080491	18.462821
33239		70.154393	2.080227	18.462983
33240		70.158763	2.081750	18.461303
33241		70.169987	2.083335	18.457921
33242		70.186368	2.085081	18.454273
33243		70.200072	2.087693	18.450127
33244		70.218341	2.088132	18.443264
33245		70.234151	2.090400	18.440934
33246		70.246901	2.091411	18.437596
33247		70.255449	2.092450	18.433656
33248		70.258090	2.093577	18.430558
33249		70.255382	2.092939	18.429389
33250		70.250593	2.094511	18.429317
33251		70.242159	2.097023	18.427380
33252		70.230893	2.097342	18.430216
33253		70.216368	2.101410	18.432320
33254		70.203954	2.102022	18.434704
33255		70.196871	2.103540	18.436763
33256		70.196096	2.106747	18.438263
33257		70.206954	2.108614	18.438944
33258		70.217248	2.113516	18.440827
33259		70.230970	2.119434	18.439648
33260		70.244507	2.125776	18.440821
33261		70.254983	2.130244	18.440353
33262		70.255349	2.135007	18.441559
33263		70.251707	2.137503	18.444221
33264		70.235107	2.139994	18.448916
33265		70.207239	2.138555	18.457919
33266		70.172732	2.138388	18.469191
33267		70.143333	2.134235	18.478834
33268		70.111293	2.129697	18.489353
33269		70.079414	2.126409	18.499002
33270		70.045656	2.125032	18.508828
33271		70.005379	2.126238	18.516381
33272		69.952349	2.129064	18.524276
33273		69.887644	2.132699	18.532316
33274		69.819180	2.137902	18.542233
33275		69.734442	2.143255	18.551208
33276		69.641949	2.144365	18.566438
33277		69.536238	2.145270	18.583891
33278		69.418384	2.142903	18.604843
33279		69.294142	2.135446	18.625563
33280		69.169400	2.123774	18.648224
33281		69.046666	2.107941	18.672763
33282		68.927645	2.089296	18.699931
33283		68.803186	2.070953	18.728197
33284		68.675196	2.048202	18.761925
33285		68.552198	2.013893	18.799402
33286		68.435744	1.973906	18.834073
33287		68.317349	1.916882	18.870645
33288		68.208260	1.838057	18.906652
33289		68.113929	1.733750	18.942347
33290		68.024315	1.612533	18.974122
33291		67.939724	1.470524	19.008298
33292		67.847180	1.309944	19.050642
33293		67.769501	1.125292	19.093189
33294		67.722234	0.908625	19.141274
33295		67.703617	0.660790	19.188715
33296		67.693100	0.385737	19.233936
33297		67.668275	0.088350	19.280581
33298		67.613221	-0.228344	19.327033
33299		67.516010	-0.558380	19.374454
33300		67.360130	-0.897021	19.418528
33301		67.161959	-1.243831	19.468579
33302		66.934024	-1.605557	19.523290
33303		66.687781	-1.981268	19.583714
33304		66.442387	-2.372135	19.653199
33305		66.218522	-2.776303	19.733503
33306		66.022171	-3.191543	19.819388
33307		65.857160	-3.614059	19.910279
33308		65.718241	-4.039498	20.004599
33309		65.604515	-4.471976	20.101697
33310		65.491902	-4.907055	20.200808
33311		65.388453	-5.345826	20.304674
33312		65.290574	-5.790135	20.410595
33313		65.214812	-6.244899	20.514908
33314		65.167954	-6.713720	20.620099
33315		65.139857	-7.196758	20.725976
33316		65.132688	-7.690670	20.834326
33317		65.130457	-8.195966	20.937324
33318		65.110401	-8.709005	21.038134
33319		65.064938	-9.227665	21.139172
33320		64.988654	-9.753129	21.243299
33321		64.879984	-10.283698	21.345663
33322		64.750682	-10.820390	21.445937
33323		64.613207	-11.363377	21.538034
33324		64.475100	-11.917199	21.622972
33325		64.336775	-12.478129	21.709385
33326		64.214754	-13.046260	21.801366
33327		64.141037	-13.625765	21.900308
33328		64.121413	-14.214568	22.002142
33329		64.162881	-14.817351	22.099808
33330		64.245078	-15.427670	22.191942
33331		64.317682	-16.042225	22.283487
33332		64.353577	-16.660602	22.372914
33333		64.344738	-17.275703	22.460264
33334		64.292955	-17.889542	22.554414
33335		64.223612	-18.505821	22.652703
33336		64.148612	-19.125043	22.753794
33337		64.079947	-19.746907	22.862342
33338		64.025135	-20.375040	22.977202
33339		63.974692	-21.006205	23.094566
33340		63.921979	-21.634482	23.216206
33341		63.866468	-22.266549	23.342284
33342		63.799433	-22.895935	23.469799
33343		63.716596	-23.525985	23.603307
33344		63.620874	-24.155507	23.739567
33345		63.510564	-24.786423	23.885186
33346		63.389041	-25.416768	24.037773
33347		63.268358	-26.047869	24.195049
33348		63.153282	-26.682336	24.361969
33349		63.039603	-27.319831	24.534486
33350		62.916127	-27.958839	24.714210
33351		62.764759	-28.598255	24.899175
33352		62.592335	-29.234784	25.087803
33353		62.401779	-29.877578	25.280387
33354		62.192121	-30.522418	25.477031
33355		61.982527	-31.171363	25.678814
33356		61.758566	-31.822217	25.887621
33357		61.527346	-32.474027	26.103212
33358		61.277661	-33.125475	26.328126
33359		61.019660	-33.779713	26.561223
33360		60.764077	-34.433226	26.802401
33361		60.514960	-35.089802	27.051677
33362		60.272250	-35.746407	27.309213
33363		60.019232	-36.404359	27.565070
33364		59.745530	-37.057925	27.822989
33365		59.439662	-37.710990	28.086895
33366		59.119718	-38.359818	28.353550
33367		58.782214	-39.009138	28.630388
33368		58.437338	-39.651830	28.912977
33369		58.094918	-40.293871	29.206688
33370		57.744148	-40.928773	29.512834
33371		57.374557	-41.558667	29.827145
33372		56.986125	-42.184864	30.157378
33373		56.580439	-42.809985	30.499649
33374		56.169231	-43.427979	30.853063
33375		55.775894	-44.046023	31.217531
33376		55.393638	-44.660215	31.594969
33377		55.001655	-45.272695	31.978724
33378		54.601286	-45.879311	32.365838
33379		54.177099	-46.475921	32.767749
33380		53.736564	-47.063836	33.179147
33381		53.288365	-47.638076	33.600268
33382		52.837529	-48.203810	34.030221
33383		52.388951	-48.759013	34.471048
33384		51.925561	-49.304234	34.928117
33385		51.436148	-49.836605	35.397175
33386		50.944252	-50.353545	35.883222
33387		50.454138	-50.864018	36.392710
33388		49.963583	-51.363664	36.919909
33389		49.462008	-51.860131	37.461773
33390		48.920426	-52.340352	38.021788
33391		48.331998	-52.809994	38.585744
33392		47.695116	-53.263725	39.148916
33393		47.023320	-53.707588	39.711441
33394		46.315813	-54.141255	40.282376
33395		45.574504	-54.565914	40.854968
33396		44.826500	-54.979122	41.430161
33397		44.094802	-55.387007	42.030914
33398		43.401752	-55.790666	42.652611
33399		42.732262	-56.195596	43.298747
33400		42.083132	-56.596906	43.964177
33401		41.439104	-56.997648	44.639364
33402		40.769782	-57.388897	45.327066
33403		40.068788	-57.770042	46.014166
33404		39.325016	-58.139703	46.704033
33405		38.538150	-58.502761	47.383883
33406		37.716436	-58.852756	48.053783
33407		36.873688	-59.188160	48.719176
33408		36.006085	-59.510066	49.380770
33409		35.126789	-59.821357	50.046127
33410		34.233831	-60.119459	50.723349
33411		33.318653	-60.406931	51.398653
33412		32.406450	-60.686576	52.067478
33413		31.485722	-60.959361	52.755444
33414		30.537203	-61.229552	53.451054
33415		29.565997	-61.495908	54.142679
33416		28.571271	-61.753414	54.837693
33417		27.561317	-62.002295	55.538579
33418		26.558125	-62.253042	56.251639
33419		25.557413	-62.506597	56.992815
33420		24.518431	-62.758904	57.761120
33421		23.452885	-63.012087	58.545101
33422		22.360922	-63.257889	59.348847
33423		21.270752	-63.502376	60.163541
33424		20.194594	-63.743642	60.997544
33425		19.130474	-63.984640	61.844101
33426		18.081018	-64.219963	62.683867
33427		17.030452	-64.451506	63.531037
33428		15.965054	-64.672818	64.381945
33429		14.891329	-64.885263	65.233525
33430		13.809079	-65.093169	66.097828
33431		12.722273	-65.294538	66.990970
33432		11.622513	-65.483751	67.924296
33433		10.539044	-65.664855	68.869457
33434		9.470933	-65.836598	69.850281
33435		8.419467	-65.996906	70.844785
33436		7.398800	-66.148354	71.847035
33437		6.371336	-66.288207	72.869694
33438		5.349314	-66.417964	73.881722
33439		4.332071	-66.537324	74.886954
33440		3.306999	-66.645128	75.884127
33441		2.274707	-66.744230	76.869946
33442		1.230964	-66.831347	77.856128
33443		0.193533	-66.909778	78.819255
33444		-0.810681	-66.978898	79.752433
33445		-1.775163	-67.042026	80.688511
33446		-2.692494	-67.092910	81.615938
33447		-3.550998	-67.135009	82.524232
33448		-4.350491	-67.163000	83.413622
33449		-5.116795	-67.189759	84.269598
33450		-5.846496	-67.210860	85.080011
33451		-6.556585	-67.222016	85.851139
33452		-7.274332	-67.231497	86.591499
33453		-7.986516	-67.236184	87.294445
33454		-8.697934	-67.235699	87.969717
33455		-9.415419	-67.233958	88.621734
33456		-10.111355	-67.229308	89.246412
33457		-10.777015	-67.223972	89.849839
33458		-11.406358	-67.218944	90.432290
33459		-11.985217	-67.211859	90.991030
33460		-12.517032	-67.203473	91.531028
33461		-13.005192	-67.195213	92.034194
33462		-13.467025	-67.190152	92.510530
33463		-13.894986	-67.181834	92.949943
33464		-14.311693	-67.176767	93.356666
33465		-14.694695	-67.171504	93.716620
33466		-15.051215	-67.164703	94.040796
33467		-15.377526	-67.158934	94.322443
33468		-15.678330	-67.156257	94.571142
33469		-15.952639	-67.155704	94.781754
33470		-16.191203	-67.154727	94.958680
33471		-16.381345	-67.158301	95.101292
33472		-16.507107	-67.165244	95.207127
33473		-16.564909	-67.175321	95.278890
33474		-16.575941	-67.184866	95.315821
33475		-16.553097	-67.199113	95.316826
33476		-16.525427	-67.209450	95.295311
33477		-16.502256	-67.224572	95.254233
33478		-16.477975	-67.232203	95.201710
33479		-16.435390	-67.236555	95.140404
33480		-16.393230	-67.240048	95.088853
33481		-16.348559	-67.245564	95.043489
33482		-16.322581	-67.249829	95.017635
33483		-16.297030	-67.250079	94.996901
33484		-16.277510	-67.253401	94.985292
33485		-16.261591	-67.256732	94.983007
33486		-16.245659	-67.253389	94.984808
33487		-16.229908	-67.246913	94.982464
33488		-16.228647	-67.234637	94.991247
33489		-16.239906	-67.222762	95.004434
33490		-16.267106	-67.208834	95.024406
33491		-16.308661	-67.193686	95.049218
33492		-16.354699	-67.180810	95.073641
33493		-16.405524	-67.171935	95.099101
33494		-16.456426	-67.162621	95.123808
33495		-16.498022	-67.154217	95.144858
33496		-16.535946	-67.149139	95.165340
33497		-16.558010	-67.146119	95.179125
33498		-16.572352	-67.145112	95.192949
33499		-16.564838	-67.145696	95.194176
33500		-16.554858	-67.142665	95.190549
33501		-16.536618	-67.143458	95.179052
33502		-16.525268	-67.142111	95.168972
33503		-16.522277	-67.141567	95.160707
33504		-16.521193	-67.138966	95.152125
33505		-16.524041	-67.136957	95.147856
33506		-16.526766	-67.133881	95.147984
33507		-16.527117	-67.128351	95.149811
33508		-16.540635	-67.125862	95.168684
33509		-16.557616	-67.121947	95.196130
33510		-16.573881	-67.112460	95.229232
33511		-16.592769	-67.104073	95.264458
33512		-16.624855	-67.094899	95.306784
33513		-16.645540	-67.087210	95.333994
33514		-16.673979	-67.076619	95.359550
33515		-16.685576	-67.066745	95.368323
33516		-16.693516	-67.051567	95.372106
33517		-16.679978	-67.041087	95.361214
33518		-16.643753	-67.027676	95.334553
33519		-16.590086	-67.017744	95.289723
33520		-16.514331	-67.009729	95.217713
33521		-16.414765	-67.003250	95.120651
33522		-16.291038	-66.994537	95.001775
33523		-16.143160	-66.991468	94.857317
33524		-15.974459	-66.987566	94.692520
33525		-15.786589	-66.982965	94.502300
33526		-15.586690	-66.980534	94.300851
33527		-15.368121	-66.978954	94.079892
33528		-15.144580	-66.977227	93.848963
33529		-14.909103	-66.976542	93.602352
33530		-14.671706	-66.972369	93.358975
33531		-14.436737	-66.970672	93.122945
33532		-14.186456	-66.969332	92.880692
33533		-13.932377	-66.966779	92.648592
33534		-13.690985	-66.965705	92.423895
33535		-13.460523	-66.964231	92.198857
33536		-13.244669	-66.958228	91.983603
33537		-13.046735	-66.949481	91.785882
33538		-12.863536	-66.936081	91.608251
33539		-12.710565	-66.924129	91.455051
33540		-12.563375	-66.907439	91.316673
33541		-12.431576	-66.888052	91.195775
33542		-12.305935	-66.867930	91.080611
33543		-12.196901	-66.846884	90.976611
33544		-12.094501	-66.824042	90.876548
33545		-11.996670	-66.798706	90.777434
33546		-11.910332	-66.773018	90.684494
33547		-11.823062	-66.749878	90.589536
33548		-11.724898	-66.725868	90.488935
33549		-11.626191	-66.705053	90.396351
33550		-11.522082	-66.682248	90.298103
33551		-11.418936	-66.664339	90.195350
33552		-11.305395	-66.646894	90.081576
33553		-11.172975	-66.631622	89.951479
33554		-11.038594	-66.619009	89.816878
33555		-10.877198	-66.608707	89.649636
33556		-10.696603	-66.603899	89.453664
33557		-10.480070	-66.600567	89.214940
33558		-10.231527	-66.600656	88.934424
33559		-9.920530	-66.602989	88.587150
33560		-9.536034	-66.603707	88.175598
33561		-9.072979	-66.607295	87.700703
33562		-8.529035	-66.609084	87.151761
33563		-7.899120	-66.605773	86.521758
33564		-7.220921	-66.598043	85.829318
33565		-6.480053	-66.589850	85.061553
33566		-5.664321	-66.572989	84.218435
33567		-4.771573	-66.551215	83.304294
33568		-3.812622	-66.524073	82.325312
33569		-2.771716	-66.486348	81.270803
33570		-1.678152	-66.435002	80.165592
33571		-0.553281	-66.381569	79.010040
33572		0.631048	-66.313970	77.804874
33573		1.849244	-66.233448	76.589101
33574		3.075188	-66.141395	75.372520
33575		4.304716	-66.041159	74.156229
33576		5.531093	-65.926444	72.950132
33577		6.769225	-65.798138	71.743870
33578		8.006972	-65.662836	70.552936
33579		9.275678	-65.517458	69.370702
33580		10.526142	-65.364733	68.225169
33581		11.746466	-65.203540	67.106092
33582		12.918381	-65.032032	66.027103
33583		14.014481	-64.854956	64.975363
33584		15.036941	-64.672063	63.950964
33585		16.013357	-64.482313	62.957677
33586		16.939315	-64.291132	62.001023
33587		17.830598	-64.098036	61.072083
33588		18.677029	-63.898222	60.178889
33589		19.471676	-63.696917	59.323783
33590		20.225446	-63.490453	58.491539
33591		20.962358	-63.279059	57.675180
33592		21.689753	-63.064615	56.882794
33593		22.426557	-62.847279	56.094679
33594		23.151263	-62.623293	55.323935
33595		23.845117	-62.393095	54.564364
33596		24.506927	-62.151158	53.815940
33597		25.161344	-61.900030	53.063454
33598		25.804443	-61.642650	52.322688
33599		26.452928	-61.378975	51.586351
33600		27.111581	-61.107039	50.853135
33601		27.800129	-60.823563	50.115611
33602		28.506304	-60.531299	49.372494
33603		29.245771	-60.220627	48.612433
33604		30.015582	-59.899875	47.851503
33605		30.795693	-59.569220	47.093914
33606		31.567008	-59.233204	46.333216
33607		32.350770	-58.879158	45.575365
33608		33.151161	-58.516079	44.826664
33609		33.984313	-58.146365	44.079082
33610		34.842971	-57.768864	43.335365
33611		35.725255	-57.380042	42.594878
33612		36.588571	-56.981144	41.861391
33613		37.438904	-56.568443	41.109044
33614		38.248430	-56.146609	40.380272
33615		38.986044	-55.717348	39.669094
33616		39.620636	-55.280137	38.977691
33617		40.190122	-54.835792	38.305128
33618		40.696027	-54.390214	37.663354
33619		41.182121	-53.946010	37.040168
33620		41.664125	-53.502271	36.446369
33621		42.168139	-53.064956	35.862697
33622		42.683224	-52.624107	35.296054
33623		43.219680	-52.174609	34.734773
33624		43.777932	-51.718126	34.183628
33625		44.350125	-51.256927	33.644223
33626		44.905612	-50.789944	33.124751
33627		45.456484	-50.310639	32.624508
33628		46.011606	-49.831487	32.140469
33629		46.560271	-49.352377	31.679895
33630		47.092763	-48.874402	31.228374
33631		47.591670	-48.391440	30.784571
33632		48.047958	-47.897716	30.345898
33633		48.478196	-47.392333	29.904670
33634		48.887990	-46.878115	29.462780
33635		49.286393	-46.353088	29.026408
33636		49.682255	-45.819559	28.596958
33637		50.091876	-45.271152	28.179375
33638		50.521319	-44.709750	27.781227
33639		50.996011	-44.137277	27.387666
33640		51.515114	-43.555319	27.001686
33641		52.078253	-42.962178	26.616556
33642		52.653783	-42.363303	26.240556
33643		53.227612	-41.755113	25.860868
33644		53.757542	-41.137712	25.483948
33645		54.235422	-40.507887	25.112193
33646		54.661777	-39.876985	24.752190
33647		55.031028	-39.252088	24.398296
33648		55.324790	-38.632534	24.053078
33649		55.553736	-38.015351	23.718810
33650		55.750703	-37.413425	23.402798
33651		55.941578	-36.829251	23.100179
33652		56.132157	-36.264512	22.813635
33653		56.383346	-35.724613	22.538415
33654		56.607565	-35.210459	22.297578
33655		56.911595	-34.713542	22.032007
33656		57.264766	-34.208394	21.825394
33657		57.596653	-33.683677	21.648487
33658		57.911414	-33.157578	21.457626
33659		58.189302	-32.632250	21.267758
33660		58.412557	-32.095083	21.099487
33661		58.606696	-31.547650	20.946844
33662		58.771763	-30.996155	20.817145
33663		58.940641	-30.446122	20.695944
33664		59.139293	-29.901385	20.581682
33665		59.376103	-29.353780	20.476768
33666		59.641553	-28.795325	20.379092
33667		59.927307	-28.232976	20.279842
33668		60.218666	-27.664170	20.179679
33669		60.514845	-27.093091	20.070357
33670		60.797935	-26.520261	19.963020
33671		61.030047	-25.942048	19.848591
33672		61.211271	-25.351004	19.735669
33673		61.382999	-24.750427	19.635012
33674		61.581642	-24.150383	19.539985
33675		61.833305	-23.551999	19.453136
33676		62.136963	-22.959350	19.375537
33677		62.492716	-22.365599	19.295479
33678		62.879459	-21.766731	19.216585
33679		63.298828	-21.158591	19.125941
33680		63.726980	-20.547052	19.026806
33681		64.140833	-19.929116	18.916175
33682		64.528877	-19.300881	18.800335
33683		64.897085	-18.670853	18.681855
33684		65.252731	-18.044205	18.563651
33685		65.597214	-17.422693	18.448589
33686		65.925610	-16.810289	18.343059
33687		66.242860	-16.203709	18.243877
33688		66.554510	-15.607287	18.146610
33689		66.863569	-15.020478	18.049073
33690		67.152649	-14.443128	17.949393
33691		67.414087	-13.876594	17.842948
33692		67.618205	-13.308914	17.737824
33693		67.768400	-12.746541	17.632716
33694		67.896332	-12.191657	17.533793
33695		68.043716	-11.646744	17.448588
33696		68.228964	-11.117362	17.374104
33697		68.452394	-10.601440	17.304489
33698		68.687415	-10.095742	17.243523
33699		68.892663	-9.594989	17.189650
33700		69.035719	-9.100439	17.136008
33701		69.095570	-8.606727	17.076530
33702		69.070032	-8.115908	17.019200
33703		68.973425	-7.628345	16.970698
33704		68.832440	-7.146631	16.930352
33705		68.691245	-6.674173	16.897211
33706		68.586007	-6.214833	16.873681
33707		68.535182	-5.773404	16.862472
33708		68.562844	-5.346619	16.859017
33709		68.658301	-4.934139	16.858282
33710		68.793376	-4.530385	16.852603
33711		68.927242	-4.132416	16.840820
33712		69.019474	-3.734823	16.816838
33713		69.056012	-3.337620	16.777870
33714		69.044790	-2.938755	16.733303
33715		69.016373	-2.542034	16.688067
33716		69.014046	-2.154347	16.641111
33717		69.086438	-1.778077	16.590864
33718		69.254512	-1.414780	16.540038
33719		69.505527	-1.060980	16.485643
33720		69.803119	-0.711984	16.423664
33721		70.100425	-0.366172	16.349295
33722		70.346618	-0.017743	16.264243
33723		70.503731	0.338141	16.165262
33724		70.556008	0.696373	16.054477
33725		70.532693	1.048744	15.923240
33726		70.590309	1.418299	15.782125
33727		70.892555	1.738296	15.686343
33728		71.334709	1.936892	15.661466
33729		71.621406	1.963189	15.540745
33730		71.946256	1.968272	15.534335
33731		72.272425	1.963292	15.520411
33732		72.528456	1.939120	15.482555
33733		72.793066	1.877849	15.452686
33734		72.982038	1.805576	15.424340
33735		73.092018	1.740147	15.393664
33736		73.145739	1.699047	15.361802
33737		73.157863	1.686191	15.339376
33738		73.144506	1.692988	15.318926
33739		73.134393	1.707134	15.303786
33740		73.123981	1.728027	15.297191
33741		73.130274	1.750340	15.297659
33742		73.143200	1.766028	15.303931
33743		73.140644	1.775718	15.316177
33744		73.122216	1.779470	15.331808
33745		73.093842	1.777451	15.345281
33746		73.076170	1.771926	15.354901
33747		73.058394	1.766620	15.360828
33748		73.044472	1.768229	15.360313
33749		73.031696	1.776274	15.359509
33750		73.021951	1.791820	15.358241
33751		73.007109	1.810526	15.357175
33752		72.984660	1.831905	15.358661
33753		72.951636	1.851994	15.359347
33754		72.910905	1.869853	15.361140
33755		72.863755	1.887335	15.367271
33756		72.815111	1.897750	15.369515
33757		72.770003	1.906478	15.375170
33758		72.726049	1.908444	15.379751
33759		72.682956	1.910310	15.384241
33760		72.638973	1.914179	15.388085
33761		72.598329	1.919038	15.391068
33762		72.555805	1.927300	15.395810
33763		72.526044	1.932399	15.400763
33764		72.498070	1.938182	15.406345
33765		72.478611	1.945019	15.409328
33766		72.454860	1.948483	15.417003
33767		72.436206	1.951976	15.421475
33768		72.420674	1.955629	15.426095
33769		72.408114	1.961010	15.429473
33770		72.398500	1.965152	15.432407
33771		72.393375	1.971629	15.436455
33772		72.383738	1.977662	15.438664
33773		72.370178	1.986621	15.441464
33774		72.353429	1.995965	15.445708
33775		72.325163	2.003594	15.452236
33776		72.294354	2.007135	15.458863
33777		72.255081	2.009102	15.466464
33778		72.219969	2.005745	15.475517
33779		72.189740	2.002394	15.484550
33780		72.159444	1.996036	15.492927
33781		72.125025	1.990704	15.505785
33782		72.076972	1.982921	15.519180
33783		72.034421	1.970415	15.533476
33784		72.003156	1.950044	15.540485
33785		71.979848	1.927641	15.549158
33786		71.938456	1.907510	15.554210
33787		71.875242	1.884520	15.558989
33788		71.791531	1.856038	15.572081
33789		71.703698	1.813650	15.581438
33790		71.626199	1.762428	15.591164
33791		71.542622	1.700658	15.597471
33792		71.441954	1.625919	15.595614
33793		71.305575	1.546359	15.591318
33794		71.119125	1.458717	15.591061
33795		70.900129	1.356739	15.593030
33796		70.671971	1.238115	15.605838
33797		70.479051	1.107636	15.615089
33798		70.353552	0.959926	15.628803
33799		70.288752	0.788832	15.643290
33800		70.268456	0.598199	15.660471
33801		70.277649	0.387212	15.679612
33802		70.299426	0.157638	15.701156
33803		70.324308	-0.088270	15.721674
33804		70.342524	-0.348600	15.740533
33805		70.346128	-0.623248	15.763355
33806		70.330649	-0.907250	15.789990
33807		70.311828	-1.200911	15.822045
33808		70.301006	-1.503533	15.856597
33809		70.306783	-1.816529	15.891285
33810		70.318962	-2.138661	15.924590
33811		70.325526	-2.464033	15.957829
33812		70.326193	-2.793010	15.990799
33813		70.319327	-3.127251	16.024044
33814		70.310966	-3.466454	16.060925
33815		70.314424	-3.812821	16.096091
33816		70.333911	-4.165017	16.135106
33817		70.364947	-4.524866	16.176569
33818		70.402576	-4.891281	16.219507
33819		70.439633	-5.258207	16.264543
33820		70.469708	-5.633824	16.308505
33821		70.489196	-6.015062	16.353053
33822		70.504254	-6.408134	16.398355
33823		70.528102	-6.813705	16.447899
33824		70.568192	-7.235011	16.501833
33825		70.628408	-7.669717	16.560139
33826		70.706606	-8.117252	16.619307
33827		70.792318	-8.571748	16.681630
33828		70.865516	-9.031362	16.745283
33829		70.913253	-9.493570	16.808340
33830		70.922810	-9.956588	16.874435
33831		70.899567	-10.420830	16.943296
33832		70.847017	-10.889771	17.016958
33833		70.767933	-11.365410	17.097245
33834		70.679894	-11.848211	17.181960
33835		70.599314	-12.336414	17.273693
33836		70.534282	-12.836737	17.370193
33837		70.481301	-13.347494	17.468064
33838		70.436773	-13.862015	17.567368
33839		70.385187	-14.381203	17.667231
33840		70.323720	-14.903707	17.768892
33841		70.255165	-15.430449	17.874535
33842		70.194465	-15.963037	17.984445
33843		70.164833	-16.500580	18.102639
33844		70.184775	-17.044778	18.226847
33845		70.260891	-17.592593	18.349413
33846		70.367020	-18.135882	18.466765
33847		70.461686	-18.672230	18.583405
33848		70.507170	-19.194519	18.701135
33849		70.499538	-19.703926	18.821093
33850		70.445344	-20.204087	18.942413
33851		70.357287	-20.693909	19.062278
33852		70.244501	-21.178463	19.184572
33853		70.131487	-21.659830	19.305619
33854		70.025299	-22.139242	19.433085
33855		69.935905	-22.620177	19.564290
33856		69.875595	-23.100490	19.699020
33857		69.833103	-23.581594	19.835593
33858		69.799308	-24.063861	19.969742
33859		69.746260	-24.542526	20.101983
33860		69.652188	-25.015367	20.233088
33861		69.508318	-25.485722	20.363273
33862		69.321818	-25.952053	20.501048
33863		69.112482	-26.419464	20.640082
33864		68.898836	-26.891881	20.783542
33865		68.701941	-27.371943	20.933017
33866		68.530277	-27.863704	21.092042
33867		68.391361	-28.364716	21.258603
33868		68.272217	-28.875464	21.432138
33869		68.159013	-29.391111	21.614421
33870		68.038038	-29.909053	21.805640
33871		67.908393	-30.431791	22.003358
33872		67.779636	-30.960961	22.210402
33873		67.661168	-31.496843	22.425720
33874		67.561401	-32.035965	22.645337
33875		67.493445	-32.582509	22.868846
33876		67.448587	-33.132047	23.100394
33877		67.417568	-33.683182	23.338506
33878		67.380319	-34.233748	23.583076
33879		67.312941	-34.783977	23.831084
33880		67.208128	-35.325495	24.080805
33881		67.056592	-35.866769	24.335300
33882		66.868327	-36.406046	24.595159
33883		66.660130	-36.947626	24.860097
33884		66.444170	-37.493005	25.139468
33885		66.230835	-38.047486	25.432055
33886		66.027696	-38.604027	25.733475
33887		65.830201	-39.164840	26.038917
33888		65.625224	-39.727391	26.348788
33889		65.404098	-40.291409	26.663244
33890		65.163714	-40.860058	26.986379
33891		64.903367	-41.432649	27.322483
33892		64.616783	-42.009601	27.670454
33893		64.310591	-42.592247	28.033143
33894		63.979272	-43.174298	28.405903
33895		63.635971	-43.761102	28.780428
33896		63.295818	-44.348125	29.160273
33897		62.967370	-44.939323	29.553158
33898		62.650104	-45.532054	29.954184
33899		62.333639	-46.124198	30.358269
33900		61.990183	-46.709956	30.771366
33901		61.594400	-47.290299	31.194779
33902		61.121525	-47.861186	31.633353
33903		60.585075	-48.421147	32.085248
33904		60.010200	-48.974834	32.551400
33905		59.409391	-49.529884	33.036837
33906		58.787633	-50.083436	33.538453
33907		58.152685	-50.634400	34.056022
33908		57.498075	-51.182902	34.591510
33909		56.810345	-51.728286	35.150417
33910		56.101021	-52.261534	35.715429
33911		55.376520	-52.789217	36.300412
33912		54.615528	-53.313442	36.903237
33913		53.832083	-53.830907	37.512330
33914		53.035676	-54.338653	38.137298
33915		52.225913	-54.835202	38.782086
33916		51.415508	-55.319955	39.433993
33917		50.616973	-55.796343	40.104855
33918		49.805524	-56.263441	40.793602
33919		48.987412	-56.720744	41.492526
33920		48.154477	-57.166692	42.211934
33921		47.311767	-57.602096	42.950886
33922		46.463813	-58.026205	43.710138
33923		45.603399	-58.439979	44.490206
33924		44.727078	-58.840059	45.277058
33925		43.827878	-59.229910	46.090390
33926		42.875148	-59.604857	46.924535
33927		41.882271	-59.963255	47.769157
33928		40.864639	-60.304210	48.623201
33929		39.825866	-60.629688	49.491008
33930		38.790736	-60.943533	50.369292
33931		37.746706	-61.246554	51.262276
33932		36.696576	-61.539637	52.161511
33933		35.619901	-61.822772	53.080558
33934		34.519758	-62.093242	54.006420
33935		33.422101	-62.350178	54.931016
33936		32.339639	-62.594615	55.878335
33937		31.271892	-62.829821	56.845043
33938		30.221389	-63.055437	57.817912
33939		29.170846	-63.268497	58.803580
33940		28.109175	-63.467071	59.796997
33941		27.034344	-63.655038	60.785029
33942		25.953920	-63.830031	61.760768
33943		24.861730	-63.992842	62.735691
33944		23.759634	-64.144503	63.704515
33945		22.637871	-64.285122	64.670341
33946		21.511260	-64.412993	65.636061
33947		20.392896	-64.530677	66.591995
33948		19.293841	-64.640487	67.535747
33949		18.228422	-64.747427	68.462799
33950		17.190359	-64.839896	69.373575
33951		16.180232	-64.925471	70.258725
33952		15.183037	-65.003352	71.118374
33953		14.181402	-65.073266	71.950662
33954		13.172559	-65.133023	72.762753
33955		12.159953	-65.186752	73.553456
33956		11.175162	-65.232648	74.315223
33957		10.222616	-65.271286	75.064122
33958		9.297422	-65.311021	75.798962
33959		8.406666	-65.345537	76.519475
33960		7.534340	-65.375244	77.225663
33961		6.677745	-65.402915	77.909238
33962		5.824895	-65.426439	78.575140
33963		4.996613	-65.443260	79.210095
33964		4.180129	-65.455042	79.823357
33965		3.385186	-65.462117	80.416697
33966		2.597498	-65.462000	81.001825
33967		1.823159	-65.458701	81.572089
33968		1.060132	-65.449512	82.134716
33969		0.320879	-65.433161	82.685343
33970		-0.400096	-65.408541	83.243782
33971		-1.101862	-65.385129	83.787442
33972		-1.769797	-65.355062	84.309347
33973		-2.416567	-65.326423	84.808965
33974		-3.052123	-65.296999	85.282588
33975		-3.656769	-65.270323	85.722762
33976		-4.246127	-65.244108	86.147213
33977		-4.802311	-65.221414	86.554866
33978		-5.328852	-65.196664	86.963318
33979		-5.820447	-65.170200	87.369741
33980		-6.278535	-65.143812	87.773727
33981		-6.672808	-65.120948	88.161700
33982		-7.016215	-65.095455	88.553155
33983		-7.317955	-65.076676	88.929703
33984		-7.589973	-65.057852	89.281304
33985		-7.846092	-65.042811	89.605037
33986		-8.101434	-65.029190	89.895484
33987		-8.347721	-65.019038	90.148207
33988		-8.577927	-65.011284	90.363831
33989		-8.810281	-65.005204	90.560501
33990		-9.038517	-64.995629	90.736114
33991		-9.265022	-64.989176	90.896311
33992		-9.473960	-64.980161	91.049119
33993		-9.652786	-64.974492	91.199755
33994		-9.783744	-64.970336	91.345805
33995		-9.867949	-64.968568	91.487203
33996		-9.937431	-64.973050	91.625338
33997		-9.976859	-64.978060	91.737318
33998		-10.022417	-64.981316	91.834747
33999		-10.079169	-64.986399	91.919562
34000		-10.151907	-64.991118	91.995934
34001		-10.231684	-64.995283	92.062265
34002		-10.311956	-64.998608	92.115513
34003		-10.370042	-65.000850	92.151548
34004		-10.416043	-65.003734	92.175725
34005		-10.431765	-65.007279	92.173562
34006		-10.427045	-65.007633	92.154088
34007		-10.398673	-65.007922	92.126226
34008		-10.352259	-65.004784	92.092695
34009		-10.301746	-65.002554	92.057410
34010		-10.258166	-64.998495	92.028435
34011		-10.229255	-64.994757	92.010977
34012		-10.218829	-64.990032	92.002077
34013		-10.227317	-64.990830	92.003449
34014		-10.233799	-64.988531	92.007960
34015		-10.243194	-64.989573	92.018618
34016		-10.252892	-64.991031	92.034661
34017		-10.254643	-64.993739	92.046652
34018		-10.256077	-64.995612	92.059168
34019		-10.271009	-64.994841	92.078817
34020		-10.293891	-64.996105	92.098477
34021		-10.313572	-64.997529	92.119785
34022		-10.336373	-64.993652	92.148058
34023		-10.350298	-64.993287	92.175851
34024		-10.357241	-64.991053	92.207242
34025		-10.354399	-64.990234	92.233516
34026		-10.345309	-64.988147	92.250830
34027		-10.323863	-64.988259	92.252344
34028		-10.302359	-64.982590	92.245294
34029		-10.291312	-64.978034	92.231825
34030		-10.286242	-64.975674	92.217175
34031		-10.270807	-64.973046	92.197853
34032		-10.249848	-64.969501	92.185061
34033		-10.208740	-64.968106	92.168682
34034		-10.155911	-64.967456	92.157200
34035		-10.088931	-64.969731	92.140022
34036		-10.018878	-64.973911	92.114227
34037		-9.957606	-64.979799	92.085859
34038		-9.910186	-64.987014	92.054709
34039		-9.872857	-64.995923	92.017908
34040		-9.846324	-65.002509	91.983360
34041		-9.814352	-65.009046	91.944239
34042		-9.771241	-65.012181	91.900739
34043		-9.712619	-65.016826	91.853965
34044		-9.632275	-65.024467	91.796545
34045		-9.526020	-65.030322	91.723859
34046		-9.397507	-65.033595	91.633909
34047		-9.236555	-65.037484	91.516206
34048		-9.048237	-65.039874	91.371534
34049		-8.829730	-65.043213	91.193680
34050		-8.582993	-65.044700	90.985977
34051		-8.280247	-65.046615	90.719184
34052		-7.938531	-65.051948	90.404936
34053		-7.542452	-65.057302	90.027157
34054		-7.088630	-65.062936	89.583674
34055		-6.556745	-65.069048	89.063718
34056		-5.929751	-65.073546	88.471550
34057		-5.193945	-65.077543	87.801636
34058		-4.371118	-65.076147	87.074372
34059		-3.463200	-65.071064	86.273074
34060		-2.472164	-65.058753	85.406705
34061		-1.387638	-65.040385	84.474644
34062		-0.228524	-65.013341	83.495576
34063		1.015510	-64.980949	82.464637
34064		2.315092	-64.936272	81.411361
34065		3.657459	-64.880382	80.338012
34066		5.013925	-64.818483	79.265252
34067		6.386806	-64.751612	78.191463
34068		7.779518	-64.690801	77.140346
34069		9.180782	-64.629271	76.113272
34070		10.589297	-64.560306	75.124187
34071		12.035005	-64.483696	74.164416
34072		13.494855	-64.405920	73.244011
34073		14.968499	-64.328002	72.330458
34074		16.421288	-64.247544	71.435617
34075		17.852751	-64.156602	70.530552
34076		19.233265	-64.056088	69.640671
34077		20.538286	-63.944160	68.760480
34078		21.767913	-63.819417	67.867199
34079		22.951436	-63.678728	66.957964
34080		24.099812	-63.524393	66.051197
34081		25.246597	-63.360245	65.140049
34082		26.379888	-63.186783	64.234960
34083		27.521852	-63.001259	63.318804
34084		28.683808	-62.798745	62.394412
34085		29.879292	-62.582429	61.437634
34086		31.081776	-62.352152	60.466240
34087		32.296088	-62.103498	59.464123
34088		33.494836	-61.836120	58.450447
34089		34.665407	-61.552283	57.420294
34090		35.805057	-61.253540	56.386241
34091		36.940862	-60.934370	55.358703
34092		38.095091	-60.607316	54.356938
34093		39.304547	-60.273240	53.370236
34094		40.579812	-59.936826	52.425034
34095		41.913704	-59.605238	51.520658
34096		43.263268	-59.278798	50.649890
34097		44.634454	-58.945989	49.781278
34098		45.987680	-58.606176	48.926522
34099		47.302223	-58.255550	48.078380
34100		48.538217	-57.895001	47.237624
34101		49.684027	-57.519323	46.411917
34102		50.726151	-57.131868	45.622720
34103		51.696640	-56.735549	44.861146
34104		52.612384	-56.330294	44.132124
34105		53.522229	-55.921961	43.430125
34106		54.439041	-55.512206	42.754894
34107		55.377483	-55.096769	42.091231
34108		56.318527	-54.673297	41.448356
34109		57.231799	-54.245711	40.817071
34110		58.084169	-53.801730	40.184852
34111		58.848908	-53.338396	39.551027
34112		59.507310	-52.857010	38.920858
34113		60.062374	-52.355553	38.303160
34114		60.545861	-51.842333	37.715731
34115		61.017033	-51.319522	37.156867
34116		61.536648	-50.794778	36.623300
34117		62.140311	-50.270734	36.096026
34118		62.798700	-49.744682	35.577463
34119		63.472668	-49.201944	35.057339
34120		64.108679	-48.639956	34.538162
34121		64.662175	-48.057695	34.018170
34122		65.086053	-47.455947	33.498129
34123		65.404872	-46.828692	32.984725
34124		65.656903	-46.190322	32.494914
34125		65.918006	-45.543437	32.022520
34126		66.222303	-44.898954	31.563575
34127		66.578670	-44.252668	31.110498
34128		66.950408	-43.605406	30.670566
34129		67.306269	-42.953232	30.228320
34130		67.611484	-42.290192	29.798726
34131		67.831760	-41.610265	29.377761
34132		67.954206	-40.917477	28.958240
34133		68.008041	-40.215939	28.540461
34134		68.022376	-39.520511	28.143851
34135		68.068477	-38.836234	27.771926
34136		68.180291	-38.170594	27.421566
34137		68.383420	-37.521556	27.076505
34138		68.654836	-36.887053	26.743910
34139		68.963592	-36.258975	26.423012
34140		69.262050	-35.632551	26.118101
34141		69.519013	-35.009011	25.826924
34142		69.714648	-34.381790	25.549048
34143		69.843393	-33.752514	25.287616
34144		69.926458	-33.127556	25.046218
34145		69.997970	-32.508400	24.821608
34146		70.079873	-31.898397	24.620198
34147		70.188532	-31.293756	24.431394
34148		70.322312	-30.700825	24.251377
34149		70.469219	-30.113255	24.075911
34150		70.598697	-29.527403	23.908822
34151		70.696136	-28.935276	23.748008
34152		70.759114	-28.339719	23.593142
34153		70.805499	-27.739884	23.442697
34154		70.843319	-27.141518	23.302059
34155		70.894960	-26.542469	23.165594
34156		70.955560	-25.948889	23.036925
34157		71.026165	-25.355487	22.910712
34158		71.115848	-24.768997	22.791058
34159		71.242691	-24.189356	22.679599
34160		71.400564	-23.616591	22.574839
34161		71.583889	-23.046657	22.471951
34162		71.764522	-22.477563	22.367385
34163		71.916384	-21.906224	22.257189
34164		72.038921	-21.330594	22.144001
34165		72.136025	-20.755937	22.036628
34166		72.216489	-20.185011	21.934256
34167		72.300221	-19.623303	21.833939
34168		72.399147	-19.073551	21.737962
34169		72.523363	-18.533887	21.644327
34170		72.668565	-18.004916	21.553566
34171		72.822301	-17.486114	21.466444
34172		72.957235	-16.978742	21.383226
34173		73.059676	-16.476170	21.296574
34174		73.122475	-15.975662	21.208016
34175		73.153121	-15.470882	21.119972
34176		73.156577	-14.963788	21.034513
34177		73.154733	-14.459666	20.955330
34178		73.153832	-13.964330	20.888493
34179		73.175107	-13.477979	20.829104
34180		73.241750	-12.994877	20.777978
34181		73.351903	-12.521101	20.727448
34182		73.477106	-12.048582	20.675839
34183		73.595288	-11.578446	20.614863
34184		73.675262	-11.103014	20.547097
34185		73.708154	-10.623202	20.470793
34186		73.693663	-10.138533	20.394950
34187		73.655477	-9.654472	20.324423
34188		73.617694	-9.170803	20.254510
34189		73.603279	-8.696011	20.186553
34190		73.610838	-8.222163	20.121415
34191		73.639664	-7.751637	20.054527
34192		73.676762	-7.283460	19.988944
34193		73.712772	-6.816710	19.926728
34194		73.758363	-6.345069	19.872264
34195		73.830427	-5.872567	19.820623
34196		73.924036	-5.387745	19.777990
34197		74.045817	-4.891812	19.738774
34198		74.183025	-4.383776	19.705631
34199		74.315883	-3.861617	19.672610
34200		74.419080	-3.326480	19.633475
34201		74.478218	-2.778963	19.586851
34202		74.467430	-2.212337	19.536534
34203		74.379197	-1.624291	19.484987
34204		74.201846	-1.010458	19.434806
34205		73.964274	-0.376036	19.380315
34206		73.700849	0.266317	19.317614
34207		73.433035	0.858034	19.221673
34208		73.246432	1.306469	19.065185
34209		73.417363	1.758783	19.089707
34210		73.642399	1.867899	19.048830
34211		73.299073	1.836951	19.050172
34212		73.260909	1.806540	19.083477
34213		73.444278	1.764598	19.147553
34214		73.401199	1.643999	19.183520
34215		73.464074	1.471464	19.182519
34216		73.348831	1.292225	19.163393
34217		73.213418	1.176062	19.133135
34218		73.068044	1.163449	19.126501
34219		72.916777	1.232308	19.118893
34220		72.731245	1.373835	19.105529
34221		72.575462	1.545087	19.067816
34222		72.462862	1.675204	19.029931
34223		72.455499	1.766439	18.967404
34224		72.567869	1.816896	18.914708
34225		72.673922	1.858132	18.905348
34226		72.874843	1.869233	18.887506
34227		73.057989	1.874348	18.870639
34228		73.236747	1.868996	18.854767
34229		73.411562	1.838097	18.830921
34230		73.552442	1.797403	18.800818
34231		73.662213	1.768714	18.769882
34232		73.748006	1.755612	18.739809
34233		73.818092	1.752919	18.712721
34234		73.880504	1.753649	18.685962
34235		73.943405	1.756118	18.665528
34236		73.994556	1.761173	18.651984
34237		74.023349	1.764351	18.643156
34238		74.015982	1.770987	18.642765
34239		73.977510	1.771765	18.645190
34240		73.914519	1.770395	18.647534
34241		73.838556	1.771861	18.654355
34242		73.757786	1.779075	18.661340
34243		73.674823	1.791663	18.670534
34244		73.592060	1.804184	18.680205
34245		73.521529	1.816110	18.687654
34246		73.455658	1.830939	18.694652
34247		73.393534	1.840938	18.696621
34248		73.331648	1.854090	18.702108
34249		73.267066	1.865002	18.704066
34250		73.214996	1.871610	18.704093
34251		73.185441	1.884012	18.705492
34252		73.170590	1.889524	18.706552
34253		73.179013	1.898295	18.703846
34254		73.199065	1.907955	18.700229
34255		73.226603	1.916414	18.696526
34256		73.248922	1.925399	18.693777
34257		73.259064	1.934480	18.692476
34258		73.252612	1.946859	18.692194
34259		73.227599	1.957926	18.695312
34260		73.186935	1.970565	18.699268
34261		73.141930	1.985293	18.705009
34262		73.092337	1.999825	18.708938
34263		73.042134	2.013090	18.714820
34264		72.990435	2.027791	18.719119
34265		72.937053	2.043460	18.724233
34266		72.879416	2.057909	18.730102
34267		72.821559	2.070637	18.736099
34268		72.766980	2.084840	18.742844
34269		72.712796	2.098510	18.746289
34270		72.664020	2.107570	18.751277
34271		72.631440	2.114086	18.754938
34272		72.607749	2.117416	18.756383
34273		72.597393	2.117948	18.756869
34274		72.590795	2.117338	18.756117
34275		72.593816	2.117298	18.754199
34276		72.586528	2.119790	18.754178
34277		72.581065	2.124425	18.753399
34278		72.564731	2.132297	18.757239
34279		72.533480	2.139349	18.766296
34280		72.492592	2.145283	18.780902
34281		72.447671	2.150490	18.800541
34282		72.405795	2.155749	18.820367
34283		72.361789	2.159269	18.839836
34284		72.305663	2.159864	18.857488
34285		72.234455	2.160734	18.874632
34286		72.150565	2.159154	18.894859
34287		72.070870	2.151078	18.916224
34288		71.999871	2.139501	18.940713
34289		71.932887	2.123052	18.970953
34290		71.859708	2.103421	19.002178
34291		71.785837	2.079886	19.028018
34292		71.703982	2.049837	19.048289
34293		71.605943	2.010292	19.071588
34294		71.477116	1.961016	19.085312
34295		71.342182	1.891774	19.092153
34296		71.187995	1.797179	19.097790
34297		70.976726	1.700616	19.112289
34298		70.729792	1.594307	19.131857
34299		70.478982	1.461109	19.151344
34300		70.229760	1.301296	19.164674
34301		70.005185	1.130004	19.178835
34302		69.832222	0.935526	19.195254
34303		69.724088	0.701504	19.212624
34304		69.682898	0.432825	19.237546
34305		69.697791	0.127031	19.268794
34306		69.750187	-0.209298	19.300054
34307		69.823538	-0.573142	19.329638
34308		69.896058	-0.960127	19.358042
34309		69.950182	-1.363349	19.384427
34310		69.970110	-1.786450	19.411483
34311		69.951538	-2.227685	19.441099
34312		69.889665	-2.684606	19.472408
34313		69.797251	-3.156325	19.507699
34314		69.697709	-3.643361	19.545452
34315		69.621336	-4.153814	19.585421
34316		69.586455	-4.684443	19.627902
34317		69.605324	-5.236919	19.671427
34318		69.660560	-5.807511	19.717161
34319		69.731276	-6.391902	19.760444
34320		69.803111	-6.990471	19.804396
34321		69.866962	-7.602397	19.850011
34322		69.907392	-8.226417	19.895863
34323		69.919328	-8.863838	19.948360
34324		69.901733	-9.512454	20.005763
34325		69.866407	-10.176734	20.069132
34326		69.824870	-10.851746	20.142139
34327		69.791438	-11.538881	20.218004
34328		69.756971	-12.237015	20.301140
34329		69.712589	-12.944043	20.389393
34330		69.641810	-13.654671	20.484047
34331		69.537026	-14.363455	20.582622
34332		69.404410	-15.074410	20.690314
34333		69.267460	-15.785275	20.803377
34334		69.127687	-16.498857	20.923120
34335		69.007185	-17.217877	21.054368
34336		68.889332	-17.938570	21.194696
34337		68.757642	-18.659576	21.345285
34338		68.606929	-19.375756	21.503028
34339		68.429460	-20.090180	21.669948
34340		68.239241	-20.803382	21.844629
34341		68.044495	-21.515765	22.026024
34342		67.854598	-22.225226	22.218706
34343		67.658634	-22.928048	22.423050
34344		67.450510	-23.621325	22.634362
34345		67.225507	-24.304628	22.850443
34346		66.981679	-24.976765	23.073310
34347		66.716820	-25.638358	23.300279
34348		66.444614	-26.285614	23.536506
34349		66.178921	-26.929873	23.788077
34350		65.918416	-27.568183	24.045545
34351		65.669870	-28.202139	24.313315
34352		65.435535	-28.830345	24.589348
34353		65.216381	-29.456613	24.877469
34354		64.985160	-30.077096	25.172369
34355		64.716313	-30.686741	25.477765
34356		64.414468	-31.285350	25.783360
34357		64.066097	-31.873074	26.096336
34358		63.674189	-32.453663	26.413842
34359		63.254612	-33.023981	26.732767
34360		62.837240	-33.587092	27.054503
34361		62.442004	-34.148157	27.388825
34362		62.067680	-34.706457	27.733840
34363		61.708736	-35.260794	28.088142
34364		61.377831	-35.806882	28.440263
34365		61.070827	-36.353629	28.802320
34366		60.766401	-36.898146	29.165649
34367		60.435186	-37.439079	29.532244
34368		60.066846	-37.970677	29.900975
34369		59.673006	-38.500223	30.270870
34370		59.262739	-39.028010	30.645237
34371		58.858706	-39.554596	31.023550
34372		58.475852	-40.077627	31.401740
34373		58.111124	-40.598385	31.787893
34374		57.759172	-41.110963	32.173487
34375		57.397526	-41.615829	32.555039
34376		57.007599	-42.109644	32.932447
34377		56.571383	-42.594733	33.312197
34378		56.093403	-43.069890	33.695077
34379		55.589621	-43.535962	34.080762
34380		55.085647	-43.996498	34.473707
34381		54.590527	-44.458673	34.875883
34382		54.116882	-44.919725	35.289078
34383		53.660391	-45.383034	35.715440
34384		53.224327	-45.842768	36.146176
34385		52.806421	-46.301276	36.585070
34386		52.386250	-46.755610	37.029285
34387		51.951637	-47.203491	37.474627
34388		51.489402	-47.645462	37.931236
34389		51.007578	-48.086541	38.392391
34390		50.504251	-48.522766	38.875712
34391		49.998211	-48.957935	39.369896
34392		49.500091	-49.394346	39.875532
34393		49.002076	-49.832720	40.393396
34394		48.490420	-50.268652	40.920656
34395		47.958341	-50.700608	41.452708
34396		47.401610	-51.128450	41.996716
34397		46.822380	-51.557237	42.543064
34398		46.231477	-51.980749	43.096600
34399		45.611166	-52.400264	43.665871
34400		44.971324	-52.812106	44.246485
34401		44.314433	-53.224035	44.837310
34402		43.638763	-53.632864	45.443107
34403		42.931391	-54.037628	46.067380
34404		42.209922	-54.431000	46.690236
34405		41.471147	-54.815974	47.335978
34406		40.726235	-55.196727	47.983059
34407		39.978560	-55.568994	48.625207
34408		39.220321	-55.925807	49.261268
34409		38.472321	-56.269649	49.881968
34410		37.745175	-56.596629	50.497650
34411		37.025556	-56.911716	51.112932
34412		36.319705	-57.210922	51.726611
34413		35.639277	-57.500314	52.339635
34414		34.984391	-57.778045	52.969771
34415		34.355238	-58.047706	53.603935
34416		33.771974	-58.308270	54.233076
34417		33.233172	-58.561064	54.868002
34418		32.689261	-58.805335	55.497849
34419		32.136235	-59.035642	56.115320
34420		31.554052	-59.254728	56.731865
34421		30.944838	-59.463843	57.342509
34422		30.325440	-59.658824	57.945787
34423		29.709099	-59.843255	58.539790
34424		29.098777	-60.020905	59.130324
34425		28.476214	-60.194183	59.725513
34426		27.853012	-60.357864	60.320189
34427		27.240635	-60.521363	60.925566
34428		26.653434	-60.675921	61.535937
34429		26.096148	-60.832568	62.148308
34430		25.571030	-60.982254	62.752435
34431		25.056571	-61.127845	63.349223
34432		24.524128	-61.268154	63.937763
34433		23.973098	-61.399760	64.513645
34434		23.403637	-61.524717	65.087420
34435		22.817966	-61.641647	65.658036
34436		22.230910	-61.753177	66.229351
34437		21.642584	-61.861232	66.810523
34438		21.068607	-61.967264	67.396068
34439		20.524905	-62.073030	67.981738
34440		20.002559	-62.174876	68.575134
34441		19.488174	-62.272917	69.167557
34442		18.977005	-62.366297	69.767232
34443		18.454733	-62.454926	70.354230
34444		17.916824	-62.540148	70.944534
34445		17.354846	-62.625660	71.525029
34446		16.769497	-62.706090	72.109316
34447		16.159725	-62.785554	72.678073
34448		15.539315	-62.860232	73.247702
34449		14.913351	-62.933601	73.820198
34450		14.305980	-63.003672	74.396978
34451		13.720762	-63.077814	74.979161
34452		13.142680	-63.151251	75.568840
34453		12.584024	-63.224543	76.152932
34454		12.027218	-63.295335	76.738286
34455		11.469882	-63.367342	77.309491
34456		10.901945	-63.435958	77.876264
34457		10.315835	-63.504576	78.434550
34458		9.705527	-63.570366	78.975333
34459		9.066359	-63.633994	79.511336
34460		8.393875	-63.697004	80.044031
34461		7.710752	-63.760920	80.552727
34462		7.026363	-63.823348	81.050270
34463		6.354953	-63.887315	81.526498
34464		5.703837	-63.948079	82.013143
34465		5.064829	-64.005814	82.491437
34466		4.439087	-64.060760	82.951557
34467		3.840402	-64.114151	83.382133
34468		3.279863	-64.166075	83.782591
34469		2.741113	-64.218812	84.152377
34470		2.221396	-64.272924	84.495816
34471		1.705353	-64.326001	84.813476
34472		1.190196	-64.375813	85.112808
34473		0.683981	-64.423506	85.389481
34474		0.189470	-64.467609	85.653944
34475		-0.295047	-64.513228	85.915255
34476		-0.764814	-64.556120	86.188731
34477		-1.214181	-64.595951	86.441098
34478		-1.640269	-64.635935	86.691692
34479		-2.052077	-64.672255	86.917847
34480		-2.443836	-64.702930	87.172659
34481		-2.815885	-64.732532	87.427744
34482		-3.151289	-64.754251	87.686358
34483		-3.464731	-64.777922	87.948605
34484		-3.741769	-64.798688	88.192195
34485		-3.995158	-64.819817	88.423698
34486		-4.231718	-64.843220	88.638194
34487		-4.459116	-64.865913	88.837540
34488		-4.679799	-64.885396	89.023300
34489		-4.881018	-64.901120	89.196258
34490		-5.054446	-64.910416	89.368976
34491		-5.197571	-64.917208	89.532516
34492		-5.305842	-64.923658	89.683548
34493		-5.400225	-64.920635	89.829002
34494		-5.483179	-64.916481	89.946799
34495		-5.572459	-64.909648	90.047161
34496		-5.680737	-64.899407	90.136537
34497		-5.799021	-64.887608	90.211231
34498		-5.926627	-64.875160	90.287766
34499		-6.066239	-64.864832	90.353930
34500		-6.224476	-64.852861	90.423520
34501		-6.401673	-64.843759	90.500647
34502		-6.584669	-64.833812	90.578880
34503		-6.759834	-64.828215	90.656949
34504		-6.910185	-64.825504	90.739401
34505		-7.033498	-64.827633	90.823799
34506		-7.144868	-64.836075	90.916756
34507		-7.243817	-64.849321	91.002955
34508		-7.345678	-64.864533	91.087421
34509		-7.447816	-64.884320	91.168388
34510		-7.553174	-64.904053	91.246217
34511		-7.650176	-64.927720	91.318711
34512		-7.737073	-64.953365	91.387522
34513		-7.805710	-64.980961	91.451646
34514		-7.870915	-65.008899	91.528373
34515		-7.927581	-65.035555	91.587737
34516		-7.983299	-65.063190	91.651440
34517		-8.019053	-65.090690	91.692489
34518		-8.022574	-65.112248	91.716271
34519		-7.989357	-65.132627	91.725183
34520		-7.920972	-65.151405	91.714477
34521		-7.804870	-65.167248	91.665435
34522		-7.652348	-65.180821	91.580911
34523		-7.447993	-65.196059	91.437824
34524		-7.182424	-65.208489	91.237948
34525		-6.866751	-65.222220	90.986743
