// General information: 
//  MT Manager version: 2022.2.0 
//  XDA version: 2022.2.0 build 7381 rev 124627 built on 2023-07-19
// Device information: 
//  DeviceId: 00B44876
//  ProductCode: MTW2-3A7G6
//  Firmware Version: 4.3.5
//  Hardware Version: 2.0.0
// Device settings: 
//  Filter Profile: human(46.1)
//  Option Flags: Orientation Smoother Disabled, Position/Velocity Smoother Disabled, Continuous Zero Rotation Update Disabled, AHS Disabled, ICC Disabled
// Coordinate system: ENU
PacketCounter	SampleTimeFine	Roll	Pitch	Yaw
31344		76.105890	-4.383162	-5.101434
31345		76.083745	-4.388954	-5.097915
31346		76.065693	-4.391222	-5.093064
31347		76.054382	-4.389025	-5.090649
31348		76.050524	-4.384559	-5.096452
31349		76.052357	-4.377463	-5.106401
31350		76.059642	-4.368094	-5.116287
31351		76.067214	-4.360726	-5.126661
31352		76.074302	-4.357430	-5.134830
31353		76.078721	-4.357248	-5.137309
31354		76.077054	-4.361420	-5.136497
31355		76.066651	-4.364454	-5.133717
31356		76.053754	-4.366586	-5.128602
31357		76.040272	-4.366315	-5.120780
31358		76.028938	-4.366436	-5.116502
31359		76.024084	-4.364365	-5.114207
31360		76.027174	-4.363338	-5.117955
31361		76.033492	-4.363130	-5.122540
31362		76.041642	-4.361956	-5.128815
31363		76.043526	-4.362198	-5.133872
31364		76.034447	-4.364872	-5.140187
31365		76.014471	-4.364976	-5.141582
31366		75.983280	-4.369835	-5.135733
31367		75.944617	-4.372729	-5.126688
31368		75.902353	-4.376360	-5.119774
31369		75.859341	-4.380481	-5.115556
31370		75.818539	-4.385238	-5.110470
31371		75.777635	-4.390727	-5.111193
31372		75.736455	-4.393357	-5.107438
31373		75.694952	-4.394950	-5.103002
31374		75.650241	-4.392483	-5.106622
31375		75.606831	-4.391197	-5.112312
31376		75.565673	-4.390722	-5.115731
31377		75.523657	-4.390436	-5.126681
31378		75.478961	-4.392348	-5.138086
31379		75.427307	-4.395859	-5.149784
31380		75.362521	-4.396874	-5.163820
31381		75.285959	-4.398106	-5.182889
31382		75.200555	-4.399787	-5.211724
31383		75.120011	-4.398081	-5.252062
31384		75.054263	-4.388804	-5.301120
31385		75.011190	-4.367316	-5.359002
31386		74.994017	-4.343244	-5.425415
31387		74.995238	-4.322414	-5.492908
31388		75.010398	-4.298933	-5.558752
31389		75.032448	-4.279106	-5.617617
31390		75.051553	-4.262352	-5.662978
31391		75.062097	-4.252007	-5.695979
31392		75.065925	-4.252232	-5.712997
31393		75.059676	-4.261372	-5.719555
31394		75.049580	-4.276944	-5.724766
31395		75.040357	-4.295442	-5.741404
31396		75.034300	-4.309495	-5.766265
31397		75.023731	-4.322347	-5.812321
31398		75.004896	-4.335605	-5.867956
31399		74.961484	-4.346105	-5.939459
31400		74.891101	-4.359651	-6.013164
31401		74.801488	-4.384314	-6.076209
31402		74.697506	-4.427147	-6.119635
31403		74.577273	-4.486172	-6.143300
31404		74.453796	-4.553359	-6.150433
31405		74.343463	-4.629844	-6.146367
31406		74.247680	-4.714948	-6.141813
31407		74.152848	-4.800034	-6.162867
31408		74.061573	-4.882886	-6.202536
31409		73.980437	-4.973209	-6.252053
31410		73.903782	-5.072610	-6.308806
31411		73.829895	-5.202218	-6.375938
31412		73.750296	-5.375416	-6.434459
31413		73.671342	-5.629286	-6.497352
31414		73.617379	-5.896870	-6.535177
31415		73.589982	-6.165812	-6.563611
31416		73.589121	-6.413048	-6.561457
31417		73.591435	-6.654960	-6.544109
31418		73.572834	-6.904514	-6.499641
31419		73.528556	-7.151670	-6.436245
31420		73.476875	-7.395221	-6.342715
31421		73.449732	-7.638365	-6.218682
31422		73.459534	-7.889022	-6.077651
31423		73.509363	-8.154038	-5.944506
31424		73.607495	-8.434854	-5.840347
31425		73.732630	-8.734636	-5.767479
31426		73.871483	-9.050395	-5.712205
31427		74.014032	-9.381312	-5.669889
31428		74.146191	-9.736973	-5.638063
31429		74.261565	-10.117627	-5.619316
31430		74.365492	-10.516846	-5.607036
31431		74.465823	-10.933639	-5.595643
31432		74.562839	-11.368976	-5.582360
31433		74.652591	-11.823235	-5.567995
31434		74.734621	-12.291993	-5.555390
31435		74.813535	-12.770726	-5.541191
31436		74.877955	-13.264768	-5.531008
31437		74.931446	-13.775231	-5.519363
31438		74.972501	-14.305275	-5.509802
31439		75.026145	-14.850060	-5.503735
31440		75.134230	-15.404063	-5.496562
31441		75.294638	-15.957505	-5.486647
31442		75.500555	-16.510979	-5.479253
31443		75.728517	-17.078918	-5.472654
31444		75.967640	-17.665204	-5.476135
31445		76.211266	-18.274674	-5.491045
31446		76.448215	-18.900941	-5.517862
31447		76.676670	-19.536931	-5.553465
31448		76.889842	-20.173954	-5.592067
31449		77.091528	-20.813559	-5.622395
31450		77.286403	-21.459435	-5.634496
31451		77.476774	-22.112332	-5.619957
31452		77.674133	-22.775139	-5.594406
31453		77.889702	-23.439340	-5.566638
31454		78.116715	-24.113218	-5.554709
31455		78.353999	-24.794564	-5.553533
31456		78.583427	-25.487285	-5.562373
31457		78.789967	-26.199089	-5.556322
31458		78.972616	-26.916847	-5.526067
31459		79.144150	-27.625960	-5.468667
31460		79.335967	-28.313616	-5.399112
31461		79.562074	-28.978543	-5.322292
31462		79.815440	-29.623387	-5.251725
31463		80.072455	-30.257582	-5.195186
31464		80.314489	-30.881249	-5.150096
31465		80.536798	-31.507711	-5.108772
31466		80.736025	-32.141595	-5.072485
31467		80.902628	-32.790555	-5.028713
31468		81.034227	-33.453808	-4.975567
31469		81.137765	-34.117205	-4.907009
31470		81.228437	-34.772258	-4.822900
31471		81.319283	-35.416520	-4.726034
31472		81.403505	-36.047740	-4.622476
31473		81.469913	-36.669303	-4.511316
31474		81.518211	-37.279641	-4.401277
31475		81.558257	-37.879602	-4.278034
31476		81.608432	-38.467239	-4.154562
31477		81.678165	-39.052282	-4.025274
31478		81.764509	-39.637831	-3.905349
31479		81.855073	-40.229912	-3.803934
31480		81.940535	-40.820689	-3.716121
31481		82.007371	-41.410584	-3.627175
31482		82.046641	-41.988280	-3.535701
31483		82.059360	-42.561695	-3.438121
31484		82.047507	-43.139706	-3.345376
31485		82.026241	-43.718686	-3.245945
31486		81.999185	-44.297660	-3.136810
31487		81.981241	-44.878653	-3.019098
31488		81.981103	-45.460810	-2.901021
31489		81.988617	-46.048808	-2.788264
31490		81.993514	-46.645380	-2.690730
31491		81.999414	-47.256226	-2.605907
31492		82.002144	-47.883779	-2.525042
31493		82.003862	-48.517371	-2.437211
31494		82.003436	-49.148701	-2.359470
31495		81.991251	-49.772565	-2.282144
31496		81.971068	-50.396645	-2.209799
31497		81.930923	-51.038511	-2.131981
31498		81.865152	-51.710324	-2.043019
31499		81.771488	-52.413988	-1.923999
31500		81.654233	-53.142708	-1.775099
31501		81.523144	-53.868353	-1.598127
31502		81.378062	-54.582861	-1.421584
31503		81.228101	-55.286859	-1.261335
31504		81.085926	-55.992200	-1.126409
31505		80.969286	-56.699532	-1.010493
31506		80.884656	-57.396414	-0.911025
31507		80.826479	-58.074996	-0.815978
31508		80.782328	-58.741762	-0.713572
31509		80.723742	-59.406367	-0.596820
31510		80.637317	-60.082889	-0.475587
31511		80.505783	-60.779200	-0.334581
31512		80.339436	-61.504286	-0.189751
31513		80.141058	-62.257805	-0.027658
31514		79.922020	-63.026049	0.154138
31515		79.677472	-63.799668	0.364144
31516		79.409801	-64.568598	0.617444
31517		79.136286	-65.326283	0.899702
31518		78.850975	-66.074865	1.208090
31519		78.543583	-66.819185	1.539455
31520		78.211432	-67.560522	1.888855
31521		77.852408	-68.308090	2.254558
31522		77.468095	-69.059023	2.620809
31523		77.044991	-69.820693	3.018428
31524		76.572815	-70.582953	3.449463
31525		76.054390	-71.345879	3.932719
31526		75.484643	-72.103291	4.479965
31527		74.841106	-72.856537	5.151032
31528		74.108410	-73.598321	5.952884
31529		73.285877	-74.331967	6.892796
31530		72.369495	-75.059627	7.962135
31531		71.349943	-75.774699	9.168993
31532		70.254983	-76.466279	10.444818
31533		69.093761	-77.126854	11.740369
31534		67.817471	-77.775780	13.093869
31535		66.403449	-78.419585	14.542935
31536		64.828149	-79.058210	16.140250
31537		63.080475	-79.679674	17.940316
31538		61.163409	-80.271780	19.948099
31539		59.048352	-80.831336	22.184650
31540		56.684302	-81.361983	24.671429
31541		53.987350	-81.873356	27.468156
31542		50.806591	-82.372686	30.715073
31543		47.089361	-82.852571	34.469024
31544		42.830302	-83.306180	38.733202
31545		38.034004	-83.729061	43.526787
31546		32.855385	-84.099801	48.700601
31547		27.455106	-84.409485	54.090633
31548		21.663411	-84.656273	59.867395
31549		15.309544	-84.843789	66.203927
31550		8.267440	-84.966167	73.224811
31551		0.669349	-85.009131	80.799244
31552		-7.048898	-84.969213	88.472359
31553		-14.456583	-84.843514	95.822602
31554		-21.198527	-84.651165	102.492501
31555		-27.161115	-84.408510	108.369377
31556		-32.354236	-84.130161	113.470930
31557		-36.822124	-83.840111	117.826179
31558		-40.656163	-83.546020	121.534428
31559		-43.927580	-83.254343	124.666475
31560		-46.781201	-82.963255	127.378232
31561		-49.343165	-82.668111	129.813185
31562		-51.663969	-82.374279	132.020664
31563		-53.763558	-82.079523	134.038813
31564		-55.636237	-81.797518	135.860217
31565		-57.228296	-81.542161	137.421812
31566		-58.585650	-81.309140	138.777818
31567		-59.698200	-81.100659	139.910591
31568		-60.599937	-80.920106	140.847836
31569		-61.337634	-80.766409	141.630762
31570		-61.896677	-80.654203	142.221836
31571		-62.331842	-80.571323	142.673842
31572		-62.739268	-80.497334	143.140827
31573		-63.139235	-80.421419	143.552300
31574		-63.582469	-80.344982	144.013454
31575		-64.046198	-80.277060	144.508473
31576		-64.489405	-80.227790	144.994834
31577		-64.881765	-80.200236	145.438842
31578		-65.195203	-80.198542	145.797703
31579		-65.464390	-80.210514	146.096528
31580		-65.703594	-80.232290	146.347203
31581		-65.943229	-80.250966	146.581038
31582		-66.168112	-80.270009	146.792482
31583		-66.347325	-80.289762	146.950004
31584		-66.491487	-80.313007	147.064472
31585		-66.596125	-80.331568	147.135261
31586		-66.691768	-80.347163	147.239463
31587		-66.800046	-80.361240	147.310253
31588		-66.902004	-80.382611	147.380093
31589		-66.958115	-80.417128	147.417350
31590		-66.949748	-80.465504	147.399955
31591		-66.923891	-80.525633	147.370807
31592		-66.884860	-80.592059	147.326507
31593		-66.813507	-80.662159	147.244341
31594		-66.678221	-80.738380	147.096409
31595		-66.501443	-80.830729	146.898220
31596		-66.263996	-80.923498	146.641708
31597		-66.042088	-81.014031	146.405473
31598		-65.826301	-81.098950	146.183234
31599		-65.612604	-81.177276	145.975119
31600		-65.409725	-81.244200	145.787911
31601		-65.179339	-81.308286	145.570398
31602		-64.950146	-81.366956	145.388211
31603		-64.694089	-81.428754	145.109584
31604		-64.433515	-81.493445	144.805894
31605		-64.130480	-81.568284	144.455186
31606		-63.789770	-81.652929	144.075451
31607		-63.333675	-81.753520	143.604562
31608		-62.792150	-81.874631	143.078440
31609		-62.169295	-82.017765	142.504810
31610		-61.432130	-82.184449	141.841148
31611		-60.505888	-82.370073	140.995393
31612		-59.421935	-82.573703	139.977936
31613		-58.196011	-82.794615	138.783520
31614		-56.801195	-83.022517	137.368471
31615		-55.318434	-83.252044	135.810933
31616		-53.716467	-83.477915	134.095298
31617		-51.952750	-83.698900	132.193249
31618		-50.127130	-83.902877	130.224977
31619		-48.365270	-84.097654	128.340967
31620		-46.597821	-84.277623	126.476322
31621		-44.855332	-84.436197	124.682644
31622		-43.074399	-84.589207	122.909925
31623		-41.123314	-84.761310	121.001199
31624		-38.811377	-84.970348	118.728553
31625		-36.199085	-85.207138	116.131925
31626		-33.345982	-85.445295	113.254468
31627		-30.325223	-85.679163	110.172085
31628		-27.303790	-85.888498	107.071460
31629		-24.150835	-86.070519	103.837617
31630		-20.792839	-86.226510	100.416407
31631		-17.009303	-86.362797	96.590923
31632		-12.498055	-86.480191	92.058071
31633		-7.151384	-86.568453	86.699796
31634		-1.087318	-86.622334	80.628828
31635		5.475084	-86.638255	74.053629
31636		12.227327	-86.607701	67.279841
31637		18.807091	-86.541710	60.669165
31638		25.116919	-86.444879	54.330085
31639		31.066947	-86.313116	48.341578
31640		36.752469	-86.142863	42.602677
31641		42.060634	-85.928429	37.232366
31642		46.854421	-85.676979	32.385298
31643		51.280050	-85.389190	27.921963
31644		55.330254	-85.068913	23.857051
31645		58.954980	-84.712632	20.217604
31646		62.170228	-84.324179	16.981535
31647		64.994948	-83.899001	14.115864
31648		67.447900	-83.450615	11.602272
31649		69.561236	-82.991817	9.406573
31650		71.397563	-82.535538	7.474356
31651		72.991539	-82.088909	5.783847
31652		74.367004	-81.645373	4.321656
31653		75.618176	-81.191239	3.014582
31654		76.783811	-80.714876	1.829468
31655		77.935834	-80.198553	0.695586
31656		79.052922	-79.650084	-0.373398
31657		80.047811	-79.086403	-1.340318
31658		80.863808	-78.518294	-2.167778
31659		81.472802	-77.962468	-2.843933
31660		81.951727	-77.421575	-3.434185
31661		82.319864	-76.898200	-3.936971
31662		82.620093	-76.382415	-4.358069
31663		82.872382	-75.866636	-4.704551
31664		83.115559	-75.341670	-5.000809
31665		83.390067	-74.806056	-5.296612
31666		83.712193	-74.270742	-5.619085
31667		84.050285	-73.742108	-5.978909
31668		84.343162	-73.222960	-6.347667
31669		84.550849	-72.716196	-6.711876
31670		84.666769	-72.213795	-7.045455
31671		84.725832	-71.703145	-7.347912
31672		84.843992	-71.164237	-7.684400
31673		85.112744	-70.593886	-8.095467
31674		85.507497	-69.996620	-8.523165
31675		85.957636	-69.381968	-8.903177
31676		86.400365	-68.765364	-9.217205
31677		86.764468	-68.158242	-9.458885
31678		87.008252	-67.566380	-9.647407
31679		87.097919	-66.995981	-9.796741
31680		87.023046	-66.449272	-9.907525
31681		86.807729	-65.918084	-9.976600
31682		86.497294	-65.392591	-9.979860
31683		86.165507	-64.851862	-9.937945
31684		85.856526	-64.288177	-9.860418
31685		85.580121	-63.698567	-9.754553
31686		85.337956	-63.099351	-9.642235
31687		85.098328	-62.497622	-9.528920
31688		84.852024	-61.897585	-9.419370
31689		84.591793	-61.301229	-9.320075
31690		84.320723	-60.713339	-9.237056
31691		84.019953	-60.120852	-9.150362
31692		83.698370	-59.526053	-9.034031
31693		83.398364	-58.923747	-8.911912
31694		83.144273	-58.309993	-8.791053
31695		82.970089	-57.680957	-8.707049
31696		82.885575	-57.043973	-8.660481
31697		82.866493	-56.403080	-8.645140
31698		82.861776	-55.764357	-8.625515
31699		82.826121	-55.130811	-8.586454
31700		82.717612	-54.502363	-8.513186
31701		82.522837	-53.877874	-8.406248
31702		82.273506	-53.254099	-8.279279
31703		82.019307	-52.626335	-8.164547
31704		81.796563	-51.975308	-8.082019
31705		81.640213	-51.300296	-8.043535
31706		81.545964	-50.617585	-8.033916
31707		81.483716	-49.945708	-8.038888
31708		81.416254	-49.304030	-8.040131
31709		81.307537	-48.687393	-8.026660
31710		81.148203	-48.092241	-7.984747
31711		80.955779	-47.501343	-7.935937
31712		80.758503	-46.900091	-7.878916
31713		80.572915	-46.284579	-7.822996
31714		80.404131	-45.660740	-7.776985
31715		80.251503	-45.039541	-7.738520
31716		80.125265	-44.426821	-7.709020
31717		80.041285	-43.818785	-7.690762
31718		80.007357	-43.214236	-7.681328
31719		80.014000	-42.596625	-7.673937
31720		80.028476	-41.967526	-7.669653
31721		80.013260	-41.331802	-7.676107
31722		79.950395	-40.696250	-7.679601
31723		79.864402	-40.061244	-7.700018
31724		79.780187	-39.431957	-7.734888
31725		79.708081	-38.819651	-7.782119
31726		79.664893	-38.224305	-7.824059
31727		79.647364	-37.641171	-7.861503
31728		79.648640	-37.059114	-7.891275
31729		79.660116	-36.473959	-7.922445
31730		79.662061	-35.895445	-7.958674
31731		79.634900	-35.327935	-7.994682
31732		79.588810	-34.772160	-8.038714
31733		79.552964	-34.230733	-8.080352
31734		79.540380	-33.695128	-8.128381
31735		79.558455	-33.159137	-8.183610
31736		79.613455	-32.626644	-8.249296
31737		79.716523	-32.101130	-8.323457
31738		79.852182	-31.579672	-8.390588
31739		79.993801	-31.074555	-8.426239
31740		80.102386	-30.584540	-8.440048
31741		80.163948	-30.111594	-8.436679
31742		80.156877	-29.646661	-8.416877
31743		80.066831	-29.188355	-8.392695
31744		79.916910	-28.726833	-8.377884
31745		79.745392	-28.257175	-8.372978
31746		79.594829	-27.782922	-8.376306
31747		79.497518	-27.295001	-8.392122
31748		79.476570	-26.785848	-8.417930
31749		79.536573	-26.256820	-8.455263
31750		79.652094	-25.714430	-8.502567
31751		79.775191	-25.174356	-8.561288
31752		79.865081	-24.637904	-8.611514
31753		79.909246	-24.109664	-8.649062
31754		79.917263	-23.588631	-8.680167
31755		79.909769	-23.078866	-8.722044
31756		79.905215	-22.571882	-8.776667
31757		79.914012	-22.064099	-8.839120
31758		79.942014	-21.551707	-8.897677
31759		79.973607	-21.043955	-8.946326
31760		79.983211	-20.545970	-8.989075
31761		79.943669	-20.062712	-9.019115
31762		79.849371	-19.596654	-9.040319
31763		79.714851	-19.151857	-9.059547
31764		79.562890	-18.722174	-9.078050
31765		79.424243	-18.295113	-9.097417
31766		79.298159	-17.862632	-9.119947
31767		79.190956	-17.427799	-9.140351
31768		79.095155	-16.998367	-9.156733
31769		79.006672	-16.580258	-9.169331
31770		78.921695	-16.174910	-9.185559
31771		78.838321	-15.783214	-9.217788
31772		78.750588	-15.395924	-9.272090
31773		78.639064	-15.014872	-9.333300
31774		78.498818	-14.640320	-9.389584
31775		78.331885	-14.270915	-9.433755
31776		78.157143	-13.901652	-9.464861
31777		78.008192	-13.523860	-9.487487
31778		77.904884	-13.131177	-9.507876
31779		77.844030	-12.721509	-9.515446
31780		77.796482	-12.298119	-9.512602
31781		77.711355	-11.876962	-9.484995
31782		77.535565	-11.480364	-9.429764
31783		77.266315	-11.115961	-9.350417
31784		76.907701	-10.789125	-9.247281
31785		76.504180	-10.468124	-9.131885
31786		76.140548	-10.130456	-9.021747
31787		75.842972	-9.782784	-8.910202
31788		75.611160	-9.418654	-8.807251
31789		75.435504	-9.026836	-8.723625
31790		75.264273	-8.634407	-8.644982
31791		75.056649	-8.274551	-8.551024
31792		74.879482	-7.910866	-8.483859
31793		74.787072	-7.620125	-8.447957
31794		74.853605	-7.461589	-8.443213
31795		75.027848	-7.423764	-8.460563
31796		75.239360	-7.462787	-8.481417
31797		75.452280	-7.534242	-8.504200
31798		75.604065	-7.570597	-8.523419
31799		75.667759	-7.568747	-8.530674
31800		75.622806	-7.531447	-8.514566
31801		75.491988	-7.473002	-8.472926
31802		75.314051	-7.400522	-8.415034
31803		75.141529	-7.300161	-8.349472
31804		74.983785	-7.178145	-8.302601
31805		74.867575	-7.065560	-8.280000
31806		74.804873	-6.983854	-8.287872
31807		74.806337	-6.957546	-8.314725
31808		74.849452	-6.968363	-8.350330
31809		74.903242	-6.994408	-8.385633
31810		74.942100	-7.014226	-8.413748
31811		74.951684	-7.025829	-8.424967
31812		74.931148	-7.023928	-8.423078
31813		74.873145	-7.011474	-8.404370
31814		74.789183	-6.982519	-8.378148
31815		74.698732	-6.950204	-8.350556
31816		74.622124	-6.917980	-8.329577
31817		74.570076	-6.891718	-8.315671
31818		74.543179	-6.873436	-8.313422
31819		74.532252	-6.866439	-8.320478
31820		74.530315	-6.871016	-8.336288
31821		74.528045	-6.873945	-8.352525
31822		74.520481	-6.879342	-8.368790
31823		74.511131	-6.883196	-8.379670
31824		74.503173	-6.884767	-8.387157
31825		74.494806	-6.881665	-8.390643
31826		74.489939	-6.876699	-8.393778
31827		74.489517	-6.870966	-8.399759
31828		74.494131	-6.864604	-8.405717
31829		74.499361	-6.861205	-8.413223
31830		74.502028	-6.854026	-8.423481
31831		74.506540	-6.849508	-8.435253
31832		74.510541	-6.841760	-8.450368
31833		74.509476	-6.831480	-8.463531
31834		74.502218	-6.818936	-8.478037
31835		74.483139	-6.802299	-8.490056
31836		74.461227	-6.784983	-8.498498
31837		74.439390	-6.768148	-8.506265
31838		74.425596	-6.753297	-8.512181
31839		74.413017	-6.741311	-8.518434
31840		74.401173	-6.732999	-8.525510
31841		74.386008	-6.730903	-8.531944
31842		74.367033	-6.729375	-8.536700
31843		74.352863	-6.726766	-8.537253
31844		74.337814	-6.719544	-8.538288
31845		74.327126	-6.708496	-8.537786
31846		74.316523	-6.700620	-8.540840
31847		74.309141	-6.692257	-8.546835
31848		74.303486	-6.682313	-8.556140
31849		74.298734	-6.673685	-8.565443
31850		74.292796	-6.665369	-8.576356
31851		74.287624	-6.661192	-8.585860
31852		74.285982	-6.655047	-8.597381
31853		74.293093	-6.654296	-8.607994
31854		74.299240	-6.654073	-8.626042
31855		74.303881	-6.658205	-8.650120
31856		74.297790	-6.669189	-8.679976
31857		74.283615	-6.691367	-8.709848
31858		74.264171	-6.729710	-8.738705
31859		74.236603	-6.793156	-8.761694
31860		74.212010	-6.865922	-8.780992
31861		74.193772	-6.944670	-8.799426
31862		74.182434	-7.019718	-8.815379
31863		74.172820	-7.099599	-8.832995
31864		74.170708	-7.184004	-8.855817
31865		74.166571	-7.283405	-8.880490
31866		74.162602	-7.408033	-8.914044
31867		74.157135	-7.550148	-8.963594
31868		74.171597	-7.703908	-9.031930
31869		74.222771	-7.866201	-9.125901
31870		74.321656	-8.039600	-9.236088
31871		74.474003	-8.219249	-9.358719
31872		74.661192	-8.403995	-9.489480
31873		74.860468	-8.600526	-9.627662
31874		75.054637	-8.813179	-9.764775
31875		75.233328	-9.048218	-9.893761
31876		75.392780	-9.302670	-10.010269
31877		75.553503	-9.574471	-10.114028
31878		75.726079	-9.853212	-10.207151
31879		75.914443	-10.139728	-10.293937
31880		76.116294	-10.432300	-10.377579
31881		76.334928	-10.729337	-10.460107
31882		76.567506	-11.033831	-10.540055
31883		76.793053	-11.348365	-10.621880
31884		76.991595	-11.681062	-10.695518
31885		77.152554	-12.034243	-10.753161
31886		77.278385	-12.408887	-10.786237
31887		77.373565	-12.802262	-10.802655
31888		77.450369	-13.206160	-10.801958
31889		77.524878	-13.617332	-10.785036
31890		77.614461	-14.033004	-10.755608
31891		77.735528	-14.453659	-10.715440
31892		77.887735	-14.880721	-10.668622
31893		78.066461	-15.313413	-10.623748
31894		78.265090	-15.755807	-10.585441
31895		78.470211	-16.212603	-10.554219
31896		78.672714	-16.680762	-10.527703
31897		78.865743	-17.162513	-10.501861
31898		79.050056	-17.651508	-10.476140
31899		79.234286	-18.155200	-10.445724
31900		79.424835	-18.663000	-10.410758
31901		79.619377	-19.180438	-10.367289
31902		79.811052	-19.710116	-10.312055
31903		79.978270	-20.258917	-10.247632
31904		80.104593	-20.831394	-10.174790
31905		80.200547	-21.428391	-10.095061
31906		80.287850	-22.041951	-10.009708
31907		80.391232	-22.656448	-9.927991
31908		80.516950	-23.264218	-9.851937
31909		80.661905	-23.861888	-9.777636
31910		80.824572	-24.447306	-9.708243
31911		80.993770	-25.027256	-9.646631
31912		81.172023	-25.601038	-9.597316
31913		81.353415	-26.174161	-9.563509
31914		81.533356	-26.750637	-9.550955
31915		81.701295	-27.334124	-9.549991
31916		81.847586	-27.916113	-9.562181
31917		81.969339	-28.498689	-9.584517
31918		82.060705	-29.073783	-9.620619
31919		82.123456	-29.649860	-9.668555
31920		82.175924	-30.226020	-9.726461
31921		82.233829	-30.802739	-9.783587
31922		82.307952	-31.384108	-9.835537
31923		82.399246	-31.972918	-9.875312
31924		82.488959	-32.560019	-9.896981
31925		82.578545	-33.148166	-9.903512
31926		82.664566	-33.743948	-9.892146
31927		82.724767	-34.357175	-9.866696
31928		82.744307	-34.993331	-9.844628
31929		82.723907	-35.659439	-9.821416
31930		82.683831	-36.336650	-9.796748
31931		82.661936	-37.008238	-9.761139
31932		82.678275	-37.666246	-9.710305
31933		82.740453	-38.326079	-9.644303
31934		82.835767	-38.987787	-9.569589
31935		82.951349	-39.655367	-9.490392
31936		83.073613	-40.320235	-9.419785
31937		83.196783	-40.983966	-9.356031
31938		83.324277	-41.639578	-9.307512
31939		83.458466	-42.294984	-9.271828
31940		83.592751	-42.947839	-9.258447
31941		83.716035	-43.607568	-9.257798
31942		83.808777	-44.274954	-9.273316
31943		83.866676	-44.958019	-9.296516
31944		83.898716	-45.652696	-9.320063
31945		83.921390	-46.350475	-9.321583
31946		83.960934	-47.047587	-9.308239
31947		84.026055	-47.752352	-9.276987
31948		84.131762	-48.459631	-9.243526
31949		84.269140	-49.166619	-9.206219
31950		84.421871	-49.862332	-9.166264
31951		84.574628	-50.553506	-9.127048
31952		84.698396	-51.242411	-9.091472
31953		84.791688	-51.941556	-9.059159
31954		84.862125	-52.651843	-9.039098
31955		84.926161	-53.379505	-9.031948
31956		84.994467	-54.107438	-9.037771
31957		85.083490	-54.841695	-9.040537
31958		85.189344	-55.562971	-9.037051
31959		85.324974	-56.272054	-9.027035
31960		85.492403	-56.963023	-9.023723
31961		85.684402	-57.642497	-9.034681
31962		85.883298	-58.309612	-9.059494
31963		86.075225	-58.974646	-9.087516
31964		86.237769	-59.650815	-9.123365
31965		86.375221	-60.337177	-9.166789
31966		86.500668	-61.033424	-9.237021
31967		86.649907	-61.727751	-9.349929
31968		86.842874	-62.400678	-9.530793
31969		87.090816	-63.049330	-9.772505
31970		87.387058	-63.669984	-10.055328
31971		87.714412	-64.281006	-10.360160
31972		88.062247	-64.891993	-10.676404
31973		88.418341	-65.511921	-10.994728
31974		88.767873	-66.132525	-11.308208
31975		89.109563	-66.746937	-11.604364
31976		89.434135	-67.357897	-11.874145
31977		89.751866	-67.971346	-12.129874
31978		90.060477	-68.593162	-12.376284
31979		90.346712	-69.221793	-12.611969
31980		90.608571	-69.845350	-12.828725
31981		90.859896	-70.466874	-13.009706
31982		91.115572	-71.066833	-13.160130
31983		91.393473	-71.652460	-13.301811
31984		91.702462	-72.228016	-13.473757
31985		92.013651	-72.800753	-13.669364
31986		92.307657	-73.375393	-13.882149
31987		92.569553	-73.960102	-14.100314
31988		92.799636	-74.553630	-14.318568
31989		93.002841	-75.162350	-14.544904
31990		93.181855	-75.796296	-14.788536
31991		93.342220	-76.459549	-15.033345
31992		93.487884	-77.134543	-15.286318
31993		93.642546	-77.823101	-15.556486
31994		93.793925	-78.515661	-15.831489
31995		93.949611	-79.209302	-16.122544
31996		94.090759	-79.889287	-16.418810
31997		94.209669	-80.544781	-16.720445
31998		94.272777	-81.171468	-17.007052
31999		94.302382	-81.789539	-17.274266
32000		94.318154	-82.388316	-17.535131
32001		94.333838	-82.975921	-17.764930
32002		94.311913	-83.543732	-17.916185
32003		94.248893	-84.096211	-17.971820
32004		94.075719	-84.639723	-17.828297
32005		93.776579	-85.171723	-17.466400
32006		93.296251	-85.672550	-16.860521
32007		92.587241	-86.136215	-16.001927
32008		91.685902	-86.563228	-14.961441
32009		90.665398	-86.960951	-13.835945
32010		89.749083	-87.338985	-12.867389
32011		89.084993	-87.705488	-12.200194
32012		88.621030	-88.071965	-11.760256
32013		88.466618	-88.452532	-11.629309
32014		88.547212	-88.842891	-11.724069
32015		88.892263	-89.241455	-12.063882
32016		89.959625	-89.635162	-13.104113
32017		-116.350781	-89.970081	-166.741601
32018		-93.845900	-89.588821	170.865110
32019		-93.308289	-89.219155	170.384941
32020		-93.418016	-88.886157	170.528076
32021		-94.024758	-88.572168	171.135018
32022		-94.565123	-88.247312	171.660609
32023		-95.019194	-87.903534	172.091610
32024		-95.422582	-87.552069	172.454118
32025		-95.596528	-87.191936	172.571520
32026		-95.629275	-86.823950	172.522808
32027		-95.499204	-86.441342	172.295842
32028		-95.238690	-86.049625	171.931297
32029		-94.849298	-85.656493	171.438908
32030		-94.286829	-85.274830	170.824075
32031		-93.639913	-84.914236	170.108536
32032		-93.046201	-84.581946	169.506166
32033		-92.498203	-84.285297	168.924415
32034		-92.107854	-84.029286	168.559531
32035		-91.881591	-83.809318	168.345829
32036		-91.787627	-83.618129	168.333814
32037		-91.777651	-83.456427	168.394846
32038		-91.774770	-83.312188	168.486783
32039		-91.774117	-83.187812	168.587527
32040		-91.757318	-83.074462	168.664866
32041		-91.708494	-82.970150	168.691958
32042		-91.613558	-82.880140	168.687566
32043		-91.490360	-82.811383	168.589256
32044		-91.323176	-82.772093	168.434710
32045		-91.154886	-82.767442	168.273778
32046		-90.970629	-82.782784	168.100089
32047		-90.824947	-82.798916	167.970874
32048		-90.713671	-82.804868	167.916040
32049		-90.609659	-82.795596	167.825766
32050		-90.500601	-82.778919	167.723304
32051		-90.410626	-82.765795	167.636152
32052		-90.344814	-82.761865	167.610019
32053		-90.269645	-82.767090	167.548934
32054		-90.205738	-82.778318	167.544491
32055		-90.130901	-82.800134	167.496637
32056		-90.060177	-82.830685	167.485307
32057		-90.013265	-82.863829	167.445398
32058		-90.005292	-82.890055	167.464761
32059		-90.032467	-82.902571	167.481554
32060		-90.101265	-82.904411	167.584833
32061		-90.149015	-82.905466	167.640194
32062		-90.127081	-82.906611	167.636020
32063		-90.043256	-82.914169	167.568432
32064		-89.914035	-82.919565	167.487731
32065		-89.744012	-82.915751	167.320731
32066		-89.585790	-82.899806	167.189260
32067		-89.420862	-82.879570	167.020043
32068		-89.286076	-82.865582	166.882688
32069		-89.174735	-82.855803	166.772933
32070		-89.095597	-82.854403	166.697349
32071		-89.032157	-82.853508	166.640131
32072		-88.988126	-82.847989	166.610313
32073		-88.970789	-82.840130	166.611997
32074		-88.973334	-82.829796	166.638521
32075		-89.032387	-82.821796	166.730059
32076		-89.139757	-82.813329	166.909215
32077		-89.233956	-82.817867	167.054802
32078		-89.279266	-82.828492	167.170876
32079		-89.280268	-82.847806	167.262557
32080		-89.216673	-82.876945	167.301709
32081		-89.154325	-82.912312	167.342388
32082		-89.092333	-82.952576	167.402844
32083		-89.036933	-82.999517	167.416885
32084		-88.994133	-83.052791	167.457891
32085		-89.004231	-83.107191	167.504988
32086		-89.025140	-83.163800	167.590949
32087		-89.067412	-83.226136	167.671319
32088		-89.103284	-83.295190	167.780948
32089		-89.091914	-83.377199	167.809761
32090		-89.044341	-83.466323	167.806361
32091		-88.954782	-83.567664	167.764881
32092		-88.831741	-83.680835	167.722041
32093		-88.693649	-83.803614	167.627906
32094		-88.531154	-83.932703	167.530899
32095		-88.333822	-84.069069	167.356708
32096		-88.133017	-84.211899	167.173787
32097		-87.919970	-84.368452	166.982756
32098		-87.679443	-84.541384	166.772932
32099		-87.438052	-84.731183	166.575545
32100		-87.155099	-84.937764	166.348321
32101		-86.780476	-85.163739	166.034147
32102		-86.320139	-85.419875	165.616240
32103		-85.698147	-85.707516	165.015853
32104		-84.845497	-86.014859	164.166661
32105		-83.727772	-86.343936	163.026781
32106		-82.323545	-86.693374	161.613866
32107		-80.579304	-87.058837	159.812760
32108		-78.229472	-87.431582	157.442379
32109		-74.949826	-87.816091	154.116114
32110		-70.144827	-88.199095	149.317141
32111		-62.245609	-88.587922	141.398418
32112		-47.727055	-88.947799	126.900449
32113		-19.621962	-89.191033	98.765971
32114		17.262233	-89.145269	61.826356
32115		41.989094	-88.818876	37.017608
32116		54.651239	-88.357412	24.251793
32117		61.366595	-87.821676	17.396457
32118		64.977937	-87.237704	13.613279
32119		67.009109	-86.601080	11.383890
32120		68.063769	-85.912606	10.120852
32121		68.618029	-85.168643	9.365981
32122		68.852211	-84.396618	8.975407
32123		69.104787	-83.624436	8.612284
32124		69.491328	-82.870533	8.175952
32125		70.087985	-82.131720	7.581073
32126		70.915876	-81.394947	6.784974
32127		71.887300	-80.640367	5.845517
32128		72.842880	-79.876383	4.909470
32129		73.678123	-79.104602	4.058327
32130		74.327967	-78.332642	3.347294
32131		74.749023	-77.557639	2.827765
32132		74.970875	-76.788345	2.482717
32133		75.093833	-76.029753	2.242280
32134		75.203671	-75.297005	2.042982
32135		75.373891	-74.600428	1.838072
32136		75.624465	-73.937330	1.618885
32137		75.956340	-73.287875	1.373005
32138		76.340324	-72.634836	1.103060
32139		76.733554	-71.971130	0.826363
32140		77.078515	-71.298793	0.594606
32141		77.345907	-70.609143	0.417276
32142		77.478304	-69.903911	0.340215
32143		77.465489	-69.183033	0.370869
32144		77.313685	-68.450314	0.510194
32145		77.037622	-67.701455	0.745203
32146		76.646641	-66.947037	1.077887
32147		76.178310	-66.199552	1.474505
32148		75.681390	-65.466265	1.884449
32149		75.230249	-64.750532	2.247212
32150		74.895983	-64.050249	2.520619
32151		74.713458	-63.346568	2.672002
32152		74.674267	-62.637315	2.711164
32153		74.771877	-61.896642	2.639007
32154		75.015318	-61.130735	2.445154
32155		75.286316	-60.344232	2.192764
32156		75.546133	-59.554853	1.936173
32157		75.797339	-58.763097	1.675993
32158		76.021257	-57.984066	1.439891
32159		76.211081	-57.221012	1.236594
32160		76.376120	-56.472201	1.061114
32161		76.557083	-55.729832	0.879068
32162		76.779943	-54.990880	0.673290
32163		77.060519	-54.239571	0.426469
32164		77.386530	-53.473515	0.140681
32165		77.738536	-52.689344	-0.171759
32166		78.068965	-51.909753	-0.483008
32167		78.329125	-51.150636	-0.779910
32168		78.478892	-50.434391	-1.035897
32169		78.514131	-49.753326	-1.243006
32170		78.456109	-49.102672	-1.394510
32171		78.349087	-48.469244	-1.500737
32172		78.231995	-47.842513	-1.578077
32173		78.152551	-47.201663	-1.642707
32174		78.139066	-46.544902	-1.708097
32175		78.187228	-45.861459	-1.777713
32176		78.285046	-45.160562	-1.854399
32177		78.406590	-44.453891	-1.934184
32178		78.512214	-43.757212	-2.019434
32179		78.571414	-43.064894	-2.116861
32180		78.559937	-42.376942	-2.215197
32181		78.463410	-41.683482	-2.294414
32182		78.283305	-40.986034	-2.334326
32183		78.031401	-40.270140	-2.331645
32184		77.711308	-39.539614	-2.263001
32185		77.347332	-38.795353	-2.150670
32186		76.952349	-38.038437	-2.004993
32187		76.556720	-37.267339	-1.857960
32188		76.187689	-36.504739	-1.738074
32189		75.853377	-35.759184	-1.659557
32190		75.527552	-35.045416	-1.628114
32191		75.187501	-34.366814	-1.639733
32192		74.835396	-33.705087	-1.674294
32193		74.522236	-33.023355	-1.732079
32194		74.392492	-32.324626	-1.944093
32195		74.404143	-31.659192	-2.184127
32196		74.456154	-30.957152	-2.376635
32197		74.539251	-30.231790	-2.544150
32198		74.594671	-29.482724	-2.677749
32199		74.589585	-28.731251	-2.775967
32200		74.526141	-28.004505	-2.838682
32201		74.409587	-27.314227	-2.871384
32202		74.248372	-26.664805	-2.877024
32203		74.049745	-26.057872	-2.872775
32204		73.833977	-25.483877	-2.862880
32205		73.633022	-24.936887	-2.842532
32206		73.451933	-24.416941	-2.793742
32207		73.293782	-23.914609	-2.710573
32208		73.149486	-23.426295	-2.600027
32209		73.008177	-22.941200	-2.480724
32210		72.873594	-22.451351	-2.370692
32211		72.778089	-21.949833	-2.286681
32212		72.747588	-21.442223	-2.227279
32213		72.789495	-20.939438	-2.177959
32214		72.887409	-20.457039	-2.133599
32215		73.002437	-19.991854	-2.084309
32216		73.111757	-19.541808	-2.036813
32217		73.205167	-19.103503	-2.002476
32218		73.281822	-18.674949	-1.990051
32219		73.376454	-18.249956	-2.013271
32220		73.499061	-17.822184	-2.060156
32221		73.648744	-17.391257	-2.136424
32222		73.785668	-16.965621	-2.220912
32223		73.878729	-16.549902	-2.295934
32224		73.924104	-16.146758	-2.358675
32225		73.919468	-15.754600	-2.409532
32226		73.885542	-15.376591	-2.452325
32227		73.844221	-15.012877	-2.494374
32228		73.808714	-14.663562	-2.542550
32229		73.794349	-14.328539	-2.592845
32230		73.804722	-14.003877	-2.640960
32231		73.850278	-13.686545	-2.695028
32232		73.925724	-13.373036	-2.757502
32233		74.002028	-13.065074	-2.806902
32234		74.041099	-12.760444	-2.833594
32235		74.013883	-12.469959	-2.832118
32236		73.899448	-12.199963	-2.817198
32237		73.720441	-11.952987	-2.802889
32238		73.515655	-11.732356	-2.799930
32239		73.337134	-11.525116	-2.814897
32240		73.224460	-11.319192	-2.844184
32241		73.196750	-11.102332	-2.874398
32242		73.234872	-10.868238	-2.898467
32243		73.301238	-10.616453	-2.913933
32244		73.355718	-10.357710	-2.913268
32245		73.372266	-10.114934	-2.909252
32246		73.333816	-9.892143	-2.908812
32247		73.254191	-9.691731	-2.918936
32248		73.145347	-9.507929	-2.934343
32249		73.023246	-9.330059	-2.946054
32250		72.900741	-9.145711	-2.945924
32251		72.797577	-8.945886	-2.939796
32252		72.728229	-8.726808	-2.937021
32253		72.704263	-8.491727	-2.950023
32254		72.716850	-8.242337	-2.995458
32255		72.759581	-7.971919	-3.075872
32256		72.820902	-7.686000	-3.187110
32257		72.885292	-7.381008	-3.316313
32258		72.931645	-7.050456	-3.455095
32259		72.943633	-6.697265	-3.587827
32260		72.886676	-6.336186	-3.687555
32261		72.633080	-6.021764	-3.743573
32262		72.569420	-5.605042	-3.805715
32263		72.635627	-5.123342	-3.939860
32264		72.981666	-4.856749	-4.089786
32265		73.519019	-4.899417	-4.251071
32266		74.057669	-5.076034	-4.429002
32267		74.536058	-5.291856	-4.583631
32268		74.884290	-5.412477	-4.707517
32269		75.085796	-5.423381	-4.806992
32270		75.157279	-5.375385	-4.871598
32271		75.100358	-5.299510	-4.894276
32272		74.968965	-5.201308	-4.884923
32273		74.844313	-5.043661	-4.841731
32274		74.744659	-4.842497	-4.808907
32275		74.687864	-4.642481	-4.799820
32276		74.689018	-4.495413	-4.821829
32277		74.769664	-4.449007	-4.873880
32278		74.921212	-4.472410	-4.938865
32279		75.082539	-4.496717	-4.996844
32280		75.211126	-4.494747	-5.036651
32281		75.295621	-4.465757	-5.060447
32282		75.332964	-4.411998	-5.073112
32283		75.329685	-4.344532	-5.075011
32284		75.295047	-4.269620	-5.077642
32285		75.265481	-4.197683	-5.078247
32286		75.262800	-4.139176	-5.080119
32287		75.295745	-4.099867	-5.078312
32288		75.340451	-4.079656	-5.076776
32289		75.378906	-4.063789	-5.074737
32290		75.398330	-4.041727	-5.070502
32291		75.394703	-4.013861	-5.070326
32292		75.371850	-3.982536	-5.069143
32293		75.343961	-3.947147	-5.065194
32294		75.316349	-3.915044	-5.056796
32295		75.289154	-3.889037	-5.048212
32296		75.259388	-3.872331	-5.037740
32297		75.229420	-3.865491	-5.031483
32298		75.200333	-3.869256	-5.025678
32299		75.172017	-3.881057	-5.023542
32300		75.145609	-3.894094	-5.017603
32301		75.129508	-3.910940	-5.013035
32302		75.120502	-3.924229	-5.012047
32303		75.119190	-3.936350	-5.014146
32304		75.120528	-3.945453	-5.018005
32305		75.115991	-3.952672	-5.023105
32306		75.099580	-3.957888	-5.031126
32307		75.072804	-3.961145	-5.040090
32308		75.037482	-3.964086	-5.046832
32309		74.993720	-3.965198	-5.054066
32310		74.954616	-3.969204	-5.056136
32311		74.924871	-3.976583	-5.048999
32312		74.892816	-3.982901	-5.037540
32313		74.857210	-3.994518	-5.025806
32314		74.810295	-4.003473	-5.017172
32315		74.755078	-4.015342	-5.011554
32316		74.682799	-4.029272	-5.005392
32317		74.589728	-4.051436	-5.006928
32318		74.470974	-4.081239	-5.011658
32319		74.343980	-4.114535	-5.017711
32320		74.242181	-4.142859	-5.018366
32321		74.188666	-4.162013	-5.009685
32322		74.161560	-4.172254	-4.992579
32323		74.142617	-4.181418	-4.972364
32324		74.111796	-4.191760	-4.959562
32325		74.048322	-4.223002	-4.963856
32326		73.953647	-4.265404	-4.984007
32327		73.876927	-4.314028	-5.013929
32328		73.862813	-4.351588	-5.042026
32329		73.934319	-4.378449	-5.058515
32330		74.054400	-4.400350	-5.062965
32331		74.206070	-4.419846	-5.062951
32332		74.356057	-4.440438	-5.068328
32333		74.475051	-4.476239	-5.085922
32334		74.540421	-4.536662	-5.111011
32335		74.554254	-4.625439	-5.140986
32336		74.538797	-4.727002	-5.175897
32337		74.514882	-4.835730	-5.204304
32338		74.479723	-4.957066	-5.223137
32339		74.422760	-5.095802	-5.230275
32340		74.345228	-5.247895	-5.232617
32341		74.260896	-5.417431	-5.232381
32342		74.181670	-5.591035	-5.234409
32343		74.128905	-5.768479	-5.239532
32344		74.108642	-5.945047	-5.247148
32345		74.122881	-6.124940	-5.253300
32346		74.165878	-6.307315	-5.251349
32347		74.224298	-6.500175	-5.240434
32348		74.283177	-6.709790	-5.225299
32349		74.337361	-6.942807	-5.206643
32350		74.391500	-7.195695	-5.189498
32351		74.449012	-7.463950	-5.175155
32352		74.514197	-7.742578	-5.165839
32353		74.592867	-8.031064	-5.159284
32354		74.686297	-8.326197	-5.156123
32355		74.792923	-8.628505	-5.156065
32356		74.904761	-8.942853	-5.155716
32357		75.013251	-9.277818	-5.155302
32358		75.108820	-9.631682	-5.162334
32359		75.200499	-9.996975	-5.171546
32360		75.311157	-10.365281	-5.176737
32361		75.454978	-10.734078	-5.172124
32362		75.626441	-11.107731	-5.164034
32363		75.814241	-11.494340	-5.157194
32364		76.007653	-11.901241	-5.164307
32365		76.195615	-12.328154	-5.196926
32366		76.381748	-12.772152	-5.252408
32367		76.576643	-13.226301	-5.324339
32368		76.781629	-13.686915	-5.398386
32369		77.002879	-14.150189	-5.472222
32370		77.248774	-14.612490	-5.544344
32371		77.532092	-15.070886	-5.622569
32372		77.845798	-15.523863	-5.707484
32373		78.178951	-15.980077	-5.797234
32374		78.512716	-16.438424	-5.882153
32375		78.820732	-16.907570	-5.959462
32376		79.077444	-17.387101	-6.028249
32377		79.276196	-17.886648	-6.087424
32378		79.424910	-18.402666	-6.141100
32379		79.550076	-18.931494	-6.186789
32380		79.673807	-19.468998	-6.226650
32381		79.815962	-20.002156	-6.253486
32382		79.976843	-20.528347	-6.262562
32383		80.164326	-21.049832	-6.252144
32384		80.378278	-21.564279	-6.225035
32385		80.616101	-22.083208	-6.190358
32386		80.857893	-22.602084	-6.154976
32387		81.089139	-23.122713	-6.130424
32388		81.293498	-23.643214	-6.115043
32389		81.465428	-24.177666	-6.100812
32390		81.603468	-24.721330	-6.084970
32391		81.718485	-25.274642	-6.061006
32392		81.829384	-25.830351	-6.027857
32393		81.952013	-26.387014	-5.988118
32394		82.089409	-26.936481	-5.944002
32395		82.232689	-27.474246	-5.900158
32396		82.387711	-28.002892	-5.852290
32397		82.555956	-28.534068	-5.807919
32398		82.724812	-29.065407	-5.770195
32399		82.883776	-29.598395	-5.737332
32400		83.037609	-30.137969	-5.711183
32401		83.177776	-30.692252	-5.686940
32402		83.303128	-31.257060	-5.660101
32403		83.420174	-31.821360	-5.621640
32404		83.539439	-32.375279	-5.580007
32405		83.663636	-32.919156	-5.527416
32406		83.800071	-33.464751	-5.473456
32407		83.928379	-34.023797	-5.425549
32408		84.040979	-34.600599	-5.389514
32409		84.126080	-35.193013	-5.362648
32410		84.174778	-35.781853	-5.337256
32411		84.204677	-36.365683	-5.306920
32412		84.237453	-36.940575	-5.267384
32413		84.292700	-37.510312	-5.222064
32414		84.375601	-38.069341	-5.173255
32415		84.492877	-38.619633	-5.131120
32416		84.649308	-39.159886	-5.100836
32417		84.845347	-39.689831	-5.087137
32418		85.062217	-40.213245	-5.091252
32419		85.284273	-40.740081	-5.104934
32420		85.491227	-41.266302	-5.117095
32421		85.681063	-41.795147	-5.131811
32422		85.846111	-42.322551	-5.142793
32423		85.992771	-42.840821	-5.152829
32424		86.132393	-43.346555	-5.154115
32425		86.278873	-43.849448	-5.142284
32426		86.437588	-44.355502	-5.128009
32427		86.608225	-44.879910	-5.117432
32428		86.784644	-45.415253	-5.128505
32429		86.964196	-45.964922	-5.158711
32430		87.146895	-46.521074	-5.202350
32431		87.338787	-47.084243	-5.252958
32432		87.527943	-47.653668	-5.309282
32433		87.699549	-48.233486	-5.369138
32434		87.844795	-48.824963	-5.426480
32435		87.965815	-49.428521	-5.472292
32436		88.072565	-50.037365	-5.512479
32437		88.179856	-50.652868	-5.544373
32438		88.308090	-51.276589	-5.571423
32439		88.479286	-51.904862	-5.604996
32440		88.693493	-52.530000	-5.653048
32441		88.939707	-53.148725	-5.725379
32442		89.193550	-53.758014	-5.820765
32443		89.438563	-54.370450	-5.923449
32444		89.661013	-54.989986	-6.035350
32445		89.868601	-55.616424	-6.154580
32446		90.048169	-56.243461	-6.277051
32447		90.216753	-56.880592	-6.407915
32448		90.369998	-57.533321	-6.544785
32449		90.524914	-58.208192	-6.697627
32450		90.684955	-58.912904	-6.853261
32451		90.851618	-59.648596	-7.001505
32452		91.015911	-60.385265	-7.131200
32453		91.184579	-61.106642	-7.236907
32454		91.369535	-61.812254	-7.337577
32455		91.562512	-62.507900	-7.449065
32456		91.751381	-63.199852	-7.585487
32457		91.928724	-63.910839	-7.759838
32458		92.072090	-64.640933	-7.965772
32459		92.185374	-65.394032	-8.199472
32460		92.259972	-66.166940	-8.454723
32461		92.321853	-66.939950	-8.721788
32462		92.386246	-67.697780	-8.968369
32463		92.498899	-68.444551	-9.214418
32464		92.651312	-69.176905	-9.453383
32465		92.819926	-69.889400	-9.680767
32466		92.959124	-70.573172	-9.886796
32467		93.039188	-71.242602	-10.036235
32468		93.077162	-71.894857	-10.133801
32469		93.116447	-72.523594	-10.213506
32470		93.172835	-73.129563	-10.269766
32471		93.295309	-73.722610	-10.362612
32472		93.476860	-74.302235	-10.504536
32473		93.698131	-74.876283	-10.690355
32474		93.926139	-75.442987	-10.904773
32475		94.154501	-76.005767	-11.143037
32476		94.410369	-76.567145	-11.419672
32477		94.699994	-77.129854	-11.717551
32478		95.022280	-77.686023	-12.035725
32479		95.372337	-78.232456	-12.371369
32480		95.742695	-78.766835	-12.729121
32481		96.146266	-79.301134	-13.123972
32482		96.550580	-79.834179	-13.532955
32483		96.986076	-80.371089	-13.996632
32484		97.444992	-80.911202	-14.502453
32485		97.918931	-81.457739	-15.038423
32486		98.361985	-81.994451	-15.551254
32487		98.817253	-82.515221	-16.094248
32488		99.248523	-83.025478	-16.611931
32489		99.700142	-83.533649	-17.141406
32490		100.213308	-84.045756	-17.674161
32491		100.807366	-84.558388	-18.294055
32492		101.494562	-85.063184	-19.002035
32493		102.432047	-85.569792	-19.955735
32494		103.715786	-86.078975	-21.252841
32495		105.511116	-86.584920	-23.065232
32496		107.896880	-87.076031	-25.479589
32497		111.156387	-87.546939	-28.776756
32498		115.558222	-87.987310	-33.181025
32499		122.003605	-88.404260	-39.634103
32500		132.725563	-88.785525	-50.334161
32501		152.085840	-89.087723	-69.651370
32502		-176.669319	-89.210311	-100.787785
32503		-146.060598	-89.065936	-131.303115
32504		-127.751476	-88.755274	-149.485574
32505		-117.746729	-88.383839	-159.397021
32506		-112.126732	-88.003259	-164.933226
32507		-108.815375	-87.630711	-168.172727
32508		-106.805917	-87.279671	-170.123912
32509		-105.588220	-86.951292	-171.299826
32510		-104.698485	-86.648368	-172.123507
32511		-103.941716	-86.367557	-172.860842
32512		-103.225372	-86.113633	-173.537698
32513		-102.544204	-85.884260	-174.205333
32514		-101.964085	-85.676833	-174.761819
32515		-101.470400	-85.492875	-175.211043
32516		-101.151327	-85.336362	-175.428583
32517		-100.973284	-85.208566	-175.537337
32518		-100.895088	-85.098232	-175.522262
32519		-100.923860	-84.999402	-175.452672
32520		-101.053044	-84.911768	-175.279334
32521		-101.196296	-84.837606	-175.137166
32522		-101.377475	-84.785273	-174.930760
32523		-101.567659	-84.759147	-174.743349
32524		-101.752526	-84.741863	-174.516011
32525		-101.976188	-84.736711	-174.257193
32526		-102.287074	-84.730082	-173.869771
32527		-102.599293	-84.714038	-173.498708
32528		-102.830008	-84.681722	-173.166209
32529		-102.944114	-84.631072	-172.980081
32530		-102.934745	-84.562221	-172.894847
32531		-102.820465	-84.482600	-172.964848
32532		-102.599352	-84.403748	-173.159811
32533		-102.310722	-84.326945	-173.425600
32534		-102.047957	-84.260056	-173.637417
32535		-101.723874	-84.202645	-173.925359
32536		-101.366823	-84.157640	-174.214257
32537		-100.961090	-84.119559	-174.575909
32538		-100.533182	-84.085092	-174.943217
32539		-100.081583	-84.049514	-175.378322
32540		-99.646823	-84.013957	-175.792156
32541		-99.278356	-83.980690	-176.178745
32542		-98.977743	-83.954664	-176.503607
32543		-98.815398	-83.946254	-176.687770
32544		-98.776082	-83.954569	-176.711329
32545		-98.826614	-83.977263	-176.660826
32546		-98.948020	-84.008830	-176.493667
32547		-99.141603	-84.047213	-176.280419
32548		-99.370915	-84.089779	-176.009250
32549		-99.611288	-84.127640	-175.761946
32550		-99.833297	-84.165385	-175.522697
32551		-100.000667	-84.204524	-175.376838
32552		-100.152235	-84.245009	-175.230186
32553		-100.296411	-84.290696	-175.118261
32554		-100.406691	-84.335384	-175.012547
32555		-100.476618	-84.375870	-174.967483
32556		-100.539736	-84.411389	-174.894408
32557		-100.547228	-84.441575	-174.893748
32558		-100.513500	-84.462963	-174.903441
32559		-100.457438	-84.483420	-174.962578
32560		-100.383635	-84.501947	-175.015483
32561		-100.275602	-84.523604	-175.130050
32562		-100.134687	-84.545565	-175.257985
32563		-99.944997	-84.559412	-175.457454
32564		-99.729543	-84.568442	-175.655825
32565		-99.498942	-84.572951	-175.889591
32566		-99.249990	-84.575436	-176.139089
32567		-99.021347	-84.577088	-176.362363
32568		-98.807640	-84.576623	-176.540967
32569		-98.628544	-84.584655	-176.708358
32570		-98.463917	-84.605650	-176.846175
32571		-98.298748	-84.641213	-177.007091
32572		-98.201226	-84.702928	-177.088181
32573		-98.211865	-84.785649	-177.093532
32574		-98.307331	-84.878197	-176.992742
32575		-98.459079	-84.975859	-176.855606
32576		-98.566990	-85.080722	-176.728738
32577		-98.620173	-85.198527	-176.671279
32578		-98.675532	-85.327830	-176.578589
32579		-98.842496	-85.473471	-176.396879
32580		-99.101947	-85.638021	-176.116340
32581		-99.588256	-85.831605	-175.609518
32582		-100.345971	-86.061387	-174.821553
32583		-101.443560	-86.323228	-173.689874
32584		-102.873872	-86.607681	-172.190104
32585		-104.631558	-86.912744	-170.384958
32586		-106.852592	-87.236828	-168.128050
32587		-109.624467	-87.569451	-165.330283
32588		-113.068372	-87.903923	-161.852733
32589		-117.923488	-88.245422	-157.002558
32590		-125.479693	-88.581462	-149.441306
32591		-138.180409	-88.888985	-136.756888
32592		-159.068852	-89.108192	-115.847929
32593		172.255965	-89.150064	-87.162885
32594		147.446939	-88.985673	-62.337891
32595		132.275551	-88.705653	-47.146048
32596		123.421581	-88.391141	-38.254481
32597		117.854047	-88.069829	-32.697287
32598		113.956813	-87.749027	-28.833833
32599		110.886048	-87.410676	-25.816252
32600		108.415290	-87.043769	-23.374158
32601		106.441789	-86.634388	-21.442212
32602		104.847114	-86.195079	-19.841436
32603		103.557091	-85.725148	-18.540547
32604		102.388745	-85.236015	-17.328633
32605		101.429050	-84.734927	-16.301081
32606		100.645632	-84.231194	-15.440162
32607		100.079105	-83.713987	-14.814831
32608		99.670573	-83.190537	-14.381409
32609		99.392568	-82.654345	-14.121219
32610		99.181546	-82.106303	-13.970575
32611		99.000535	-81.528933	-13.896600
32612		98.774998	-80.919912	-13.800639
32613		98.493736	-80.282826	-13.663055
32614		98.210062	-79.621809	-13.512623
32615		97.962740	-78.934554	-13.359018
32616		97.766423	-78.232076	-13.180368
32617		97.626408	-77.525885	-12.975579
32618		97.579491	-76.829036	-12.818340
32619		97.577045	-76.130074	-12.732673
32620		97.580765	-75.451948	-12.718883
32621		97.565831	-74.783878	-12.780408
32622		97.516271	-74.136234	-12.920640
32623		97.432025	-73.517763	-13.129205
32624		97.296085	-72.939077	-13.322293
32625		97.144612	-72.385944	-13.481364
32626		96.992294	-71.842453	-13.551254
32627		96.866705	-71.293320	-13.528214
32628		96.773879	-70.723876	-13.408362
32629		96.723690	-70.136001	-13.231814
32630		96.701992	-69.533298	-13.035174
32631		96.698090	-68.923277	-12.881421
32632		96.672474	-68.322850	-12.782696
32633		96.614713	-67.725783	-12.781137
32634		96.492121	-67.125250	-12.841878
32635		96.294981	-66.512454	-12.913815
32636		96.046901	-65.887973	-12.967134
32637		95.799864	-65.244937	-12.997662
32638		95.571191	-64.587983	-12.972903
32639		95.402441	-63.919544	-12.924511
32640		95.299777	-63.249471	-12.872155
32641		95.264095	-62.582410	-12.850356
32642		95.285511	-61.930701	-12.904507
32643		95.339532	-61.304562	-13.047799
32644		95.384004	-60.723983	-13.288224
32645		95.387026	-60.183516	-13.602671
32646		95.304868	-59.681626	-13.954676
32647		95.150153	-59.178733	-14.304460
32648		94.968065	-58.641618	-14.616268
32649		94.840611	-58.043395	-14.872834
32650		94.815100	-57.379888	-15.078881
32651		94.892083	-56.661597	-15.245975
32652		95.016618	-55.900763	-15.369112
32653		95.162333	-55.115041	-15.461437
32654		95.292155	-54.345846	-15.547571
32655		95.338372	-53.608121	-15.657025
32656		95.252393	-52.921138	-15.783488
32657		95.040952	-52.275965	-15.918820
32658		94.725421	-51.664651	-16.030422
32659		94.356537	-51.048952	-16.096823
32660		93.986026	-50.403261	-16.098910
32661		93.660380	-49.706462	-16.051727
32662		93.391486	-48.966131	-15.955457
32663		93.161900	-48.188291	-15.836267
32664		92.941918	-47.402154	-15.709157
32665		92.718870	-46.638713	-15.605099
32666		92.440438	-45.923670	-15.539595
32667		92.056481	-45.254181	-15.488560
32668		91.563363	-44.617261	-15.419375
32669		91.011656	-43.987991	-15.325302
32670		90.470659	-43.342964	-15.201795
32671		90.044846	-42.625939	-15.085662
32672		89.900484	-41.842796	-15.102218
32673		89.953136	-41.040520	-15.114737
32674		90.076933	-40.200356	-15.074450
32675		90.170474	-39.348384	-14.968816
32676		90.171226	-38.524878	-14.804276
32677		90.048017	-37.752580	-14.628489
32678		89.778989	-37.047405	-14.453593
32679		89.378189	-36.412044	-14.297478
32680		88.870716	-35.837705	-14.155300
32681		88.330322	-35.305556	-14.006683
32682		87.833839	-34.788803	-13.842178
32683		87.428686	-34.263931	-13.665157
32684		87.112798	-33.719306	-13.470564
32685		86.856186	-33.161692	-13.263804
32686		86.616213	-32.592508	-13.039625
32687		86.364467	-32.027140	-12.790890
32688		86.083239	-31.474503	-12.521461
32689		85.783477	-30.930684	-12.239644
32690		85.484493	-30.393870	-11.959523
32691		85.200599	-29.860586	-11.697431
32692		84.936682	-29.338267	-11.467731
32693		84.708372	-28.815785	-11.280257
32694		84.524854	-28.285486	-11.124884
32695		84.382864	-27.736862	-10.998128
32696		84.256633	-27.173255	-10.882467
32697		84.120392	-26.608010	-10.764292
32698		83.953300	-26.061062	-10.638317
32699		83.743852	-25.536508	-10.509508
32700		83.492584	-25.042028	-10.396181
32701		83.223197	-24.566191	-10.311893
32702		82.947507	-24.099721	-10.252009
32703		82.704752	-23.625625	-10.209845
32704		82.515173	-23.132033	-10.168206
32705		82.393395	-22.615150	-10.130289
32706		82.327299	-22.081209	-10.099684
32707		82.307389	-21.542973	-10.093325
32708		82.288855	-21.013383	-10.116786
32709		82.245130	-20.490611	-10.155484
32710		82.158393	-19.969017	-10.190378
32711		82.042277	-19.453482	-10.217823
32712		81.920123	-18.944056	-10.241296
32713		81.810320	-18.442252	-10.262413
32714		81.711645	-17.940520	-10.283730
32715		81.619077	-17.428536	-10.309411
32716		81.519927	-16.911258	-10.331711
32717		81.400114	-16.403714	-10.355448
32718		81.225748	-15.917190	-10.373968
32719		80.980223	-15.456447	-10.375072
32720		80.653486	-15.023272	-10.339952
32721		80.262032	-14.620964	-10.274332
32722		79.827867	-14.243119	-10.182662
32723		79.372742	-13.880290	-10.083530
32724		78.937287	-13.519784	-9.996753
32725		78.557935	-13.164916	-9.938484
32726		78.248247	-12.797393	-9.916358
32727		78.016288	-12.402857	-9.925630
32728		77.846204	-11.972055	-9.957352
32729		77.724069	-11.515591	-9.993628
32730		77.613138	-11.044381	-10.017571
32731		77.479687	-10.569477	-10.029892
32732		77.306338	-10.100768	-10.028600
32733		77.091226	-9.644572	-10.006518
32734		76.820547	-9.184576	-9.958988
32735		76.497581	-8.684664	-9.897311
32736		76.120858	-8.175513	-9.809524
32737		75.793166	-7.599839	-9.734940
32738		75.605756	-7.041532	-9.682099
32739		75.588105	-6.651850	-9.669490
32740		75.732119	-6.473110	-9.695059
32741		75.970746	-6.442858	-9.737527
32742		76.227099	-6.487760	-9.781577
32743		76.446985	-6.547230	-9.816850
32744		76.581630	-6.576462	-9.832774
32745		76.609169	-6.559047	-9.827823
32746		76.543444	-6.497734	-9.803136
32747		76.425387	-6.422071	-9.764886
32748		76.271948	-6.291814	-9.720721
32749		76.131428	-6.146570	-9.680289
32750		76.032938	-5.974400	-9.656247
32751		75.990496	-5.822707	-9.657148
32752		76.012231	-5.709904	-9.682894
32753		76.091794	-5.653700	-9.726380
32754		76.216791	-5.637740	-9.771870
32755		76.356911	-5.631008	-9.815450
32756		76.471914	-5.611097	-9.847893
32757		76.535951	-5.584387	-9.872896
32758		76.543238	-5.553769	-9.888763
32759		76.503133	-5.517602	-9.890079
32760		76.443894	-5.470414	-9.877065
32761		76.390803	-5.412659	-9.853949
32762		76.351405	-5.349907	-9.825539
32763		76.335175	-5.293360	-9.799571
32764		76.336839	-5.252808	-9.779546
32765		76.357418	-5.226841	-9.771088
32766		76.378890	-5.215895	-9.777572
32767		76.396436	-5.207970	-9.786829
32768		76.402626	-5.201158	-9.793762
32769		76.398493	-5.194145	-9.794461
32770		76.383606	-5.189491	-9.788612
32771		76.358762	-5.187402	-9.783540
32772		76.330263	-5.187340	-9.772834
32773		76.304603	-5.196439	-9.761864
32774		76.281692	-5.214816	-9.752512
32775		76.267690	-5.236728	-9.743976
32776		76.258239	-5.257436	-9.736485
32777		76.253709	-5.277087	-9.731542
32778		76.254449	-5.289201	-9.727883
32779		76.260325	-5.290612	-9.728587
32780		76.262880	-5.281518	-9.726674
32781		76.262710	-5.270434	-9.730647
32782		76.254050	-5.261219	-9.734871
32783		76.240866	-5.256476	-9.747319
32784		76.233687	-5.254541	-9.762275
32785		76.248764	-5.253320	-9.782247
32786		76.281842	-5.243196	-9.805939
32787		76.316725	-5.238265	-9.833714
32788		76.339749	-5.244499	-9.862001
32789		76.354119	-5.256828	-9.898743
32790		76.378404	-5.263282	-9.934939
32791		76.410477	-5.270112	-9.972407
32792		76.442884	-5.277549	-10.001568
32793		76.466867	-5.290841	-10.024995
32794		76.478858	-5.310288	-10.041736
32795		76.490007	-5.334553	-10.053831
32796		76.498433	-5.363649	-10.066021
32797		76.507579	-5.395345	-10.083648
32798		76.513592	-5.434444	-10.106280
32799		76.514267	-5.478429	-10.133533
32800		76.506670	-5.534239	-10.162651
32801		76.488960	-5.602213	-10.190716
32802		76.474839	-5.677827	-10.217369
32803		76.454955	-5.775091	-10.241351
32804		76.417189	-5.900123	-10.259865
32805		76.361218	-6.040334	-10.272808
32806		76.281815	-6.186961	-10.279904
32807		76.206541	-6.340812	-10.282128
32808		76.142446	-6.508557	-10.281696
32809		76.106524	-6.678825	-10.289946
32810		76.116468	-6.848583	-10.312527
32811		76.181281	-7.016803	-10.354556
32812		76.303260	-7.179154	-10.410073
32813		76.465560	-7.338939	-10.473363
32814		76.648518	-7.503028	-10.535585
32815		76.848120	-7.684806	-10.596858
32816		77.055512	-7.886611	-10.656446
32817		77.267317	-8.104867	-10.717148
32818		77.470172	-8.344085	-10.773468
32819		77.658031	-8.598093	-10.821514
32820		77.826875	-8.870633	-10.854127
32821		77.976533	-9.161577	-10.876414
32822		78.103291	-9.465728	-10.888637
32823		78.208428	-9.774578	-10.890860
32824		78.292722	-10.081381	-10.879568
32825		78.370678	-10.381310	-10.851696
32826		78.455521	-10.679135	-10.810599
32827		78.555252	-10.973733	-10.757770
32828		78.667123	-11.268467	-10.694562
32829		78.779285	-11.562252	-10.629867
32830		78.883312	-11.858931	-10.564632
32831		78.971656	-12.164720	-10.503449
32832		79.047922	-12.485380	-10.441553
32833		79.119909	-12.826871	-10.381940
32834		79.200028	-13.183280	-10.326074
32835		79.309473	-13.543612	-10.281556
32836		79.465610	-13.896238	-10.242448
32837		79.672440	-14.241055	-10.207442
32838		79.912802	-14.589875	-10.171661
32839		80.155175	-14.954161	-10.129354
32840		80.372849	-15.342536	-10.078319
32841		80.560739	-15.761919	-10.022125
32842		80.721941	-16.206891	-9.963500
32843		80.878496	-16.677506	-9.901177
32844		81.048581	-17.160605	-9.835807
32845		81.238459	-17.648650	-9.767934
32846		81.453742	-18.135516	-9.692268
32847		81.694053	-18.628882	-9.605575
32848		81.947320	-19.129835	-9.511435
32849		82.196955	-19.646887	-9.416948
32850		82.430401	-20.183068	-9.326900
32851		82.652669	-20.727875	-9.239729
32852		82.872529	-21.284432	-9.154709
32853		83.091638	-21.851349	-9.063920
32854		83.302740	-22.432916	-8.967987
32855		83.492322	-23.032949	-8.871833
32856		83.663418	-23.652961	-8.774573
32857		83.826743	-24.296269	-8.679864
32858		84.002493	-24.942807	-8.587575
32859		84.207915	-25.577966	-8.503529
32860		84.453900	-26.196432	-8.411403
32861		84.736537	-26.805416	-8.320755
32862		85.023006	-27.416643	-8.236610
32863		85.292512	-28.040240	-8.160120
32864		85.527718	-28.685319	-8.096663
32865		85.731055	-29.358629	-8.046914
32866		85.914025	-30.046536	-8.002814
32867		86.091124	-30.742913	-7.960031
32868		86.269250	-31.428836	-7.918149
32869		86.462034	-32.106120	-7.881080
32870		86.671948	-32.765725	-7.843504
32871		86.900796	-33.416923	-7.812628
32872		87.128328	-34.068279	-7.786921
32873		87.339900	-34.726530	-7.763112
32874		87.521714	-35.391918	-7.733910
32875		87.671166	-36.065424	-7.693060
32876		87.787189	-36.747565	-7.638972
32877		87.885945	-37.432069	-7.573690
32878		87.976049	-38.103145	-7.501853
32879		88.077227	-38.759622	-7.430506
32880		88.198111	-39.405797	-7.359679
32881		88.345683	-40.053392	-7.280439
32882		88.506742	-40.694454	-7.190111
32883		88.668428	-41.341106	-7.089605
32884		88.818760	-42.003787	-6.980525
32885		88.949257	-42.672153	-6.878089
32886		89.061276	-43.334241	-6.792118
32887		89.158463	-44.005770	-6.723179
32888		89.230716	-44.679598	-6.648097
32889		89.285684	-45.352327	-6.562960
32890		89.330408	-46.025087	-6.463003
32891		89.375872	-46.701541	-6.354846
32892		89.431434	-47.372789	-6.235552
32893		89.501079	-48.046410	-6.107470
32894		89.571099	-48.725999	-5.973995
32895		89.636078	-49.422079	-5.835387
32896		89.686319	-50.138404	-5.691499
32897		89.721511	-50.876812	-5.554056
32898		89.747106	-51.613067	-5.429672
32899		89.774619	-52.347382	-5.309631
32900		89.819316	-53.068399	-5.194634
32901		89.887494	-53.779265	-5.087738
32902		89.987582	-54.475741	-4.989766
32903		90.112715	-55.170376	-4.895305
32904		90.247691	-55.859245	-4.791465
32905		90.373209	-56.562400	-4.654074
32906		90.471769	-57.296431	-4.475865
32907		90.534616	-58.063044	-4.276500
32908		90.540419	-58.829337	-4.055182
32909		90.511869	-59.576186	-3.834162
32910		90.466326	-60.313928	-3.631392
32911		90.401065	-61.054284	-3.437811
32912		90.310593	-61.799619	-3.237625
32913		90.206674	-62.547674	-3.031608
32914		90.102119	-63.287051	-2.814295
32915		90.021429	-64.013471	-2.592564
32916		89.968582	-64.718185	-2.364142
32917		89.934722	-65.391071	-2.129392
32918		89.895012	-66.041427	-1.887205
32919		89.825222	-66.684999	-1.639663
32920		89.690064	-67.322320	-1.379231
32921		89.484646	-67.955467	-1.098543
32922		89.209377	-68.590730	-0.789149
32923		88.874581	-69.234246	-0.450515
32924		88.488630	-69.865701	-0.097198
32925		88.060614	-70.489481	0.297506
32926		87.633968	-71.090784	0.712236
32927		87.229164	-71.661862	1.146804
32928		86.860502	-72.191039	1.593910
32929		86.553661	-72.677284	2.028887
32930		86.279147	-73.131249	2.465235
32931		86.034529	-73.580986	2.876349
32932		85.761569	-74.038240	3.296626
32933		85.463008	-74.508719	3.701589
32934		85.106004	-74.999778	4.127017
32935		84.743347	-75.501550	4.523851
32936		84.398425	-76.013034	4.872525
32937		84.095967	-76.537061	5.154956
32938		83.839063	-77.052424	5.376717
32939		83.641504	-77.550333	5.526431
32940		83.443059	-78.022049	5.681400
32941		83.235345	-78.497458	5.851088
32942		82.927186	-78.979797	6.121451
32943		82.549754	-79.453975	6.458382
32944		82.096137	-79.903837	6.875205
32945		81.599787	-80.317070	7.346111
32946		81.059404	-80.692507	7.870875
32947		80.483360	-81.051140	8.448960
32948		79.872979	-81.417063	9.077015
32949		79.243075	-81.811502	9.731765
32950		78.580127	-82.218273	10.416054
32951		77.929776	-82.630590	11.079080
32952		77.264558	-83.046129	11.753336
32953		76.618618	-83.462869	12.408407
32954		75.912500	-83.893058	13.155057
32955		75.024298	-84.344745	14.062220
32956		73.867742	-84.816162	15.242561
32957		72.237830	-85.312237	16.831395
32958		69.865586	-85.843124	19.148758
32959		66.486714	-86.404725	22.398797
32960		61.537282	-86.978251	27.184441
32961		53.896595	-87.544025	34.588801
32962		41.877949	-88.052073	46.373133
32963		22.971211	-88.431618	65.020997
32964		-2.709940	-88.561728	90.495056
32965		-27.474780	-88.390479	115.073069
32966		-44.500130	-88.000974	131.985322
32967		-54.666198	-87.527799	142.053596
32968		-60.799921	-87.047215	148.127680
32969		-64.717128	-86.599287	151.959152
32970		-67.424153	-86.191417	154.591298
32971		-69.510410	-85.822742	156.560481
32972		-71.199760	-85.498871	158.123857
32973		-72.555376	-85.218965	159.328922
32974		-73.630582	-84.981476	160.291936
32975		-74.462757	-84.781751	161.035162
32976		-75.097816	-84.618245	161.653871
32977		-75.515261	-84.488696	162.091006
32978		-75.761459	-84.390839	162.409088
32979		-75.958146	-84.320789	162.668935
32980		-76.164895	-84.267296	162.946291
32981		-76.396001	-84.225392	163.183582
32982		-76.660924	-84.196285	163.431153
32983		-76.958802	-84.171859	163.667431
32984		-77.266184	-84.148650	163.932225
32985		-77.543758	-84.134224	164.162029
32986		-77.796022	-84.129381	164.409813
32987		-78.058384	-84.133304	164.671058
32988		-78.346297	-84.134690	164.992431
32989		-78.650169	-84.128215	165.320844
32990		-78.967532	-84.117032	165.676800
32991		-79.320457	-84.113164	166.031769
32992		-79.642460	-84.119855	166.357133
32993		-79.929253	-84.145615	166.607053
32994		-80.200013	-84.177954	166.845804
32995		-80.430506	-84.207237	167.029145
32996		-80.662870	-84.232266	167.241903
32997		-80.901316	-84.252731	167.450219
32998		-81.112475	-84.269909	167.671021
32999		-81.309075	-84.287897	167.872900
33000		-81.466815	-84.304270	168.074084
33001		-81.558608	-84.318136	168.196099
33002		-81.609489	-84.334043	168.285699
33003		-81.610132	-84.349038	168.299894
33004		-81.581923	-84.357865	168.287970
33005		-81.526434	-84.367621	168.222346
33006		-81.453221	-84.371050	168.155920
33007		-81.349259	-84.366329	168.051586
33008		-81.204890	-84.351341	167.942076
33009		-81.026972	-84.329927	167.790065
33010		-80.855582	-84.303815	167.654731
33011		-80.703675	-84.272092	167.509497
33012		-80.541746	-84.239102	167.357417
33013		-80.404862	-84.209762	167.209158
33014		-80.267724	-84.187185	167.085604
33015		-80.132501	-84.172354	166.958042
33016		-80.011488	-84.159018	166.870604
33017		-79.967949	-84.147182	166.840216
33018		-79.969863	-84.129442	166.871223
33019		-80.032433	-84.108753	166.939250
33020		-80.110241	-84.082002	167.031992
33021		-80.216472	-84.062125	167.134258
33022		-80.355679	-84.045357	167.285276
33023		-80.553106	-84.035147	167.486807
33024		-80.790441	-84.028909	167.757503
33025		-81.069140	-84.027639	168.060857
33026		-81.345366	-84.025274	168.389210
33027		-81.634179	-84.034004	168.707061
33028		-81.890577	-84.044873	168.999493
33029		-82.039131	-84.057974	169.160553
33030		-82.107269	-84.069670	169.243670
33031		-82.087734	-84.080865	169.217452
33032		-82.023145	-84.093287	169.148492
33033		-81.925785	-84.107228	169.025169
33034		-81.802121	-84.127231	168.895554
33035		-81.677748	-84.152393	168.752965
33036		-81.559224	-84.181825	168.649044
33037		-81.447220	-84.227898	168.540037
33038		-81.316486	-84.289765	168.437987
33039		-81.162690	-84.371204	168.304992
33040		-80.979661	-84.464771	168.140280
33041		-80.784511	-84.573059	167.952453
33042		-80.563692	-84.689189	167.736907
33043		-80.393101	-84.806819	167.537975
33044		-80.271873	-84.925198	167.389163
33045		-80.248778	-85.048698	167.317507
33046		-80.256939	-85.182301	167.290878
33047		-80.247142	-85.332249	167.246883
33048		-80.076136	-85.493766	167.085040
33049		-79.726194	-85.670965	166.753625
33050		-79.172010	-85.858208	166.250705
33051		-78.409870	-86.062426	165.519243
33052		-77.431569	-86.278420	164.584484
33053		-76.275258	-86.514637	163.432422
33054		-74.905672	-86.780037	162.062461
33055		-73.291513	-87.086067	160.409876
33056		-71.262281	-87.426648	158.351799
33057		-68.516787	-87.799242	155.571035
33058		-64.426610	-88.192720	151.482508
33059		-57.672619	-88.607228	144.737944
33060		-44.588347	-89.013582	131.710032
33061		-14.003262	-89.331449	101.192478
33062		35.373088	-89.290887	51.913515
33063		64.934601	-88.864965	22.429988
33064		77.852931	-88.276860	9.595301
33065		84.462545	-87.607120	3.028622
33066		88.382533	-86.889108	-0.864390
33067		90.891799	-86.132361	-3.395680
33068		92.511358	-85.358202	-5.050404
33069		93.601722	-84.564105	-6.195491
33070		94.291197	-83.755122	-6.889027
33071		94.743026	-82.931200	-7.303100
33072		95.075715	-82.097385	-7.512951
33073		95.365031	-81.253967	-7.646705
33074		95.625581	-80.403832	-7.724440
33075		95.901831	-79.544066	-7.820734
33076		96.150030	-78.685862	-7.925459
33077		96.357168	-77.818920	-8.032418
33078		96.513318	-76.949119	-8.122402
33079		96.635098	-76.073336	-8.205013
33080		96.743617	-75.203789	-8.280313
33081		96.835637	-74.338391	-8.328185
33082		96.903894	-73.481278	-8.320299
33083		96.951868	-72.624071	-8.252529
33084		96.947964	-71.778663	-8.095248
33085		96.910789	-70.936458	-7.902947
33086		96.821819	-70.088824	-7.688973
33087		96.696318	-69.211134	-7.487245
33088		96.580858	-68.308296	-7.334186
33089		96.510314	-67.384435	-7.272294
33090		96.487010	-66.467392	-7.297563
33091		96.476995	-65.551709	-7.379324
33092		96.459196	-64.643656	-7.468602
33093		96.427510	-63.731187	-7.544704
33094		96.367915	-62.830877	-7.584772
33095		96.283723	-61.948608	-7.588291
33096		96.152237	-61.101675	-7.555459
33097		95.967758	-60.283642	-7.502333
33098		95.745385	-59.487102	-7.461032
33099		95.497709	-58.686806	-7.454319
33100		95.234851	-57.881706	-7.471866
33101		94.993721	-57.075937	-7.508128
33102		94.812058	-56.288667	-7.572608
33103		94.694383	-55.515010	-7.648684
33104		94.609396	-54.757185	-7.696868
33105		94.535518	-54.006643	-7.713973
33106		94.442607	-53.276114	-7.708213
33107		94.312817	-52.569755	-7.691668
33108		94.135563	-51.899484	-7.667475
33109		93.915141	-51.257419	-7.648566
33110		93.673238	-50.649401	-7.637806
33111		93.456096	-50.064879	-7.639996
33112		93.291904	-49.488079	-7.642501
33113		93.203433	-48.899596	-7.647401
33114		93.186767	-48.287851	-7.636357
33115		93.229654	-47.654713	-7.601124
33116		93.292050	-47.015858	-7.559941
33117		93.297267	-46.390733	-7.530495
33118		93.187883	-45.795171	-7.505012
33119		92.962626	-45.226550	-7.484853
33120		92.647166	-44.690892	-7.457210
33121		92.290266	-44.181556	-7.425863
33122		91.945033	-43.683684	-7.393173
33123		91.667239	-43.169801	-7.360010
33124		91.489586	-42.616406	-7.308727
33125		91.416914	-42.010589	-7.243597
33126		91.408518	-41.367987	-7.163030
33127		91.385800	-40.719493	-7.089276
33128		91.252234	-40.107796	-7.031700
33129		90.950445	-39.548937	-6.986506
33130		90.478552	-39.037391	-6.935891
33131		89.919032	-38.546790	-6.877468
33132		89.367836	-38.060220	-6.811388
33133		88.900141	-37.555454	-6.759270
33134		88.558046	-37.012137	-6.714278
33135		88.331502	-36.429443	-6.684851
33136		88.163236	-35.806423	-6.655096
33137		88.015615	-35.150169	-6.621762
33138		87.842275	-34.484998	-6.582014
33139		87.614467	-33.836483	-6.550929
33140		87.307628	-33.217230	-6.542584
33141		86.942301	-32.618210	-6.556332
33142		86.569116	-32.027199	-6.571391
33143		86.239767	-31.444079	-6.595391
33144		85.977521	-30.871476	-6.638017
33145		85.794776	-30.281467	-6.703691
33146		85.690256	-29.650245	-6.772308
33147		85.650132	-28.973676	-6.819199
33148		85.636359	-28.270844	-6.838398
33149		85.613414	-27.561631	-6.854821
33150		85.541100	-26.859563	-6.878505
33151		85.421240	-26.160051	-6.911482
33152		85.244334	-25.465589	-6.934823
33153		85.010608	-24.782533	-6.941511
33154		84.727902	-24.130722	-6.931576
33155		84.426751	-23.501304	-6.918375
33156		84.127317	-22.879581	-6.904106
33157		83.842506	-22.243027	-6.889769
33158		83.558633	-21.586041	-6.876901
33159		83.266909	-20.898057	-6.863414
33160		82.948194	-20.173970	-6.845413
33161		82.593238	-19.407966	-6.808919
33162		82.189314	-18.607226	-6.733718
33163		81.734738	-17.782623	-6.608386
33164		81.225959	-16.942695	-6.408707
33165		80.669449	-16.095313	-6.155692
33166		80.136530	-15.294027	-5.882535
33167		79.688451	-14.582779	-5.636396
33168		79.336310	-13.992843	-5.442921
33169		79.073001	-13.511103	-5.311323
33170		78.851072	-13.097047	-5.233385
33171		78.633654	-12.709406	-5.183235
33172		78.390558	-12.327961	-5.147681
33173		78.125942	-11.946395	-5.109090
33174		77.855487	-11.563382	-5.056474
33175		77.605689	-11.166344	-4.994567
33176		77.398519	-10.747428	-4.929015
33177		77.272606	-10.305572	-4.865994
33178		77.253749	-9.854535	-4.811555
33179		77.321959	-9.411185	-4.792782
33180		77.445203	-8.993578	-4.801783
33181		77.571083	-8.611970	-4.828333
33182		77.648231	-8.254626	-4.862146
33183		77.665279	-7.916133	-4.894194
33184		77.621729	-7.582150	-4.917009
33185		77.560528	-7.244101	-4.927810
33186		77.522837	-6.895000	-4.925341
33187		77.525587	-6.536088	-4.907337
33188		77.567027	-6.165717	-4.878225
33189		77.630586	-5.781942	-4.854613
33190		77.705193	-5.392646	-4.837847
33191		77.781245	-5.005139	-4.837925
33192		77.846684	-4.617497	-4.847637
33193		77.897696	-4.228442	-4.860005
33194		77.914570	-3.841547	-4.864113
33195		77.879597	-3.454381	-4.855023
33196		77.774649	-3.069998	-4.824589
33197		77.590130	-2.697309	-4.775881
33198		77.218912	-2.391274	-4.708938
33199		76.734127	-2.164512	-4.665967
33200		76.274371	-2.014714	-4.683941
33201		76.149274	-1.942928	-4.592928
33202		76.288624	-1.940605	-4.453346
33203		76.522820	-2.035942	-4.362260
33204		76.736964	-2.237784	-4.322414
33205		76.805068	-2.422993	-4.300951
33206		76.706715	-2.520522	-4.307597
33207		76.549396	-2.541203	-4.316499
33208		76.320630	-2.531709	-4.308828
33209		76.058953	-2.508592	-4.280585
33210		75.810822	-2.489964	-4.229341
33211		75.585879	-2.503397	-4.181025
33212		75.514036	-2.523118	-4.113035
33213		75.577094	-2.561732	-4.061562
33214		75.648027	-2.619503	-4.060388
33215		75.656193	-2.686558	-4.104217
33216		75.604224	-2.732088	-4.161737
33217		75.526028	-2.741699	-4.201968
33218		75.441220	-2.746300	-4.215317
33219		75.376519	-2.766616	-4.207819
33220		75.346605	-2.805013	-4.184928
33221		75.358881	-2.853217	-4.162979
33222		75.386130	-2.900112	-4.149142
33223		75.407761	-2.941287	-4.151447
33224		75.416134	-2.970167	-4.162677
33225		75.418730	-2.991551	-4.179759
33226		75.420140	-3.005716	-4.193077
33227		75.422695	-3.015664	-4.202877
33228		75.427612	-3.026635	-4.206857
33229		75.430046	-3.036090	-4.215670
33230		75.427480	-3.046958	-4.222813
33231		75.418607	-3.057870	-4.231337
33232		75.403564	-3.067815	-4.234596
33233		75.390182	-3.081736	-4.235488
33234		75.377402	-3.096409	-4.233610
33235		75.367880	-3.115638	-4.233642
33236		75.355318	-3.134399	-4.226172
33237		75.346265	-3.151027	-4.218573
33238		75.338697	-3.155286	-4.210119
33239		75.339883	-3.152787	-4.203529
33240		75.347259	-3.149168	-4.196092
33241		75.364450	-3.140673	-4.193123
33242		75.386425	-3.132265	-4.195297
33243		75.416176	-3.127848	-4.200969
33244		75.448538	-3.123628	-4.207319
33245		75.480887	-3.117902	-4.216606
33246		75.509941	-3.115956	-4.226467
33247		75.534725	-3.115246	-4.236644
33248		75.551361	-3.116758	-4.244383
33249		75.558362	-3.114737	-4.248479
33250		75.554149	-3.112423	-4.247102
33251		75.540829	-3.114787	-4.243248
33252		75.522894	-3.113072	-4.235179
33253		75.504532	-3.116026	-4.231091
33254		75.485564	-3.118840	-4.227460
33255		75.473725	-3.121908	-4.225384
33256		75.468976	-3.119684	-4.225357
33257		75.471745	-3.110886	-4.227339
33258		75.478113	-3.093595	-4.233668
33259		75.490209	-3.071295	-4.240509
33260		75.499799	-3.047497	-4.251365
33261		75.507106	-3.026142	-4.261447
33262		75.509913	-3.010157	-4.269318
33263		75.503598	-2.998799	-4.274711
33264		75.484192	-2.995341	-4.277742
33265		75.451348	-3.001297	-4.280966
33266		75.410348	-3.014057	-4.281055
33267		75.368485	-3.031831	-4.277582
33268		75.326598	-3.050049	-4.271722
33269		75.288815	-3.059554	-4.269604
33270		75.241827	-3.064611	-4.272077
33271		75.179614	-3.062378	-4.282543
33272		75.116601	-3.065512	-4.298533
33273		75.058067	-3.071383	-4.309366
33274		74.991436	-3.082003	-4.311729
33275		74.912208	-3.107692	-4.305149
33276		74.811308	-3.146179	-4.289783
33277		74.697035	-3.194819	-4.263936
33278		74.570830	-3.251044	-4.232755
33279		74.438378	-3.311049	-4.196969
33280		74.313333	-3.368541	-4.160576
33281		74.200738	-3.424376	-4.124957
33282		74.091925	-3.476738	-4.093903
33283		73.990940	-3.528364	-4.069396
33284		73.898165	-3.580607	-4.050329
33285		73.821374	-3.638318	-4.033049
33286		73.768596	-3.707867	-4.016036
33287		73.748899	-3.790859	-4.003098
33288		73.745344	-3.892973	-3.991463
33289		73.747884	-4.026709	-3.981777
33290		73.733459	-4.204583	-3.970526
33291		73.723652	-4.410501	-3.955474
33292		73.732068	-4.630052	-3.936068
33293		73.787199	-4.855525	-3.919970
33294		73.885406	-5.090186	-3.907506
33295		74.015019	-5.345549	-3.903884
33296		74.162562	-5.631333	-3.909648
33297		74.318458	-5.955980	-3.920793
33298		74.466502	-6.323065	-3.937423
33299		74.598138	-6.738790	-3.949835
33300		74.713983	-7.226819	-3.951759
33301		74.818473	-7.789805	-3.936895
33302		74.908922	-8.418865	-3.893636
33303		74.975152	-9.086205	-3.819603
33304		75.021931	-9.758754	-3.712598
33305		75.069453	-10.412919	-3.576843
33306		75.132473	-11.041539	-3.428319
33307		75.222625	-11.652461	-3.285994
33308		75.331883	-12.253392	-3.155245
33309		75.452060	-12.839144	-3.042410
33310		75.566684	-13.417917	-2.949767
33311		75.676638	-13.994081	-2.879187
33312		75.786448	-14.566619	-2.823723
33313		75.903393	-15.131744	-2.781047
33314		76.038205	-15.677935	-2.749257
33315		76.208593	-16.201627	-2.723519
33316		76.409526	-16.707929	-2.697773
33317		76.621925	-17.216587	-2.676261
33318		76.821135	-17.739737	-2.649673
33319		76.997868	-18.284341	-2.626213
33320		77.147898	-18.845809	-2.609251
33321		77.276874	-19.419312	-2.596027
33322		77.386893	-20.003203	-2.587280
33323		77.484843	-20.602224	-2.576098
33324		77.571179	-21.209478	-2.571745
33325		77.657997	-21.822298	-2.580890
33326		77.777665	-22.421195	-2.606838
33327		77.974203	-22.991743	-2.649562
33328		78.257591	-23.537905	-2.702735
33329		78.608266	-24.073097	-2.761099
33330		78.973958	-24.612793	-2.822899
33331		79.315674	-25.158955	-2.892183
33332		79.613098	-25.716671	-2.960240
33333		79.874808	-26.288843	-3.025959
33334		80.108984	-26.869353	-3.087475
33335		80.327940	-27.459500	-3.139228
33336		80.549499	-28.052550	-3.186006
33337		80.789461	-28.650491	-3.235806
33338		81.047252	-29.242894	-3.287959
33339		81.318820	-29.829023	-3.347007
33340		81.586955	-30.411369	-3.402048
33341		81.844475	-30.992671	-3.452527
33342		82.090875	-31.571837	-3.495328
33343		82.325129	-32.156194	-3.532078
33344		82.545658	-32.750331	-3.566952
33345		82.759675	-33.352534	-3.607270
33346		82.964664	-33.951111	-3.640040
33347		83.176350	-34.543965	-3.668707
33348		83.384886	-35.126864	-3.688139
33349		83.602011	-35.709378	-3.709873
33350		83.816692	-36.301819	-3.738704
33351		84.024853	-36.915144	-3.774202
33352		84.213877	-37.547586	-3.807457
33353		84.384883	-38.186297	-3.832555
33354		84.547500	-38.822347	-3.843798
33355		84.712517	-39.457617	-3.848632
33356		84.868284	-40.090516	-3.853493
33357		85.027913	-40.736663	-3.871190
33358		85.180341	-41.391872	-3.896776
33359		85.331275	-42.054408	-3.924732
33360		85.483759	-42.711783	-3.937122
33361		85.651776	-43.364276	-3.939468
33362		85.817426	-44.016367	-3.934353
33363		85.972211	-44.674013	-3.932269
33364		86.106372	-45.344134	-3.939878
33365		86.227777	-46.031042	-3.959608
33366		86.340108	-46.715768	-3.985390
33367		86.460729	-47.391198	-4.017890
33368		86.586879	-48.051478	-4.051361
33369		86.717663	-48.705905	-4.089163
33370		86.839860	-49.358106	-4.135072
33371		86.950355	-50.007349	-4.189013
33372		87.053739	-50.655798	-4.240487
33373		87.171437	-51.307472	-4.290692
33374		87.308963	-51.968625	-4.324503
33375		87.462524	-52.642431	-4.348319
33376		87.617568	-53.315218	-4.363220
33377		87.782122	-53.991692	-4.392578
33378		87.950473	-54.666164	-4.435763
33379		88.128377	-55.334487	-4.496295
33380		88.318270	-55.989061	-4.568582
33381		88.521075	-56.636620	-4.645874
33382		88.726756	-57.276877	-4.721503
33383		88.920252	-57.913182	-4.797523
33384		89.083242	-58.533240	-4.861640
33385		89.235511	-59.147890	-4.913291
33386		89.385329	-59.752281	-4.938057
33387		89.538498	-60.342999	-4.945188
33388		89.682902	-60.920074	-4.924375
33389		89.809836	-61.495016	-4.893002
33390		89.903029	-62.077559	-4.852755
33391		89.959994	-62.685715	-4.819886
33392		89.971572	-63.321674	-4.788696
33393		89.945631	-63.970396	-4.762123
33394		89.875040	-64.603028	-4.725490
33395		89.786135	-65.221208	-4.694230
33396		89.699128	-65.824876	-4.653543
33397		89.667818	-66.410821	-4.638024
33398		89.702843	-66.969131	-4.638283
33399		89.807449	-67.506539	-4.652318
33400		89.937276	-68.035048	-4.659357
33401		90.055683	-68.566717	-4.642879
33402		90.138856	-69.111326	-4.603079
33403		90.190552	-69.683462	-4.556807
33404		90.196223	-70.274470	-4.510223
33405		90.158380	-70.878469	-4.471314
33406		90.077499	-71.489218	-4.430491
33407		89.986556	-72.098839	-4.419337
33408		89.906400	-72.704133	-4.442472
33409		89.875344	-73.305703	-4.528084
33410		89.894564	-73.897475	-4.670661
33411		89.964409	-74.504282	-4.861855
33412		90.033270	-75.122989	-5.048412
33413		90.085497	-75.752517	-5.220342
33414		90.091714	-76.385632	-5.360276
33415		90.073559	-77.031288	-5.497452
33416		90.045037	-77.693097	-5.639457
33417		90.062057	-78.385194	-5.831564
33418		90.150071	-79.100396	-6.085057
33419		90.387291	-79.815402	-6.484963
33420		90.771049	-80.514098	-7.030917
33421		91.326548	-81.191508	-7.742876
33422		92.001163	-81.851573	-8.559809
33423		92.803110	-82.498995	-9.477004
33424		93.726728	-83.133090	-10.494843
33425		94.843293	-83.763301	-11.696367
33426		96.173544	-84.387257	-13.110000
33427		97.779983	-85.006837	-14.795781
33428		99.851852	-85.612631	-16.941998
33429		102.690093	-86.206180	-19.881931
33430		106.611188	-86.768735	-23.905591
33431		112.178951	-87.287821	-29.552573
33432		119.978864	-87.741760	-37.376047
33433		130.924184	-88.120680	-48.319109
33434		145.800442	-88.389742	-63.148311
33435		164.199200	-88.516251	-81.489801
33436		-176.853314	-88.477863	-100.343483
33437		-160.955786	-88.293824	-116.161497
33438		-148.898414	-88.011301	-128.117971
33439		-140.089731	-87.668998	-136.856217
33440		-133.570342	-87.292975	-143.312704
33441		-128.542289	-86.894564	-148.310532
33442		-124.662823	-86.486846	-152.167638
33443		-121.488037	-86.064687	-155.332415
33444		-118.901005	-85.634596	-157.874560
33445		-116.799891	-85.205942	-159.910310
33446		-115.093574	-84.792516	-161.497922
33447		-113.695066	-84.401516	-162.746730
33448		-112.605603	-84.040696	-163.651314
33449		-111.791267	-83.698635	-164.298236
33450		-111.219642	-83.367625	-164.715943
33451		-110.829490	-83.038830	-164.992573
33452		-110.616200	-82.711280	-165.118638
33453		-110.476086	-82.368292	-165.210670
33454		-110.442618	-82.025177	-165.209512
33455		-110.450536	-81.677667	-165.209100
33456		-110.422065	-81.334331	-165.245681
33457		-110.367461	-81.008720	-165.312795
33458		-110.276784	-80.710554	-165.382763
33459		-110.121404	-80.440886	-165.501449
33460		-109.983396	-80.197838	-165.580295
33461		-109.842066	-79.975469	-165.668888
33462		-109.689195	-79.763257	-165.759411
33463		-109.543170	-79.564898	-165.876508
33464		-109.382209	-79.377300	-166.012164
33465		-109.232881	-79.196276	-166.162918
33466		-109.138617	-79.017359	-166.261199
33467		-109.081576	-78.839276	-166.345209
33468		-109.082164	-78.670672	-166.368273
33469		-109.112294	-78.518472	-166.374580
33470		-109.149200	-78.396809	-166.355201
33471		-109.159146	-78.309282	-166.357735
33472		-109.120060	-78.253660	-166.374071
33473		-109.061660	-78.228714	-166.408472
33474		-109.029527	-78.224645	-166.407768
33475		-109.057190	-78.233648	-166.380591
33476		-109.142618	-78.256913	-166.312147
33477		-109.262066	-78.291408	-166.236569
33478		-109.387561	-78.328210	-166.138386
33479		-109.531919	-78.358848	-166.027926
33480		-109.684621	-78.380248	-165.887907
33481		-109.833669	-78.400363	-165.754895
33482		-109.939331	-78.423846	-165.639243
33483		-110.007292	-78.448931	-165.565132
33484		-110.002542	-78.470970	-165.547095
33485		-109.952169	-78.482154	-165.588806
33486		-109.888745	-78.484090	-165.640828
33487		-109.835028	-78.479876	-165.694308
33488		-109.786525	-78.471560	-165.732872
33489		-109.731569	-78.466169	-165.787982
33490		-109.668624	-78.458423	-165.847417
33491		-109.574927	-78.444245	-165.953050
33492		-109.492611	-78.420049	-166.046728
33493		-109.427379	-78.389571	-166.134489
33494		-109.393953	-78.351855	-166.178457
33495		-109.389822	-78.321675	-166.199275
33496		-109.375650	-78.298798	-166.212974
33497		-109.339619	-78.289935	-166.255120
33498		-109.264743	-78.292131	-166.320634
33499		-109.181945	-78.306006	-166.402184
33500		-109.122033	-78.321153	-166.450829
33501		-109.093559	-78.337527	-166.480367
33502		-109.113553	-78.350645	-166.451715
33503		-109.164284	-78.357297	-166.408454
33504		-109.193234	-78.357145	-166.375986
33505		-109.223370	-78.351966	-166.353328
33506		-109.229963	-78.347589	-166.338139
33507		-109.246518	-78.347015	-166.321695
33508		-109.246432	-78.345395	-166.301410
33509		-109.244045	-78.341349	-166.285438
33510		-109.236794	-78.331627	-166.256203
33511		-109.206267	-78.319842	-166.260417
33512		-109.135176	-78.306809	-166.305368
33513		-109.046026	-78.295613	-166.388945
33514		-108.944374	-78.280363	-166.480536
33515		-108.847049	-78.268230	-166.582643
33516		-108.761249	-78.255533	-166.653262
33517		-108.704933	-78.249605	-166.700315
33518		-108.684323	-78.255294	-166.694527
33519		-108.686540	-78.274922	-166.681086
33520		-108.709476	-78.302163	-166.644614
33521		-108.720017	-78.338100	-166.636683
33522		-108.708238	-78.383580	-166.645260
33523		-108.707780	-78.438676	-166.655122
33524		-108.706020	-78.504492	-166.659733
33525		-108.743927	-78.588841	-166.638053
33526		-108.785233	-78.681641	-166.604224
33527		-108.860638	-78.783819	-166.552716
33528		-108.958088	-78.883530	-166.477209
33529		-109.065382	-78.981172	-166.405372
33530		-109.159651	-79.079908	-166.329440
33531		-109.248488	-79.181810	-166.257673
33532		-109.306382	-79.283682	-166.192921
33533		-109.371321	-79.387533	-166.134393
33534		-109.453377	-79.497801	-166.054396
33535		-109.550365	-79.607642	-165.976791
33536		-109.660497	-79.707517	-165.878960
33537		-109.785619	-79.796867	-165.780525
33538		-109.894556	-79.879505	-165.682251
33539		-109.978684	-79.958593	-165.613774
33540		-110.001871	-80.028829	-165.584583
33541		-109.987398	-80.087683	-165.599305
33542		-109.935006	-80.136401	-165.649373
33543		-109.854495	-80.176080	-165.740754
33544		-109.754832	-80.207822	-165.849310
33545		-109.654732	-80.238825	-165.970007
33546		-109.553197	-80.275178	-166.082310
33547		-109.423614	-80.314230	-166.222947
33548		-109.296697	-80.356154	-166.344753
33549		-109.176516	-80.401808	-166.469028
33550		-109.076061	-80.453030	-166.566315
33551		-108.975466	-80.508282	-166.675027
33552		-108.887059	-80.561089	-166.760893
33553		-108.826013	-80.612902	-166.829975
33554		-108.775831	-80.664541	-166.879396
33555		-108.734936	-80.719485	-166.930359
33556		-108.711245	-80.773713	-166.966878
33557		-108.712516	-80.834832	-167.000903
33558		-108.764455	-80.904799	-166.978687
33559		-108.897340	-80.991328	-166.883590
33560		-109.092441	-81.096843	-166.708644
33561		-109.383252	-81.239875	-166.448886
33562		-109.762873	-81.420760	-166.097876
33563		-110.312536	-81.648170	-165.596817
33564		-110.985445	-81.917554	-164.984576
33565		-111.769150	-82.218079	-164.279203
33566		-112.567642	-82.533807	-163.554252
33567		-113.426885	-82.863796	-162.779994
33568		-114.393820	-83.208418	-161.894375
33569		-115.616632	-83.586974	-160.770789
33570		-117.259564	-84.008610	-159.236058
33571		-119.423376	-84.469248	-157.199793
33572		-122.106278	-84.939628	-154.634800
33573		-125.558476	-85.423254	-151.301862
33574		-129.932749	-85.897244	-147.031535
33575		-135.496451	-86.351200	-141.574928
33576		-142.428893	-86.752857	-134.730796
33577		-150.974727	-87.085587	-126.263081
33578		-160.954911	-87.331104	-116.324842
33579		-172.662133	-87.475241	-104.650029
33580		174.406278	-87.501871	-91.736947
33581		161.325398	-87.394896	-78.680383
33582		149.494056	-87.151573	-66.898660
33583		139.683135	-86.796764	-57.171792
33584		132.192110	-86.386273	-49.790244
33585		126.603415	-85.963465	-44.343035
33586		122.429655	-85.565806	-40.317619
33587		119.240546	-85.204644	-37.286837
33588		116.702097	-84.869204	-34.900810
33589		114.527543	-84.536180	-32.893792
33590		112.527027	-84.192137	-31.053277
33591		110.647361	-83.831825	-29.335955
33592		108.803182	-83.461294	-27.637239
33593		107.014064	-83.080957	-25.999885
33594		105.370637	-82.700617	-24.519398
33595		103.869453	-82.324965	-23.196308
33596		102.586684	-81.966871	-22.096003
33597		101.471671	-81.622473	-21.165404
33598		100.431987	-81.282742	-20.304844
33599		99.408815	-80.921859	-19.444280
33600		98.398460	-80.532437	-18.576618
33601		97.439569	-80.106327	-17.745337
33602		96.553917	-79.659446	-16.974289
33603		95.746490	-79.197079	-16.272493
33604		95.031390	-78.716511	-15.658216
33605		94.404603	-78.197852	-15.141052
33606		93.878605	-77.656223	-14.719791
33607		93.463330	-77.098425	-14.390973
33608		93.110229	-76.535793	-14.087106
33609		92.805768	-75.953935	-13.797904
33610		92.520859	-75.352752	-13.504933
33611		92.260120	-74.713849	-13.235723
33612		91.975248	-74.053063	-12.957566
33613		91.659574	-73.374340	-12.677262
33614		91.272122	-72.684723	-12.369811
33615		90.843665	-71.974955	-12.083966
33616		90.403784	-71.272868	-11.857233
33617		89.992031	-70.599495	-11.707757
33618		89.624097	-69.981213	-11.614186
33619		89.299755	-69.424515	-11.539515
33620		88.999016	-68.926142	-11.441625
33621		88.710724	-68.451929	-11.316848
33622		88.423272	-67.982426	-11.169610
33623		88.160036	-67.488754	-11.035021
33624		87.939127	-66.954644	-10.931069
33625		87.769669	-66.358191	-10.867855
33626		87.637639	-65.720897	-10.834190
33627		87.534173	-65.073281	-10.806211
33628		87.449691	-64.442071	-10.774710
33629		87.347966	-63.831953	-10.712839
33630		87.217951	-63.248341	-10.625262
33631		87.049935	-62.688460	-10.514445
33632		86.834800	-62.148435	-10.378493
33633		86.591377	-61.612130	-10.237002
33634		86.328629	-61.072983	-10.098491
33635		86.080711	-60.522447	-9.994219
33636		85.862286	-59.951869	-9.917704
33637		85.705504	-59.341133	-9.879268
33638		85.621047	-58.700160	-9.862291
33639		85.608819	-58.034948	-9.853178
33640		85.640205	-57.363670	-9.835570
33641		85.692927	-56.683718	-9.818752
33642		85.733316	-55.996293	-9.803146
33643		85.746341	-55.284664	-9.793217
33644		85.728302	-54.557202	-9.795802
33645		85.684968	-53.819249	-9.818064
33646		85.593481	-53.089206	-9.855474
33647		85.441666	-52.369359	-9.893556
33648		85.224858	-51.680286	-9.921275
33649		84.959449	-51.028393	-9.926728
33650		84.662923	-50.417422	-9.905240
33651		84.373952	-49.837982	-9.874305
33652		84.107565	-49.283643	-9.843780
33653		83.885357	-48.712671	-9.824112
33654		83.832219	-48.107427	-9.928546
33655		83.877356	-47.519154	-10.036979
33656		83.912222	-46.915573	-10.091327
33657		83.886200	-46.305404	-10.090489
33658		83.775216	-45.702028	-10.010437
33659		83.601936	-45.113190	-9.905701
33660		83.372584	-44.537586	-9.767515
33661		83.125957	-43.975101	-9.622889
33662		82.898159	-43.419428	-9.496277
33663		82.713381	-42.862233	-9.392658
33664		82.570287	-42.290316	-9.295786
33665		82.464469	-41.687029	-9.198516
33666		82.392238	-41.051746	-9.097592
33667		82.355511	-40.383665	-9.003846
33668		82.318589	-39.705711	-8.910238
33669		82.248262	-39.023254	-8.799700
33670		82.110499	-38.336784	-8.668412
33671		81.898754	-37.640911	-8.512829
33672		81.650926	-36.939690	-8.344426
33673		81.417568	-36.242603	-8.182314
33674		81.239754	-35.551262	-8.039745
33675		81.144894	-34.866244	-7.926906
33676		81.128922	-34.166029	-7.838914
33677		81.183798	-33.440758	-7.770419
33678		81.286466	-32.693189	-7.712887
33679		81.408904	-31.927912	-7.670276
33680		81.519817	-31.146423	-7.636959
33681		81.601076	-30.348947	-7.608928
33682		81.651864	-29.553500	-7.582529
33683		81.690181	-28.766286	-7.564640
33684		81.719728	-27.990457	-7.560757
33685		81.761392	-27.226506	-7.583965
33686		81.811857	-26.472965	-7.626169
33687		81.873479	-25.723524	-7.676752
33688		81.939044	-24.984230	-7.722903
33689		81.991546	-24.256829	-7.760791
33690		82.006963	-23.549359	-7.780017
33691		81.968615	-22.867595	-7.790423
33692		81.878679	-22.217210	-7.795425
33693		81.761721	-21.596018	-7.805136
33694		81.649707	-21.000828	-7.822868
33695		81.582506	-20.414751	-7.858051
33696		81.567392	-19.823627	-7.892445
33697		81.593732	-19.225434	-7.924271
33698		81.614062	-18.638648	-7.957721
33699		81.591965	-18.086268	-7.990545
33700		81.494004	-17.578850	-8.015235
33701		81.311917	-17.116617	-8.023479
33702		81.057150	-16.690364	-8.011969
33703		80.749062	-16.294763	-7.996316
33704		80.414569	-15.921263	-7.972680
33705		80.085869	-15.559984	-7.943024
33706		79.802978	-15.195246	-7.911287
33707		79.605101	-14.812749	-7.880849
33708		79.500506	-14.407529	-7.849078
33709		79.469057	-13.986430	-7.819936
33710		79.462989	-13.555056	-7.787799
33711		79.436669	-13.134854	-7.761427
33712		79.353266	-12.738892	-7.731030
33713		79.207203	-12.379101	-7.704470
33714		79.006959	-12.057422	-7.699213
33715		78.800314	-11.756068	-7.723861
33716		78.649268	-11.440170	-7.771951
33717		78.586549	-11.084566	-7.843041
33718		78.612707	-10.680580	-7.924498
33719		78.711339	-10.239987	-8.012654
33720		78.829432	-9.786030	-8.094026
33721		78.913888	-9.339333	-8.170698
33722		78.918493	-8.919292	-8.240470
33723		78.825219	-8.530243	-8.309065
33724		78.640738	-8.167771	-8.377237
33725		78.392198	-7.817181	-8.441534
33726		78.098636	-7.428326	-8.501519
33727		77.809465	-6.989798	-8.560595
33728		77.604033	-6.440331	-8.627946
33729		77.582140	-5.782467	-8.721479
33730		77.725110	-5.157533	-8.841093
33731		78.020824	-4.762769	-8.994528
33732		78.415236	-4.620678	-9.129620
33733		78.781845	-4.621009	-9.238402
33734		79.076407	-4.672992	-9.317814
33735		79.271390	-4.725988	-9.364569
33736		79.343183	-4.752582	-9.381598
33737		79.299385	-4.741414	-9.374609
33738		79.157578	-4.672545	-9.341060
33739		78.981600	-4.557778	-9.287871
33740		78.810058	-4.404461	-9.216782
33741		78.649996	-4.239034	-9.149267
33742		78.528320	-4.104818	-9.090199
33743		78.438504	-4.023708	-9.054552
33744		78.392295	-4.009900	-9.038561
33745		78.376329	-4.027609	-9.031734
33746		78.364141	-4.041817	-9.022835
33747		78.342173	-4.040054	-9.009484
33748		78.301716	-4.022329	-8.993253
33749		78.240219	-3.978673	-8.979608
33750		78.163424	-3.906624	-8.964458
33751		78.070604	-3.811152	-8.951926
33752		77.961313	-3.713263	-8.945280
33753		77.848107	-3.629060	-8.940509
33754		77.739096	-3.569100	-8.935116
33755		77.644248	-3.538233	-8.925217
33756		77.562976	-3.531357	-8.905996
33757		77.488528	-3.537372	-8.882071
33758		77.418388	-3.549972	-8.856891
33759		77.352818	-3.559815	-8.831208
33760		77.286682	-3.561475	-8.806536
33761		77.220065	-3.555940	-8.783352
33762		77.148660	-3.545269	-8.758854
33763		77.081029	-3.530291	-8.734722
33764		77.015109	-3.511986	-8.706723
33765		76.959728	-3.495541	-8.678372
33766		76.904564	-3.485398	-8.653704
33767		76.857355	-3.478734	-8.632414
33768		76.813709	-3.473075	-8.612286
33769		76.777667	-3.464068	-8.597097
33770		76.742190	-3.452194	-8.585451
33771		76.710703	-3.435816	-8.576632
33772		76.681259	-3.420648	-8.572970
33773		76.651023	-3.406819	-8.572441
33774		76.620237	-3.400301	-8.573033
33775		76.594868	-3.402043	-8.575879
33776		76.573299	-3.415809	-8.576755
33777		76.555362	-3.439548	-8.578506
33778		76.536553	-3.467553	-8.576625
33779		76.520754	-3.494310	-8.575350
33780		76.506005	-3.518847	-8.574848
33781		76.495640	-3.544395	-8.578504
33782		76.488415	-3.575643	-8.584066
33783		76.480743	-3.610846	-8.585558
33784		76.468074	-3.649202	-8.582615
33785		76.462549	-3.696892	-8.584590
33786		76.471810	-3.760200	-8.598135
33787		76.493103	-3.834114	-8.630431
33788		76.522318	-3.916933	-8.674069
33789		76.551936	-3.998954	-8.722537
33790		76.579224	-4.084906	-8.759444
33791		76.583460	-4.190369	-8.778033
33792		76.551665	-4.318530	-8.777379
33793		76.483639	-4.481257	-8.773894
33794		76.381305	-4.677455	-8.779622
33795		76.271080	-4.883050	-8.797387
33796		76.168997	-5.086371	-8.820592
33797		76.103212	-5.283962	-8.842720
33798		76.081512	-5.473508	-8.862064
33799		76.114267	-5.654707	-8.880686
33800		76.195359	-5.833498	-8.897216
33801		76.321266	-6.017089	-8.915403
33802		76.476826	-6.212873	-8.930716
33803		76.643326	-6.423151	-8.945548
33804		76.799513	-6.655183	-8.958191
33805		76.947809	-6.907899	-8.980082
33806		77.091853	-7.173712	-9.002909
33807		77.245352	-7.445627	-9.029118
33808		77.412714	-7.725519	-9.048799
33809		77.596730	-8.008337	-9.062856
33810		77.783649	-8.293786	-9.068227
33811		77.968548	-8.588535	-9.065310
33812		78.143888	-8.890294	-9.056268
33813		78.311033	-9.201205	-9.041704
33814		78.485934	-9.518266	-9.021755
33815		78.676962	-9.841078	-9.007438
33816		78.886438	-10.166463	-8.997678
33817		79.107486	-10.492688	-9.001842
33818		79.331202	-10.818742	-9.014570
33819		79.549763	-11.145095	-9.033435
33820		79.752939	-11.476906	-9.058021
33821		79.938706	-11.825067	-9.082448
33822		80.114206	-12.190790	-9.109745
33823		80.306392	-12.565592	-9.139008
33824		80.541725	-12.943006	-9.166014
33825		80.829779	-13.321277	-9.194015
33826		81.149783	-13.697700	-9.222298
33827		81.472711	-14.079120	-9.244602
33828		81.776214	-14.462329	-9.266640
33829		82.049229	-14.857495	-9.284968
33830		82.283651	-15.277915	-9.304616
33831		82.485165	-15.727114	-9.327157
33832		82.655136	-16.200723	-9.356574
33833		82.813044	-16.683948	-9.390633
33834		82.971620	-17.173014	-9.419538
33835		83.151568	-17.660731	-9.440539
33836		83.352249	-18.145767	-9.452203
33837		83.571718	-18.630909	-9.447454
33838		83.793218	-19.120494	-9.429305
33839		84.004019	-19.621821	-9.399400
33840		84.194716	-20.131636	-9.367258
33841		84.383399	-20.641765	-9.341537
33842		84.594438	-21.138638	-9.325044
33843		84.860164	-21.608462	-9.316986
33844		85.191446	-22.050046	-9.306231
33845		85.573611	-22.471953	-9.288208
33846		85.959246	-22.892996	-9.259502
33847		86.302516	-23.321850	-9.223269
33848		86.576959	-23.759686	-9.180875
33849		86.795387	-24.201592	-9.140757
33850		86.973888	-24.645891	-9.104141
33851		87.125834	-25.092606	-9.072341
33852		87.255658	-25.544649	-9.048018
33853		87.382665	-25.995755	-9.032223
33854		87.526743	-26.437626	-9.014942
33855		87.712165	-26.866037	-8.998768
33856		87.931347	-27.281109	-8.979716
33857		88.170727	-27.692273	-8.961284
33858		88.399742	-28.109716	-8.941793
33859		88.593830	-28.540669	-8.925666
33860		88.737121	-28.989222	-8.909849
33861		88.836817	-29.450850	-8.901975
33862		88.901511	-29.927065	-8.897707
33863		88.957846	-30.416103	-8.898378
33864		89.021362	-30.913577	-8.896660
33865		89.109402	-31.414080	-8.891082
33866		89.234116	-31.905744	-8.877698
33867		89.398754	-32.387931	-8.863059
33868		89.595677	-32.866176	-8.850493
33869		89.811673	-33.347290	-8.845919
33870		90.023823	-33.836168	-8.844700
33871		90.224936	-34.332575	-8.840163
33872		90.415668	-34.823161	-8.824430
33873		90.613650	-35.297922	-8.790574
33874		90.830520	-35.754262	-8.731060
33875		91.071004	-36.194048	-8.655061
33876		91.331466	-36.623736	-8.571355
33877		91.613452	-37.056913	-8.494565
33878		91.896581	-37.498481	-8.434473
33879		92.171533	-37.955815	-8.393118
33880		92.418166	-38.432240	-8.360841
33881		92.626806	-38.930006	-8.337823
33882		92.807343	-39.444566	-8.328715
33883		92.982386	-39.968848	-8.331184
33884		93.175785	-40.486028	-8.340471
33885		93.397295	-40.993803	-8.348887
33886		93.634541	-41.490538	-8.346730
33887		93.863695	-41.989258	-8.333564
33888		94.066249	-42.494433	-8.305829
33889		94.249355	-43.015543	-8.273592
33890		94.423327	-43.551437	-8.248582
33891		94.609311	-44.103551	-8.246079
33892		94.816284	-44.663457	-8.271025
33893		95.043378	-45.240542	-8.323625
33894		95.273135	-45.825086	-8.391725
33895		95.506830	-46.415657	-8.461856
33896		95.744785	-47.006822	-8.516656
33897		95.997749	-47.595599	-8.560292
33898		96.255884	-48.178331	-8.580044
33899		96.520733	-48.763338	-8.604330
33900		96.766385	-49.361708	-8.645237
33901		96.993020	-49.979623	-8.720530
33902		97.185746	-50.618201	-8.823115
33903		97.355235	-51.280480	-8.955902
33904		97.512804	-51.955603	-9.099175
33905		97.684627	-52.638911	-9.262487
33906		97.868426	-53.322778	-9.434969
33907		98.061741	-54.014165	-9.605955
33908		98.237875	-54.705899	-9.761101
33909		98.403366	-55.407982	-9.908995
33910		98.549639	-56.126285	-10.037270
33911		98.673891	-56.864596	-10.164376
33912		98.773727	-57.609970	-10.295940
33913		98.871085	-58.359828	-10.428267
33914		98.991202	-59.099587	-10.571553
33915		99.148211	-59.832857	-10.737868
33916		99.340273	-60.559326	-10.928251
33917		99.573179	-61.275726	-11.146738
33918		99.824339	-61.975839	-11.387256
33919		100.090560	-62.661148	-11.637061
33920		100.351941	-63.327271	-11.876559
33921		100.609459	-63.979113	-12.108079
33922		100.856881	-64.613954	-12.316317
33923		101.104997	-65.243703	-12.509926
33924		101.341333	-65.876949	-12.702756
33925		101.574302	-66.513433	-12.918476
33926		101.803739	-67.152786	-13.155426
33927		102.037206	-67.808347	-13.410847
33928		102.277509	-68.472524	-13.679958
33929		102.544073	-69.148386	-13.980007
33930		102.843417	-69.825447	-14.318674
33931		103.172649	-70.498290	-14.691744
33932		103.533237	-71.151990	-15.100487
33933		103.922714	-71.779932	-15.542821
33934		104.348728	-72.391249	-16.011690
33935		104.828120	-72.998506	-16.510639
33936		105.343477	-73.599513	-17.019272
33937		105.902228	-74.195878	-17.549484
33938		106.485920	-74.785575	-18.091906
33939		107.094263	-75.364608	-18.660735
33940		107.709376	-75.931872	-19.238616
33941		108.332086	-76.494621	-19.840298
33942		108.985887	-77.059949	-20.487542
33943		109.711745	-77.629960	-21.236075
33944		110.540825	-78.197510	-22.113567
33945		111.476802	-78.753914	-23.111151
33946		112.526979	-79.294307	-24.212663
33947		113.706376	-79.819371	-25.421754
33948		114.995109	-80.330912	-26.711654
33949		116.414216	-80.842508	-28.126188
33950		117.956949	-81.345604	-29.679118
33951		119.687340	-81.851194	-31.428859
33952		121.654196	-82.343747	-33.425933
33953		123.976212	-82.816253	-35.827499
33954		126.611767	-83.257146	-38.564551
33955		129.574047	-83.661950	-41.645131
33956		132.816467	-84.038797	-44.985235
33957		136.282865	-84.385221	-48.544555
33958		139.951515	-84.698900	-52.300905
33959		143.922787	-84.982110	-56.358009
33960		148.131107	-85.236371	-60.642346
33961		152.665724	-85.456338	-65.269966
33962		157.529488	-85.639955	-70.230942
33963		162.764826	-85.790841	-75.577094
33964		168.321410	-85.902651	-81.240559
33965		174.059916	-85.972242	-87.104630
33966		179.794607	-86.002015	-92.961464
33967		-174.631232	-85.994982	-98.671516
33968		-169.314016	-85.961359	-104.110372
33969		-164.221612	-85.904344	-109.319514
33970		-159.427309	-85.830275	-114.207180
33971		-154.808340	-85.735814	-118.906756
33972		-150.383302	-85.621499	-123.396768
33973		-146.138978	-85.475148	-127.720807
33974		-142.156949	-85.301490	-131.789248
33975		-138.481123	-85.099009	-135.575605
33976		-135.191915	-84.883637	-138.970741
33977		-132.344635	-84.669495	-141.918656
33978		-129.983145	-84.471944	-144.347562
33979		-128.109374	-84.299813	-146.259581
33980		-126.578173	-84.158013	-147.773302
33981		-125.263367	-84.035723	-149.034403
33982		-124.162000	-83.936150	-150.033113
33983		-123.199041	-83.838976	-150.882459
33984		-122.334149	-83.729931	-151.627493
33985		-121.580863	-83.611342	-152.288450
33986		-120.888438	-83.485746	-152.908675
33987		-120.234271	-83.358549	-153.528380
33988		-119.614035	-83.235057	-154.129408
33989		-119.071516	-83.118374	-154.693586
33990		-118.649105	-83.019059	-155.150056
33991		-118.335514	-82.937583	-155.511130
33992		-118.063145	-82.870564	-155.804257
33993		-117.822561	-82.817497	-156.037722
33994		-117.615734	-82.773409	-156.188059
33995		-117.450517	-82.741323	-156.278945
33996		-117.356030	-82.717860	-156.287856
33997		-117.328695	-82.693902	-156.253298
33998		-117.359061	-82.670615	-156.172854
33999		-117.413104	-82.638793	-156.099813
34000		-117.459629	-82.603309	-156.040912
34001		-117.451027	-82.566874	-156.052742
34002		-117.381108	-82.531063	-156.114532
34003		-117.292734	-82.499495	-156.204104
34004		-117.205195	-82.482561	-156.290374
34005		-117.130089	-82.474417	-156.378257
34006		-117.044225	-82.478080	-156.472796
34007		-117.007329	-82.496380	-156.522503
34008		-117.013189	-82.526555	-156.521936
34009		-117.066753	-82.561689	-156.474083
34010		-117.148983	-82.588761	-156.382020
34011		-117.241098	-82.607447	-156.286637
34012		-117.321599	-82.619438	-156.189612
34013		-117.384058	-82.618841	-156.121786
34014		-117.402745	-82.609991	-156.084386
34015		-117.390372	-82.599475	-156.090804
34016		-117.337418	-82.591165	-156.128585
34017		-117.313991	-82.588205	-156.145666
34018		-117.281048	-82.588025	-156.169368
34019		-117.298312	-82.591600	-156.157920
34020		-117.264817	-82.593660	-156.187055
34021		-117.242408	-82.594274	-156.207370
34022		-117.212408	-82.595840	-156.215013
34023		-117.171093	-82.598468	-156.232444
34024		-117.105419	-82.602136	-156.263599
34025		-117.020742	-82.607790	-156.319418
34026		-116.869356	-82.611904	-156.439617
34027		-116.719894	-82.614515	-156.575594
34028		-116.589008	-82.622298	-156.701123
34029		-116.549511	-82.638348	-156.753261
34030		-116.571316	-82.659269	-156.738204
34031		-116.611645	-82.680994	-156.700198
34032		-116.639664	-82.700893	-156.646115
34033		-116.679648	-82.722826	-156.574815
34034		-116.703225	-82.747654	-156.504921
34035		-116.768073	-82.776829	-156.400979
34036		-116.866275	-82.813029	-156.266551
34037		-116.973595	-82.843747	-156.139486
34038		-117.102610	-82.866636	-156.000078
34039		-117.237797	-82.882252	-155.867545
34040		-117.376986	-82.893668	-155.725624
34041		-117.528134	-82.901151	-155.575461
34042		-117.657977	-82.910811	-155.430238
34043		-117.770007	-82.924194	-155.303309
34044		-117.904904	-82.949813	-155.138760
34045		-118.064024	-82.984165	-154.951691
34046		-118.236166	-83.026650	-154.743099
34047		-118.436326	-83.083168	-154.510608
34048		-118.677510	-83.152985	-154.230788
34049		-118.966171	-83.237566	-153.907955
34050		-119.284984	-83.333802	-153.549428
34051		-119.626315	-83.443916	-153.181752
34052		-120.023839	-83.564761	-152.763354
34053		-120.530431	-83.697451	-152.262927
34054		-121.147563	-83.845352	-151.657516
34055		-121.899418	-84.004529	-150.919492
34056		-122.793470	-84.179294	-150.020557
34057		-123.929015	-84.386019	-148.868515
34058		-125.574769	-84.640826	-147.184206
34059		-127.977422	-84.954958	-144.736945
34060		-131.349322	-85.313265	-141.295184
34061		-135.920844	-85.696557	-136.652304
34062		-141.850021	-86.075328	-130.629383
34063		-149.351639	-86.422347	-123.025341
34064		-158.611171	-86.704352	-113.638759
34065		-169.831036	-86.885133	-102.290520
34066		177.575724	-86.928076	-89.549973
34067		164.635740	-86.812831	-76.440657
34068		152.503169	-86.541841	-64.073174
34069		142.015901	-86.125335	-53.275003
34070		133.593908	-85.607161	-44.443979
34071		127.000067	-85.018826	-37.383123
34072		121.869326	-84.397195	-31.742979
34073		117.902756	-83.766966	-27.271897
34074		114.906793	-83.145142	-23.791664
34075		112.757055	-82.534259	-21.203186
34076		111.245814	-81.938773	-19.297949
34077		110.188359	-81.342249	-17.927047
34078		109.458485	-80.753867	-16.941219
34079		108.895245	-80.177323	-16.185911
34080		108.393107	-79.608235	-15.525123
34081		107.860412	-79.024118	-14.855841
34082		107.307280	-78.426643	-14.154986
34083		106.764322	-77.821689	-13.454475
34084		106.260167	-77.223253	-12.765552
34085		105.790736	-76.632031	-12.108332
34086		105.324273	-76.049958	-11.473825
34087		104.850390	-75.461340	-10.876672
34088		104.380661	-74.854785	-10.341085
34089		103.943190	-74.212416	-9.901328
34090		103.586927	-73.538170	-9.571454
34091		103.327630	-72.827382	-9.321475
34092		103.160834	-72.080896	-9.093793
34093		103.082766	-71.301109	-8.850539
34094		103.055543	-70.482183	-8.544878
34095		103.051995	-69.612371	-8.160301
34096		103.048414	-68.716107	-7.705180
34097		103.039837	-67.815691	-7.225412
34098		103.018515	-66.944311	-6.765165
34099		103.015992	-66.107352	-6.387071
34100		103.045391	-65.325153	-6.130256
34101		103.138441	-64.582973	-6.026998
34102		103.303855	-63.878065	-6.061347
34103		103.522438	-63.180891	-6.183970
34104		103.751863	-62.474097	-6.313575
34105		103.991362	-61.749304	-6.422097
34106		104.203394	-61.007967	-6.469932
34107		104.394949	-60.260255	-6.468790
34108		104.539429	-59.509687	-6.416029
34109		104.633155	-58.774834	-6.344630
34110		104.665593	-58.081801	-6.273816
34111		104.630119	-57.441887	-6.242585
34112		104.515422	-56.848121	-6.265655
34113		104.358700	-56.275214	-6.337905
34114		104.199893	-55.700040	-6.430462
34115		104.090133	-55.097559	-6.517686
34116		104.030704	-54.470004	-6.570757
34117		104.021306	-53.808092	-6.584368
34118		104.030036	-53.118446	-6.554651
34119		104.033207	-52.420267	-6.505516
34120		103.985904	-51.740612	-6.490616
34121		103.845539	-51.086256	-6.527373
34122		103.595351	-50.465565	-6.594210
34123		103.272439	-49.861580	-6.682256
34124		102.931889	-49.271208	-6.765890
34125		102.619370	-48.673953	-6.847923
34126		102.363039	-48.063808	-6.921436
34127		102.160433	-47.430275	-6.988721
34128		101.989081	-46.777793	-7.048505
34129		101.811056	-46.117239	-7.109726
34130		101.572966	-45.476202	-7.181263
34131		101.245626	-44.871938	-7.259524
34132		100.806313	-44.326699	-7.344552
34133		100.285823	-43.822309	-7.428423
34134		99.753407	-43.331877	-7.496120
34135		99.289031	-42.822348	-7.550385
34136		98.933921	-42.271220	-7.585842
34137		98.689431	-41.672297	-7.608367
34138		98.514079	-41.043110	-7.623819
34139		98.362352	-40.394455	-7.648684
34140		98.205235	-39.749862	-7.686117
34141		98.023496	-39.124319	-7.743571
34142		97.787941	-38.533446	-7.813418
34143		97.495465	-37.964412	-7.878160
34144		97.154212	-37.414048	-7.919392
34145		96.797327	-36.866229	-7.925388
34146		96.458386	-36.324290	-7.896613
34147		96.159920	-35.779452	-7.850973
34148		95.892638	-35.241854	-7.800558
34149		95.639972	-34.701201	-7.756108
34150		95.386029	-34.155788	-7.718084
34151		95.123696	-33.609508	-7.697935
34152		94.840050	-33.073221	-7.688741
34153		94.537692	-32.540566	-7.670720
34154		94.209387	-32.006107	-7.621920
34155		93.864558	-31.465533	-7.533424
34156		93.512645	-30.919044	-7.422179
34157		93.182010	-30.370971	-7.307129
34158		92.886177	-29.821939	-7.202002
34159		92.657183	-29.251613	-7.109231
34160		92.495754	-28.662892	-7.034697
34161		92.366950	-28.064290	-6.985084
34162		92.223025	-27.466835	-6.957660
34163		92.036152	-26.881106	-6.926449
34164		91.804791	-26.304969	-6.882888
34165		91.548004	-25.730846	-6.820259
34166		91.286380	-25.159318	-6.746381
34167		91.032355	-24.586907	-6.662814
34168		90.800082	-24.014044	-6.562231
34169		90.601833	-23.442419	-6.455473
34170		90.435958	-22.886369	-6.365298
34171		90.299164	-22.349067	-6.316912
34172		90.172049	-21.830596	-6.307583
34173		90.034938	-21.327341	-6.329085
34174		89.862849	-20.839783	-6.357118
34175		89.644109	-20.371087	-6.381090
34176		89.385888	-19.917267	-6.390668
34177		89.115571	-19.468309	-6.392889
34178		88.863210	-19.010401	-6.390616
34179		88.658028	-18.539773	-6.379356
34180		88.501186	-18.056223	-6.350431
34181		88.376854	-17.572161	-6.310540
34182		88.252723	-17.088526	-6.260987
34183		88.110930	-16.606148	-6.209063
34184		87.933184	-16.133145	-6.162949
34185		87.714292	-15.670188	-6.137125
34186		87.457860	-15.219850	-6.132102
34187		87.190870	-14.773651	-6.149236
34188		86.930849	-14.327341	-6.159497
34189		86.694482	-13.873573	-6.147509
34190		86.473554	-13.416966	-6.110797
34191		86.269809	-12.951362	-6.060384
34192		86.073825	-12.478267	-6.000395
34193		85.896301	-11.999657	-5.948614
34194		85.738099	-11.511454	-5.904373
34195		85.604423	-11.009186	-5.870384
34196		85.493039	-10.498252	-5.853247
34197		85.402635	-9.970040	-5.852709
34198		85.319037	-9.423797	-5.850180
34199		85.224147	-8.869094	-5.844370
34200		85.085167	-8.318539	-5.823743
34201		84.883935	-7.790490	-5.786242
34202		84.603640	-7.303534	-5.741217
34203		84.245791	-6.858047	-5.705094
34204		83.810303	-6.473644	-5.688242
34205		83.314935	-6.164960	-5.699706
34206		82.781790	-5.928118	-5.733855
34207		82.228229	-5.735238	-5.772534
34208		81.622546	-5.582035	-5.775691
34209		80.989916	-5.281175	-5.762736
34210		80.586664	-4.733552	-5.782227
34211		80.505602	-4.299276	-5.801976
34212		80.809851	-4.385791	-5.863585
34213		81.212303	-4.812913	-5.934879
34214		81.566325	-5.381684	-5.953091
34215		81.730660	-5.816257	-5.879379
34216		81.715348	-6.094631	-5.735954
34217		81.605746	-6.233944	-5.571859
34218		81.434199	-6.299333	-5.411530
34219		81.218253	-6.319943	-5.277193
34220		80.934172	-6.290427	-5.163538
34221		80.576058	-6.212931	-5.080355
34222		80.158036	-6.091181	-5.013152
34223		79.753964	-5.835665	-4.958173
34224		79.448181	-5.419923	-4.921806
34225		79.283709	-4.962838	-4.933102
34226		79.285473	-4.579087	-4.983646
34227		79.436591	-4.361304	-5.061142
34228		79.671543	-4.276495	-5.139110
34229		79.904279	-4.235079	-5.204411
34230		80.085644	-4.188798	-5.250078
34231		80.190978	-4.122419	-5.273923
34232		80.206871	-4.036350	-5.284099
34233		80.146963	-3.915576	-5.279443
34234		80.037261	-3.765579	-5.262013
34235		79.910057	-3.584822	-5.236774
34236		79.803778	-3.439403	-5.219145
34237		79.734022	-3.353136	-5.217501
34238		79.694353	-3.320746	-5.222357
34239		79.662185	-3.323974	-5.236430
34240		79.621086	-3.334466	-5.254556
34241		79.561144	-3.342413	-5.268492
34242		79.466957	-3.331878	-5.279368
34243		79.344697	-3.307776	-5.279418
34244		79.213521	-3.274811	-5.267098
34245		79.077718	-3.233616	-5.245499
34246		78.961500	-3.208507	-5.219113
34247		78.866606	-3.201031	-5.196451
34248		78.783427	-3.190741	-5.183552
34249		78.725919	-3.193407	-5.178484
34250		78.678252	-3.182020	-5.179346
34251		78.645150	-3.163757	-5.174240
34252		78.614669	-3.138375	-5.166126
34253		78.591936	-3.107754	-5.152378
34254		78.572199	-3.067412	-5.130274
34255		78.553281	-3.025874	-5.110688
34256		78.533313	-2.988919	-5.099817
34257		78.509974	-2.955226	-5.101079
34258		78.479075	-2.929112	-5.107080
34259		78.435450	-2.911011	-5.122715
34260		78.379194	-2.898248	-5.134391
34261		78.308592	-2.890300	-5.138741
34262		78.223608	-2.881424	-5.135817
34263		78.130498	-2.873071	-5.122620
34264		78.031326	-2.870672	-5.105545
34265		77.933359	-2.872751	-5.088572
34266		77.835508	-2.878344	-5.074104
34267		77.744606	-2.883909	-5.064588
34268		77.661759	-2.888136	-5.059412
34269		77.592992	-2.888390	-5.058471
34270		77.536611	-2.890242	-5.063156
34271		77.497095	-2.890679	-5.065272
34272		77.472286	-2.891352	-5.066588
34273		77.462253	-2.892134	-5.067933
34274		77.462196	-2.892959	-5.072551
34275		77.472243	-2.887899	-5.082239
34276		77.480110	-2.879917	-5.098949
34277		77.489407	-2.871142	-5.117773
34278		77.488424	-2.865977	-5.132475
34279		77.476413	-2.870609	-5.146691
34280		77.449730	-2.885712	-5.155567
34281		77.416680	-2.907511	-5.157393
34282		77.380099	-2.935911	-5.154305
34283		77.351817	-2.972099	-5.154009
34284		77.332008	-3.018275	-5.172375
34285		77.334342	-3.078264	-5.213039
34286		77.352325	-3.151785	-5.268723
34287		77.385017	-3.233619	-5.331242
34288		77.425106	-3.325865	-5.395131
34289		77.466536	-3.437368	-5.459603
34290		77.496476	-3.570971	-5.520615
34291		77.519385	-3.740261	-5.579641
34292		77.533250	-3.925620	-5.629154
34293		77.526989	-4.140479	-5.680430
34294		77.484257	-4.369986	-5.724678
34295		77.401194	-4.608929	-5.768004
34296		77.300683	-4.865518	-5.809113
34297		77.196919	-5.156967	-5.850995
34298		77.095453	-5.474326	-5.899595
34299		77.008738	-5.801744	-5.958279
34300		76.931394	-6.140876	-6.022262
34301		76.884099	-6.496270	-6.088231
34302		76.880997	-6.858960	-6.155339
34303		76.953082	-7.221153	-6.224266
34304		77.111653	-7.570525	-6.295623
34305		77.350406	-7.906302	-6.375261
34306		77.643225	-8.240003	-6.460124
34307		77.965998	-8.583560	-6.545203
34308		78.284005	-8.952239	-6.634367
34309		78.582070	-9.360625	-6.731505
34310		78.849729	-9.812388	-6.840939
34311		79.088050	-10.299931	-6.959878
34312		79.298678	-10.815328	-7.083841
34313		79.489354	-11.346486	-7.202561
34314		79.679779	-11.878371	-7.306029
34315		79.903122	-12.405207	-7.386400
34316		80.177101	-12.931086	-7.448112
34317		80.504221	-13.445728	-7.494971
34318		80.867435	-13.961017	-7.539612
34319		81.251674	-14.483259	-7.589384
34320		81.637567	-15.024216	-7.656016
34321		82.016267	-15.592079	-7.745668
34322		82.376902	-16.181314	-7.850930
34323		82.718547	-16.786916	-7.958670
34324		83.041303	-17.397052	-8.054730
34325		83.345261	-18.014866	-8.129760
34326		83.643098	-18.636371	-8.174481
34327		83.953778	-19.267396	-8.198500
34328		84.281822	-19.910968	-8.214882
34329		84.615676	-20.571109	-8.240222
34330		84.932935	-21.248822	-8.272441
34331		85.227233	-21.939825	-8.312255
34332		85.496939	-22.638590	-8.339675
34333		85.761918	-23.340066	-8.365898
34334		86.030076	-24.036841	-8.376473
34335		86.308873	-24.725577	-8.383760
34336		86.588234	-25.407144	-8.390385
34337		86.854341	-26.096532	-8.397700
34338		87.093936	-26.795216	-8.400007
34339		87.314075	-27.504984	-8.387056
34340		87.537662	-28.218244	-8.364207
34341		87.770782	-28.931398	-8.335412
34342		88.011830	-29.638006	-8.300941
34343		88.255170	-30.341524	-8.270270
34344		88.485274	-31.046263	-8.245851
34345		88.691553	-31.755666	-8.223806
34346		88.865523	-32.463040	-8.195125
34347		89.013950	-33.161331	-8.144392
34348		89.145964	-33.845291	-8.080182
34349		89.272050	-34.511391	-8.004886
34350		89.413144	-35.159993	-7.923558
34351		89.579529	-35.800279	-7.838288
34352		89.766821	-36.436455	-7.746925
34353		89.958560	-37.069224	-7.646007
34354		90.139425	-37.699405	-7.540095
34355		90.284098	-38.343192	-7.429947
34356		90.376397	-38.994921	-7.308167
34357		90.408613	-39.660892	-7.179927
34358		90.396440	-40.328512	-7.038650
34359		90.364913	-41.002819	-6.891382
34360		90.338636	-41.671205	-6.742920
34361		90.333090	-42.318784	-6.592682
34362		90.356625	-42.929471	-6.444287
34363		90.412186	-43.519982	-6.298383
34364		90.491992	-44.104593	-6.150185
34365		90.588961	-44.694712	-6.007959
34366		90.683889	-45.288091	-5.867903
34367		90.755457	-45.891540	-5.733066
34368		90.788697	-46.505949	-5.596117
34369		90.790270	-47.125671	-5.455116
34370		90.772124	-47.737292	-5.298033
34371		90.765145	-48.334988	-5.122771
34372		90.777264	-48.910246	-4.931036
34373		90.816815	-49.477687	-4.742386
34374		90.863547	-50.041936	-4.567971
34375		90.898383	-50.614940	-4.414925
34376		90.912536	-51.198133	-4.284767
34377		90.909152	-51.790361	-4.189008
34378		90.893070	-52.386543	-4.119834
34379		90.877407	-52.995531	-4.065002
34380		90.860619	-53.603204	-4.016452
34381		90.850363	-54.202973	-3.964012
34382		90.853899	-54.783321	-3.901903
34383		90.890432	-55.343060	-3.827678
34384		90.958516	-55.890077	-3.750176
34385		91.041641	-56.434919	-3.668448
34386		91.114514	-56.979845	-3.585275
34387		91.155314	-57.529669	-3.491868
34388		91.165471	-58.078388	-3.392015
34389		91.169950	-58.623791	-3.306899
34390		91.209810	-59.161880	-3.248486
34391		91.307399	-59.702555	-3.219714
34392		91.436755	-60.245463	-3.197707
34393		91.568896	-60.797633	-3.171943
34394		91.678528	-61.359220	-3.129806
34395		91.769701	-61.933720	-3.082652
34396		91.829221	-62.511845	-3.021018
34397		91.886037	-63.090967	-2.968587
34398		91.946167	-63.669762	-2.930620
34399		92.025944	-64.250963	-2.922622
34400		92.115211	-64.836110	-2.941576
34401		92.206589	-65.427849	-2.967266
34402		92.284947	-66.021072	-2.982653
34403		92.361836	-66.620371	-3.004166
34404		92.443281	-67.234916	-3.029732
34405		92.539706	-67.866525	-3.073546
34406		92.622082	-68.498858	-3.113143
34407		92.700192	-69.129510	-3.165104
34408		92.763592	-69.754585	-3.215070
34409		92.818567	-70.373982	-3.267575
34410		92.870987	-70.970258	-3.323370
34411		92.961193	-71.531562	-3.415495
34412		93.090090	-72.054046	-3.533338
34413		93.262934	-72.526919	-3.669210
34414		93.476479	-72.956951	-3.805969
34415		93.737064	-73.367943	-3.935574
34416		94.011680	-73.779678	-4.033727
34417		94.273758	-74.192003	-4.105463
34418		94.509781	-74.601962	-4.169157
34419		94.727640	-75.004477	-4.251757
34420		94.936389	-75.390335	-4.356445
34421		95.119575	-75.764250	-4.453885
34422		95.293787	-76.143323	-4.557646
34423		95.467012	-76.530513	-4.673777
34424		95.634113	-76.915512	-4.795378
34425		95.815962	-77.286879	-4.939387
34426		96.003871	-77.641704	-5.077934
34427		96.216921	-77.980701	-5.211369
34428		96.417943	-78.305806	-5.296212
34429		96.625749	-78.623387	-5.356407
34430		96.868079	-78.937891	-5.431788
34431		97.129647	-79.251690	-5.548258
34432		97.380571	-79.567464	-5.688324
34433		97.639882	-79.888825	-5.874445
34434		97.905902	-80.208327	-6.091601
34435		98.208066	-80.527268	-6.360772
34436		98.532835	-80.829588	-6.644962
34437		98.854214	-81.125971	-6.900680
34438		99.192672	-81.417332	-7.137921
34439		99.545939	-81.704976	-7.366617
34440		99.899189	-81.987622	-7.574660
34441		100.257889	-82.265133	-7.786441
34442		100.591628	-82.540157	-7.978198
34443		100.954034	-82.812875	-8.215313
