// General information: 
//  MT Manager version: 2022.2.0 
//  XDA version: 2022.2.0 build 7381 rev 124627 built on 2023-07-19
// Device information: 
//  DeviceId: 00B44876
//  ProductCode: MTW2-3A7G6
//  Firmware Version: 4.3.5
//  Hardware Version: 2.0.0
// Device settings: 
//  Filter Profile: human(46.1)
//  Option Flags: Orientation Smoother Disabled, Position/Velocity Smoother Disabled, Continuous Zero Rotation Update Disabled, AHS Disabled, ICC Disabled
// Coordinate system: ENU
PacketCounter	SampleTimeFine	Roll	Pitch	Yaw
29254		-4.065091	-5.461316	17.116647
29255		-4.102872	-5.524996	17.152376
29256		-4.124549	-5.573133	17.200750
29257		-4.113856	-5.623220	17.263846
29258		-4.068169	-5.686562	17.335260
29259		-4.009327	-5.767032	17.407550
29260		-3.959600	-5.866976	17.466139
29261		-3.928008	-5.990772	17.517717
29262		-3.902273	-6.126185	17.561790
29263		-3.878602	-6.266183	17.601778
29264		-3.844886	-6.397405	17.632477
29265		-3.797824	-6.517237	17.654975
29266		-3.746784	-6.620610	17.671329
29267		-3.704090	-6.711388	17.678016
29268		-3.693538	-6.779327	17.680783
29269		-3.729722	-6.828540	17.677614
29270		-3.797479	-6.859852	17.669965
29271		-3.883261	-6.884741	17.669949
29272		-3.956866	-6.906265	17.678121
29273		-3.994466	-6.933807	17.691632
29274		-3.988749	-6.971732	17.704263
29275		-3.965327	-7.021531	17.710429
29276		-3.937906	-7.087552	17.703774
29277		-3.921461	-7.169278	17.690530
29278		-3.913678	-7.253827	17.671119
29279		-3.908408	-7.328136	17.652477
29280		-3.902393	-7.380082	17.632530
29281		-3.896481	-7.415070	17.613383
29282		-3.877835	-7.440593	17.596297
29283		-3.845657	-7.475854	17.584490
29284		-3.791866	-7.524014	17.577769
29285		-3.729431	-7.589324	17.567170
29286		-3.665871	-7.667244	17.552932
29287		-3.612455	-7.747479	17.530620
29288		-3.580371	-7.821261	17.499547
29289		-3.577245	-7.884608	17.460403
29290		-3.583202	-7.926592	17.410220
29291		-3.579694	-7.949411	17.351861
29292		-3.559361	-7.951393	17.285720
29293		-3.536489	-7.947287	17.219307
29294		-3.516328	-7.938659	17.151455
29295		-3.519987	-7.932755	17.082240
29296		-3.550864	-7.928722	17.009911
29297		-3.605017	-7.928833	16.935847
29298		-3.660951	-7.930221	16.855844
29299		-3.705082	-7.935496	16.775076
29300		-3.720284	-7.938538	16.696420
29301		-3.703474	-7.942660	16.615285
29302		-3.673434	-7.946323	16.531493
29303		-3.639956	-7.955052	16.445270
29304		-3.601939	-7.963267	16.350184
29305		-3.573698	-7.973246	16.246080
29306		-3.557003	-7.973030	16.136946
29307		-3.540662	-7.970200	16.024736
29308		-3.529082	-7.967151	15.914945
29309		-3.526535	-7.968226	15.806814
29310		-3.516133	-7.976453	15.695525
29311		-3.497840	-7.994630	15.585301
29312		-3.466544	-8.018421	15.470994
29313		-3.419672	-8.045384	15.354923
29314		-3.368167	-8.076972	15.235446
29315		-3.316227	-8.118639	15.104914
29316		-3.273707	-8.175090	14.959527
29317		-3.234531	-8.244044	14.790311
29318		-3.190244	-8.320608	14.597824
29319		-3.130844	-8.403620	14.384140
29320		-3.060375	-8.482797	14.158519
29321		-2.993930	-8.548637	13.931482
29322		-2.947008	-8.602161	13.707885
29323		-2.927105	-8.652098	13.484524
29324		-2.938979	-8.706106	13.260152
29325		-2.983699	-8.777865	13.025689
29326		-3.054852	-8.853289	12.781733
29327		-3.127886	-8.924866	12.528544
29328		-3.199659	-8.979570	12.268447
29329		-3.255155	-9.017391	11.994766
29330		-3.312463	-9.035936	11.713051
29331		-3.392036	-9.044124	11.417533
29332		-3.498190	-9.043315	11.122724
29333		-3.606809	-9.040969	10.827686
29334		-3.684291	-9.033043	10.539815
29335		-3.703575	-9.035350	10.253925
29336		-3.683536	-9.047557	9.964776
29337		-3.649096	-9.073589	9.663257
29338		-3.622358	-9.106862	9.348574
29339		-3.605967	-9.144893	9.023891
29340		-3.592543	-9.177251	8.690179
29341		-3.575762	-9.216325	8.349198
29342		-3.559771	-9.255344	8.001053
29343		-3.544955	-9.301477	7.647628
29344		-3.523847	-9.349444	7.288755
29345		-3.486655	-9.400555	6.927397
29346		-3.449322	-9.445589	6.563510
29347		-3.425183	-9.482650	6.193050
29348		-3.419407	-9.501574	5.817985
29349		-3.434884	-9.506312	5.437140
29350		-3.456137	-9.499187	5.046313
29351		-3.465130	-9.492352	4.638996
29352		-3.462004	-9.485912	4.218704
29353		-3.445104	-9.492546	3.780066
29354		-3.424242	-9.516042	3.325302
29355		-3.402377	-9.552905	2.852757
29356		-3.389022	-9.592833	2.370383
29357		-3.380870	-9.624271	1.875784
29358		-3.361088	-9.637470	1.372243
29359		-3.305392	-9.647678	0.857424
29360		-3.204653	-9.663037	0.336414
29361		-3.075880	-9.694938	-0.185788
29362		-2.962549	-9.734637	-0.706092
29363		-2.850247	-9.776742	-1.220496
29364		-2.735590	-9.814893	-1.738392
29365		-2.592589	-9.862300	-2.263902
29366		-2.423565	-9.922341	-2.805900
29367		-2.236469	-10.001945	-3.359181
29368		-2.064802	-10.083516	-3.918577
29369		-1.920738	-10.164858	-4.477544
29370		-1.815572	-10.227460	-5.032829
29371		-1.732496	-10.268396	-5.578518
29372		-1.655291	-10.282671	-6.112845
29373		-1.574817	-10.280109	-6.644244
29374		-1.493084	-10.257198	-7.181153
29375		-1.411364	-10.226935	-7.736299
29376		-1.356113	-10.184552	-8.315589
29377		-1.335829	-10.143065	-8.916429
29378		-1.353612	-10.095369	-9.528409
29379		-1.366304	-10.055920	-10.147253
29380		-1.339909	-10.029397	-10.761260
29381		-1.244200	-10.022442	-11.380944
29382		-1.085633	-10.031799	-12.014251
29383		-0.898376	-10.045436	-12.661701
29384		-0.729775	-10.045341	-13.323448
29385		-0.593512	-10.027041	-13.996956
29386		-0.511206	-9.994011	-14.672422
29387		-0.465548	-9.961449	-15.348289
29388		-0.429304	-9.933718	-16.007246
29389		-0.341240	-9.925587	-16.663211
29390		-0.199301	-9.933297	-17.325230
29391		-0.013322	-9.953190	-17.998545
29392		0.193713	-9.972595	-18.684658
29393		0.396636	-9.992667	-19.379567
29394		0.541276	-10.006506	-20.077913
29395		0.625217	-10.017461	-20.775894
29396		0.639635	-10.022715	-21.464366
29397		0.613860	-10.014059	-22.140297
29398		0.577422	-9.990749	-22.809760
29399		0.578084	-9.958766	-23.472735
29400		0.620080	-9.915371	-24.138441
29401		0.688932	-9.873207	-24.805440
29402		0.750173	-9.833904	-25.468053
29403		0.796002	-9.812574	-26.120421
29404		0.828996	-9.813672	-26.760904
29405		0.883452	-9.838603	-27.394132
29406		0.967184	-9.878246	-28.023474
29407		1.087766	-9.935278	-28.655465
29408		1.222172	-10.001206	-29.297376
29409		1.348135	-10.074254	-29.950770
29410		1.431594	-10.136015	-30.608429
29411		1.461537	-10.180330	-31.272254
29412		1.445188	-10.201489	-31.942447
29413		1.424889	-10.209137	-32.624148
29414		1.413799	-10.194959	-33.308607
29415		1.431823	-10.165927	-33.991292
29416		1.479563	-10.132668	-34.668830
29417		1.575050	-10.119109	-35.337538
29418		1.711090	-10.129161	-36.002126
29419		1.885969	-10.170244	-36.664539
29420		2.096560	-10.234178	-37.335891
29421		2.339841	-10.328802	-38.017410
29422		2.584851	-10.444728	-38.705163
29423		2.806377	-10.556298	-39.391419
29424		2.972514	-10.634409	-40.067610
29425		3.086883	-10.671798	-40.725753
29426		3.159661	-10.671253	-41.364112
29427		3.219785	-10.658286	-41.990853
29428		3.247245	-10.663032	-42.607914
29429		3.264628	-10.700371	-43.225366
29430		3.271056	-10.756079	-43.841499
29431		3.252014	-10.812946	-44.456591
29432		3.185644	-10.854566	-45.068450
29433		3.091084	-10.883588	-45.674470
29434		2.978324	-10.907698	-46.267707
29435		2.862303	-10.934644	-46.847205
29436		2.763575	-10.960026	-47.413400
29437		2.709121	-10.975299	-47.968001
29438		2.691409	-10.980578	-48.516704
29439		2.692421	-10.986854	-49.065240
29440		2.672979	-10.999525	-49.616803
29441		2.629615	-11.028340	-50.174363
29442		2.560144	-11.061803	-50.734706
29443		2.470165	-11.097330	-51.302379
29444		2.359608	-11.126815	-51.872041
29445		2.235511	-11.143177	-52.445564
29446		2.090523	-11.131367	-53.024980
29447		1.938871	-11.093165	-53.603038
29448		1.776078	-11.032044	-54.181638
29449		1.619314	-10.968129	-54.756534
29450		1.482856	-10.912059	-55.332021
29451		1.398275	-10.883809	-55.907219
29452		1.364747	-10.871439	-56.484557
29453		1.391133	-10.874521	-57.066559
29454		1.467582	-10.886574	-57.652768
29455		1.574015	-10.915554	-58.248246
29456		1.679763	-10.947601	-58.848356
29457		1.778078	-10.975075	-59.448321
29458		1.849621	-10.975964	-60.041219
29459		1.914078	-10.948874	-60.627514
29460		1.987428	-10.897600	-61.207849
29461		2.102949	-10.840554	-61.790682
29462		2.253965	-10.800482	-62.373599
29463		2.442232	-10.794442	-62.964596
29464		2.629769	-10.816640	-63.568326
29465		2.802901	-10.870181	-64.192474
29466		2.945799	-10.931589	-64.835108
29467		3.038157	-10.984302	-65.488329
29468		3.050976	-10.997073	-66.136208
29469		2.989514	-10.962117	-66.763699
29470		2.866525	-10.877630	-67.362641
29471		2.738125	-10.764201	-67.930850
29472		2.652436	-10.634108	-68.466153
29473		2.644780	-10.513932	-68.982960
29474		2.724456	-10.420722	-69.488101
29475		2.872066	-10.370000	-69.992553
29476		3.039441	-10.355347	-70.503814
29477		3.181124	-10.369963	-71.021289
29478		3.278746	-10.385076	-71.533323
29479		3.345225	-10.401418	-72.036753
29480		3.403047	-10.407951	-72.524327
29481		3.489244	-10.408197	-72.991009
29482		3.617899	-10.411700	-73.437401
29483		3.781336	-10.426886	-73.861989
29484		3.959558	-10.452264	-74.268527
29485		4.138307	-10.489703	-74.662960
29486		4.293761	-10.525315	-75.056997
29487		4.408711	-10.561341	-75.451925
29488		4.496698	-10.590367	-75.846359
29489		4.570139	-10.622131	-76.236175
29490		4.649781	-10.649892	-76.615151
29491		4.751077	-10.681499	-76.972215
29492		4.874257	-10.715478	-77.307702
29493		5.008698	-10.755062	-77.613905
29494		5.142468	-10.796747	-77.891257
29495		5.267530	-10.855308	-78.145384
29496		5.380936	-10.927542	-78.381173
29497		5.478882	-11.010760	-78.598307
29498		5.567263	-11.091929	-78.801416
29499		5.664658	-11.172657	-78.988769
29500		5.787746	-11.249896	-79.158442
29501		5.947726	-11.335223	-79.314834
29502		6.137119	-11.424037	-79.456961
29503		6.335586	-11.520249	-79.585905
29504		6.526757	-11.614113	-79.696536
29505		6.690121	-11.703955	-79.781471
29506		6.817910	-11.782554	-79.841470
29507		6.921037	-11.841384	-79.878807
29508		6.985379	-11.878835	-79.896083
29509		7.013140	-11.894161	-79.902099
29510		7.015879	-11.886964	-79.894554
29511		7.014030	-11.866988	-79.877568
29512		7.014629	-11.847522	-79.844744
29513		7.027734	-11.831431	-79.804674
29514		7.046875	-11.817845	-79.761491
29515		7.069650	-11.812025	-79.718235
29516		7.094519	-11.809771	-79.669810
29517		7.110534	-11.807707	-79.622744
29518		7.118662	-11.798326	-79.569922
29519		7.128046	-11.793251	-79.511053
29520		7.151295	-11.794613	-79.446438
29521		7.183995	-11.803455	-79.383609
29522		7.224588	-11.816998	-79.319363
29523		7.266579	-11.840218	-79.254014
29524		7.311261	-11.867683	-79.186122
29525		7.360550	-11.896520	-79.113931
29526		7.419299	-11.921533	-79.039882
29527		7.491646	-11.935637	-78.962855
29528		7.575982	-11.939886	-78.877826
29529		7.655906	-11.938671	-78.771438
29530		7.742645	-11.937776	-78.635231
29531		7.825275	-11.932129	-78.471676
29532		7.931621	-11.926039	-78.298593
29533		8.074796	-11.934187	-78.118804
29534		8.261941	-11.970818	-77.924790
29535		8.499551	-12.042880	-77.713060
29536		8.771716	-12.146012	-77.485498
29537		9.022651	-12.273566	-77.241615
29538		9.221194	-12.410933	-76.976755
29539		9.331607	-12.536954	-76.676124
29540		9.368242	-12.632319	-76.328368
29541		9.352216	-12.694016	-75.937258
29542		9.324762	-12.717592	-75.517128
29543		9.294091	-12.723965	-75.083026
29544		9.261164	-12.721411	-74.641519
29545		9.207735	-12.722291	-74.185892
29546		9.151052	-12.723671	-73.718823
29547		9.086351	-12.731658	-73.242922
29548		9.030596	-12.735791	-72.761604
29549		8.964642	-12.740739	-72.270366
29550		8.890941	-12.746959	-71.768884
29551		8.807398	-12.749433	-71.258808
29552		8.741247	-12.749208	-70.744000
29553		8.694474	-12.750512	-70.223271
29554		8.681540	-12.755547	-69.698343
29555		8.659538	-12.756182	-69.167528
29556		8.620438	-12.741310	-68.630712
29557		8.550041	-12.707316	-68.084418
29558		8.467930	-12.665899	-67.527006
29559		8.380353	-12.619663	-66.948359
29560		8.304019	-12.577682	-66.355013
29561		8.230095	-12.546028	-65.744220
29562		8.169618	-12.531104	-65.124167
29563		8.106721	-12.523659	-64.499175
29564		8.057565	-12.514210	-63.867718
29565		7.998732	-12.498326	-63.222169
29566		7.928979	-12.468079	-62.564327
29567		7.837638	-12.420288	-61.892981
29568		7.754407	-12.366790	-61.208193
29569		7.676529	-12.303846	-60.506439
29570		7.632579	-12.236415	-59.792992
29571		7.607736	-12.180229	-59.064006
29572		7.610166	-12.141503	-58.326510
29573		7.604834	-12.127647	-57.586609
29574		7.589541	-12.135414	-56.847081
29575		7.533492	-12.155666	-56.108954
29576		7.449410	-12.171402	-55.371789
29577		7.351282	-12.167678	-54.628404
29578		7.268868	-12.140039	-53.879211
29579		7.191600	-12.090814	-53.123790
29580		7.133693	-12.038660	-52.363627
29581		7.082692	-11.990345	-51.592511
29582		7.051194	-11.950078	-50.821267
29583		7.026583	-11.919526	-50.056423
29584		7.013749	-11.904339	-49.295917
29585		6.984957	-11.895047	-48.535211
29586		6.944397	-11.892608	-47.767359
29587		6.881041	-11.889320	-46.993231
29588		6.836726	-11.884531	-46.216282
29589		6.824797	-11.886816	-45.440079
29590		6.862885	-11.891697	-44.666824
29591		6.910966	-11.896520	-43.895116
29592		6.952549	-11.908769	-43.116786
29593		6.943921	-11.916733	-42.326839
29594		6.903012	-11.927891	-41.530860
29595		6.839539	-11.940755	-40.729347
29596		6.803553	-11.964675	-39.932623
29597		6.817929	-11.991761	-39.142553
29598		6.925324	-12.028422	-38.357224
29599		7.124938	-12.077005	-37.573077
29600		7.423488	-12.136481	-36.792542
29601		7.769893	-12.197941	-36.006341
29602		8.124801	-12.244133	-35.203049
29603		8.419242	-12.244576	-34.368021
29604		8.630129	-12.193075	-33.502617
29605		8.743386	-12.091560	-32.616781
29606		8.803828	-11.961089	-31.728048
29607		8.867296	-11.823507	-30.854049
29608		8.995530	-11.724233	-29.995524
29609		9.187563	-11.688562	-29.153259
29610		9.448959	-11.706970	-28.324720
29611		9.712468	-11.754492	-27.504243
29612		9.916541	-11.814636	-26.675909
29613		9.958771	-11.840415	-25.817847
29614		9.836021	-11.815373	-24.923989
29615		9.590487	-11.728289	-24.003092
29616		9.339477	-11.597745	-23.071964
29617		9.149896	-11.439102	-22.148598
29618		9.061544	-11.297724	-21.253731
29619		9.035122	-11.185280	-20.379910
29620		9.019945	-11.121223	-19.530750
29621		8.934564	-11.093137	-18.685674
29622		8.771289	-11.094949	-17.845289
29623		8.535586	-11.101517	-16.996752
29624		8.287247	-11.096953	-16.135989
29625		8.073989	-11.076160	-15.269154
29626		7.933542	-11.053816	-14.407011
29627		7.849807	-11.034746	-13.556778
29628		7.818780	-11.028286	-12.722005
29629		7.760430	-11.023691	-11.901670
29630		7.635703	-11.015762	-11.096650
29631		7.407740	-10.999588	-10.305886
29632		7.131345	-10.980921	-9.532819
29633		6.867799	-10.963060	-8.771863
29634		6.682245	-10.950435	-8.023097
29635		6.574963	-10.947050	-7.285471
29636		6.527620	-10.953068	-6.571850
29637		6.463512	-10.950046	-5.870478
29638		6.354232	-10.926723	-5.176776
29639		6.177238	-10.861190	-4.480009
29640		5.950944	-10.749349	-3.781598
29641		5.693374	-10.595983	-3.089252
29642		5.452390	-10.421891	-2.417898
29643		5.267636	-10.250889	-1.781098
29644		5.178678	-10.123271	-1.182483
29645		5.164160	-10.046566	-0.607138
29646		5.172644	-10.010000	-0.048621
29647		5.142588	-9.989639	0.501896
29648		5.033455	-9.970225	1.043445
29649		4.825180	-9.919006	1.582316
29650		4.546383	-9.825811	2.117758
29651		4.239981	-9.672756	2.656613
29652		3.997309	-9.485891	3.188407
29653		3.853657	-9.305178	3.704653
29654		3.830086	-9.158233	4.201257
29655		3.880382	-9.067375	4.670460
29656		3.950702	-9.033116	5.116042
29657		3.980417	-9.033648	5.542984
29658		3.954079	-9.051728	5.958590
29659		3.874943	-9.061282	6.374607
29660		3.776990	-9.047417	6.791684
29661		3.698345	-9.011946	7.204545
29662		3.671328	-8.968340	7.613439
29663		3.691486	-8.929114	8.015773
29664		3.737933	-8.898549	8.411845
29665		3.760502	-8.876896	8.797739
29666		3.739816	-8.871101	9.169932
29667		3.666136	-8.878237	9.526045
29668		3.554556	-8.888497	9.871928
29669		3.424690	-8.896092	10.205220
29670		3.287942	-8.891826	10.536293
29671		3.145352	-8.880940	10.869299
29672		3.013525	-8.878745	11.206857
29673		2.898136	-8.902922	11.548994
29674		2.801789	-8.963458	11.895620
29675		2.714514	-9.056344	12.240040
29676		2.629608	-9.172751	12.573872
29677		2.530621	-9.291430	12.894680
29678		2.397789	-9.396476	13.199232
29679		2.237027	-9.483666	13.494575
29680		2.102750	-9.551601	13.768956
29681		2.026668	-9.607445	14.030966
29682		2.004610	-9.654510	14.279787
29683		2.016207	-9.701911	14.515925
29684		2.042354	-9.755478	14.733672
29685		2.040847	-9.820952	14.935650
29686		1.999843	-9.895140	15.121245
29687		1.927143	-9.979105	15.286339
29688		1.830939	-10.059178	15.437938
29689		1.711405	-10.118100	15.586350
29690		1.586884	-10.149826	15.735411
29691		1.492279	-10.161204	15.872900
29692		1.429687	-10.154382	15.998255
29693		1.397629	-10.141470	16.102613
29694		1.387604	-10.120886	16.182896
29695		1.369026	-10.094299	16.241612
29696		1.330110	-10.062536	16.286162
29697		1.265291	-10.033628	16.325562
29698		1.186293	-10.009342	16.363066
29699		1.117846	-9.995614	16.402626
29700		1.070691	-9.992290	16.436450
29701		1.043444	-9.983966	16.470918
29702		1.028821	-9.968859	16.502741
29703		1.010751	-9.951172	16.530186
29704		0.983786	-9.938396	16.551601
29705		0.944796	-9.928871	16.568527
29706		0.901939	-9.929468	16.586948
29707		0.868910	-9.950737	16.613894
29708		0.855057	-9.993777	16.643185
29709		0.855192	-10.063801	16.672136
29710		0.864100	-10.143686	16.690328
29711		0.866345	-10.225318	16.696753
29712		0.859846	-10.304755	16.690396
29713		0.870286	-10.384967	16.681757
29714		0.907807	-10.450623	16.670157
29715		0.949023	-10.493150	16.655157
29716		0.965168	-10.507175	16.642954
29717		0.944363	-10.502162	16.632247
29718		0.891364	-10.478407	16.616648
29719		0.832361	-10.442393	16.597379
29720		0.789899	-10.402842	16.571850
29721		0.770558	-10.365798	16.539386
29722		0.764487	-10.335577	16.495712
29723		0.757744	-10.316528	16.443578
29724		0.744964	-10.307069	16.392458
29725		0.728281	-10.308638	16.343149
29726		0.708168	-10.309487	16.300799
29727		0.696993	-10.302926	16.264187
29728		0.699171	-10.291136	16.224597
29729		0.717265	-10.281205	16.175252
29730		0.745555	-10.283362	16.113442
29731		0.781413	-10.295222	16.040985
29732		0.815380	-10.314361	15.964656
29733		0.843488	-10.336709	15.882623
29734		0.858959	-10.352373	15.797409
29735		0.856087	-10.359770	15.711693
29736		0.840081	-10.366201	15.618692
29737		0.834580	-10.371348	15.521478
29738		0.863184	-10.368233	15.420222
29739		0.960859	-10.352161	15.302972
29740		1.158418	-10.304425	15.176379
29741		1.395019	-10.243358	15.045864
29742		1.618469	-10.181066	14.899955
29743		1.790371	-10.137189	14.745671
29744		1.883066	-10.114374	14.572216
29745		1.887067	-10.112851	14.377693
29746		1.833121	-10.115921	14.164782
29747		1.762385	-10.113786	13.937995
29748		1.696791	-10.095941	13.700854
29749		1.665152	-10.063327	13.450662
29750		1.674020	-10.022937	13.186120
29751		1.720468	-9.983301	12.906109
29752		1.774353	-9.945188	12.598582
29753		1.811792	-9.912526	12.265876
29754		1.812609	-9.876619	11.914097
29755		1.786254	-9.837809	11.542243
29756		1.743251	-9.796998	11.157033
29757		1.702883	-9.746557	10.757603
29758		1.656236	-9.685826	10.344841
29759		1.610404	-9.620151	9.920036
29760		1.557093	-9.551434	9.485657
29761		1.512899	-9.484251	9.041923
29762		1.478527	-9.420520	8.583743
29763		1.451415	-9.365475	8.107026
29764		1.419246	-9.314509	7.614885
29765		1.375803	-9.268771	7.107585
29766		1.309259	-9.227156	6.589318
29767		1.237153	-9.192095	6.066204
29768		1.171634	-9.164682	5.540366
29769		1.132677	-9.143932	5.008050
29770		1.133338	-9.129814	4.469532
29771		1.189742	-9.122009	3.919042
29772		1.272956	-9.121355	3.352154
29773		1.367934	-9.129727	2.769013
29774		1.457162	-9.145588	2.176725
29775		1.538223	-9.175407	1.582432
29776		1.599478	-9.217303	0.988381
29777		1.648791	-9.263621	0.395963
29778		1.665970	-9.291088	-0.195860
29779		1.666060	-9.284468	-0.796572
29780		1.663200	-9.242467	-1.398828
29781		1.675327	-9.187637	-2.003087
29782		1.704524	-9.130760	-2.617420
29783		1.753732	-9.092834	-3.246536
29784		1.799889	-9.072598	-3.888644
29785		1.845738	-9.068937	-4.547400
29786		1.860133	-9.067763	-5.220904
29787		1.839565	-9.051841	-5.903132
29788		1.759734	-9.004283	-6.583520
29789		1.651684	-8.917076	-7.258394
29790		1.517053	-8.808169	-7.917401
29791		1.377753	-8.691510	-8.564713
29792		1.261279	-8.588525	-9.208647
29793		1.224707	-8.520586	-9.861785
29794		1.278848	-8.483029	-10.532808
29795		1.413683	-8.468596	-11.226859
29796		1.560644	-8.455817	-11.939025
29797		1.674980	-8.436389	-12.663737
29798		1.724342	-8.400701	-13.389319
29799		1.731990	-8.347710	-14.111873
29800		1.716419	-8.277273	-14.828718
29801		1.711593	-8.200308	-15.538211
29802		1.711740	-8.124172	-16.240742
29803		1.756836	-8.068393	-16.941831
29804		1.845309	-8.038525	-17.651432
29805		1.968514	-8.038917	-18.377348
29806		2.084666	-8.051019	-19.121860
29807		2.163613	-8.077109	-19.881366
29808		2.174277	-8.093817	-20.651830
29809		2.125352	-8.090074	-21.423580
29810		2.029888	-8.058946	-22.187834
29811		1.926203	-8.010562	-22.946578
29812		1.817156	-7.958792	-23.692804
29813		1.733110	-7.914975	-24.429396
29814		1.664604	-7.890579	-25.160650
29815		1.626105	-7.882110	-25.890794
29816		1.587390	-7.873102	-26.618637
29817		1.548715	-7.867474	-27.346250
29818		1.501133	-7.859505	-28.071111
29819		1.464894	-7.857247	-28.798311
29820		1.439263	-7.851865	-29.519223
29821		1.453533	-7.838704	-30.236899
29822		1.484609	-7.820369	-30.940380
29823		1.551557	-7.804741	-31.635215
29824		1.644784	-7.801548	-32.326202
29825		1.755501	-7.831868	-33.018126
29826		1.867857	-7.893567	-33.715226
29827		1.981918	-7.981299	-34.417122
29828		2.088645	-8.073476	-35.121865
29829		2.188776	-8.163778	-35.833239
29830		2.267568	-8.228868	-36.547491
29831		2.318231	-8.272418	-37.267361
29832		2.334801	-8.291671	-37.990236
29833		2.344734	-8.290843	-38.713075
29834		2.368108	-8.280511	-39.428208
29835		2.429707	-8.282566	-40.134731
29836		2.512763	-8.312728	-40.841057
29837		2.628286	-8.384240	-41.552398
29838		2.742499	-8.486941	-42.269684
29839		2.837394	-8.599876	-42.989298
29840		2.898976	-8.700981	-43.703209
29841		2.935369	-8.787596	-44.408483
29842		2.947964	-8.852349	-45.102478
29843		2.961671	-8.894875	-45.794135
29844		2.962723	-8.921744	-46.480212
29845		2.962352	-8.946223	-47.153020
29846		2.971689	-8.968966	-47.813724
29847		3.003794	-9.012982	-48.470245
29848		3.056434	-9.084691	-49.130567
29849		3.126786	-9.185355	-49.799720
29850		3.178146	-9.301989	-50.476226
29851		3.190890	-9.423070	-51.159228
29852		3.145439	-9.532707	-51.849935
29853		3.053977	-9.615772	-52.536232
29854		2.936757	-9.664628	-53.212923
29855		2.828471	-9.689018	-53.877232
29856		2.728171	-9.696747	-54.526435
29857		2.644716	-9.706878	-55.167546
29858		2.554068	-9.726443	-55.803885
29859		2.461661	-9.763665	-56.438743
29860		2.347136	-9.806072	-57.066167
29861		2.191714	-9.836726	-57.686124
29862		1.962343	-9.824706	-58.280754
29863		1.635264	-9.758122	-58.846635
29864		1.252648	-9.643743	-59.394048
29865		0.894469	-9.516683	-59.939501
29866		0.625805	-9.415491	-60.504975
29867		0.504100	-9.372548	-61.106322
29868		0.508227	-9.382117	-61.727134
29869		0.563592	-9.425513	-62.361115
29870		0.591911	-9.473989	-62.996466
29871		0.563647	-9.505520	-63.618840
29872		0.462347	-9.495274	-64.220137
29873		0.331220	-9.437943	-64.798271
29874		0.202791	-9.343154	-65.355934
29875		0.098236	-9.237244	-65.896725
29876		0.029476	-9.150933	-66.420146
29877		0.025726	-9.117803	-66.932584
29878		0.091267	-9.130469	-67.441577
29879		0.197209	-9.181339	-67.948000
29880		0.295200	-9.244205	-68.449362
29881		0.358196	-9.297964	-68.939451
29882		0.383092	-9.323752	-69.413467
29883		0.398916	-9.326725	-69.870727
29884		0.422599	-9.313709	-70.307111
29885		0.460211	-9.302475	-70.723508
29886		0.535233	-9.294368	-71.128681
29887		0.647711	-9.299349	-71.516479
29888		0.794541	-9.316532	-71.884377
29889		0.937947	-9.347160	-72.234620
29890		1.049605	-9.380623	-72.558478
29891		1.116644	-9.407350	-72.851709
29892		1.147642	-9.413469	-73.116499
29893		1.162478	-9.396942	-73.354973
29894		1.200768	-9.364898	-73.574811
29895		1.270172	-9.333791	-73.775492
29896		1.364929	-9.313294	-73.963725
29897		1.472835	-9.307309	-74.138932
29898		1.568715	-9.313382	-74.302620
29899		1.637451	-9.323115	-74.449242
29900		1.686894	-9.324652	-74.582239
29901		1.723672	-9.308361	-74.695088
29902		1.754107	-9.265775	-74.798470
29903		1.759324	-9.215713	-74.887111
29904		1.721960	-9.170193	-74.960568
29905		1.668779	-9.135747	-75.022495
29906		1.636187	-9.111940	-75.069266
29907		1.651356	-9.088203	-75.099008
29908		1.719904	-9.060466	-75.114508
29909		1.809108	-9.041090	-75.118993
29910		1.901216	-9.038412	-75.115776
29911		1.981377	-9.054742	-75.110730
29912		2.051620	-9.082943	-75.101151
29913		2.121258	-9.107121	-75.089737
29914		2.193118	-9.116766	-75.075812
29915		2.269669	-9.111884	-75.060090
29916		2.354486	-9.096102	-75.044645
29917		2.427132	-9.082652	-75.025134
29918		2.489925	-9.071660	-75.006513
29919		2.533816	-9.069647	-74.988591
29920		2.568710	-9.075765	-74.968985
29921		2.594498	-9.089382	-74.947928
29922		2.627613	-9.110001	-74.925926
29923		2.651993	-9.133906	-74.904021
29924		2.669823	-9.158036	-74.875532
29925		2.665719	-9.153407	-74.841048
29926		2.633925	-9.118498	-74.792052
29927		2.576752	-9.049858	-74.730524
29928		2.515510	-8.957837	-74.664355
29929		2.462650	-8.862613	-74.596904
29930		2.437523	-8.782046	-74.533051
29931		2.433884	-8.731717	-74.471460
29932		2.446844	-8.712611	-74.418784
29933		2.464953	-8.706924	-74.367698
29934		2.481836	-8.694903	-74.309355
29935		2.485354	-8.666013	-74.240048
29936		2.477168	-8.620127	-74.154721
29937		2.450708	-8.563537	-74.049493
29938		2.414496	-8.496556	-73.922225
29939		2.364660	-8.423565	-73.774437
29940		2.310698	-8.340838	-73.605601
29941		2.265453	-8.257894	-73.417620
29942		2.240144	-8.185487	-73.208619
29943		2.230258	-8.134659	-72.973790
29944		2.229783	-8.108160	-72.712184
29945		2.215304	-8.102770	-72.424488
29946		2.198812	-8.104086	-72.117964
29947		2.180727	-8.101767	-71.791520
29948		2.189219	-8.096448	-71.450265
29949		2.223177	-8.080796	-71.088546
29950		2.278681	-8.056194	-70.698261
29951		2.327370	-8.018656	-70.277564
29952		2.362301	-7.980056	-69.829178
29953		2.366938	-7.944270	-69.353146
29954		2.350007	-7.913938	-68.863946
29955		2.300438	-7.891650	-68.363354
29956		2.246658	-7.867739	-67.848371
29957		2.176592	-7.836585	-67.315549
29958		2.114506	-7.804159	-66.767089
29959		2.053958	-7.768829	-66.205371
29960		2.022913	-7.735415	-65.636730
29961		2.010180	-7.702176	-65.061132
29962		2.015516	-7.669349	-64.468624
29963		2.019397	-7.628941	-63.856417
29964		2.019747	-7.576900	-63.223490
29965		2.016923	-7.525972	-62.570121
29966		2.021841	-7.485725	-61.908922
29967		2.038423	-7.458581	-61.239841
29968		2.060896	-7.446861	-60.572791
29969		2.057440	-7.441704	-59.902054
29970		2.028092	-7.432472	-59.221726
29971		1.955637	-7.403620	-58.524510
29972		1.879356	-7.367828	-57.809129
29973		1.816305	-7.336128	-57.080600
29974		1.794968	-7.326118	-56.340816
29975		1.809782	-7.340715	-55.596845
29976		1.867154	-7.387511	-54.846843
29977		1.935459	-7.445937	-54.087785
29978		2.028272	-7.505332	-53.322311
29979		2.124066	-7.553841	-52.555759
29980		2.230310	-7.591475	-51.786100
29981		2.331395	-7.619983	-51.007418
29982		2.424750	-7.645886	-50.212933
29983		2.487501	-7.668713	-49.402039
29984		2.536307	-7.689549	-48.574182
29985		2.551631	-7.705227	-47.736693
29986		2.560162	-7.725008	-46.900431
29987		2.562473	-7.750904	-46.065872
29988		2.594441	-7.778016	-45.225861
29989		2.647528	-7.803159	-44.383208
29990		2.717214	-7.831229	-43.535524
29991		2.771556	-7.865906	-42.681587
29992		2.819603	-7.916530	-41.820899
29993		2.845941	-7.983143	-40.955010
29994		2.884516	-8.064819	-40.088300
29995		2.929153	-8.145309	-39.214530
29996		2.995311	-8.221626	-38.340683
29997		3.057399	-8.293009	-37.464581
29998		3.115809	-8.362270	-36.591331
29999		3.157391	-8.431701	-35.722533
30000		3.218092	-8.511504	-34.860110
30001		3.289428	-8.599335	-34.001949
30002		3.392470	-8.703452	-33.150374
30003		3.512154	-8.821953	-32.301072
30004		3.648651	-8.948038	-31.457901
30005		3.777685	-9.069732	-30.617508
30006		3.905129	-9.180758	-29.778334
30007		4.013913	-9.269624	-28.942911
30008		4.122767	-9.348450	-28.109080
30009		4.216211	-9.423459	-27.274530
30010		4.312551	-9.510032	-26.447527
30011		4.391812	-9.614509	-25.622168
30012		4.459830	-9.730635	-24.796087
30013		4.505785	-9.841087	-23.966293
30014		4.552680	-9.939445	-23.132779
30015		4.587158	-10.007133	-22.290166
30016		4.610546	-10.049583	-21.436547
30017		4.623230	-10.064942	-20.584855
30018		4.628246	-10.074443	-19.744356
30019		4.611403	-10.095808	-18.914779
30020		4.605473	-10.137927	-18.095999
30021		4.582654	-10.195051	-17.288860
30022		4.542168	-10.264955	-16.491960
30023		4.484202	-10.337371	-15.705372
30024		4.424484	-10.407293	-14.920188
30025		4.346227	-10.463694	-14.126520
30026		4.253190	-10.502560	-13.325766
30027		4.119809	-10.521860	-12.522419
30028		3.918936	-10.540151	-11.721887
30029		3.606979	-10.575006	-10.932242
30030		3.178646	-10.626030	-10.160964
30031		2.655967	-10.676778	-9.400483
30032		2.111984	-10.706797	-8.656460
30033		1.639858	-10.694745	-7.928552
30034		1.293339	-10.649422	-7.218822
30035		1.056273	-10.585040	-6.523654
30036		0.907575	-10.515143	-5.847027
30037		0.775890	-10.441850	-5.186424
30038		0.626110	-10.377079	-4.535927
30039		0.439698	-10.309656	-3.897751
30040		0.246334	-10.241384	-3.279344
30041		0.073069	-10.179592	-2.680118
30042		-0.051122	-10.127122	-2.097158
30043		-0.115290	-10.080639	-1.521786
30044		-0.145246	-10.055418	-0.960511
30045		-0.196495	-10.054624	-0.402879
30046		-0.309955	-10.057633	0.146416
30047		-0.487948	-10.040697	0.692896
30048		-0.697046	-9.989175	1.243198
30049		-0.918402	-9.899591	1.793768
30050		-1.120860	-9.787537	2.343348
30051		-1.310541	-9.685912	2.884727
30052		-1.493617	-9.621645	3.428150
30053		-1.699379	-9.593665	3.976502
30054		-1.930152	-9.588806	4.529719
30055		-2.194286	-9.588589	5.083039
30056		-2.466252	-9.580096	5.627432
30057		-2.719911	-9.558303	6.159587
30058		-2.898803	-9.527215	6.674495
30059		-3.001759	-9.501107	7.168654
30060		-3.049352	-9.488090	7.643845
30061		-3.081433	-9.482289	8.110165
30062		-3.124859	-9.480582	8.569505
30063		-3.205383	-9.474200	9.023304
30064		-3.320102	-9.464433	9.462637
30065		-3.465329	-9.433125	9.885230
30066		-3.628896	-9.365806	10.286187
30067		-3.792006	-9.251190	10.665369
30068		-3.914075	-9.102342	11.022548
30069		-3.983730	-8.948157	11.356246
30070		-3.998495	-8.824193	11.691686
30071		-3.979298	-8.745326	12.036165
30072		-3.975223	-8.701202	12.392497
30073		-4.021018	-8.682062	12.754583
30074		-4.112323	-8.676119	13.121356
30075		-4.218242	-8.669448	13.482924
30076		-4.290363	-8.657537	13.837488
30077		-4.321603	-8.647919	14.166786
30078		-4.327025	-8.644379	14.476650
30079		-4.337143	-8.648591	14.770483
30080		-4.369033	-8.644998	15.052851
30081		-4.424354	-8.631626	15.322450
30082		-4.485909	-8.617188	15.576369
30083		-4.529058	-8.606204	15.814786
30084		-4.532336	-8.601473	16.039349
30085		-4.492140	-8.597519	16.245939
30086		-4.436999	-8.587510	16.434061
30087		-4.413892	-8.562107	16.600136
30088		-4.443508	-8.519854	16.737169
30089		-4.518087	-8.469777	16.845799
30090		-4.609973	-8.420418	16.929854
30091		-4.685901	-8.376942	16.994464
30092		-4.729218	-8.338499	17.045676
30093		-4.734273	-8.302684	17.080339
30094		-4.709835	-8.268958	17.101754
30095		-4.676229	-8.235694	17.104294
30096		-4.644591	-8.203244	17.091334
30097		-4.625132	-8.164055	17.069694
30098		-4.624990	-8.114760	17.043553
30099		-4.643028	-8.063103	17.014287
30100		-4.674148	-8.021327	16.979826
30101		-4.706247	-7.996315	16.936481
30102		-4.737479	-8.000839	16.880702
30103		-4.760597	-8.024772	16.816201
30104		-4.774614	-8.057053	16.748802
30105		-4.782512	-8.088493	16.688687
30106		-4.780160	-8.106885	16.637269
30107		-4.774064	-8.116034	16.600480
30108		-4.770850	-8.122512	16.568977
30109		-4.778862	-8.134626	16.538795
30110		-4.804546	-8.150852	16.505193
30111		-4.823359	-8.160075	16.462089
30112		-4.827615	-8.156376	16.409749
30113		-4.820316	-8.137898	16.344381
30114		-4.806203	-8.112597	16.274048
30115		-4.786563	-8.086007	16.196246
30116		-4.771230	-8.069758	16.121619
30117		-4.735811	-8.059087	16.043721
30118		-4.685444	-8.059832	15.971350
30119		-4.625768	-8.069985	15.901968
30120		-4.566426	-8.084617	15.837278
30121		-4.501644	-8.105388	15.771654
30122		-4.427409	-8.122632	15.704522
30123		-4.332315	-8.132734	15.628543
30124		-4.212371	-8.135172	15.540738
30125		-4.075453	-8.139900	15.436166
30126		-3.951377	-8.135064	15.319091
30127		-3.848851	-8.126627	15.189329
30128		-3.768516	-8.122400	15.049875
30129		-3.687980	-8.123799	14.895140
30130		-3.596919	-8.128060	14.715263
30131		-3.485671	-8.124969	14.505500
30132		-3.376457	-8.107933	14.264562
30133		-3.274479	-8.071570	13.986904
30134		-3.193140	-8.020367	13.683819
30135		-3.107747	-7.968072	13.357914
30136		-3.005230	-7.926006	13.012286
30137		-2.870689	-7.904033	12.637071
30138		-2.731336	-7.904461	12.228410
30139		-2.595654	-7.911630	11.777043
30140		-2.487674	-7.914132	11.287144
30141		-2.401416	-7.906810	10.763809
30142		-2.325061	-7.882840	10.212716
30143		-2.239393	-7.850980	9.636218
30144		-2.158898	-7.814109	9.038754
30145		-2.077137	-7.781122	8.429168
30146		-1.999963	-7.742573	7.814798
30147		-1.912945	-7.704152	7.200280
30148		-1.815462	-7.672135	6.579805
30149		-1.707009	-7.658456	5.953219
30150		-1.595118	-7.667177	5.317362
30151		-1.473997	-7.696116	4.673390
30152		-1.367383	-7.736781	4.020822
30153		-1.280929	-7.785873	3.354181
30154		-1.218430	-7.830936	2.674217
30155		-1.144275	-7.874648	1.984526
30156		-1.051513	-7.913332	1.287302
30157		-0.936417	-7.949096	0.591326
30158		-0.812190	-7.983498	-0.101334
30159		-0.677721	-8.029715	-0.796212
30160		-0.547246	-8.087256	-1.498505
30161		-0.410278	-8.159677	-2.211737
30162		-0.282268	-8.235225	-2.936892
30163		-0.157137	-8.319853	-3.669668
30164		-0.046850	-8.403128	-4.405883
30165		0.056954	-8.480619	-5.143191
30166		0.142949	-8.550560	-5.878013
30167		0.230012	-8.611657	-6.608759
30168		0.316460	-8.662194	-7.334883
30169		0.417225	-8.709080	-8.061421
30170		0.523421	-8.752768	-8.793434
30171		0.649064	-8.797418	-9.535892
30172		0.780807	-8.850010	-10.291811
30173		0.922039	-8.914755	-11.068151
30174		1.040747	-8.982097	-11.856975
30175		1.149166	-9.052799	-12.657865
30176		1.239442	-9.118001	-13.461361
30177		1.322767	-9.181908	-14.267418
30178		1.384993	-9.241764	-15.066979
30179		1.444306	-9.304096	-15.860395
30180		1.491493	-9.366448	-16.646265
30181		1.551850	-9.416250	-17.440345
30182		1.617662	-9.442438	-18.241951
30183		1.691795	-9.455087	-19.054093
30184		1.748713	-9.459410	-19.876735
30185		1.798610	-9.468238	-20.703345
30186		1.832360	-9.485296	-21.530823
30187		1.867810	-9.519499	-22.352281
30188		1.921283	-9.567279	-23.167019
30189		2.012411	-9.625116	-23.973306
30190		2.115841	-9.679334	-24.771752
30191		2.227858	-9.724499	-25.563301
30192		2.300435	-9.758894	-26.346657
30193		2.328532	-9.781944	-27.119482
30194		2.303832	-9.790155	-27.892524
30195		2.261972	-9.787961	-28.667102
30196		2.207080	-9.783865	-29.450801
30197		2.191369	-9.787896	-30.244321
30198		2.223740	-9.801518	-31.041914
30199		2.327580	-9.817722	-31.847095
30200		2.466419	-9.830312	-32.655201
30201		2.611538	-9.836757	-33.469342
30202		2.708775	-9.833837	-34.276031
30203		2.756778	-9.823440	-35.075211
30204		2.749912	-9.798807	-35.859539
30205		2.720320	-9.777411	-36.626827
30206		2.693171	-9.744864	-37.375089
30207		2.678231	-9.725113	-38.111267
30208		2.682613	-9.725962	-38.846982
30209		2.711330	-9.755147	-39.596052
30210		2.744646	-9.802326	-40.356863
30211		2.775920	-9.852586	-41.123104
30212		2.777413	-9.885712	-41.882065
30213		2.747385	-9.902760	-42.628529
30214		2.675014	-9.900427	-43.361298
30215		2.580299	-9.885796	-44.082301
30216		2.473344	-9.863631	-44.787757
30217		2.375406	-9.837319	-45.488161
30218		2.289428	-9.809088	-46.180216
30219		2.223582	-9.791237	-46.872454
30220		2.167076	-9.783456	-47.564154
30221		2.125667	-9.796174	-48.256555
30222		2.078831	-9.819549	-48.956085
30223		2.018828	-9.855012	-49.665145
30224		1.935572	-9.884524	-50.378111
30225		1.827349	-9.894761	-51.083729
30226		1.690473	-9.872453	-51.775825
30227		1.554190	-9.821467	-52.452673
30228		1.433735	-9.755015	-53.117797
30229		1.344992	-9.674469	-53.782218
30230		1.287619	-9.599065	-54.448550
30231		1.264604	-9.542407	-55.122085
30232		1.250448	-9.506927	-55.801979
30233		1.237693	-9.495186	-56.480566
30234		1.210649	-9.496976	-57.149964
30235		1.178738	-9.500587	-57.805814
30236		1.154956	-9.503103	-58.453872
30237		1.162561	-9.505218	-59.094452
30238		1.200342	-9.507725	-59.723538
30239		1.262224	-9.507799	-60.337178
30240		1.320173	-9.489301	-60.939129
30241		1.349863	-9.448038	-61.523782
30242		1.344521	-9.377660	-62.091383
30243		1.333093	-9.299952	-62.652119
30244		1.340911	-9.223685	-63.205212
30245		1.386380	-9.167104	-63.757899
30246		1.457182	-9.140258	-64.308639
30247		1.542182	-9.138027	-64.856751
30248		1.612102	-9.151743	-65.399739
30249		1.661304	-9.166914	-65.936992
30250		1.692004	-9.168484	-66.464831
30251		1.732087	-9.155084	-66.984867
30252		1.798014	-9.141052	-67.496092
30253		1.894370	-9.137546	-68.005311
30254		2.001615	-9.145427	-68.508823
30255		2.100634	-9.166116	-69.005933
30256		2.171595	-9.180110	-69.495222
30257		2.204095	-9.174448	-69.968939
30258		2.183131	-9.135918	-70.425343
30259		2.141690	-9.066872	-70.856568
30260		2.093914	-8.970423	-71.276552
30261		2.050415	-8.868061	-71.681266
30262		2.018907	-8.760474	-72.065991
30263		1.987441	-8.666830	-72.431061
30264		1.924079	-8.597616	-72.771016
30265		1.845426	-8.564124	-73.091365
30266		1.769954	-8.565004	-73.389995
30267		1.719650	-8.593182	-73.660154
30268		1.696416	-8.632762	-73.898963
30269		1.687764	-8.673958	-74.098584
30270		1.692819	-8.694275	-74.257975
30271		1.716925	-8.688405	-74.373433
30272		1.768988	-8.668734	-74.463759
30273		1.834567	-8.668679	-74.542135
30274		1.910331	-8.701135	-74.620480
30275		1.983188	-8.761790	-74.695378
30276		2.047230	-8.833594	-74.761402
30277		2.095884	-8.897450	-74.809195
30278		2.128131	-8.930263	-74.840222
30279		2.145856	-8.938307	-74.855855
30280		2.170827	-8.931613	-74.863949
30281		2.207884	-8.924657	-74.873671
30282		2.260570	-8.926967	-74.882520
30283		2.316217	-8.942924	-74.888581
30284		2.368421	-8.964273	-74.895984
30285		2.421810	-8.984118	-74.903365
30286		2.484617	-8.996016	-74.910867
30287		2.566530	-8.994625	-74.914391
30288		2.650163	-8.981650	-74.907524
30289		2.714834	-8.958210	-74.892010
30290		2.747227	-8.927383	-74.866872
30291		2.736168	-8.895306	-74.827494
30292		2.691334	-8.864611	-74.787311
30293		2.622680	-8.839565	-74.744502
30294		2.561837	-8.829613	-74.696435
30295		2.536746	-8.830309	-74.633910
30296		2.560782	-8.841151	-74.552550
30297		2.621235	-8.860551	-74.447958
30298		2.703356	-8.885388	-74.327583
30299		2.775682	-8.915367	-74.185288
30300		2.820474	-8.946041	-74.026392
30301		2.848751	-8.958484	-73.845725
30302		2.863321	-8.955984	-73.648972
30303		2.841175	-8.943464	-73.441727
30304		2.794455	-8.928367	-73.228932
30305		2.735014	-8.921218	-73.009935
30306		2.691302	-8.923830	-72.785999
30307		2.667324	-8.936124	-72.552011
30308		2.671271	-8.949419	-72.307099
30309		2.690235	-8.960427	-72.049207
30310		2.709461	-8.973230	-71.778806
30311		2.736951	-8.979341	-71.499446
30312		2.783509	-8.982931	-71.208130
30313		2.811593	-8.989018	-70.903538
30314		2.808128	-8.994042	-70.587799
30315		2.749128	-8.997213	-70.253952
30316		2.668094	-8.992116	-69.910604
30317		2.594127	-8.979863	-69.553106
30318		2.566157	-8.968654	-69.188707
30319		2.565586	-8.961705	-68.816276
30320		2.566365	-8.959236	-68.434268
30321		2.538361	-8.955107	-68.034329
30322		2.491645	-8.951540	-67.613138
30323		2.434579	-8.944967	-67.171251
30324		2.395718	-8.929028	-66.713066
30325		2.361676	-8.909813	-66.245180
30326		2.333955	-8.886854	-65.765019
30327		2.306991	-8.853972	-65.274972
30328		2.306617	-8.815337	-64.781345
30329		2.325521	-8.772231	-64.284783
30330		2.378296	-8.726316	-63.783107
30331		2.431841	-8.673585	-63.279333
30332		2.483986	-8.612291	-62.765797
30333		2.512648	-8.534228	-62.234178
30334		2.537576	-8.448445	-61.672688
30335		2.540393	-8.362914	-61.065680
30336		2.525994	-8.288059	-60.416673
30337		2.468811	-8.222858	-59.726522
30338		2.389599	-8.176913	-59.009812
30339		2.292593	-8.153173	-58.281083
30340		2.209200	-8.156400	-57.545988
30341		2.144077	-8.173894	-56.808769
30342		2.111774	-8.202781	-56.075385
30343		2.092446	-8.239229	-55.337254
30344		2.087124	-8.283285	-54.589105
30345		2.071117	-8.318610	-53.825622
30346		2.048516	-8.352770	-53.050590
30347		2.011359	-8.383864	-52.266960
30348		2.003825	-8.425244	-51.479295
30349		2.046627	-8.483535	-50.681578
30350		2.159891	-8.564347	-49.874890
30351		2.314351	-8.655135	-49.058127
30352		2.478404	-8.754148	-48.229936
30353		2.603780	-8.849260	-47.386363
30354		2.675716	-8.933628	-46.530311
30355		2.671952	-8.997601	-45.657422
30356		2.614857	-9.041472	-44.776237
30357		2.514678	-9.067660	-43.889380
30358		2.443170	-9.091151	-43.004471
30359		2.431701	-9.116749	-42.123440
30360		2.519161	-9.156809	-41.250140
30361		2.672397	-9.219944	-40.381108
30362		2.863252	-9.309523	-39.517112
30363		3.027005	-9.409149	-38.648297
30364		3.163661	-9.500224	-37.769147
30365		3.213424	-9.559124	-36.870322
30366		3.175746	-9.570375	-35.964118
30367		3.056764	-9.543461	-35.051353
30368		2.940892	-9.494439	-34.137747
30369		2.870005	-9.446410	-33.223545
30370		2.894189	-9.433663	-32.315074
30371		2.981565	-9.464472	-31.410063
30372		3.076140	-9.531057	-30.514800
30373		3.118851	-9.605254	-29.622177
30374		3.105981	-9.656521	-28.725851
30375		3.007748	-9.664992	-27.821459
30376		2.907091	-9.638171	-26.918866
30377		2.843249	-9.599648	-26.011466
30378		2.878079	-9.572782	-25.108384
30379		3.025355	-9.581908	-24.210902
30380		3.259376	-9.646151	-23.322017
30381		3.477272	-9.744812	-22.434425
30382		3.630418	-9.864844	-21.549220
30383		3.690406	-9.980205	-20.658902
30384		3.693026	-10.090963	-19.764960
30385		3.682456	-10.188877	-18.861388
30386		3.700892	-10.252070	-17.956839
30387		3.708101	-10.293538	-17.065954
30388		3.697215	-10.323077	-16.191035
30389		3.639083	-10.348626	-15.332262
30390		3.561812	-10.378119	-14.491834
30391		3.483754	-10.417974	-13.665479
30392		3.434514	-10.467098	-12.852368
30393		3.394861	-10.517218	-12.049738
30394		3.352938	-10.563359	-11.254785
30395		3.283358	-10.597192	-10.455700
30396		3.187589	-10.625994	-9.662458
30397		3.072793	-10.653999	-8.876500
30398		2.957317	-10.682042	-8.108683
30399		2.848320	-10.698768	-7.354039
30400		2.756684	-10.696689	-6.609516
30401		2.677798	-10.676619	-5.876516
30402		2.625519	-10.658443	-5.164298
30403		2.585385	-10.645979	-4.465952
30404		2.545416	-10.646470	-3.778697
30405		2.472508	-10.654295	-3.089538
30406		2.346624	-10.663661	-2.395182
30407		2.170534	-10.651985	-1.697028
30408		1.989698	-10.613244	-1.003333
30409		1.831880	-10.547690	-0.318214
30410		1.728546	-10.471774	0.352535
30411		1.674332	-10.407795	1.009600
30412		1.649172	-10.379283	1.650027
30413		1.607242	-10.376147	2.280903
30414		1.532385	-10.383908	2.900210
30415		1.408842	-10.375634	3.519573
30416		1.258691	-10.334287	4.143383
30417		1.116862	-10.269431	4.769373
30418		1.007994	-10.200496	5.390287
30419		0.920904	-10.138719	5.997348
30420		0.861223	-10.095956	6.584396
30421		0.812133	-10.072542	7.148140
30422		0.763766	-10.061750	7.688113
30423		0.700185	-10.040791	8.211795
30424		0.608950	-10.012435	8.726054
30425		0.487760	-9.973204	9.232609
30426		0.351708	-9.928715	9.736533
30427		0.228189	-9.877519	10.245152
30428		0.153169	-9.821832	10.748313
30429		0.130492	-9.767228	11.247644
30430		0.158653	-9.719335	11.734409
30431		0.210722	-9.707016	12.209246
30432		0.264900	-9.736860	12.664600
30433		0.278601	-9.784611	13.095629
30434		0.255663	-9.826655	13.504900
30435		0.198214	-9.833690	13.899857
30436		0.112238	-9.800494	14.292544
30437		0.022466	-9.732052	14.688759
30438		-0.057648	-9.650602	15.080502
30439		-0.138102	-9.569600	15.459473
30440		-0.218110	-9.499860	15.825400
30441		-0.302278	-9.453633	16.176441
30442		-0.396705	-9.422497	16.512105
30443		-0.498046	-9.398019	16.834252
30444		-0.593153	-9.365853	17.140786
30445		-0.674782	-9.324332	17.430688
30446		-0.742647	-9.280338	17.695942
30447		-0.808637	-9.243647	17.937022
30448		-0.870364	-9.217295	18.151326
30449		-0.927505	-9.195130	18.345064
30450		-0.998964	-9.166439	18.522646
30451		-1.079284	-9.128622	18.684365
30452		-1.153109	-9.087902	18.823639
30453		-1.221536	-9.063865	18.938169
30454		-1.270340	-9.053336	19.029058
30455		-1.318007	-9.047067	19.101138
30456		-1.383564	-9.034090	19.158267
30457		-1.466147	-9.007130	19.202619
30458		-1.549878	-8.973478	19.233095
30459		-1.622103	-8.937412	19.259495
30460		-1.686408	-8.908329	19.285211
30461		-1.738703	-8.891050	19.318524
30462		-1.770713	-8.893256	19.360036
30463		-1.756047	-8.912831	19.401935
30464		-1.703779	-8.944275	19.436628
30465		-1.647607	-8.980719	19.454480
30466		-1.636535	-9.014669	19.460096
30467		-1.685598	-9.043937	19.461289
30468		-1.764732	-9.057728	19.467396
30469		-1.831886	-9.064008	19.479295
30470		-1.837426	-9.076351	19.489379
30471		-1.777593	-9.104192	19.482372
30472		-1.698721	-9.134035	19.454243
30473		-1.656817	-9.155221	19.410864
30474		-1.681658	-9.156670	19.363349
30475		-1.762614	-9.138576	19.315743
30476		-1.873138	-9.104740	19.276087
30477		-1.971115	-9.069039	19.241198
30478		-2.028923	-9.041606	19.214290
30479		-2.016729	-9.029261	19.187299
30480		-1.954268	-9.033904	19.149012
30481		-1.882634	-9.048131	19.096563
30482		-1.842059	-9.060166	19.036958
30483		-1.838855	-9.059127	18.986350
30484		-1.868166	-9.042473	18.952401
30485		-1.887623	-9.020089	18.928548
30486		-1.868345	-8.998814	18.902623
30487		-1.814593	-8.981479	18.859648
30488		-1.744113	-8.964625	18.800473
30489		-1.677387	-8.940845	18.729800
30490		-1.630383	-8.901107	18.655486
30491		-1.586002	-8.840494	18.577397
30492		-1.536533	-8.768992	18.487011
30493		-1.479091	-8.690445	18.379118
30494		-1.421841	-8.623224	18.254763
30495		-1.351733	-8.580156	18.116375
30496		-1.263112	-8.560522	17.959474
30497		-1.176216	-8.547098	17.783555
30498		-1.112545	-8.523560	17.587074
30499		-1.075768	-8.486285	17.373146
30500		-1.051501	-8.431515	17.139561
30501		-1.012664	-8.365106	16.890801
30502		-0.950869	-8.304774	16.620265
30503		-0.857331	-8.261413	16.325504
30504		-0.741106	-8.244752	16.005942
30505		-0.614008	-8.251679	15.657295
30506		-0.513597	-8.271691	15.275114
30507		-0.456780	-8.300136	14.857425
30508		-0.445516	-8.330566	14.419826
30509		-0.447443	-8.347193	13.971329
30510		-0.440804	-8.347090	13.522310
30511		-0.392363	-8.344483	13.078662
30512		-0.285889	-8.349295	12.634949
30513		-0.124507	-8.371560	12.181164
30514		0.067222	-8.412269	11.708058
30515		0.266618	-8.475161	11.201815
30516		0.431957	-8.557090	10.669288
30517		0.560620	-8.655218	10.099663
30518		0.645691	-8.746818	9.500831
30519		0.703115	-8.827935	8.895127
30520		0.759965	-8.875978	8.286883
30521		0.832171	-8.897801	7.677189
30522		0.913375	-8.890157	7.066115
30523		0.996604	-8.865137	6.454129
30524		1.083532	-8.820482	5.841511
30525		1.179080	-8.770210	5.216698
30526		1.244003	-8.716867	4.580416
30527		1.295752	-8.679417	3.932500
30528		1.311692	-8.658179	3.276056
30529		1.295473	-8.651007	2.608306
30530		1.269948	-8.652538	1.927971
30531		1.258309	-8.659474	1.227880
30532		1.249123	-8.671321	0.518840
30533		1.264675	-8.688397	-0.198356
30534		1.292966	-8.715159	-0.916976
30535		1.339821	-8.749051	-1.643791
30536		1.382971	-8.776324	-2.381875
30537		1.422129	-8.798375	-3.142562
30538		1.438155	-8.807162	-3.925658
30539		1.436244	-8.808008	-4.726659
30540		1.417928	-8.797609	-5.536887
30541		1.399962	-8.793740	-6.345205
30542		1.386595	-8.792103	-7.145697
30543		1.390826	-8.800388	-7.940280
30544		1.403389	-8.811702	-8.744658
30545		1.430375	-8.824533	-9.561201
30546		1.446777	-8.827075	-10.389053
30547		1.454997	-8.823378	-11.228642
30548		1.431176	-8.807230	-12.082383
30549		1.406716	-8.790454	-12.949270
30550		1.382095	-8.776953	-13.818033
30551		1.351235	-8.771221	-14.694855
30552		1.317988	-8.763959	-15.577133
30553		1.310505	-8.749533	-16.461621
30554		1.308940	-8.723349	-17.347616
30555		1.347382	-8.703628	-18.233982
30556		1.400381	-8.697621	-19.121428
30557		1.468535	-8.726977	-20.015194
30558		1.533824	-8.764778	-20.924571
30559		1.593269	-8.808233	-21.855580
30560		1.629184	-8.840063	-22.801543
30561		1.653823	-8.850723	-23.759054
30562		1.647604	-8.833305	-24.712245
30563		1.625898	-8.792846	-25.653472
30564		1.595689	-8.738161	-26.583852
30565		1.603443	-8.677474	-27.503334
30566		1.642347	-8.622003	-28.410332
30567		1.706853	-8.564283	-29.314739
30568		1.760043	-8.499091	-30.220863
30569		1.798932	-8.434871	-31.134783
30570		1.818033	-8.369930	-32.053255
30571		1.857084	-8.305168	-32.966386
30572		1.911027	-8.252135	-33.874890
30573		1.989651	-8.212595	-34.779444
30574		2.081772	-8.189112	-35.673575
30575		2.193648	-8.182305	-36.562917
30576		2.307434	-8.182454	-37.447218
30577		2.429158	-8.185079	-38.330856
30578		2.537871	-8.172507	-39.215133
30579		2.634003	-8.148698	-40.100133
30580		2.718136	-8.115493	-40.985631
30581		2.823642	-8.088572	-41.868057
30582		2.950084	-8.080446	-42.743037
30583		3.109180	-8.098228	-43.610930
30584		3.262933	-8.128212	-44.466725
30585		3.411800	-8.166356	-45.307519
30586		3.525446	-8.201046	-46.137441
30587		3.619966	-8.228058	-46.955743
30588		3.695743	-8.252205	-47.770028
30589		3.770682	-8.267941	-48.580912
30590		3.838154	-8.276388	-49.389319
30591		3.916565	-8.287852	-50.186017
30592		4.012289	-8.301563	-50.974587
30593		4.161336	-8.333151	-51.759274
30594		4.364550	-8.396217	-52.542425
30595		4.632792	-8.493558	-53.325303
30596		4.924218	-8.621654	-54.103334
30597		5.228429	-8.767904	-54.873205
30598		5.530830	-8.923947	-55.640003
30599		5.846929	-9.083980	-56.404662
30600		6.156652	-9.224594	-57.168371
30601		6.438607	-9.324139	-57.928566
30602		6.664909	-9.373264	-58.679514
30603		6.846490	-9.386595	-59.415534
30604		7.000428	-9.389458	-60.133507
30605		7.166118	-9.408212	-60.842536
30606		7.347898	-9.434121	-61.548335
30607		7.551293	-9.451376	-62.244971
30608		7.735847	-9.450581	-62.923464
30609		7.875253	-9.431257	-63.584658
30610		7.948000	-9.389988	-64.221142
30611		7.977049	-9.333553	-64.832638
30612		7.985170	-9.259286	-65.418598
30613		7.984053	-9.189730	-65.978145
30614		7.978861	-9.133308	-66.522682
30615		8.016825	-9.100155	-67.062968
30616		8.096568	-9.083089	-67.594178
30617		8.210154	-9.073104	-68.108806
30618		8.329742	-9.062004	-68.603903
30619		8.441394	-9.056675	-69.082441
30620		8.547492	-9.051382	-69.538157
30621		8.672186	-9.046479	-69.973921
30622		8.819035	-9.039421	-70.392636
30623		8.973955	-9.028088	-70.793942
30624		9.093541	-9.009914	-71.174824
30625		9.162319	-8.984737	-71.534626
30626		9.191418	-8.948732	-71.874421
30627		9.197903	-8.900346	-72.190831
30628		9.202939	-8.845044	-72.490692
30629		9.217505	-8.796729	-72.783962
30630		9.236046	-8.757447	-73.069566
30631		9.240682	-8.719099	-73.346522
30632		9.213068	-8.665629	-73.607896
30633		9.163010	-8.593028	-73.849364
30634		9.095996	-8.503541	-74.070716
30635		9.021429	-8.410663	-74.271912
30636		8.958640	-8.327399	-74.450773
30637		8.927967	-8.270709	-74.601000
30638		8.943778	-8.252888	-74.724834
30639		9.000138	-8.272299	-74.818836
30640		9.077078	-8.320259	-74.884305
30641		9.153508	-8.391174	-74.923422
30642		9.224976	-8.479539	-74.941121
30643		9.294117	-8.575629	-74.930996
30644		9.365875	-8.664926	-74.895476
30645		9.432732	-8.737679	-74.832621
30646		9.489668	-8.780959	-74.746087
30647		9.517771	-8.801687	-74.638594
30648		9.521204	-8.800712	-74.510576
30649		9.498245	-8.783349	-74.364326
30650		9.463686	-8.750311	-74.202325
30651		9.410406	-8.708828	-74.033375
30652		9.338730	-8.668651	-73.862984
30653		9.248196	-8.621112	-73.693297
30654		9.148471	-8.564984	-73.522467
30655		9.042716	-8.501959	-73.350717
30656		8.939697	-8.445554	-73.174673
30657		8.840215	-8.395907	-72.987671
30658		8.763506	-8.347680	-72.796343
30659		8.715292	-8.308918	-72.600119
30660		8.697229	-8.280249	-72.396309
30661		8.687140	-8.254553	-72.177778
30662		8.675766	-8.235780	-71.943525
30663		8.645476	-8.220689	-71.696409
30664		8.615108	-8.203515	-71.441478
30665		8.589747	-8.188322	-71.178630
30666		8.581354	-8.175738	-70.909237
30667		8.586652	-8.168096	-70.626898
30668		8.605804	-8.154042	-70.333338
30669		8.626577	-8.128986	-70.026485
30670		8.644600	-8.103903	-69.708659
30671		8.638073	-8.076089	-69.372225
30672		8.612189	-8.054027	-69.017351
30673		8.556569	-8.033485	-68.638302
30674		8.499543	-8.017335	-68.234631
30675		8.449323	-8.003839	-67.816211
30676		8.423762	-7.999254	-67.387406
30677		8.426821	-8.004560	-66.947533
30678		8.459418	-8.022334	-66.502882
30679		8.498932	-8.041584	-66.054020
30680		8.531316	-8.053794	-65.597972
30681		8.523198	-8.040659	-65.120373
30682		8.469831	-8.002123	-64.614332
30683		8.370879	-7.927254	-64.078764
30684		8.266786	-7.827741	-63.520686
30685		8.179670	-7.718248	-62.948320
30686		8.143509	-7.626526	-62.366682
30687		8.153683	-7.569171	-61.781837
30688		8.207685	-7.559429	-61.198640
30689		8.265375	-7.580264	-60.614920
30690		8.305915	-7.609477	-60.029802
30691		8.314988	-7.624675	-59.429416
30692		8.297102	-7.613081	-58.799427
30693		8.216084	-7.576324	-58.130458
30694		8.110394	-7.528286	-57.435286
30695		7.993861	-7.471534	-56.716041
30696		7.938410	-7.410424	-55.984287
30697		7.960455	-7.345799	-55.243698
30698		8.089513	-7.290842	-54.512462
30699		8.296238	-7.272331	-53.802626
30700		8.538510	-7.303949	-53.109362
30701		8.734686	-7.365843	-52.416829
30702		8.839745	-7.440308	-51.704880
30703		8.815098	-7.510395	-50.960641
30704		8.717534	-7.552127	-50.181713
30705		8.583839	-7.554242	-49.369836
30706		8.473180	-7.536336	-48.540318
30707		8.404580	-7.510033	-47.709879
30708		8.399157	-7.503287	-46.895269
30709		8.440255	-7.534275	-46.089551
30710		8.500999	-7.597707	-45.287956
30711		8.516002	-7.674011	-44.476302
30712		8.465633	-7.752471	-43.657785
30713		8.336604	-7.818074	-42.833583
30714		8.173155	-7.865058	-42.009633
30715		8.014150	-7.886420	-41.177916
30716		7.905396	-7.895440	-40.351196
30717		7.854057	-7.909230	-39.531002
30718		7.874853	-7.938701	-38.719317
30719		7.940204	-7.995112	-37.914411
30720		8.021666	-8.088884	-37.115311
30721		8.069583	-8.208802	-36.317042
30722		8.062745	-8.339383	-35.512672
30723		7.989814	-8.457282	-34.698752
30724		7.876834	-8.540954	-33.875662
30725		7.752726	-8.590058	-33.039176
30726		7.671102	-8.617396	-32.188670
30727		7.638278	-8.633480	-31.322467
30728		7.670276	-8.658964	-30.444281
30729		7.750421	-8.704807	-29.560180
30730		7.875626	-8.783380	-28.683730
30731		7.977294	-8.878441	-27.807031
30732		8.025313	-8.982105	-26.938138
30733		8.003726	-9.073300	-26.076475
30734		7.949921	-9.138857	-25.224560
30735		7.901846	-9.172249	-24.379230
30736		7.901866	-9.183004	-23.538755
30737		7.934185	-9.178107	-22.702876
30738		7.973694	-9.170673	-21.872456
30739		7.967542	-9.167352	-21.037035
30740		7.922813	-9.178105	-20.207025
30741		7.829165	-9.197013	-19.385114
30742		7.731416	-9.228296	-18.581400
30743		7.647174	-9.276020	-17.790918
30744		7.633138	-9.335082	-17.012892
30745		7.663788	-9.394008	-16.240390
30746		7.714533	-9.457602	-15.478507
30747		7.745236	-9.517910	-14.726047
30748		7.739881	-9.578597	-13.979366
30749		7.680094	-9.623448	-13.226302
30750		7.589424	-9.645212	-12.470147
30751		7.477726	-9.649402	-11.714526
30752		7.380576	-9.645839	-10.972528
30753		7.299123	-9.634626	-10.245210
30754		7.241970	-9.628983	-9.528456
30755		7.192216	-9.637167	-8.822949
30756		7.149523	-9.670493	-8.125787
30757		7.101598	-9.704932	-7.434677
30758		7.047566	-9.736741	-6.747422
30759		6.965916	-9.749997	-6.072255
30760		6.859321	-9.748273	-5.410544
30761		6.716353	-9.737420	-4.759759
30762		6.571026	-9.727029	-4.122594
30763		6.431248	-9.702154	-3.485035
30764		6.324878	-9.662676	-2.852519
30765		6.248379	-9.606594	-2.224302
30766		6.203416	-9.543249	-1.614761
30767		6.168361	-9.506903	-1.026423
30768		6.121724	-9.513987	-0.463253
30769		6.025287	-9.546905	0.082340
30770		5.872889	-9.573618	0.626443
30771		5.675386	-9.556498	1.184183
30772		5.481854	-9.491173	1.749462
30773		5.322992	-9.403521	2.314588
30774		5.198481	-9.311887	2.869219
30775		5.115978	-9.237941	3.405229
30776		5.075023	-9.204917	3.924310
30777		5.031515	-9.211035	4.430787
30778		4.966414	-9.244736	4.924705
30779		4.870291	-9.292799	5.407497
30780		4.748898	-9.334322	5.885992
30781		4.598031	-9.362121	6.366078
30782		4.439164	-9.381623	6.840647
30783		4.287951	-9.401106	7.300938
30784		4.145720	-9.434753	7.738636
30785		3.995256	-9.480760	8.157910
30786		3.827228	-9.516495	8.568758
30787		3.633205	-9.524844	8.976576
30788		3.406039	-9.499044	9.384871
30789		3.161345	-9.450754	9.790174
30790		2.924641	-9.401969	10.184047
30791		2.713018	-9.368334	10.561045
30792		2.523889	-9.347352	10.925082
30793		2.344509	-9.320681	11.284971
30794		2.178905	-9.275424	11.648547
30795		2.033974	-9.232402	12.004830
30796		1.909726	-9.214748	12.346697
30797		1.790353	-9.222416	12.672493
30798		1.676366	-9.250752	12.981539
30799		1.557920	-9.281692	13.279140
30800		1.447344	-9.314060	13.562995
30801		1.356433	-9.351187	13.834505
30802		1.308146	-9.391055	14.090379
30803		1.294503	-9.428139	14.319141
30804		1.285821	-9.454601	14.525332
30805		1.265740	-9.462779	14.710328
30806		1.208677	-9.454478	14.882224
30807		1.119461	-9.432698	15.039907
30808		1.007494	-9.397547	15.179103
30809		0.876201	-9.351354	15.294562
30810		0.741670	-9.299498	15.383990
30811		0.616035	-9.240001	15.452514
30812		0.519072	-9.177507	15.518400
30813		0.466839	-9.119248	15.582845
30814		0.459226	-9.073154	15.642290
30815		0.480015	-9.048703	15.695367
30816		0.503572	-9.036737	15.736752
30817		0.514426	-9.026036	15.765968
30818		0.478859	-9.005471	15.792294
30819		0.415518	-8.967194	15.813458
30820		0.327343	-8.918241	15.836337
30821		0.224897	-8.863665	15.855488
30822		0.118657	-8.810894	15.867444
30823		0.023260	-8.758967	15.872428
30824		-0.048397	-8.707347	15.875294
30825		-0.085143	-8.666790	15.874386
30826		-0.096191	-8.643823	15.871852
30827		-0.091920	-8.637190	15.858537
30828		-0.100733	-8.639632	15.840745
30829		-0.099491	-8.643333	15.815446
30830		-0.099539	-8.647979	15.789440
30831		-0.103909	-8.657608	15.755472
30832		-0.108324	-8.669361	15.717161
30833		-0.111015	-8.681655	15.672991
30834		-0.109481	-8.684310	15.623047
30835		-0.104480	-8.668511	15.567951
30836		-0.102097	-8.633490	15.504910
30837		-0.108852	-8.584573	15.440337
30838		-0.123064	-8.528733	15.382194
30839		-0.134615	-8.474909	15.333714
30840		-0.129181	-8.436973	15.292914
30841		-0.091500	-8.424354	15.246757
30842		-0.032561	-8.436807	15.190173
30843		0.033068	-8.460851	15.115038
30844		0.084221	-8.475729	15.029854
30845		0.119295	-8.474405	14.939971
30846		0.153297	-8.448708	14.850280
30847		0.189960	-8.408994	14.754351
30848		0.224565	-8.360931	14.651110
30849		0.261460	-8.317568	14.539027
30850		0.306628	-8.283027	14.415057
30851		0.377885	-8.253940	14.274887
30852		0.463243	-8.233449	14.104955
30853		0.552168	-8.213110	13.903296
30854		0.612902	-8.188325	13.676069
30855		0.633424	-8.155666	13.441206
30856		0.624839	-8.110878	13.203551
30857		0.613804	-8.059986	12.963661
30858		0.620735	-8.007855	12.723592
30859		0.664411	-7.962717	12.475708
30860		0.732816	-7.920402	12.220178
30861		0.806839	-7.878799	11.950422
30862		0.860118	-7.833659	11.663504
30863		0.892745	-7.788510	11.360394
30864		0.910751	-7.745955	11.049550
30865		0.921900	-7.716034	10.715098
30866		0.934957	-7.705854	10.360974
30867		0.980026	-7.704813	9.982665
30868		1.043316	-7.702418	9.580005
30869		1.114663	-7.702458	9.154986
30870		1.173016	-7.700549	8.714991
30871		1.221625	-7.693266	8.266019
30872		1.251888	-7.677250	7.813004
30873		1.273810	-7.649274	7.359694
30874		1.288943	-7.614850	6.914119
30875		1.322429	-7.585195	6.472657
30876		1.378046	-7.581068	6.029416
30877		1.457087	-7.609294	5.572359
30878		1.541833	-7.670072	5.097567
30879		1.632571	-7.754827	4.595644
30880		1.708825	-7.847844	4.067701
30881		1.773283	-7.928597	3.513875
30882		1.821312	-7.980868	2.944234
30883		1.872978	-7.992872	2.370093
30884		1.918530	-7.962567	1.799568
30885		1.973435	-7.903120	1.231860
30886		2.030738	-7.824851	0.663876
30887		2.095693	-7.747354	0.093436
30888		2.165886	-7.678538	-0.480122
30889		2.265813	-7.633117	-1.060512
30890		2.393625	-7.614905	-1.653261
30891		2.554930	-7.635771	-2.256186
30892		2.728073	-7.687549	-2.874028
30893		2.922523	-7.754436	-3.511499
30894		3.098748	-7.819541	-4.163769
30895		3.260705	-7.872456	-4.834705
30896		3.396002	-7.899419	-5.518474
30897		3.514645	-7.897502	-6.208430
30898		3.605600	-7.862375	-6.898460
30899		3.696069	-7.816687	-7.588958
30900		3.789478	-7.773298	-8.275981
30901		3.907608	-7.750661	-8.966388
30902		4.046055	-7.746442	-9.667660
30903		4.203212	-7.764296	-10.388971
30904		4.343985	-7.783735	-11.133663
30905		4.464697	-7.796009	-11.900009
30906		4.543339	-7.793303	-12.678347
30907		4.610273	-7.780697	-13.463335
30908		4.664664	-7.759647	-14.252986
30909		4.726367	-7.732798	-15.050608
30910		4.786003	-7.696870	-15.842904
30911		4.869669	-7.662500	-16.634562
30912		4.972274	-7.636696	-17.417613
30913		5.105254	-7.627766	-18.194805
30914		5.238766	-7.633949	-18.966118
30915		5.369436	-7.657112	-19.738197
30916		5.477825	-7.693858	-20.510397
30917		5.579270	-7.742849	-21.286982
30918		5.671103	-7.798282	-22.061983
30919		5.773320	-7.857763	-22.839138
30920		5.879404	-7.904322	-23.618666
30921		5.986906	-7.935441	-24.406847
30922		6.073692	-7.943374	-25.196080
30923		6.152364	-7.933839	-25.989784
30924		6.216067	-7.917156	-26.776412
30925		6.285405	-7.899370	-27.565872
30926		6.347730	-7.898321	-28.356086
30927		6.420799	-7.922850	-29.147691
30928		6.506406	-7.973156	-29.935149
30929		6.610943	-8.037258	-30.719189
30930		6.700281	-8.098050	-31.497100
30931		6.760744	-8.149826	-32.266367
30932		6.776948	-8.185394	-33.030782
30933		6.757554	-8.211921	-33.784337
30934		6.693647	-8.221563	-34.525081
30935		6.594109	-8.212186	-35.251846
30936		6.458789	-8.181577	-35.965127
30937		6.316630	-8.146801	-36.678729
30938		6.178995	-8.124447	-37.401873
30939		6.100813	-8.117969	-38.140152
30940		6.048701	-8.109603	-38.882158
30941		6.011576	-8.093157	-39.625261
30942		5.941568	-8.052908	-40.357035
30943		5.817085	-8.005109	-41.079892
30944		5.640932	-7.962720	-41.795383
30945		5.471019	-7.938851	-42.508942
30946		5.347266	-7.927883	-43.213777
30947		5.302532	-7.936356	-43.919212
30948		5.297953	-7.964582	-44.621314
30949		5.319454	-8.006917	-45.329132
30950		5.345901	-8.062596	-46.034663
30951		5.382586	-8.129950	-46.738817
30952		5.428416	-8.206326	-47.439058
30953		5.478595	-8.299221	-48.136536
30954		5.527921	-8.391720	-48.821888
30955		5.582731	-8.471271	-49.500231
30956		5.627419	-8.530736	-50.170048
30957		5.688191	-8.576985	-50.839387
30958		5.784320	-8.616084	-51.516953
30959		5.919230	-8.660034	-52.199066
30960		6.077985	-8.711534	-52.878277
30961		6.246710	-8.775325	-53.547713
30962		6.402131	-8.843981	-54.207889
30963		6.541995	-8.917777	-54.863886
30964		6.650504	-8.990892	-55.518748
30965		6.738922	-9.059113	-56.158941
30966		6.800024	-9.114479	-56.780391
30967		6.845272	-9.153622	-57.384015
30968		6.877819	-9.180403	-57.973804
30969		6.905313	-9.203192	-58.553607
30970		6.903016	-9.231920	-59.125397
30971		6.869455	-9.252366	-59.687031
30972		6.780280	-9.263406	-60.242174
30973		6.656032	-9.253138	-60.781676
30974		6.490808	-9.221655	-61.324198
30975		6.323125	-9.191981	-61.864769
30976		6.167255	-9.158247	-62.405729
30977		6.042050	-9.131680	-62.942732
30978		5.940736	-9.116843	-63.478674
30979		5.856727	-9.114700	-64.007021
30980		5.771437	-9.113053	-64.525220
30981		5.689111	-9.109232	-65.025380
30982		5.606680	-9.099116	-65.514059
30983		5.561140	-9.092129	-65.999269
30984		5.555239	-9.091559	-66.482444
30985		5.580783	-9.103209	-66.961214
30986		5.612916	-9.123469	-67.432137
30987		5.647207	-9.147846	-67.898504
30988		5.676173	-9.168775	-68.355757
30989		5.712193	-9.186153	-68.802317
30990		5.744043	-9.201924	-69.236719
30991		5.780296	-9.216438	-69.660759
30992		5.822414	-9.226344	-70.074376
30993		5.880332	-9.232229	-70.476459
30994		5.960948	-9.236657	-70.866120
30995		6.064981	-9.245957	-71.242492
30996		6.181900	-9.262895	-71.616709
30997		6.296412	-9.293218	-71.984113
30998		6.397972	-9.329161	-72.336284
30999		6.471780	-9.352703	-72.666694
31000		6.510871	-9.345914	-72.971661
31001		6.527581	-9.316490	-73.254046
31002		6.538560	-9.272208	-73.522872
31003		6.548181	-9.231492	-73.781689
31004		6.555450	-9.203596	-74.027151
31005		6.554509	-9.184571	-74.253695
31006		6.547467	-9.165417	-74.464922
31007		6.525299	-9.146173	-74.659995
31008		6.494173	-9.126337	-74.840149
31009		6.449900	-9.106271	-75.005262
31010		6.395867	-9.084465	-75.157774
31011		6.342060	-9.055122	-75.294568
31012		6.309775	-9.011826	-75.420680
31013		6.299695	-8.951713	-75.539754
31014		6.302510	-8.886875	-75.650616
31015		6.302291	-8.829527	-75.751825
31016		6.301334	-8.796259	-75.839856
31017		6.312149	-8.791328	-75.912514
31018		6.345919	-8.809893	-75.970559
31019		6.402421	-8.832470	-76.009090
31020		6.466594	-8.853350	-76.032302
31021		6.531766	-8.869478	-76.037542
31022		6.593032	-8.881107	-76.029763
31023		6.643474	-8.877820	-76.005453
31024		6.678940	-8.853696	-75.967364
31025		6.694215	-8.813357	-75.916408
31026		6.694744	-8.765916	-75.859300
31027		6.678950	-8.726110	-75.791486
31028		6.663094	-8.694000	-75.713043
31029		6.647943	-8.677395	-75.623500
31030		6.646990	-8.665778	-75.517208
31031		6.656530	-8.650367	-75.393546
31032		6.669369	-8.625059	-75.250232
31033		6.670098	-8.591212	-75.091839
31034		6.660924	-8.553565	-74.918087
31035		6.644798	-8.513049	-74.728421
31036		6.635942	-8.462261	-74.513790
31037		6.620234	-8.405729	-74.272568
31038		6.600515	-8.345024	-74.009855
31039		6.577711	-8.290037	-73.734619
31040		6.577167	-8.250509	-73.451698
31041		6.603979	-8.233070	-73.163503
31042		6.648798	-8.229797	-72.871565
31043		6.688696	-8.228458	-72.575061
31044		6.694554	-8.218013	-72.272099
31045		6.651323	-8.186150	-71.958398
31046		6.569487	-8.132634	-71.625289
31047		6.449727	-8.050450	-71.274643
31048		6.309092	-7.944944	-70.917306
31049		6.162983	-7.818664	-70.553925
31050		6.054315	-7.685793	-70.192467
31051		5.969857	-7.563658	-69.835183
31052		5.922293	-7.469698	-69.486847
31053		5.907597	-7.405491	-69.145774
31054		5.905979	-7.367066	-68.807072
31055		5.897161	-7.339146	-68.461527
31056		5.888370	-7.307197	-68.097339
31057		5.859431	-7.267897	-67.706222
31058		5.828381	-7.216609	-67.287971
31059		5.801178	-7.168197	-66.837887
31060		5.791941	-7.129826	-66.352719
31061		5.803095	-7.115259	-65.835216
31062		5.848053	-7.127139	-65.288480
31063		5.901023	-7.165476	-64.700962
31064		5.966286	-7.222289	-64.075051
31065		6.025501	-7.290200	-63.409421
31066		6.091388	-7.362509	-62.707602
31067		6.151658	-7.428462	-61.968152
31068		6.226390	-7.484708	-61.200083
31069		6.297278	-7.528269	-60.403909
31070		6.374438	-7.557594	-59.580287
31071		6.430272	-7.574285	-58.733083
31072		6.477736	-7.596370	-57.864631
31073		6.511502	-7.629031	-56.973498
31074		6.569677	-7.673975	-56.074615
31075		6.640142	-7.729875	-55.173552
31076		6.725984	-7.784278	-54.272285
31077		6.782921	-7.826558	-53.362023
31078		6.811724	-7.841445	-52.447906
31079		6.788428	-7.825397	-51.526157
31080		6.734437	-7.806242	-50.601203
31081		6.662141	-7.783222	-49.668762
31082		6.628138	-7.759390	-48.734821
31083		6.624058	-7.737860	-47.795773
31084		6.651556	-7.725469	-46.856803
31085		6.674697	-7.721070	-45.913975
31086		6.687035	-7.730206	-44.976122
31087		6.681995	-7.747932	-44.039235
31088		6.689422	-7.775883	-43.104171
31089		6.693344	-7.805117	-42.166866
31090		6.687305	-7.830026	-41.225211
31091		6.652462	-7.843637	-40.274091
31092		6.634046	-7.858572	-39.323763
31093		6.646822	-7.873691	-38.369199
31094		6.730414	-7.910081	-37.417986
31095		6.858620	-7.961374	-36.460895
31096		7.003679	-8.036330	-35.495116
31097		7.113205	-8.128744	-34.519509
31098		7.188012	-8.239720	-33.537470
31099		7.209898	-8.356597	-32.544699
31100		7.216588	-8.471873	-31.549702
31101		7.210461	-8.579318	-30.552956
31102		7.216911	-8.678264	-29.551635
31103		7.213477	-8.757051	-28.540280
31104		7.211830	-8.818569	-27.523992
31105		7.200290	-8.861879	-26.505623
31106		7.204879	-8.901837	-25.493806
31107		7.215941	-8.944565	-24.489686
31108		7.261929	-9.005352	-23.499904
31109		7.313245	-9.081842	-22.528613
31110		7.362757	-9.163441	-21.571828
31111		7.370501	-9.223958	-20.622340
31112		7.331461	-9.252882	-19.672443
31113		7.229260	-9.238569	-18.719757
31114		7.106898	-9.191973	-17.768781
31115		6.991275	-9.126583	-16.825990
31116		6.907748	-9.068206	-15.900612
31117		6.835184	-9.032644	-14.994600
31118		6.783285	-9.030981	-14.107226
31119		6.735094	-9.056919	-13.229671
31120		6.686003	-9.096732	-12.352679
31121		6.617246	-9.121295	-11.466312
31122		6.535011	-9.117557	-10.576329
31123		6.419968	-9.079164	-9.684885
31124		6.302208	-9.019445	-8.808775
31125		6.176478	-8.949441	-7.943584
31126		6.065498	-8.892786	-7.095175
31127		5.960124	-8.853701	-6.256874
31128		5.866534	-8.843253	-5.424959
31129		5.755479	-8.844682	-4.599793
31130		5.622756	-8.844152	-3.783304
31131		5.471447	-8.823402	-2.973597
31132		5.338580	-8.788343	-2.178277
31133		5.235468	-8.754811	-1.405411
31134		5.177865	-8.737276	-0.650430
31135		5.136768	-8.745707	0.091505
31136		5.095887	-8.789883	0.821257
31137		5.021783	-8.852919	1.543334
31138		4.926287	-8.912940	2.254919
31139		4.817368	-8.951858	2.953151
31140		4.727912	-8.970350	3.635259
31141		4.645907	-8.964268	4.310488
31142		4.573624	-8.934362	4.968598
31143		4.502779	-8.894262	5.604838
31144		4.440450	-8.861955	6.216153
31145		4.389165	-8.837789	6.801888
31146		4.362292	-8.822653	7.366031
31147		4.340571	-8.804610	7.916269
31148		4.325818	-8.783668	8.451436
31149		4.312284	-8.751110	8.980101
31150		4.288356	-8.708773	9.492475
31151		4.238058	-8.657900	9.988651
31152		4.172258	-8.608004	10.462894
31153		4.093412	-8.565411	10.923819
31154		4.016471	-8.529658	11.380116
31155		3.936856	-8.494413	11.829497
31156		3.846945	-8.469158	12.277269
31157		3.742354	-8.457128	12.722284
31158		3.645711	-8.466007	13.159839
31159		3.569282	-8.495828	13.584266
31160		3.528506	-8.545155	13.992612
31161		3.523586	-8.607124	14.381987
31162		3.544040	-8.676439	14.747404
31163		3.567268	-8.757766	15.089331
31164		3.586117	-8.851197	15.401669
31165		3.588325	-8.955567	15.689445
31166		3.576964	-9.055971	15.954854
31167		3.549167	-9.138838	16.204180
31168		3.501418	-9.198041	16.437515
31169		3.439888	-9.234866	16.654024
31170		3.375323	-9.260271	16.851064
31171		3.322756	-9.287683	17.025879
31172		3.294197	-9.328942	17.177670
31173		3.276742	-9.379935	17.311677
31174		3.258350	-9.434596	17.432442
31175		3.226769	-9.487379	17.542204
31176		3.187196	-9.533621	17.637912
31177		3.143017	-9.574379	17.719349
31178		3.113731	-9.616463	17.787151
31179		3.120758	-9.668999	17.842847
31180		3.156845	-9.715299	17.893635
31181		3.199898	-9.743198	17.942447
31182		3.225474	-9.751328	17.984126
31183		3.232379	-9.747474	18.019100
31184		3.222930	-9.741891	18.047646
31185		3.211496	-9.737559	18.069554
31186		3.200314	-9.736152	18.084139
31187		3.195130	-9.734506	18.097657
31188		3.200192	-9.737134	18.112731
31189		3.223408	-9.746935	18.125045
31190		3.254643	-9.764365	18.141320
31191		3.277351	-9.779861	18.160705
31192		3.279986	-9.785192	18.177161
31193		3.267603	-9.785598	18.185205
31194		3.244323	-9.784768	18.184061
31195		3.224195	-9.776256	18.172836
31196		3.204068	-9.759231	18.154598
31197		3.187037	-9.739445	18.131398
31198		3.169340	-9.719112	18.099686
31199		3.161499	-9.704908	18.059396
31200		3.167173	-9.698222	18.014534
31201		3.194780	-9.695107	17.960256
31202		3.240511	-9.693261	17.895289
31203		3.282225	-9.689950	17.825138
31204		3.299966	-9.678822	17.743277
31205		3.282273	-9.661574	17.651671
31206		3.239913	-9.633894	17.548194
31207		3.195153	-9.593138	17.437100
31208		3.164424	-9.541683	17.320694
31209		3.161028	-9.490056	17.203923
31210		3.189454	-9.452340	17.085696
31211		3.254350	-9.439742	16.951675
31212		3.326113	-9.438753	16.796206
31213		3.384452	-9.441454	16.615093
31214		3.405770	-9.427498	16.421356
31215		3.398077	-9.397511	16.221882
31216		3.378240	-9.357939	16.023935
31217		3.381901	-9.310658	15.824885
31218		3.388974	-9.269859	15.615581
31219		3.418205	-9.241685	15.398415
31220		3.467634	-9.208979	15.171436
31221		3.510984	-9.173605	14.937619
31222		3.549409	-9.134611	14.707108
31223		3.595889	-9.098768	14.468231
31224		3.630947	-9.084859	14.217455
31225		3.648395	-9.102990	13.950046
31226		3.666768	-9.134159	13.667039
31227		3.703589	-9.167412	13.365872
31228		3.741818	-9.185260	13.060904
31229		3.789613	-9.185659	12.754478
31230		3.834269	-9.171901	12.446791
31231		3.882338	-9.165614	12.127625
31232		3.927895	-9.176297	11.789766
31233		3.968701	-9.207020	11.422244
31234		4.002863	-9.243983	11.020538
31235		4.040144	-9.267742	10.588744
31236		4.063689	-9.261176	10.148281
31237		4.071188	-9.222409	9.705149
31238		4.047147	-9.157899	9.270809
31239		4.012382	-9.092599	8.840805
31240		3.981830	-9.040474	8.409601
31241		3.986165	-9.008303	7.980618
31242		4.035082	-8.989671	7.557373
31243		4.127104	-8.984738	7.125505
31244		4.220386	-8.994087	6.679253
31245		4.292804	-9.019611	6.218064
31246		4.328489	-9.055740	5.741664
31247		4.338280	-9.089279	5.251424
31248		4.327691	-9.099178	4.744787
31249		4.314706	-9.075394	4.217194
31250		4.281546	-9.010518	3.673969
31251		4.236547	-8.925739	3.119726
31252		4.189089	-8.845372	2.564517
31253		4.166981	-8.786030	2.006517
31254		4.176079	-8.761369	1.446655
31255		4.237334	-8.775464	0.878592
31256		4.332501	-8.816534	0.303303
31257		4.450935	-8.880964	-0.284382
31258		4.561767	-8.953929	-0.881016
31259		4.654197	-9.024630	-1.479305
31260		4.717613	-9.086261	-2.082744
31261		4.768698	-9.130493	-2.695359
31262		4.805349	-9.149891	-3.319598
31263		4.845846	-9.150994	-3.960255
31264		4.883319	-9.132826	-4.612355
31265		4.929202	-9.098792	-5.273667
31266		4.972049	-9.060636	-5.936553
31267		5.028260	-9.028494	-6.595333
31268		5.094353	-9.009613	-7.254769
31269		5.192552	-9.009134	-7.918784
31270		5.306047	-9.015215	-8.591125
31271		5.433374	-9.026451	-9.272186
31272		5.557651	-9.027664	-9.955707
31273		5.686663	-9.021147	-10.637558
31274		5.807326	-9.010286	-11.318440
31275		5.927529	-8.999704	-11.996076
31276		6.031882	-8.985555	-12.666414
31277		6.131818	-8.962838	-13.334732
31278		6.224155	-8.929742	-13.999459
31279		6.329908	-8.895732	-14.668303
31280		6.453383	-8.870708	-15.347179
31281		6.605518	-8.864119	-16.034975
31282		6.766393	-8.866637	-16.732618
31283		6.943369	-8.869875	-17.441137
31284		7.096447	-8.858172	-18.151068
31285		7.213706	-8.820453	-18.863504
31286		7.271069	-8.747700	-19.571550
31287		7.287539	-8.657971	-20.275319
31288		7.282982	-8.561893	-20.970109
31289		7.283811	-8.474119	-21.657334
31290		7.307014	-8.395515	-22.333321
31291		7.354686	-8.334823	-23.005045
31292		7.414753	-8.281856	-23.668686
31293		7.492288	-8.236144	-24.335503
31294		7.560555	-8.194410	-24.996931
31295		7.609933	-8.158090	-25.652868
31296		7.621601	-8.129578	-26.294151
31297		7.602497	-8.111377	-26.924144
31298		7.573329	-8.105392	-27.540823
31299		7.570562	-8.109237	-28.156343
31300		7.594690	-8.120278	-28.781203
31301		7.648545	-8.143543	-29.423815
31302		7.716910	-8.172921	-30.086684
31303		7.784285	-8.215368	-30.762029
31304		7.837444	-8.264457	-31.449186
31305		7.883057	-8.320538	-32.146011
31306		7.915433	-8.369671	-32.848740
31307		7.952395	-8.403511	-33.557507
31308		7.989423	-8.423842	-34.266682
31309		8.037254	-8.431107	-34.979107
31310		8.077027	-8.439184	-35.686312
31311		8.110872	-8.449278	-36.390731
31312		8.121518	-8.456590	-37.089549
31313		8.132105	-8.474563	-37.788109
31314		8.149334	-8.506343	-38.487990
31315		8.200786	-8.572055	-39.201224
31316		8.292015	-8.671168	-39.922493
31317		8.421718	-8.792621	-40.652563
31318		8.555324	-8.909681	-41.383790
31319		8.672394	-8.997574	-42.110773
31320		8.745142	-9.040281	-42.830796
31321		8.794020	-9.056276	-43.545509
31322		8.831586	-9.059322	-44.245007
31323		8.880791	-9.074181	-44.931528
31324		8.943763	-9.105769	-45.602806
31325		9.024630	-9.155018	-46.269409
31326		9.106038	-9.213353	-46.922527
31327		9.193319	-9.279338	-47.571765
31328		9.277897	-9.347161	-48.216998
31329		9.352564	-9.420470	-48.865474
31330		9.385069	-9.488473	-49.510311
31331		9.373057	-9.543814	-50.148947
31332		9.316481	-9.573432	-50.767452
31333		9.253708	-9.575891	-51.365595
31334		9.208409	-9.559036	-51.949315
31335		9.201695	-9.539143	-52.524798
31336		9.235068	-9.526980	-53.099321
31337		9.307609	-9.533483	-53.680699
31338		9.391183	-9.554645	-54.266712
31339		9.487256	-9.587461	-54.862536
31340		9.589306	-9.620656	-55.465346
31341		9.713350	-9.655443	-56.075347
31342		9.870614	-9.689821	-56.687547
31343		10.063376	-9.727249	-57.295476
31344		10.273624	-9.762037	-57.889540
31345		10.489380	-9.788230	-58.470229
31346		10.698257	-9.807499	-59.043788
31347		10.897726	-9.821579	-59.617178
31348		11.064580	-9.839206	-60.190629
31349		11.200782	-9.860528	-60.765316
31350		11.281582	-9.899994	-61.337726
31351		11.291069	-9.958917	-61.906874
31352		11.241822	-10.026601	-62.476364
31353		11.152030	-10.093986	-63.044886
31354		11.030544	-10.139646	-63.609407
31355		10.883315	-10.153630	-64.170137
31356		10.689292	-10.134581	-64.722649
31357		10.440249	-10.086238	-65.266907
31358		10.130944	-10.016878	-65.800793
31359		9.772712	-9.924400	-66.330947
31360		9.360940	-9.824687	-66.841176
31361		8.946661	-9.726146	-67.338238
31362		8.578494	-9.636062	-67.822587
31363		8.311789	-9.570325	-68.293775
31364		8.191084	-9.522739	-68.759311
31365		8.198969	-9.510293	-69.218071
31366		8.268594	-9.514928	-69.666872
31367		8.324867	-9.528157	-70.101315
31368		8.317349	-9.535330	-70.512647
31369		8.240114	-9.525450	-70.907042
31370		8.123461	-9.494238	-71.291233
31371		8.012161	-9.455974	-71.666490
31372		7.929960	-9.408997	-72.023881
31373		7.893113	-9.362118	-72.363228
31374		7.889557	-9.317455	-72.685610
31375		7.902530	-9.273690	-72.999545
31376		7.926059	-9.234319	-73.310799
31377		7.953669	-9.200854	-73.618545
31378		7.966347	-9.164807	-73.917413
31379		7.965370	-9.113753	-74.201311
31380		7.951388	-9.046409	-74.468455
31381		7.943281	-8.967989	-74.725193
31382		7.960031	-8.891343	-74.969662
31383		8.021488	-8.818934	-75.196413
31384		8.133715	-8.758203	-75.405159
31385		8.292875	-8.716123	-75.599481
31386		8.485197	-8.696088	-75.782114
31387		8.676262	-8.693850	-75.949787
31388		8.837566	-8.694977	-76.103647
31389		8.953540	-8.683229	-76.241832
31390		9.011286	-8.647294	-76.356749
31391		9.012301	-8.582358	-76.450163
31392		8.993684	-8.485348	-76.518081
31393		8.978428	-8.371584	-76.564163
31394		8.983929	-8.261335	-76.593144
31395		9.016410	-8.172065	-76.611928
31396		9.070060	-8.113888	-76.620794
31397		9.143388	-8.087365	-76.619998
31398		9.219013	-8.079881	-76.615215
31399		9.288901	-8.079341	-76.599910
31400		9.364394	-8.070551	-76.574950
31401		9.445099	-8.049208	-76.541574
31402		9.531360	-8.012341	-76.496294
31403		9.614098	-7.965009	-76.432008
31404		9.701337	-7.917427	-76.352544
31405		9.790864	-7.876968	-76.255580
31406		9.876767	-7.852140	-76.150171
31407		9.938089	-7.843255	-76.041608
31408		9.969242	-7.845706	-75.933523
31409		9.977393	-7.853673	-75.816889
31410		9.980881	-7.861819	-75.690202
31411		9.992714	-7.865102	-75.553472
31412		10.004550	-7.870308	-75.407301
31413		10.025685	-7.864955	-75.257002
31414		10.049012	-7.849352	-75.099412
31415		10.054391	-7.826012	-74.931783
31416		10.053150	-7.793821	-74.753797
31417		10.030835	-7.758974	-74.562781
31418		9.994890	-7.731081	-74.359441
31419		9.939031	-7.712598	-74.145814
31420		9.873517	-7.701120	-73.918142
31421		9.791265	-7.686989	-73.674901
31422		9.712959	-7.667296	-73.412731
31423		9.642138	-7.645783	-73.135450
31424		9.591149	-7.626518	-72.846283
31425		9.536981	-7.610219	-72.547042
31426		9.473839	-7.595913	-72.239219
31427		9.393119	-7.583954	-71.922276
31428		9.315688	-7.576521	-71.591810
31429		9.241655	-7.568793	-71.241752
31430		9.183250	-7.554714	-70.875327
31431		9.137064	-7.538762	-70.485338
31432		9.102149	-7.533189	-70.077698
31433		9.076120	-7.528433	-69.643819
31434		9.042573	-7.522202	-69.182633
31435		8.991413	-7.509325	-68.684253
31436		8.925730	-7.495886	-68.156085
31437		8.833554	-7.474968	-67.596995
31438		8.744328	-7.450918	-67.007511
31439		8.658839	-7.431258	-66.391730
31440		8.597590	-7.426498	-65.762542
31441		8.549101	-7.436794	-65.122400
31442		8.515103	-7.452288	-64.472172
31443		8.475718	-7.463886	-63.808861
31444		8.425956	-7.464136	-63.133117
31445		8.345325	-7.444691	-62.449532
31446		8.253917	-7.412317	-61.761704
31447		8.143862	-7.373508	-61.066346
31448		8.045578	-7.339669	-60.360093
31449		7.956316	-7.304113	-59.637596
31450		7.895155	-7.275861	-58.907439
31451		7.853236	-7.256483	-58.170975
31452		7.843519	-7.252275	-57.431416
31453		7.834587	-7.258521	-56.684350
31454		7.826193	-7.275001	-55.933416
31455		7.787288	-7.288492	-55.174388
31456		7.733222	-7.295997	-54.408834
31457		7.668784	-7.292831	-53.635994
31458		7.633636	-7.288699	-52.866607
31459		7.628463	-7.286865	-52.096323
31460		7.671176	-7.287825	-51.333175
31461		7.725922	-7.290038	-50.569688
31462		7.797201	-7.293141	-49.804799
31463		7.852201	-7.288378	-49.030759
31464		7.876355	-7.289755	-48.250814
31465		7.865359	-7.299451	-47.467132
31466		7.849083	-7.322458	-46.683980
31467		7.852202	-7.359426	-45.899497
31468		7.906155	-7.416010	-45.117241
31469		7.994119	-7.486017	-44.332966
31470		8.107570	-7.568179	-43.541061
31471		8.207276	-7.645019	-42.738837
31472		8.293425	-7.717539	-41.931684
31473		8.353753	-7.784933	-41.115951
31474		8.399649	-7.857384	-40.292378
31475		8.438210	-7.938305	-39.459743
31476		8.500998	-8.034228	-38.623148
31477		8.586890	-8.133265	-37.776988
31478		8.689840	-8.210223	-36.925197
31479		8.752264	-8.265700	-36.071137
31480		8.790127	-8.316301	-35.223731
31481		8.790574	-8.373904	-34.378169
31482		8.778494	-8.439680	-33.538018
31483		8.732491	-8.496594	-32.700120
31484		8.656612	-8.535395	-31.857068
31485		8.552293	-8.543030	-31.000691
31486		8.445885	-8.533983	-30.133099
31487		8.352665	-8.528904	-29.262689
31488		8.311034	-8.547302	-28.394613
31489		8.311882	-8.593279	-27.527705
31490		8.352982	-8.666570	-26.665993
31491		8.386262	-8.750615	-25.799882
31492		8.401169	-8.832765	-24.930405
31493		8.373379	-8.900971	-24.059122
31494		8.328503	-8.954300	-23.186616
31495		8.269660	-8.988766	-22.309374
31496		8.221675	-9.013256	-21.428400
31497		8.172839	-9.030781	-20.540754
31498		8.130960	-9.050093	-19.656347
31499		8.079243	-9.068598	-18.771055
31500		8.033030	-9.097442	-17.896692
31501		7.994750	-9.147328	-17.036952
31502		7.975876	-9.227998	-16.193314
31503		7.955591	-9.326645	-15.361861
31504		7.922454	-9.428710	-14.537675
31505		7.860509	-9.517852	-13.719772
31506		7.801136	-9.581318	-12.910333
31507		7.731089	-9.612620	-12.109410
31508		7.669459	-9.625556	-11.324805
31509		7.612620	-9.618437	-10.553378
31510		7.544506	-9.614028	-9.787381
31511		7.449211	-9.603504	-9.025386
31512		7.324537	-9.592158	-8.271402
31513		7.170288	-9.579411	-7.526741
31514		7.016926	-9.576271	-6.797744
31515		6.866368	-9.607167	-6.078442
31516		6.727262	-9.675234	-5.368543
31517		6.575744	-9.779856	-4.659843
31518		6.413385	-9.891425	-3.951945
31519		6.239811	-9.984665	-3.241015
31520		6.099766	-10.058892	-2.534324
31521		5.998600	-10.124976	-1.839348
31522		5.945090	-10.202270	-1.161447
31523		5.940096	-10.290943	-0.504451
31524		6.003241	-10.380118	0.140956
31525		6.060127	-10.465563	0.782332
31526		6.091238	-10.549394	1.409237
31527		6.047913	-10.632870	2.028224
31528		5.933959	-10.716551	2.638482
31529		5.767397	-10.805822	3.231514
31530		5.605879	-10.905621	3.806125
31531		5.471242	-11.018754	4.370102
31532		5.382158	-11.131536	4.925701
31533		5.302295	-11.229393	5.472240
31534		5.237989	-11.299963	5.999337
31535		5.148438	-11.324191	6.519144
31536		5.004307	-11.295192	7.037946
31537		4.798369	-11.226090	7.555881
31538		4.553759	-11.153102	8.061510
31539		4.280746	-11.095152	8.547527
31540		4.035978	-11.060241	9.005769
31541		3.831885	-11.057928	9.437527
31542		3.667125	-11.079273	9.846442
31543		3.500218	-11.106686	10.243888
31544		3.307994	-11.125767	10.634495
31545		3.104383	-11.133349	11.024274
31546		2.894692	-11.136275	11.411503
31547		2.703805	-11.131785	11.800272
31548		2.549288	-11.117626	12.175548
31549		2.436295	-11.098720	12.538384
31550		2.370823	-11.076691	12.883340
31551		2.332657	-11.063032	13.209025
31552		2.287803	-11.048270	13.511445
31553		2.188264	-11.022486	13.789700
31554		2.023006	-10.976430	14.043885
31555		1.813842	-10.898167	14.278689
31556		1.609403	-10.801609	14.497191
31557		1.445468	-10.705859	14.693383
31558		1.346667	-10.622872	14.866030
31559		1.304411	-10.560974	15.016500
31560		1.286444	-10.519773	15.152751
31561		1.256451	-10.487388	15.279334
31562		1.196753	-10.452636	15.402903
31563		1.113363	-10.407497	15.513130
31564		1.026756	-10.364111	15.611305
31565		0.945177	-10.315218	15.697211
31566		0.878880	-10.264415	15.776791
31567		0.834765	-10.208595	15.850895
31568		0.812682	-10.157663	15.911391
31569		0.807453	-10.116692	15.957628
31570		0.802418	-10.084986	15.991467
31571		0.788811	-10.056118	16.028894
31572		0.760758	-10.020249	16.070671
31573		0.725765	-9.978105	16.118242
31574		0.695158	-9.932803	16.161845
31575		0.674536	-9.893915	16.195847
31576		0.662816	-9.860020	16.219422
31577		0.652787	-9.825729	16.235342
31578		0.640434	-9.788824	16.246733
31579		0.627557	-9.753505	16.254686
31580		0.625550	-9.723694	16.260093
31581		0.643557	-9.709966	16.266697
31582		0.676913	-9.716046	16.272416
31583		0.715733	-9.737052	16.274923
31584		0.753783	-9.762790	16.270389
31585		0.787487	-9.784417	16.257226
31586		0.805413	-9.793783	16.237008
31587		0.802494	-9.792613	16.206488
31588		0.786861	-9.762344	16.174028
31589		0.761209	-9.729057	16.130109
31590		0.748866	-9.675795	16.089963
31591		0.751395	-9.623284	16.043530
31592		0.763499	-9.582046	15.998813
31593		0.782721	-9.558671	15.957427
31594		0.786538	-9.545311	15.924600
31595		0.785837	-9.534616	15.899321
31596		0.784751	-9.523684	15.881373
31597		0.787554	-9.510808	15.868132
31598		0.795700	-9.505544	15.853943
31599		0.813266	-9.517905	15.830940
31600		0.836276	-9.545971	15.798639
31601		0.861082	-9.581063	15.757795
31602		0.876539	-9.612473	15.713633
31603		0.880568	-9.633688	15.676234
31604		0.892464	-9.646559	15.638790
31605		0.937806	-9.665656	15.606335
31606		1.023214	-9.695216	15.570530
31607		1.129646	-9.734248	15.533005
31608		1.225789	-9.774073	15.491052
31609		1.296036	-9.812917	15.443210
31610		1.330404	-9.833437	15.384097
31611		1.333372	-9.827024	15.310453
31612		1.320872	-9.793711	15.228477
31613		1.312376	-9.746038	15.135112
31614		1.321769	-9.700497	15.029640
31615		1.362902	-9.666421	14.909056
31616		1.416677	-9.648137	14.774143
31617		1.477592	-9.640502	14.620098
31618		1.530932	-9.626907	14.444928
31619		1.573304	-9.602499	14.244462
31620		1.603848	-9.565330	14.024552
31621		1.633264	-9.522734	13.782271
31622		1.657336	-9.469876	13.531949
31623		1.692970	-9.424580	13.268079
31624		1.735956	-9.397101	12.995718
31625		1.788829	-9.387172	12.707892
31626		1.842198	-9.396457	12.402151
31627		1.896661	-9.420544	12.076088
31628		1.937757	-9.448699	11.744267
31629		1.978242	-9.482876	11.402555
31630		2.007040	-9.527029	11.054314
31631		2.035091	-9.584020	10.690517
31632		2.058619	-9.646849	10.309780
31633		2.076934	-9.710357	9.906902
31634		2.085622	-9.773271	9.483731
31635		2.094920	-9.837006	9.041941
31636		2.109574	-9.886964	8.585119
31637		2.144850	-9.941050	8.113337
31638		2.189617	-9.997588	7.632042
31639		2.257940	-10.056831	7.141921
31640		2.346406	-10.122581	6.644064
31641		2.447313	-10.192836	6.139012
31642		2.545825	-10.267171	5.635265
31643		2.649598	-10.341623	5.128321
31644		2.742895	-10.400644	4.606368
31645		2.818821	-10.453262	4.068590
31646		2.865193	-10.485500	3.508844
31647		2.893949	-10.500238	2.925637
31648		2.911834	-10.495462	2.322831
31649		2.940671	-10.475738	1.703262
31650		2.979913	-10.437756	1.068728
31651		3.047196	-10.389124	0.417793
31652		3.122568	-10.328422	-0.243694
31653		3.211742	-10.257900	-0.924363
31654		3.286799	-10.180944	-1.618565
31655		3.343502	-10.115258	-2.333457
31656		3.378574	-10.065216	-3.051707
31657		3.445623	-10.021736	-3.783819
31658		3.523719	-9.974120	-4.529469
31659		3.618286	-9.920117	-5.285978
31660		3.709065	-9.857628	-6.050187
31661		3.803430	-9.786083	-6.827644
31662		3.885828	-9.710861	-7.603032
31663		3.967910	-9.641543	-8.374101
31664		4.052506	-9.587594	-9.143155
31665		4.170359	-9.555337	-9.919415
31666		4.309615	-9.550184	-10.703275
31667		4.479841	-9.563697	-11.498022
31668		4.665451	-9.580977	-12.303432
31669		4.856503	-9.598857	-13.115926
31670		5.012371	-9.602235	-13.921918
31671		5.128831	-9.589839	-14.729303
31672		5.202934	-9.553241	-15.539731
31673		5.267571	-9.500808	-16.355856
31674		5.331858	-9.434021	-17.176460
31675		5.414945	-9.372691	-18.000168
31676		5.489289	-9.322807	-18.821464
31677		5.555206	-9.290321	-19.650892
31678		5.589268	-9.269307	-20.486548
31679		5.599889	-9.266649	-21.334049
31680		5.561766	-9.271204	-22.182999
31681		5.482030	-9.280097	-23.033112
31682		5.339739	-9.269123	-23.881044
31683		5.142878	-9.233998	-24.736875
31684		4.893503	-9.165608	-25.590758
31685		4.676672	-9.079770	-26.447213
31686		4.498827	-8.981150	-27.312566
31687		4.401794	-8.893414	-28.192643
31688		4.387955	-8.837601	-29.092180
31689		4.457842	-8.831768	-30.007115
31690		4.569911	-8.872214	-30.934357
31691		4.708430	-8.943917	-31.876807
31692		4.869668	-9.014046	-32.832069
31693		5.067134	-9.069170	-33.790044
31694		5.277675	-9.090587	-34.747525
31695		5.511659	-9.075485	-35.695449
31696		5.729414	-9.031923	-36.631755
31697		5.924087	-8.970447	-37.557612
31698		6.075367	-8.899377	-38.474622
31699		6.203083	-8.824083	-39.386772
31700		6.275396	-8.731780	-40.287942
31701		6.295418	-8.625826	-41.186775
31702		6.302367	-8.504420	-42.078271
31703		6.318470	-8.383782	-42.958680
31704		6.364114	-8.275509	-43.834956
31705		6.443427	-8.196081	-44.701725
31706		6.537153	-8.132016	-45.561477
31707		6.636379	-8.089979	-46.416087
31708		6.704176	-8.051252	-47.265571
31709		6.731303	-8.007452	-48.106212
31710		6.723086	-7.948394	-48.931034
31711		6.727872	-7.880150	-49.749024
31712		6.759564	-7.811471	-50.559786
31713		6.831448	-7.754836	-51.370265
31714		6.916543	-7.706405	-52.177909
31715		7.007065	-7.681229	-52.986019
31716		7.088450	-7.679725	-53.791734
31717		7.181627	-7.709252	-54.596807
31718		7.272586	-7.751142	-55.404774
31719		7.363292	-7.805240	-56.217291
31720		7.445455	-7.850539	-57.035742
31721		7.509208	-7.879474	-57.854445
31722		7.509609	-7.876378	-58.662409
31723		7.477341	-7.805407	-59.459663
31724		7.411408	-7.675675	-60.238596
31725		7.349117	-7.522232	-61.005105
31726		7.312219	-7.379015	-61.764094
31727		7.297856	-7.259951	-62.518339
31728		7.316774	-7.185014	-63.262412
31729		7.376622	-7.146604	-63.999262
31730		7.467061	-7.115704	-64.725108
31731		7.553103	-7.074115	-65.434583
31732		7.568446	-6.991766	-66.119080
31733		7.492538	-6.858908	-66.778012
31734		7.370977	-6.687864	-67.401940
31735		7.278662	-6.502248	-68.004818
31736		7.269317	-6.328021	-68.600307
31737		7.356976	-6.203190	-69.197616
31738		7.510851	-6.144362	-69.793427
31739		7.674657	-6.140235	-70.388180
31740		7.774208	-6.152864	-70.964250
31741		7.781201	-6.139000	-71.516698
31742		7.707186	-6.063378	-72.036453
31743		7.612552	-5.938023	-72.526459
31744		7.548287	-5.786744	-72.991283
31745		7.537239	-5.648942	-73.435971
31746		7.569669	-5.547428	-73.866006
31747		7.621810	-5.485138	-74.277578
31748		7.681188	-5.461919	-74.678185
31749		7.730771	-5.455040	-75.059916
31750		7.737553	-5.448108	-75.412378
31751		7.711170	-5.429978	-75.737326
31752		7.657146	-5.394393	-76.040791
31753		7.603834	-5.343826	-76.322610
31754		7.564851	-5.278166	-76.579453
31755		7.528344	-5.202502	-76.806131
31756		7.500557	-5.112224	-76.992073
31757		7.489947	-5.018990	-77.149511
31758		7.496353	-4.944379	-77.285408
31759		7.498143	-4.905246	-77.409273
31760		7.486571	-4.899434	-77.520187
31761		7.450531	-4.909947	-77.615970
31762		7.384803	-4.918217	-77.698494
31763		7.307817	-4.911896	-77.759930
31764		7.249199	-4.885267	-77.803918
31765		7.206520	-4.847389	-77.832411
31766		7.188513	-4.812638	-77.851982
31767		7.185196	-4.788993	-77.871158
31768		7.197738	-4.768497	-77.887487
31769		7.199804	-4.745256	-77.890484
31770		7.199116	-4.710996	-77.880100
31771		7.194966	-4.667786	-77.853536
31772		7.197637	-4.619930	-77.814371
31773		7.212450	-4.580360	-77.771539
31774		7.228153	-4.547722	-77.725203
31775		7.228843	-4.527880	-77.667688
31776		7.216692	-4.518011	-77.601231
31777		7.192815	-4.518096	-77.527430
31778		7.165088	-4.525395	-77.452264
31779		7.140566	-4.528818	-77.367460
31780		7.118554	-4.521043	-77.277293
31781		7.102470	-4.501474	-77.180941
31782		7.093584	-4.469174	-77.076136
31783		7.091782	-4.429842	-76.960863
31784		7.112812	-4.392705	-76.842102
31785		7.142595	-4.362561	-76.720844
31786		7.186270	-4.356356	-76.588824
31787		7.240901	-4.381587	-76.437412
31788		7.294595	-4.439771	-76.258563
31789		7.314597	-4.516798	-76.049897
31790		7.267941	-4.593348	-75.806222
31791		7.174862	-4.655625	-75.520729
31792		7.073235	-4.697926	-75.182142
31793		6.998109	-4.724230	-74.798211
31794		6.977555	-4.743727	-74.379622
31795		7.002700	-4.763993	-73.938404
31796		7.071092	-4.796278	-73.476098
31797		7.164697	-4.840782	-72.991379
31798		7.300735	-4.901223	-72.483531
31799		7.462136	-4.977561	-71.948991
31800		7.625286	-5.057570	-71.383055
31801		7.744486	-5.126375	-70.781904
31802		7.807524	-5.180374	-70.144699
31803		7.804940	-5.218656	-69.470567
31804		7.772009	-5.252052	-68.763968
31805		7.738180	-5.287620	-68.031347
31806		7.732711	-5.333214	-67.275033
31807		7.782024	-5.399531	-66.497414
31808		7.883561	-5.486163	-65.703826
31809		7.997740	-5.585028	-64.895908
31810		8.107344	-5.687081	-64.071302
31811		8.169792	-5.787695	-63.229491
31812		8.203407	-5.893263	-62.380652
31813		8.203178	-6.009478	-61.531490
31814		8.220540	-6.138838	-60.685154
31815		8.278326	-6.284030	-59.843792
31816		8.413758	-6.431767	-59.006292
31817		8.601368	-6.574063	-58.167923
31818		8.835044	-6.712802	-57.317775
31819		9.056139	-6.835117	-56.449285
31820		9.241609	-6.946920	-55.565709
31821		9.370324	-7.046105	-54.663308
31822		9.443651	-7.123604	-53.745289
31823		9.455482	-7.174218	-52.812040
31824		9.439318	-7.200096	-51.867602
31825		9.380704	-7.213824	-50.910047
31826		9.346062	-7.237459	-49.961910
31827		9.377245	-7.283843	-49.022445
31828		9.517532	-7.369354	-48.089052
31829		9.695431	-7.485380	-47.143442
31830		9.834725	-7.612240	-46.179148
31831		9.858935	-7.726801	-45.185681
31832		9.793916	-7.821345	-44.168581
31833		9.687189	-7.893537	-43.134650
31834		9.621918	-7.946298	-42.093587
31835		9.604053	-7.996692	-41.059752
31836		9.630358	-8.056657	-40.042062
31837		9.658745	-8.131192	-39.044177
31838		9.682745	-8.224567	-38.063307
31839		9.684139	-8.329624	-37.095741
31840		9.677991	-8.434765	-36.130841
31841		9.636989	-8.520611	-35.161539
31842		9.560151	-8.579796	-34.188382
31843		9.416406	-8.614265	-33.217966
31844		9.251138	-8.630489	-32.262878
31845		9.078731	-8.634506	-31.321347
31846		8.948360	-8.635321	-30.401022
31847		8.865789	-8.650700	-29.498160
31848		8.848692	-8.697820	-28.604975
31849		8.856414	-8.778044	-27.709823
31850		8.873750	-8.876504	-26.813652
31851		8.888827	-8.963333	-25.922750
31852		8.900706	-9.040561	-25.039313
31853		8.888057	-9.101400	-24.165127
31854		8.853043	-9.160055	-23.301075
31855		8.755032	-9.218860	-22.441786
31856		8.625074	-9.270450	-21.590352
31857		8.495003	-9.311725	-20.742786
31858		8.412787	-9.343645	-19.901537
31859		8.375096	-9.370281	-19.072953
31860		8.361563	-9.411806	-18.245987
31861		8.316435	-9.469373	-17.423809
31862		8.237291	-9.536825	-16.608695
31863		8.110606	-9.589800	-15.806385
31864		7.958223	-9.613722	-15.011805
31865		7.799545	-9.595073	-14.217044
31866		7.680684	-9.558373	-13.425921
31867		7.606116	-9.523565	-12.646698
31868		7.562876	-9.485751	-11.883677
31869		7.512609	-9.456548	-11.135442
31870		7.442707	-9.446003	-10.396738
31871		7.344147	-9.442969	-9.657289
31872		7.246683	-9.443620	-8.912775
31873		7.158675	-9.434597	-8.171103
31874		7.098722	-9.422961	-7.450557
31875		7.064776	-9.422055	-6.758422
31876		7.059422	-9.435941	-6.094386
31877		7.049122	-9.459803	-5.449529
31878		7.008349	-9.474622	-4.813929
31879		6.918744	-9.472886	-4.185702
31880		6.804550	-9.465511	-3.561995
31881		6.679748	-9.464084	-2.946708
31882		6.562273	-9.479881	-2.345232
31883		6.433380	-9.495921	-1.752615
31884		6.282032	-9.487397	-1.161877
31885		6.091765	-9.429863	-0.560693
31886		5.877790	-9.327650	0.045526
31887		5.664041	-9.198989	0.652816
31888		5.463618	-9.076934	1.263341
31889		5.279946	-8.979415	1.870774
31890		5.108075	-8.912417	2.474713
31891		4.922936	-8.864329	3.073181
31892		4.742355	-8.835630	3.674274
31893		4.565571	-8.841459	4.274342
31894		4.431690	-8.900217	4.856493
31895		4.360675	-9.016535	5.413549
31896		4.368333	-9.177098	5.951295
31897		4.416881	-9.357373	6.473758
31898		4.459819	-9.528992	6.990993
31899		4.447007	-9.669827	7.510661
31900		4.355424	-9.778635	8.036224
31901		4.213251	-9.881262	8.552967
31902		4.085616	-9.996398	9.046665
31903		4.012660	-10.133222	9.516289
31904		4.016998	-10.278642	9.959000
31905		4.073468	-10.414922	10.383627
31906		4.140627	-10.537167	10.793447
31907		4.172076	-10.632992	11.197580
31908		4.133539	-10.702207	11.596065
31909		4.001605	-10.745582	11.994352
31910		3.798181	-10.782538	12.388834
31911		3.567995	-10.815089	12.781063
31912		3.361804	-10.834753	13.169012
31913		3.213522	-10.816512	13.557857
31914		3.121637	-10.778648	13.937110
31915		3.055774	-10.740719	14.317617
31916		2.979946	-10.712498	14.693498
31917		2.862928	-10.702568	15.058415
31918		2.727310	-10.730201	15.404822
31919		2.588253	-10.775619	15.729879
31920		2.473974	-10.839239	16.027634
31921		2.384169	-10.918420	16.307182
31922		2.338491	-10.985940	16.572731
31923		2.330503	-11.034560	16.826381
31924		2.356556	-11.057654	17.060713
31925		2.405685	-11.054094	17.269181
31926		2.458979	-11.050702	17.452424
31927		2.493906	-11.051778	17.614385
31928		2.494341	-11.062634	17.758256
31929		2.464889	-11.087519	17.874950
31930		2.423105	-11.112350	17.967969
31931		2.372785	-11.129836	18.030323
31932		2.319725	-11.123681	18.066586
31933		2.257274	-11.085993	18.082294
31934		2.189207	-11.032222	18.083258
31935		2.129782	-10.977458	18.072411
31936		2.095811	-10.939805	18.044452
31937		2.088142	-10.923166	17.998869
31938		2.090829	-10.919345	17.943859
31939		2.092512	-10.909437	17.888419
31940		2.083088	-10.881624	17.829178
31941		2.060912	-10.834480	17.764247
31942		2.034661	-10.781543	17.694466
31943		2.014392	-10.735434	17.622757
31944		2.007639	-10.705708	17.549990
31945		2.016458	-10.692440	17.482369
31946		2.035983	-10.688942	17.421391
31947		2.049771	-10.687570	17.374887
31948		2.046495	-10.689539	17.340499
31949		2.028768	-10.695446	17.308836
31950		1.999127	-10.702802	17.277767
31951		1.958237	-10.713789	17.249774
31952		1.911129	-10.725389	17.234810
31953		1.862529	-10.739393	17.230081
31954		1.824848	-10.761094	17.227959
31955		1.810009	-10.791597	17.223038
31956		1.811209	-10.825638	17.211374
31957		1.833890	-10.869837	17.192097
31958		1.861123	-10.918138	17.170603
31959		1.876483	-10.959701	17.149364
31960		1.861294	-10.987780	17.129758
31961		1.808534	-11.000203	17.108418
31962		1.736382	-10.999891	17.089487
31963		1.673104	-11.002010	17.069546
31964		1.641021	-11.015486	17.049376
31965		1.652012	-11.043688	17.021364
31966		1.696229	-11.085058	16.983499
31967		1.764686	-11.131262	16.940144
31968		1.839053	-11.178245	16.893032
31969		1.897299	-11.221292	16.845461
31970		1.920782	-11.260320	16.793843
31971		1.924917	-11.279348	16.741492
31972		1.926000	-11.275113	16.679160
31973		1.946548	-11.251536	16.607801
31974		1.992267	-11.216642	16.534301
31975		2.074611	-11.186648	16.456617
31976		2.184267	-11.173025	16.377597
31977		2.316531	-11.176728	16.292511
31978		2.454026	-11.188360	16.194606
31979		2.577453	-11.208314	16.075514
31980		2.674919	-11.222196	15.934523
31981		2.744654	-11.232479	15.775601
31982		2.797336	-11.225546	15.602611
31983		2.842645	-11.198091	15.418327
31984		2.886777	-11.164157	15.231641
31985		2.929933	-11.145502	15.044006
31986		2.975428	-11.155639	14.859712
31987		3.035347	-11.214899	14.674514
31988		3.079972	-11.322452	14.501391
31989		3.126665	-11.468750	14.317100
31990		3.181744	-11.651369	14.103403
31991		3.226563	-11.872040	13.883235
31992		3.266622	-12.085690	13.641190
31993		3.321970	-12.281885	13.376952
31994		3.400283	-12.460676	13.101863
31995		3.511129	-12.613179	12.820036
31996		3.631254	-12.730984	12.530097
31997		3.754988	-12.824848	12.229463
31998		3.859959	-12.891229	11.902096
31999		3.929485	-12.937488	11.540387
32000		3.977664	-12.959302	11.143173
32001		4.034198	-12.958877	10.715652
32002		4.104888	-12.947383	10.267542
32003		4.208413	-12.934792	9.810989
32004		4.311317	-12.915351	9.337190
32005		4.411157	-12.874922	8.846636
32006		4.498160	-12.811573	8.336965
32007		4.577892	-12.723452	7.806759
32008		4.633804	-12.612778	7.256572
32009		4.677646	-12.491579	6.683720
32010		4.712739	-12.361838	6.092420
32011		4.753008	-12.232714	5.487695
32012		4.807594	-12.110622	4.874394
32013		4.890234	-12.007842	4.248298
32014		4.979733	-11.922422	3.618103
32015		5.085640	-11.854452	2.973789
32016		5.186399	-11.791306	2.315746
32017		5.277196	-11.729905	1.641561
32018		5.337573	-11.664587	0.960399
32019		5.385591	-11.593049	0.270410
32020		5.430358	-11.520791	-0.422185
32021		5.498478	-11.450129	-1.117374
32022		5.587269	-11.375885	-1.815451
32023		5.713307	-11.311504	-2.517631
32024		5.852798	-11.258355	-3.225594
32025		6.003135	-11.222104	-3.949318
32026		6.138450	-11.192407	-4.697808
32027		6.251017	-11.161455	-5.477083
32028		6.326870	-11.111261	-6.267634
32029		6.395387	-11.031983	-7.068171
32030		6.451330	-10.929075	-7.863044
32031		6.519670	-10.817254	-8.652420
32032		6.592383	-10.700448	-9.433589
32033		6.685830	-10.587506	-10.212586
32034		6.791118	-10.486289	-10.991906
32035		6.935037	-10.410212	-11.777843
32036		7.109317	-10.364955	-12.572687
32037		7.306329	-10.361088	-13.380400
32038		7.493044	-10.388944	-14.207474
32039		7.650817	-10.432306	-15.049658
32040		7.756971	-10.463376	-15.893908
32041		7.827385	-10.464005	-16.732751
32042		7.864441	-10.415599	-17.557463
32043		7.897085	-10.327880	-18.364587
32044		7.931756	-10.211591	-19.152065
32045		7.988472	-10.090520	-19.933456
32046		8.050721	-9.971060	-20.723157
32047		8.124880	-9.876266	-21.529884
32048		8.195055	-9.807207	-22.351607
32049		8.272400	-9.765756	-23.187249
32050		8.346989	-9.737857	-24.030564
32051		8.423197	-9.713297	-24.878400
32052		8.479235	-9.678902	-25.722699
32053		8.529157	-9.635387	-26.560490
32054		8.571835	-9.586482	-27.386061
32055		8.633317	-9.552481	-28.208214
32056		8.707465	-9.531952	-29.026045
32057		8.786473	-9.523143	-29.836093
32058		8.843955	-9.516024	-30.640610
32059		8.871744	-9.516728	-31.444911
32060		8.858119	-9.523295	-32.254656
32061		8.809656	-9.533383	-33.061283
32062		8.708231	-9.528994	-33.850948
32063		8.552428	-9.499974	-34.614057
32064		8.330750	-9.438433	-35.349987
32065		8.081763	-9.363002	-36.075537
32066		7.827070	-9.288580	-36.804325
32067		7.616345	-9.230883	-37.555780
32068		7.440620	-9.190238	-38.330079
32069		7.275176	-9.170669	-39.130561
32070		7.066170	-9.153899	-39.944786
32071		6.809701	-9.135800	-40.760678
32072		6.507480	-9.110370	-41.564650
32073		6.212915	-9.070636	-42.356045
32074		5.952541	-9.015678	-43.128448
32075		5.740450	-8.964535	-43.886043
32076		5.576168	-8.932634	-44.642609
32077		5.456128	-8.939768	-45.400171
32078		5.356972	-8.984418	-46.158313
32079		5.276565	-9.063283	-46.920612
32080		5.192897	-9.159216	-47.687757
32081		5.116468	-9.264116	-48.458803
32082		5.049005	-9.362726	-49.227416
32083		5.017878	-9.453379	-49.989558
32084		5.005273	-9.532844	-50.731224
32085		5.025989	-9.603425	-51.458202
32086		5.069231	-9.664140	-52.172411
32087		5.142213	-9.726750	-52.878792
32088		5.227364	-9.798874	-53.578829
32089		5.330103	-9.900368	-54.278652
32090		5.420444	-10.011864	-54.979129
32091		5.479157	-10.114423	-55.676594
32092		5.493054	-10.186735	-56.371213
32093		5.476112	-10.222993	-57.063700
32094		5.444566	-10.233891	-57.757312
32095		5.427398	-10.247639	-58.449495
32096		5.426252	-10.277243	-59.137344
32097		5.439482	-10.327882	-59.812850
32098		5.446507	-10.383282	-60.476765
32099		5.443959	-10.435088	-61.126469
32100		5.412476	-10.466455	-61.760749
32101		5.394998	-10.481030	-62.386838
32102		5.419455	-10.495401	-63.007327
32103		5.500174	-10.535657	-63.625850
32104		5.619888	-10.604327	-64.243516
32105		5.740904	-10.700838	-64.850282
32106		5.828105	-10.798458	-65.434979
32107		5.884874	-10.881690	-65.984880
32108		5.911828	-10.925352	-66.488486
32109		5.929356	-10.941940	-66.944916
32110		5.960679	-10.929159	-67.371465
32111		6.015656	-10.916722	-67.781750
32112		6.081065	-10.921919	-68.181293
32113		6.154527	-10.948347	-68.564476
32114		6.229312	-10.979547	-68.925075
32115		6.303679	-11.004051	-69.256374
32116		6.376651	-11.014505	-69.559979
32117		6.448866	-11.011888	-69.843785
32118		6.518854	-11.002826	-70.107328
32119		6.578643	-10.989050	-70.351841
32120		6.617102	-10.959191	-70.571885
32121		6.635447	-10.912618	-70.763172
32122		6.637216	-10.842624	-70.931403
32123		6.636180	-10.756477	-71.078036
32124		6.648480	-10.659078	-71.214910
32125		6.673157	-10.577676	-71.343694
32126		6.711394	-10.520848	-71.462176
32127		6.758752	-10.498553	-71.565875
32128		6.801227	-10.506237	-71.654047
32129		6.813317	-10.517789	-71.723101
32130		6.787281	-10.510820	-71.775175
32131		6.722675	-10.480352	-71.817474
32132		6.647961	-10.439026	-71.858387
32133		6.584959	-10.398813	-71.894852
32134		6.556626	-10.362807	-71.925459
32135		6.563042	-10.329375	-71.944449
32136		6.588981	-10.293373	-71.949162
32137		6.607631	-10.254998	-71.932074
32138		6.602172	-10.215929	-71.893139
32139		6.567880	-10.187632	-71.831529
32140		6.536515	-10.166625	-71.754907
32141		6.521242	-10.158993	-71.664257
32142		6.546906	-10.155634	-71.562488
32143		6.602157	-10.148511	-71.445142
32144		6.667935	-10.127238	-71.317565
32145		6.715489	-10.089925	-71.180904
32146		6.726010	-10.036467	-71.033611
32147		6.692407	-9.962535	-70.862480
32148		6.638716	-9.867244	-70.668469
32149		6.579548	-9.755790	-70.447955
32150		6.539273	-9.640188	-70.206467
32151		6.516803	-9.529319	-69.944018
32152		6.510072	-9.448051	-69.671272
32153		6.511872	-9.397770	-69.371424
32154		6.519492	-9.372063	-69.044821
32155		6.526050	-9.357546	-68.692937
32156		6.519050	-9.338958	-68.313842
32157		6.481615	-9.296422	-67.901966
32158		6.431788	-9.224822	-67.458815
32159		6.360842	-9.130608	-66.981712
32160		6.300616	-9.032165	-66.477089
32161		6.247720	-8.943596	-65.946449
32162		6.234626	-8.880999	-65.397144
32163		6.258478	-8.858830	-64.834816
32164		6.325564	-8.879851	-64.260761
32165		6.430755	-8.927736	-63.678658
32166		6.529280	-8.990056	-63.081870
32167		6.563201	-9.043908	-62.469352
32168		6.550053	-9.082052	-61.843059
32169		6.501006	-9.098005	-61.199233
32170		6.475934	-9.102522	-60.538032
32171		6.511049	-9.110653	-59.868602
32172		6.634398	-9.140584	-59.194919
32173		6.803542	-9.186050	-58.513398
32174		6.986212	-9.240381	-57.823657
32175		7.126313	-9.292037	-57.124012
32176		7.225288	-9.340980	-56.418039
32177		7.290981	-9.379654	-55.702846
32178		7.363572	-9.408116	-54.980990
32179		7.458432	-9.431643	-54.247838
32180		7.605307	-9.462968	-53.502315
32181		7.777332	-9.497966	-52.735310
32182		7.967931	-9.537393	-51.956193
32183		8.144899	-9.582766	-51.169220
32184		8.301342	-9.639062	-50.377575
32185		8.429578	-9.701214	-49.575797
32186		8.558428	-9.769896	-48.765514
32187		8.682310	-9.839683	-47.943797
32188		8.829397	-9.910363	-47.116805
32189		8.972338	-9.965357	-46.278267
32190		9.110839	-10.000157	-45.422652
32191		9.228477	-9.998772	-44.539381
32192		9.334558	-9.959232	-43.630739
32193		9.417848	-9.892151	-42.701266
32194		9.501862	-9.819524	-41.766350
32195		9.562519	-9.757416	-40.831800
32196		9.603422	-9.707418	-39.897585
32197		9.585546	-9.655148	-38.951211
32198		9.485653	-9.572643	-37.984261
32199		9.279057	-9.429487	-36.986575
32200		8.987442	-9.222423	-35.971573
32201		8.656297	-8.963724	-34.944249
32202		8.342662	-8.690278	-33.917709
32203		8.070584	-8.437831	-32.891001
32204		7.870092	-8.233608	-31.863748
32205		7.760881	-8.106332	-30.846682
32206		7.730984	-8.070442	-29.834030
32207		7.695801	-8.087023	-28.812999
32208		7.624948	-8.125003	-27.788669
32209		7.481452	-8.145682	-26.760800
32210		7.281108	-8.133883	-25.733072
32211		7.060310	-8.095823	-24.707220
32212		6.874982	-8.064627	-23.695165
32213		6.739705	-8.054678	-22.704742
32214		6.705795	-8.072554	-21.740100
32215		6.762549	-8.130419	-20.796172
32216		6.866866	-8.220193	-19.865009
32217		6.937190	-8.324823	-18.947694
32218		6.944873	-8.431409	-18.041861
32219		6.861643	-8.522375	-17.143686
32220		6.742892	-8.592194	-16.256737
32221		6.622712	-8.639315	-15.371710
32222		6.561157	-8.671151	-14.496037
32223		6.562113	-8.707279	-13.645870
32224		6.633756	-8.769990	-12.830158
32225		6.732697	-8.865358	-12.043790
32226		6.842525	-8.993179	-11.279936
32227		6.908481	-9.122376	-10.525050
32228		6.917206	-9.243007	-9.774333
32229		6.847673	-9.321258	-9.017399
32230		6.726028	-9.352842	-8.262930
32231		6.572721	-9.347735	-7.518280
32232		6.447277	-9.329849	-6.801705
32233		6.383620	-9.324675	-6.114842
32234		6.410016	-9.351269	-5.456325
32235		6.491505	-9.409443	-4.816253
32236		6.571522	-9.487789	-4.193056
32237		6.586655	-9.569151	-3.578982
32238		6.525834	-9.637951	-2.973608
32239		6.398753	-9.682330	-2.367232
32240		6.264462	-9.709967	-1.762855
32241		6.162839	-9.732331	-1.163050
32242		6.123886	-9.763273	-0.569073
32243		6.124151	-9.806643	0.022762
32244		6.129476	-9.852499	0.609171
32245		6.113469	-9.901970	1.186777
32246		6.089551	-9.962926	1.752954
32247		6.063313	-10.034152	2.314468
32248		6.056186	-10.122680	2.871144
32249		6.054139	-10.216846	3.428546
32250		6.046268	-10.304037	3.984105
32251		6.010710	-10.370872	4.538668
32252		5.954344	-10.417200	5.093722
32253		5.890445	-10.457566	5.643601
32254		5.827362	-10.509576	6.181420
32255		5.761023	-10.564173	6.708821
32256		5.683647	-10.619412	7.232380
32257		5.563547	-10.660824	7.760948
32258		5.402425	-10.674620	8.297505
32259		5.201121	-10.662137	8.838422
32260		4.977408	-10.632054	9.369705
32261		4.734959	-10.582180	9.883668
32262		4.478987	-10.495920	10.376447
32263		4.217801	-10.378780	10.846384
32264		3.969860	-10.245773	11.286766
32265		3.736076	-10.113355	11.695223
32266		3.511655	-10.001180	12.076705
32267		3.293030	-9.918717	12.431775
32268		3.082774	-9.871782	12.768274
32269		2.864270	-9.845468	13.099851
32270		2.683190	-9.814907	13.427219
32271		2.562738	-9.795649	13.752975
32272		2.532147	-9.803029	14.081228
32273		2.569711	-9.841274	14.413409
32274		2.654226	-9.910454	14.740019
32275		2.702121	-10.002858	15.059371
32276		2.703101	-10.097544	15.363783
32277		2.620814	-10.175698	15.660345
32278		2.473415	-10.205536	15.954363
32279		2.294048	-10.183239	16.243938
32280		2.136011	-10.141616	16.525067
32281		2.039464	-10.122023	16.789906
32282		2.026317	-10.132990	17.036674
32283		2.069961	-10.160754	17.267897
32284		2.109400	-10.191006	17.493621
32285		2.113416	-10.215757	17.712310
32286		2.067864	-10.227138	17.920077
32287		1.990126	-10.227789	18.112084
32288		1.918948	-10.217116	18.291109
32289		1.879167	-10.194820	18.460373
32290		1.872941	-10.170229	18.622133
32291		1.889621	-10.161702	18.774041
32292		1.923393	-10.170175	18.913972
32293		1.954011	-10.196583	19.036651
32294		1.969071	-10.226365	19.140234
32295		1.959210	-10.254858	19.221557
32296		1.927146	-10.277515	19.278790
32297		1.892970	-10.284982	19.317564
32298		1.869158	-10.279815	19.344652
32299		1.869486	-10.274476	19.360649
32300		1.900142	-10.281187	19.374013
32301		1.955791	-10.308104	19.381107
32302		2.016194	-10.334416	19.384651
32303		2.050437	-10.358970	19.389382
32304		2.040336	-10.363678	19.401447
32305		1.995460	-10.356949	19.419931
32306		1.939751	-10.353605	19.439566
32307		1.899762	-10.368536	19.452077
32308		1.883451	-10.402338	19.451341
32309		1.886474	-10.447580	19.429861
32310		1.886854	-10.489883	19.396607
32311		1.871642	-10.522413	19.359325
32312		1.834368	-10.534104	19.319184
32313		1.793451	-10.527158	19.275612
32314		1.769940	-10.505580	19.224462
32315		1.778208	-10.481466	19.165131
32316		1.809241	-10.471661	19.100213
32317		1.847549	-10.466225	19.031526
32318		1.874821	-10.466047	18.968082
32319		1.880049	-10.454823	18.911633
32320		1.862405	-10.429014	18.861422
32321		1.835524	-10.402891	18.808350
32322		1.809346	-10.375983	18.748950
32323		1.801534	-10.350325	18.676378
32324		1.815125	-10.319188	18.597690
32325		1.851093	-10.285892	18.517484
32326		1.901146	-10.252519	18.441291
32327		1.970817	-10.228804	18.375279
32328		2.045174	-10.221796	18.312662
32329		2.111167	-10.229206	18.249543
32330		2.155167	-10.239885	18.190016
32331		2.174891	-10.250219	18.129543
32332		2.163273	-10.241610	18.077157
32333		2.129793	-10.210623	18.032195
32334		2.092273	-10.157500	17.991772
32335		2.077182	-10.100820	17.946921
32336		2.104875	-10.065421	17.888746
32337		2.187215	-10.067269	17.816152
32338		2.311809	-10.103139	17.732733
32339		2.448717	-10.155488	17.640975
32340		2.566926	-10.200856	17.539640
32341		2.640994	-10.224955	17.430629
32342		2.683600	-10.221269	17.311255
32343		2.717299	-10.198147	17.183198
32344		2.763454	-10.170694	17.054690
32345		2.836449	-10.154724	16.920198
32346		2.929897	-10.149631	16.779546
32347		3.038656	-10.152166	16.628259
32348		3.155632	-10.155406	16.458277
32349		3.270138	-10.156882	16.265740
32350		3.365568	-10.156407	16.043040
32351		3.437596	-10.156078	15.791484
32352		3.487039	-10.152612	15.512796
32353		3.532166	-10.152532	15.213158
32354		3.585233	-10.149990	14.895847
32355		3.661320	-10.153638	14.564151
32356		3.756150	-10.152334	14.213534
32357		3.874114	-10.156871	13.842539
32358		3.992692	-10.162628	13.445874
32359		4.107924	-10.168012	13.026526
32360		4.197645	-10.165969	12.585874
32361		4.267469	-10.151833	12.120424
32362		4.309938	-10.119135	11.629677
32363		4.346278	-10.074754	11.104841
32364		4.396015	-10.032355	10.553775
32365		4.495488	-10.015964	9.973775
32366		4.648615	-10.023235	9.369025
32367		4.847137	-10.061440	8.746252
32368		5.051554	-10.130500	8.104439
32369		5.253107	-10.213928	7.450520
32370		5.411073	-10.281638	6.790070
32371		5.545357	-10.330391	6.121311
32372		5.650442	-10.342075	5.441665
32373		5.751779	-10.319292	4.744908
32374		5.853932	-10.266956	4.029555
32375		5.982412	-10.206334	3.293964
32376		6.136333	-10.140275	2.547813
32377		6.316389	-10.078238	1.790692
32378		6.488248	-10.021957	1.022010
32379		6.640648	-9.967414	0.239951
32380		6.745521	-9.907659	-0.556465
32381		6.821955	-9.834424	-1.365883
32382		6.875112	-9.742330	-2.192195
32383		6.931119	-9.636101	-3.040017
32384		6.962208	-9.524873	-3.904400
32385		6.961521	-9.426316	-4.785477
32386		6.908821	-9.333126	-5.675504
32387		6.842103	-9.250069	-6.566735
32388		6.776362	-9.162283	-7.459943
32389		6.738503	-9.067262	-8.352701
32390		6.749236	-8.961386	-9.249914
32391		6.814300	-8.856540	-10.153342
32392		6.879375	-8.753922	-11.058693
32393		6.943468	-8.664502	-11.965153
32394		6.975322	-8.583748	-12.861426
32395		6.985412	-8.516038	-13.751333
32396		6.969420	-8.452616	-14.632154
32397		6.943850	-8.387081	-15.508311
32398		6.911254	-8.324904	-16.386049
32399		6.896782	-8.275038	-17.264837
32400		6.906430	-8.244419	-18.135338
32401		6.966481	-8.248586	-19.002403
32402		7.056430	-8.273515	-19.864518
32403		7.165809	-8.312575	-20.719823
32404		7.269617	-8.340665	-21.570078
32405		7.362344	-8.355159	-22.411429
32406		7.434021	-8.353708	-23.246724
32407		7.488099	-8.342283	-24.070730
32408		7.516645	-8.309854	-24.885844
32409		7.533853	-8.277443	-25.689621
32410		7.563021	-8.261570	-26.487996
32411		7.630659	-8.281619	-27.289949
32412		7.709074	-8.352493	-28.093425
32413		7.812221	-8.462572	-28.908912
32414		7.898570	-8.579459	-29.725940
32415		7.954864	-8.689712	-30.551221
32416		7.954767	-8.767058	-31.384634
32417		7.910868	-8.815448	-32.216920
32418		7.843834	-8.802751	-33.051131
32419		7.735284	-8.759140	-33.898352
32420		7.600636	-8.698730	-34.755161
32421		7.489867	-8.623066	-35.624216
32422		7.402989	-8.542268	-36.495447
32423		7.340328	-8.479744	-37.363661
32424		7.288563	-8.448040	-38.236569
32425		7.245733	-8.456823	-39.118460
32426		7.176292	-8.488409	-40.008554
32427		7.085260	-8.524100	-40.896151
32428		6.955069	-8.542719	-41.766632
32429		6.803815	-8.531696	-42.618942
32430		6.632719	-8.495607	-43.449227
32431		6.461837	-8.445917	-44.258485
32432		6.281833	-8.383330	-45.052608
32433		6.104612	-8.315581	-45.832089
32434		5.934419	-8.249396	-46.598208
32435		5.797498	-8.197916	-47.360234
32436		5.683220	-8.173496	-48.113191
32437		5.601651	-8.176432	-48.863658
32438		5.543526	-8.189917	-49.613134
32439		5.505829	-8.210332	-50.363289
32440		5.465674	-8.214841	-51.108085
32441		5.421409	-8.193669	-51.844438
32442		5.355888	-8.150828	-52.576897
32443		5.292030	-8.105023	-53.305748
32444		5.227987	-8.062390	-54.037356
32445		5.187227	-8.023495	-54.764538
32446		5.155393	-7.970368	-55.485917
32447		5.114442	-7.895427	-56.200367
32448		5.032121	-7.793405	-56.910949
32449		4.936337	-7.673609	-57.632136
32450		4.855780	-7.544986	-58.356157
32451		4.849175	-7.413953	-59.083435
32452		4.905352	-7.283859	-59.795847
32453		5.006192	-7.156046	-60.490736
32454		5.122464	-7.025760	-61.176937
32455		5.226210	-6.907729	-61.852909
32456		5.299215	-6.796844	-62.520041
32457		5.354848	-6.700240	-63.180264
32458		5.393592	-6.614464	-63.826058
32459		5.436509	-6.531821	-64.460062
32460		5.503586	-6.450097	-65.077926
32461		5.600834	-6.379196	-65.686171
32462		5.715613	-6.316753	-66.285051
32463		5.840161	-6.263820	-66.873755
32464		5.956179	-6.210507	-67.445835
32465		6.067033	-6.152311	-67.999548
32466		6.161855	-6.086028	-68.530747
32467		6.239132	-6.016827	-69.039915
32468		6.276464	-5.945670	-69.524386
32469		6.280683	-5.879969	-69.984116
32470		6.258946	-5.816255	-70.428303
32471		6.241925	-5.761317	-70.853956
32472		6.260100	-5.710798	-71.261722
32473		6.333694	-5.674391	-71.650865
32474		6.454002	-5.656318	-72.022910
32475		6.595300	-5.663015	-72.377856
32476		6.731676	-5.688837	-72.706998
32477		6.858359	-5.724879	-73.005042
32478		6.967807	-5.753465	-73.273930
32479		7.071881	-5.772784	-73.515220
32480		7.170893	-5.780908	-73.733708
32481		7.269227	-5.784083	-73.940155
32482		7.347032	-5.782707	-74.143484
32483		7.407815	-5.780278	-74.327637
32484		7.443991	-5.769954	-74.496667
32485		7.446483	-5.764252	-74.640541
32486		7.437813	-5.751700	-74.761480
32487		7.439101	-5.736688	-74.861075
32488		7.460467	-5.720312	-74.947987
32489		7.503367	-5.705538	-75.024069
32490		7.568452	-5.688063	-75.089989
32491		7.642462	-5.664106	-75.141807
32492		7.722904	-5.640334	-75.181247
32493		7.792219	-5.618108	-75.210279
32494		7.840816	-5.597948	-75.228967
32495		7.862865	-5.576825	-75.239036
