// General information: 
//  MT Manager version: 2022.2.0 
//  XDA version: 2022.2.0 build 7381 rev 124627 built on 2023-07-19
// Device information: 
//  DeviceId: 00B44877
//  ProductCode: MTW2-3A7G6
//  Firmware Version: 4.3.5
//  Hardware Version: 2.0.0
// Device settings: 
//  Filter Profile: human(46.1)
//  Option Flags: Orientation Smoother Disabled, Position/Velocity Smoother Disabled, Continuous Zero Rotation Update Disabled, AHS Disabled, ICC Disabled
// Coordinate system: ENU
PacketCounter	SampleTimeFine	Roll	Pitch	Yaw
29254		-9.361124	-27.321365	-0.592472
29255		-9.355161	-27.307591	-0.596919
29256		-9.360898	-27.290896	-0.597226
29257		-9.373868	-27.271349	-0.595904
29258		-9.384040	-27.257159	-0.596868
29259		-9.391353	-27.243751	-0.596610
29260		-9.402654	-27.231402	-0.596893
29261		-9.415520	-27.211687	-0.595381
29262		-9.428595	-27.191487	-0.593617
29263		-9.439379	-27.163229	-0.591073
29264		-9.456904	-27.134063	-0.589897
29265		-9.473988	-27.106067	-0.590563
29266		-9.487392	-27.083362	-0.592251
29267		-9.478069	-27.057734	-0.599694
29268		-9.467660	-27.031466	-0.614984
29269		-9.452071	-27.010059	-0.629794
29270		-9.432503	-26.989125	-0.647023
29271		-9.414174	-26.971174	-0.661507
29272		-9.394412	-26.955249	-0.672454
29273		-9.372060	-26.937028	-0.683594
29274		-9.345158	-26.917567	-0.698237
29275		-9.320952	-26.902452	-0.714612
29276		-9.285460	-26.891173	-0.735434
29277		-9.246589	-26.878461	-0.754002
29278		-9.208343	-26.870568	-0.771615
29279		-9.169911	-26.862511	-0.789604
29280		-9.136432	-26.855870	-0.805225
29281		-9.104451	-26.847402	-0.818385
29282		-9.077981	-26.836583	-0.830004
29283		-9.057205	-26.825776	-0.843170
29284		-9.037660	-26.820187	-0.857943
29285		-9.014681	-26.810273	-0.876932
29286		-8.993309	-26.799298	-0.895503
29287		-8.976525	-26.782740	-0.915920
29288		-8.961475	-26.766039	-0.938223
29289		-8.948446	-26.748116	-0.960905
29290		-8.945093	-26.728797	-0.983718
29291		-8.945927	-26.708265	-1.009199
29292		-8.946067	-26.693049	-1.029620
29293		-8.944112	-26.677192	-1.056260
29294		-8.953297	-26.667134	-1.087418
29295		-8.947833	-26.660658	-1.123766
29296		-8.942812	-26.659433	-1.164190
29297		-8.936554	-26.657307	-1.207998
29298		-8.931256	-26.656875	-1.256203
29299		-8.923688	-26.657849	-1.305796
29300		-8.921707	-26.654872	-1.356829
29301		-8.922128	-26.649646	-1.407736
29302		-8.924127	-26.640800	-1.457208
29303		-8.935420	-26.634512	-1.504595
29304		-8.943816	-26.627646	-1.558117
29305		-8.957072	-26.624580	-1.612417
29306		-8.971086	-26.624719	-1.663184
29307		-8.986105	-26.625522	-1.714224
29308		-9.006333	-26.626348	-1.765780
29309		-9.026323	-26.628726	-1.816990
29310		-9.052108	-26.624800	-1.867866
29311		-9.087375	-26.616156	-1.920762
29312		-9.118193	-26.605251	-1.977338
29313		-9.152889	-26.593914	-2.036504
29314		-9.192786	-26.584768	-2.098815
29315		-9.235183	-26.575831	-2.168384
29316		-9.270598	-26.570666	-2.242770
29317		-9.309494	-26.562517	-2.325416
29318		-9.345127	-26.554961	-2.409600
29319		-9.395179	-26.549612	-2.492886
29320		-9.446680	-26.552135	-2.578060
29321		-9.502153	-26.542225	-2.666264
29322		-9.566011	-26.529421	-2.758394
29323		-9.628965	-26.511244	-2.852869
29324		-9.679947	-26.502365	-2.959307
29325		-9.730366	-26.490043	-3.073340
29326		-9.771428	-26.467437	-3.199839
29327		-9.820092	-26.438476	-3.330960
29328		-9.857817	-26.417883	-3.475329
29329		-9.896285	-26.400613	-3.629131
29330		-9.928724	-26.384260	-3.786144
29331		-9.964305	-26.363183	-3.941863
29332		-10.001585	-26.333405	-4.095224
29333		-10.046942	-26.295409	-4.245455
29334		-10.098895	-26.246250	-4.394747
29335		-10.146858	-26.205233	-4.551539
29336		-10.197894	-26.171370	-4.722791
29337		-10.236898	-26.136416	-4.905049
29338		-10.267570	-26.102648	-5.088299
29339		-10.302477	-26.068147	-5.268952
29340		-10.341394	-26.026962	-5.450703
29341		-10.386586	-25.973987	-5.629175
29342		-10.430309	-25.924022	-5.806137
29343		-10.474303	-25.863267	-5.984435
29344		-10.524972	-25.798910	-6.163195
29345		-10.589203	-25.734835	-6.339450
29346		-10.652387	-25.677441	-6.518297
29347		-10.705917	-25.629100	-6.700297
29348		-10.756911	-25.576047	-6.877243
29349		-10.807204	-25.511905	-7.084397
29350		-10.863195	-25.429752	-7.304151
29351		-10.930230	-25.335974	-7.523130
29352		-11.002519	-25.245500	-7.739396
29353		-11.062439	-25.171009	-7.963209
29354		-11.104809	-25.124094	-8.196068
29355		-11.143528	-25.100227	-8.439737
29356		-11.170093	-25.079719	-8.693370
29357		-11.201432	-25.066282	-8.952082
29358		-11.222294	-25.055630	-9.222139
29359		-11.246892	-25.036980	-9.499177
29360		-11.259659	-25.015725	-9.782928
29361		-11.256259	-24.984199	-10.075803
29362		-11.229890	-24.943059	-10.382554
29363		-11.193346	-24.878697	-10.690317
29364		-11.164601	-24.799854	-10.997248
29365		-11.137184	-24.688090	-11.293550
29366		-11.112671	-24.575130	-11.598512
29367		-11.112300	-24.457853	-11.908259
29368		-11.101762	-24.322488	-12.227724
29369		-11.079422	-24.170324	-12.552065
29370		-11.061065	-24.024428	-12.876446
29371		-11.051312	-23.871749	-13.200936
29372		-11.048292	-23.690710	-13.526111
29373		-11.048125	-23.513005	-13.851697
29374		-11.067241	-23.358409	-14.179050
29375		-11.083909	-23.210375	-14.511918
29376		-11.103546	-23.033741	-14.854082
29377		-11.132523	-22.841610	-15.199021
29378		-11.176752	-22.616954	-15.541128
29379		-11.251020	-22.339399	-15.880235
29380		-11.320997	-22.067819	-16.215860
29381		-11.357367	-21.850507	-16.538963
29382		-11.380666	-21.720592	-16.856184
29383		-11.404223	-21.606002	-17.190522
29384		-11.417334	-21.477618	-17.551101
29385		-11.441439	-21.346007	-17.919446
29386		-11.480770	-21.190117	-18.284125
29387		-11.542392	-20.981740	-18.640907
29388		-11.606801	-20.777334	-18.985631
29389		-11.635124	-20.662844	-19.318410
29390		-11.655152	-20.624665	-19.654747
29391		-11.637971	-20.580905	-20.016755
29392		-11.601770	-20.520696	-20.390576
29393		-11.597839	-20.443618	-20.760164
29394		-11.605137	-20.334134	-21.124110
29395		-11.623476	-20.188368	-21.481097
29396		-11.691649	-20.027473	-21.837663
29397		-11.719127	-19.906932	-22.186930
29398		-11.740059	-19.806341	-22.533193
29399		-11.761706	-19.733772	-22.887645
29400		-11.763898	-19.688286	-23.241404
29401		-11.770818	-19.596231	-23.604213
29402		-11.792678	-19.455942	-23.968925
29403		-11.879453	-19.259672	-24.335789
29404		-11.988920	-19.014249	-24.707447
29405		-12.095239	-18.758917	-25.080540
29406		-12.202917	-18.521765	-25.441797
29407		-12.305991	-18.294709	-25.799900
29408		-12.417760	-18.112209	-26.148990
29409		-12.509969	-17.971230	-26.500176
29410		-12.559922	-17.840155	-26.860096
29411		-12.626064	-17.723626	-27.211615
29412		-12.694702	-17.621473	-27.564407
29413		-12.709963	-17.571364	-27.912483
29414		-12.717081	-17.525302	-28.264476
29415		-12.721911	-17.446930	-28.618868
29416		-12.761510	-17.325643	-28.971550
29417		-12.832106	-17.167003	-29.325320
29418		-12.891109	-17.014645	-29.673152
29419		-12.942197	-16.878877	-30.020292
29420		-12.949932	-16.786886	-30.362233
29421		-12.936238	-16.687634	-30.714173
29422		-12.892156	-16.598346	-31.073121
29423		-12.827821	-16.547775	-31.426580
29424		-12.760479	-16.506540	-31.777404
29425		-12.704520	-16.430001	-32.123250
29426		-12.670177	-16.332825	-32.457697
29427		-12.659334	-16.222220	-32.785477
29428		-12.664231	-16.094268	-33.113522
29429		-12.659048	-15.995700	-33.447451
29430		-12.620428	-15.936568	-33.776837
29431		-12.581862	-15.906511	-34.099975
29432		-12.550931	-15.856352	-34.419864
29433		-12.534073	-15.787512	-34.737251
29434		-12.544848	-15.690738	-35.050701
29435		-12.573191	-15.581413	-35.358008
29436		-12.611645	-15.469047	-35.661398
29437		-12.670529	-15.347273	-35.958119
29438		-12.757392	-15.213240	-36.253377
29439		-12.879671	-15.062244	-36.543772
29440		-13.023044	-14.902355	-36.829646
29441		-13.170112	-14.747485	-37.112555
29442		-13.298933	-14.624010	-37.396610
29443		-13.383943	-14.545278	-37.671426
29444		-13.437738	-14.507106	-37.949549
29445		-13.491431	-14.489015	-38.221775
29446		-13.546241	-14.472964	-38.492581
29447		-13.607051	-14.443371	-38.762252
29448		-13.676911	-14.415120	-39.022544
29449		-13.762101	-14.374829	-39.279779
29450		-13.869919	-14.310798	-39.538598
29451		-13.938336	-14.264520	-39.814200
29452		-13.964658	-14.255019	-40.096524
29453		-13.986731	-14.277480	-40.372649
29454		-13.977645	-14.284820	-40.662156
29455		-13.991894	-14.270161	-40.950398
29456		-14.035049	-14.241773	-41.234585
29457		-14.085590	-14.211668	-41.515242
29458		-14.116135	-14.185650	-41.791787
29459		-14.143824	-14.160850	-42.064088
29460		-14.166921	-14.133043	-42.335946
29461		-14.190783	-14.106914	-42.609762
29462		-14.205634	-14.094492	-42.875712
29463		-14.220981	-14.083569	-43.141787
29464		-14.228488	-14.102760	-43.396894
29465		-14.223027	-14.130071	-43.641398
29466		-14.206596	-14.162683	-43.885148
29467		-14.186261	-14.206796	-44.125855
29468		-14.159492	-14.248566	-44.362263
29469		-14.150004	-14.284837	-44.596021
29470		-14.146199	-14.334964	-44.823374
29471		-14.152786	-14.384823	-45.049519
29472		-14.168376	-14.418086	-45.281783
29473		-14.187196	-14.450453	-45.516997
29474		-14.198705	-14.484376	-45.755716
29475		-14.220998	-14.507229	-46.003026
29476		-14.229405	-14.537470	-46.253896
29477		-14.221284	-14.581643	-46.496758
29478		-14.210316	-14.617916	-46.743025
29479		-14.207516	-14.655081	-46.984774
29480		-14.205281	-14.696366	-47.223014
29481		-14.212304	-14.741995	-47.455585
29482		-14.230194	-14.790393	-47.685103
29483		-14.229361	-14.834590	-47.914994
29484		-14.234892	-14.879541	-48.139730
29485		-14.226320	-14.929386	-48.365349
29486		-14.211345	-14.995686	-48.580943
29487		-14.197596	-15.065938	-48.787408
29488		-14.193317	-15.134975	-48.985053
29489		-14.187066	-15.207597	-49.176287
29490		-14.185685	-15.275629	-49.365095
29491		-14.183206	-15.334860	-49.556167
29492		-14.164196	-15.409177	-49.744917
29493		-14.135938	-15.482175	-49.928877
29494		-14.115680	-15.522122	-50.118562
29495		-14.105037	-15.558448	-50.302970
29496		-14.094254	-15.591886	-50.482950
29497		-14.089209	-15.612656	-50.657712
29498		-14.096775	-15.625387	-50.826918
29499		-14.113323	-15.632173	-50.988582
29500		-14.129969	-15.640480	-51.140086
29501		-14.152390	-15.641892	-51.281738
29502		-14.174330	-15.636770	-51.415592
29503		-14.196606	-15.629973	-51.536552
29504		-14.207523	-15.611769	-51.648210
29505		-14.220563	-15.588453	-51.749935
29506		-14.242075	-15.561174	-51.843158
29507		-14.273679	-15.541709	-51.919322
29508		-14.287812	-15.534373	-51.985853
29509		-14.305637	-15.520975	-52.046364
29510		-14.318625	-15.510299	-52.101846
29511		-14.317407	-15.508725	-52.150604
29512		-14.307203	-15.509993	-52.190620
29513		-14.301611	-15.505987	-52.220631
29514		-14.300785	-15.504033	-52.236374
29515		-14.300179	-15.502167	-52.242224
29516		-14.296231	-15.501522	-52.241883
29517		-14.292601	-15.508381	-52.233877
29518		-14.286004	-15.512905	-52.220773
29519		-14.281044	-15.515603	-52.205025
29520		-14.278770	-15.514381	-52.186754
29521		-14.276248	-15.522165	-52.163211
29522		-14.271915	-15.527740	-52.137709
29523		-14.269696	-15.526917	-52.112719
29524		-14.267617	-15.523910	-52.088268
29525		-14.266521	-15.518227	-52.063892
29526		-14.259470	-15.507320	-52.039381
29527		-14.255324	-15.484856	-52.012205
29528		-14.242525	-15.464247	-51.980206
29529		-14.227097	-15.430714	-51.950408
29530		-14.218355	-15.385636	-51.919575
29531		-14.216957	-15.344530	-51.890901
29532		-14.199499	-15.318193	-51.857246
29533		-14.148700	-15.327764	-51.821054
29534		-14.084096	-15.355218	-51.778714
29535		-14.018031	-15.381022	-51.731314
29536		-13.938943	-15.410066	-51.676520
29537		-13.843766	-15.442699	-51.618387
29538		-13.742083	-15.473223	-51.554044
29539		-13.632757	-15.509617	-51.481952
29540		-13.553785	-15.539986	-51.403491
29541		-13.511246	-15.560336	-51.311981
29542		-13.492020	-15.575653	-51.204499
29543		-13.491626	-15.578791	-51.079724
29544		-13.489559	-15.589466	-50.931197
29545		-13.480695	-15.599165	-50.768669
29546		-13.475497	-15.609245	-50.588924
29547		-13.471595	-15.623319	-50.393019
29548		-13.448854	-15.656064	-50.184064
29549		-13.422165	-15.685926	-49.959947
29550		-13.412344	-15.694114	-49.719706
29551		-13.426087	-15.702195	-49.462978
29552		-13.445448	-15.705735	-49.197182
29553		-13.468615	-15.700878	-48.921191
29554		-13.485891	-15.702413	-48.635823
29555		-13.514942	-15.702751	-48.339000
29556		-13.544245	-15.701834	-48.027129
29557		-13.559450	-15.708028	-47.706948
29558		-13.569356	-15.707963	-47.386049
29559		-13.594452	-15.702126	-47.054114
29560		-13.613731	-15.707679	-46.706312
29561		-13.628352	-15.709039	-46.348142
29562		-13.646160	-15.702945	-45.982027
29563		-13.662893	-15.690925	-45.607558
29564		-13.674736	-15.669172	-45.227141
29565		-13.692637	-15.640824	-44.834324
29566		-13.723380	-15.598689	-44.434802
29567		-13.752930	-15.570426	-44.023492
29568		-13.773435	-15.540862	-43.612238
29569		-13.807766	-15.508852	-43.203042
29570		-13.844910	-15.468588	-42.791287
29571		-13.877426	-15.421327	-42.381163
29572		-13.910502	-15.384759	-41.963157
29573		-13.936657	-15.349502	-41.535966
29574		-13.955356	-15.315023	-41.100115
29575		-13.986254	-15.275346	-40.651371
29576		-14.018561	-15.245661	-40.194047
29577		-14.050198	-15.224297	-39.733160
29578		-14.077293	-15.215240	-39.269935
29579		-14.096053	-15.206808	-38.806008
29580		-14.116410	-15.202127	-38.340065
29581		-14.139131	-15.194652	-37.872773
29582		-14.166508	-15.177219	-37.406237
29583		-14.182326	-15.177793	-36.930996
29584		-14.191239	-15.181851	-36.449687
29585		-14.196121	-15.186179	-35.958996
29586		-14.206925	-15.195409	-35.464544
29587		-14.227034	-15.202523	-34.968874
29588		-14.256950	-15.214711	-34.479468
29589		-14.268951	-15.237970	-33.997612
29590		-14.262634	-15.283615	-33.520398
29591		-14.220804	-15.358230	-33.045250
29592		-14.161429	-15.453614	-32.570513
29593		-14.126460	-15.536313	-32.095451
29594		-14.093230	-15.614262	-31.621642
29595		-14.071051	-15.674076	-31.157630
29596		-14.055708	-15.723507	-30.702752
29597		-14.038187	-15.769448	-30.263727
29598		-14.028108	-15.815211	-29.833280
29599		-14.026777	-15.845121	-29.409239
29600		-14.020659	-15.866520	-28.994736
29601		-13.997050	-15.909721	-28.576803
29602		-13.978834	-15.969373	-28.152759
29603		-13.969152	-16.014035	-27.721856
29604		-13.959832	-16.042059	-27.288630
29605		-13.959322	-16.070745	-26.851506
29606		-13.969731	-16.118639	-26.409877
29607		-13.954152	-16.199547	-25.964423
29608		-13.910780	-16.305855	-25.517646
29609		-13.870944	-16.407241	-25.071552
29610		-13.842902	-16.495182	-24.619718
29611		-13.821491	-16.585673	-24.158941
29612		-13.797295	-16.645920	-23.699976
29613		-13.770160	-16.684949	-23.238063
29614		-13.742543	-16.721731	-22.771750
29615		-13.727746	-16.755005	-22.311096
29616		-13.688643	-16.812751	-21.852467
29617		-13.663200	-16.891648	-21.389842
29618		-13.643824	-16.993541	-20.923771
29619		-13.633165	-17.092618	-20.469358
29620		-13.610110	-17.204164	-20.038363
29621		-13.572483	-17.336267	-19.616913
29622		-13.564398	-17.488585	-19.192496
29623		-13.548852	-17.651129	-18.761665
29624		-13.548615	-17.815548	-18.329926
29625		-13.532916	-18.002079	-17.896585
29626		-13.521360	-18.205490	-17.458704
29627		-13.493745	-18.389936	-17.029320
29628		-13.484186	-18.576528	-16.625543
29629		-13.451036	-18.769579	-16.232500
29630		-13.406252	-18.975349	-15.834049
29631		-13.389251	-19.183687	-15.417704
29632		-13.393208	-19.386914	-14.986784
29633		-13.411067	-19.582281	-14.544012
29634		-13.433085	-19.790002	-14.098535
29635		-13.443934	-19.987924	-13.678331
29636		-13.425748	-20.159265	-13.295503
29637		-13.402937	-20.319318	-12.938116
29638		-13.366217	-20.502577	-12.573224
29639		-13.331066	-20.685209	-12.194383
29640		-13.310098	-20.854698	-11.804808
29641		-13.303378	-20.999573	-11.413467
29642		-13.306852	-21.148607	-11.031798
29643		-13.302721	-21.313831	-10.676544
29644		-13.271560	-21.483657	-10.332920
29645		-13.233718	-21.614478	-10.004299
29646		-13.183887	-21.731843	-9.686581
29647		-13.115961	-21.863242	-9.377563
29648		-13.044246	-21.997443	-9.078032
29649		-12.972179	-22.126464	-8.779917
29650		-12.905841	-22.259324	-8.473767
29651		-12.858494	-22.396574	-8.167431
29652		-12.804645	-22.527468	-7.880211
29653		-12.742607	-22.666767	-7.610967
29654		-12.666112	-22.800761	-7.359789
29655		-12.588513	-22.927910	-7.117657
29656		-12.507006	-23.049970	-6.871868
29657		-12.442311	-23.166644	-6.613262
29658		-12.391073	-23.275656	-6.349749
29659		-12.358817	-23.381279	-6.082993
29660		-12.348586	-23.494743	-5.817974
29661		-12.350546	-23.614118	-5.563002
29662		-12.326309	-23.737176	-5.325064
29663		-12.274141	-23.838509	-5.103428
29664		-12.210740	-23.924874	-4.885376
29665		-12.162041	-24.008426	-4.670962
29666		-12.118644	-24.093515	-4.466084
29667		-12.078330	-24.170191	-4.260987
29668		-12.024007	-24.239133	-4.061673
29669		-11.973282	-24.312224	-3.867338
29670		-11.931278	-24.377907	-3.679439
29671		-11.899189	-24.432443	-3.493162
29672		-11.870064	-24.478760	-3.313022
29673		-11.832422	-24.527562	-3.145225
29674		-11.787378	-24.564487	-2.993372
29675		-11.737890	-24.589404	-2.853551
29676		-11.700881	-24.610321	-2.713067
29677		-11.670567	-24.626246	-2.565301
29678		-11.645050	-24.635161	-2.416023
29679		-11.626017	-24.646360	-2.266843
29680		-11.620711	-24.663467	-2.125591
29681		-11.624722	-24.678284	-1.993792
29682		-11.609928	-24.685616	-1.872986
29683		-11.580929	-24.683990	-1.760745
29684		-11.533949	-24.678790	-1.654071
29685		-11.496864	-24.671974	-1.550169
29686		-11.466582	-24.662486	-1.461257
29687		-11.439940	-24.652893	-1.385051
29688		-11.407147	-24.648438	-1.316660
29689		-11.371805	-24.641271	-1.250487
29690		-11.340927	-24.631351	-1.177472
29691		-11.322959	-24.627842	-1.118298
29692		-11.295345	-24.627588	-1.068715
29693		-11.260519	-24.623996	-1.022247
29694		-11.226806	-24.618457	-0.979328
29695		-11.201974	-24.605304	-0.942438
29696		-11.181426	-24.588118	-0.906997
29697		-11.170927	-24.574001	-0.876004
29698		-11.154057	-24.561052	-0.852493
29699		-11.134979	-24.551150	-0.841106
29700		-11.120271	-24.550370	-0.834126
29701		-11.109903	-24.541811	-0.826745
29702		-11.095009	-24.524423	-0.820617
29703		-11.087625	-24.502589	-0.814886
29704		-11.085945	-24.482578	-0.810262
29705		-11.092532	-24.462123	-0.806998
29706		-11.103907	-24.431983	-0.810228
29707		-11.106501	-24.404708	-0.823057
29708		-11.095173	-24.379945	-0.837692
29709		-11.079542	-24.357210	-0.857848
29710		-11.078453	-24.341147	-0.867861
29711		-11.097995	-24.323160	-0.871280
29712		-11.128096	-24.311999	-0.870188
29713		-11.156405	-24.295107	-0.871265
29714		-11.170530	-24.278855	-0.878281
29715		-11.174829	-24.263098	-0.889177
29716		-11.175981	-24.243546	-0.901919
29717		-11.189428	-24.229647	-0.912365
29718		-11.207332	-24.221370	-0.922432
29719		-11.219063	-24.209891	-0.936804
29720		-11.225401	-24.196060	-0.957280
29721		-11.229354	-24.184040	-0.981569
29722		-11.237498	-24.176613	-1.008674
29723		-11.245326	-24.160712	-1.036262
29724		-11.249758	-24.155261	-1.064826
29725		-11.249170	-24.150171	-1.095099
29726		-11.248690	-24.140091	-1.124185
29727		-11.240322	-24.130339	-1.155430
29728		-11.236504	-24.123849	-1.186919
29729		-11.239771	-24.116411	-1.220787
29730		-11.253274	-24.114871	-1.253375
29731		-11.270142	-24.106076	-1.283406
29732		-11.299295	-24.096603	-1.313593
29733		-11.331316	-24.086839	-1.341597
29734		-11.372226	-24.065026	-1.371146
29735		-11.420261	-24.036088	-1.401144
29736		-11.472130	-24.006930	-1.434598
29737		-11.533089	-23.971025	-1.470971
29738		-11.586926	-23.932322	-1.513848
29739		-11.650252	-23.889808	-1.565996
29740		-11.703119	-23.856801	-1.626115
29741		-11.764053	-23.816814	-1.687934
29742		-11.828871	-23.776632	-1.753205
29743		-11.894258	-23.734997	-1.823385
29744		-11.958105	-23.693366	-1.893469
29745		-12.017971	-23.655501	-1.964881
29746		-12.078384	-23.617783	-2.043693
29747		-12.148561	-23.560617	-2.127305
29748		-12.230012	-23.504278	-2.208028
29749		-12.317446	-23.436937	-2.291842
29750		-12.399083	-23.364828	-2.381778
29751		-12.465508	-23.302840	-2.483636
29752		-12.516256	-23.235067	-2.607460
29753		-12.565470	-23.166300	-2.741250
29754		-12.620040	-23.096333	-2.874953
29755		-12.676237	-23.026057	-3.013779
29756		-12.723498	-22.963975	-3.159051
29757		-12.765480	-22.885419	-3.317532
29758		-12.807784	-22.800167	-3.480832
29759		-12.865640	-22.697521	-3.649618
29760		-12.937886	-22.581141	-3.829590
29761		-13.005929	-22.473792	-4.022095
29762		-13.065170	-22.381909	-4.231013
29763		-13.104089	-22.305204	-4.462075
29764		-13.136118	-22.225107	-4.710622
29765		-13.170463	-22.141761	-4.967477
29766		-13.218818	-22.038364	-5.234192
29767		-13.287659	-21.916356	-5.505159
29768		-13.362898	-21.786387	-5.779631
29769		-13.442042	-21.645271	-6.061428
29770		-13.516740	-21.508364	-6.359573
29771		-13.599276	-21.376929	-6.672699
29772		-13.674924	-21.236193	-7.005936
29773		-13.763110	-21.071175	-7.354225
29774		-13.887856	-20.878723	-7.707905
29775		-14.022474	-20.660479	-8.065592
29776		-14.127051	-20.482183	-8.425534
29777		-14.196642	-20.384433	-8.779895
29778		-14.238076	-20.308444	-9.152016
29779		-14.294601	-20.187772	-9.546545
29780		-14.351246	-20.064436	-9.944377
29781		-14.413510	-19.940188	-10.329677
29782		-14.485201	-19.791200	-10.720771
29783		-14.548895	-19.632815	-11.120819
29784		-14.588243	-19.543030	-11.513224
29785		-14.592587	-19.498616	-11.916218
29786		-14.560212	-19.451926	-12.341871
29787		-14.538077	-19.385707	-12.785214
29788		-14.525358	-19.294024	-13.233370
29789		-14.551211	-19.174402	-13.672325
29790		-14.612619	-19.010913	-14.117381
29791		-14.697192	-18.801421	-14.559801
29792		-14.819082	-18.585213	-15.003667
29793		-14.871152	-18.441363	-15.446425
29794		-14.885784	-18.336391	-15.888569
29795		-14.883080	-18.229595	-16.347036
29796		-14.891215	-18.102576	-16.818325
29797		-14.898761	-17.974028	-17.284676
29798		-14.918833	-17.807869	-17.753482
29799		-14.980310	-17.609028	-18.217044
29800		-15.089765	-17.378433	-18.683367
29801		-15.204793	-17.149734	-19.146507
29802		-15.306143	-16.944414	-19.613347
29803		-15.318644	-16.822219	-20.085311
29804		-15.297372	-16.744976	-20.558623
29805		-15.261497	-16.669733	-21.041897
29806		-15.231177	-16.577560	-21.534853
29807		-15.178542	-16.522934	-22.022597
29808		-15.094012	-16.513300	-22.494228
29809		-15.018602	-16.503850	-22.963582
29810		-14.963903	-16.489567	-23.433917
29811		-14.922681	-16.476161	-23.895091
29812		-14.882925	-16.462429	-24.353449
29813		-14.829829	-16.453156	-24.813411
29814		-14.788316	-16.434906	-25.281043
29815		-14.743880	-16.401601	-25.754288
29816		-14.717216	-16.360854	-26.225264
29817		-14.716730	-16.301853	-26.694930
29818		-14.713908	-16.240417	-27.155896
29819		-14.726379	-16.160065	-27.611775
29820		-14.739873	-16.058724	-28.071551
29821		-14.772986	-15.942168	-28.529869
29822		-14.807776	-15.820466	-28.983756
29823		-14.846402	-15.696118	-29.438488
29824		-14.893715	-15.567492	-29.888997
29825		-14.942469	-15.424468	-30.337483
29826		-15.012135	-15.269934	-30.784087
29827		-15.090021	-15.131216	-31.226752
29828		-15.140936	-15.019693	-31.669087
29829		-15.133389	-14.945276	-32.104353
29830		-15.094035	-14.919620	-32.526771
29831		-15.050957	-14.909744	-32.941139
29832		-15.010807	-14.885756	-33.358057
29833		-14.993554	-14.843415	-33.776400
29834		-14.992851	-14.789532	-34.193141
29835		-15.029447	-14.726359	-34.607385
29836		-15.057487	-14.678281	-35.016601
29837		-15.104815	-14.626235	-35.417720
29838		-15.156827	-14.566158	-35.824234
29839		-15.194157	-14.512851	-36.226127
29840		-15.251514	-14.448596	-36.623848
29841		-15.316121	-14.371659	-37.018047
29842		-15.370288	-14.298908	-37.407332
29843		-15.412461	-14.250618	-37.787514
29844		-15.451600	-14.202851	-38.158755
29845		-15.496233	-14.139190	-38.532323
29846		-15.547351	-14.064877	-38.907160
29847		-15.611732	-13.982357	-39.279621
29848		-15.687327	-13.895852	-39.652214
29849		-15.747972	-13.823307	-40.022840
29850		-15.793703	-13.780673	-40.385977
29851		-15.843128	-13.754843	-40.734182
29852		-15.894199	-13.718147	-41.070270
29853		-15.948997	-13.669194	-41.397827
29854		-16.015358	-13.611389	-41.712224
29855		-16.081256	-13.546326	-42.019235
29856		-16.128437	-13.489304	-42.326449
29857		-16.155843	-13.452787	-42.627305
29858		-16.132729	-13.466978	-42.916511
29859		-16.089357	-13.496689	-43.200903
29860		-16.017208	-13.539222	-43.484687
29861		-15.933807	-13.593344	-43.758587
29862		-15.862789	-13.616753	-44.041101
29863		-15.810356	-13.621802	-44.321879
29864		-15.780741	-13.612030	-44.592988
29865		-15.779392	-13.579598	-44.866251
29866		-15.780985	-13.544705	-45.134912
29867		-15.781543	-13.524997	-45.396309
29868		-15.776660	-13.495490	-45.655594
29869		-15.773017	-13.462980	-45.908655
29870		-15.786946	-13.428761	-46.158339
29871		-15.797180	-13.404513	-46.400347
29872		-15.807081	-13.382156	-46.640949
29873		-15.825497	-13.361789	-46.879095
29874		-15.843244	-13.343494	-47.117109
29875		-15.850215	-13.336410	-47.353030
29876		-15.856798	-13.338610	-47.587669
29877		-15.883444	-13.349237	-47.820861
29878		-15.911442	-13.365351	-48.057930
29879		-15.909676	-13.382280	-48.303491
29880		-15.904368	-13.397585	-48.544366
29881		-15.900612	-13.404117	-48.782557
29882		-15.901380	-13.411256	-49.016412
29883		-15.904747	-13.427309	-49.248652
29884		-15.909996	-13.446663	-49.479356
29885		-15.898422	-13.483047	-49.705742
29886		-15.862928	-13.544309	-49.925126
29887		-15.828467	-13.613191	-50.138013
29888		-15.800065	-13.662812	-50.352969
29889		-15.781700	-13.683404	-50.565182
29890		-15.768791	-13.696415	-50.769207
29891		-15.756481	-13.709548	-50.967172
29892		-15.742705	-13.719036	-51.156928
29893		-15.731733	-13.722688	-51.334444
29894		-15.720255	-13.719366	-51.505547
29895		-15.713500	-13.718820	-51.668917
29896		-15.698054	-13.717202	-51.830699
29897		-15.678474	-13.723851	-51.981908
29898		-15.650818	-13.732716	-52.123303
29899		-15.628682	-13.727851	-52.255576
29900		-15.609168	-13.724250	-52.377632
29901		-15.587000	-13.721473	-52.488947
29902		-15.559850	-13.714515	-52.593998
29903		-15.541428	-13.700822	-52.691464
29904		-15.521908	-13.686380	-52.784140
29905		-15.503810	-13.670576	-52.870333
29906		-15.481982	-13.651867	-52.950042
29907		-15.457380	-13.641814	-53.021088
29908		-15.424764	-13.636635	-53.078672
29909		-15.395714	-13.631846	-53.130822
29910		-15.365901	-13.618695	-53.177979
29911		-15.346963	-13.603114	-53.218274
29912		-15.323373	-13.586444	-53.255684
29913		-15.294637	-13.578325	-53.291547
29914		-15.260178	-13.586752	-53.320658
29915		-15.223545	-13.592375	-53.345393
29916		-15.187009	-13.605580	-53.369287
29917		-15.146857	-13.618971	-53.386419
29918		-15.106701	-13.632281	-53.401886
29919		-15.072947	-13.640230	-53.411547
29920		-15.043397	-13.644017	-53.420789
29921		-15.025082	-13.640268	-53.427810
29922		-15.015166	-13.633312	-53.429816
29923		-15.009261	-13.623600	-53.422392
29924		-15.004456	-13.612271	-53.411549
29925		-14.995308	-13.611350	-53.395104
29926		-14.978337	-13.605038	-53.382089
29927		-14.957514	-13.609172	-53.369259
29928		-14.925423	-13.629446	-53.352267
29929		-14.886137	-13.664785	-53.330272
29930		-14.845744	-13.696009	-53.312300
29931		-14.800899	-13.737133	-53.292057
29932		-14.741721	-13.809734	-53.259711
29933		-14.660154	-13.900400	-53.218000
29934		-14.571234	-13.994938	-53.168915
29935		-14.493638	-14.073797	-53.113660
29936		-14.421891	-14.128968	-53.052367
29937		-14.363780	-14.165895	-52.983224
29938		-14.316233	-14.196260	-52.908891
29939		-14.279548	-14.228043	-52.827171
29940		-14.241621	-14.260600	-52.736535
29941		-14.197953	-14.294423	-52.637769
29942		-14.155867	-14.335325	-52.527941
29943		-14.123033	-14.369964	-52.411088
29944		-14.081382	-14.412608	-52.282358
29945		-14.044003	-14.447201	-52.146853
29946		-14.013675	-14.477697	-52.002473
29947		-13.994264	-14.518098	-51.842407
29948		-13.973686	-14.554654	-51.674027
29949		-13.954453	-14.578111	-51.500791
29950		-13.943325	-14.585167	-51.318451
29951		-13.950777	-14.587207	-51.128298
29952		-13.972120	-14.587736	-50.931499
29953		-13.995819	-14.590354	-50.723866
29954		-14.008119	-14.601264	-50.505565
29955		-14.013075	-14.610159	-50.273750
29956		-14.025884	-14.600684	-50.027994
29957		-14.048980	-14.589377	-49.769475
29958		-14.077359	-14.569200	-49.496921
29959		-14.119486	-14.539913	-49.210739
29960		-14.165231	-14.511333	-48.908525
29961		-14.200205	-14.491276	-48.588086
29962		-14.235761	-14.447037	-48.259193
29963		-14.284197	-14.389818	-47.923742
29964		-14.335670	-14.333211	-47.576886
29965		-14.388024	-14.280086	-47.224260
29966		-14.447750	-14.230458	-46.860395
29967		-14.514318	-14.195296	-46.485807
29968		-14.560766	-14.183917	-46.101846
29969		-14.598878	-14.181715	-45.703961
29970		-14.627793	-14.163209	-45.293259
29971		-14.656226	-14.146060	-44.867902
29972		-14.671578	-14.133146	-44.432990
29973		-14.684756	-14.116035	-43.994672
29974		-14.700545	-14.087941	-43.553759
29975		-14.727095	-14.055942	-43.106811
29976		-14.765097	-14.011112	-42.658273
29977		-14.806112	-13.964324	-42.204738
29978		-14.843555	-13.933413	-41.742837
29979		-14.876812	-13.913760	-41.273624
29980		-14.897705	-13.898929	-40.797197
29981		-14.928201	-13.873326	-40.317174
29982		-14.957119	-13.838647	-39.833599
29983		-15.002969	-13.794083	-39.339226
29984		-15.049771	-13.770470	-38.841791
29985		-15.071009	-13.763747	-38.348185
29986		-15.087068	-13.785663	-37.850102
29987		-15.092282	-13.801739	-37.343664
29988		-15.097131	-13.806844	-36.832621
29989		-15.111240	-13.808191	-36.312697
29990		-15.113005	-13.817863	-35.783456
29991		-15.114049	-13.827762	-35.254351
29992		-15.120750	-13.836008	-34.722159
29993		-15.143081	-13.848447	-34.188617
29994		-15.157284	-13.874177	-33.659525
29995		-15.162060	-13.899440	-33.125542
29996		-15.148968	-13.963909	-32.591785
29997		-15.120207	-14.044235	-32.059785
29998		-15.095643	-14.120042	-31.531580
29999		-15.087206	-14.191688	-31.006510
30000		-15.076984	-14.273749	-30.481121
30001		-15.085532	-14.342572	-29.956697
30002		-15.102542	-14.410470	-29.433193
30003		-15.114580	-14.495753	-28.906872
30004		-15.141683	-14.588755	-28.386018
30005		-15.156273	-14.681880	-27.872459
30006		-15.170197	-14.759352	-27.360374
30007		-15.190798	-14.858405	-26.842180
30008		-15.191894	-14.956329	-26.323562
30009		-15.225311	-15.031651	-25.808563
30010		-15.259265	-15.127453	-25.290627
30011		-15.292739	-15.238634	-24.778925
30012		-15.327281	-15.358412	-24.283292
30013		-15.365135	-15.498390	-23.801942
30014		-15.379687	-15.670544	-23.327676
30015		-15.378311	-15.841204	-22.860646
30016		-15.370492	-16.017055	-22.384830
30017		-15.381868	-16.183748	-21.903180
30018		-15.406095	-16.347688	-21.420862
30019		-15.431598	-16.509072	-20.948558
30020		-15.454784	-16.676172	-20.490429
30021		-15.487232	-16.836037	-20.045760
30022		-15.528825	-16.982584	-19.618458
30023		-15.581699	-17.121241	-19.200670
30024		-15.613303	-17.258515	-18.783220
30025		-15.630882	-17.395041	-18.363156
30026		-15.620133	-17.558722	-17.929683
30027		-15.613918	-17.729834	-17.498517
30028		-15.603245	-17.894957	-17.078055
30029		-15.596295	-18.050048	-16.668324
30030		-15.576662	-18.209066	-16.264182
30031		-15.550862	-18.367605	-15.863173
30032		-15.534532	-18.527417	-15.468168
30033		-15.525396	-18.682109	-15.081830
30034		-15.506271	-18.844298	-14.698084
30035		-15.488186	-19.005704	-14.312240
30036		-15.466798	-19.170046	-13.920026
30037		-15.449834	-19.320586	-13.523204
30038		-15.435099	-19.459046	-13.128982
30039		-15.451767	-19.589033	-12.740840
30040		-15.455577	-19.726665	-12.359619
30041		-15.444709	-19.874348	-11.974764
30042		-15.421778	-20.018103	-11.591692
30043		-15.395561	-20.151200	-11.211590
30044		-15.367851	-20.285196	-10.836612
30045		-15.330877	-20.416929	-10.476140
30046		-15.304680	-20.547318	-10.124421
30047		-15.291795	-20.677923	-9.767001
30048		-15.267889	-20.808605	-9.405552
30049		-15.250105	-20.940479	-9.041562
30050		-15.233663	-21.056336	-8.682294
30051		-15.201535	-21.159578	-8.330169
30052		-15.167993	-21.248575	-7.993212
30053		-15.129020	-21.342873	-7.665816
30054		-15.087628	-21.437013	-7.351239
30055		-15.057867	-21.519529	-7.047769
30056		-15.033681	-21.590486	-6.752537
30057		-15.022146	-21.662452	-6.470347
30058		-15.000072	-21.743812	-6.203538
30059		-14.968432	-21.823417	-5.950387
30060		-14.924106	-21.900411	-5.713645
30061		-14.869774	-21.983675	-5.481379
30062		-14.817771	-22.061018	-5.249296
30063		-14.765277	-22.137179	-5.024141
30064		-14.707223	-22.201693	-4.809592
30065		-14.634467	-22.268575	-4.599180
30066		-14.578520	-22.346708	-4.390034
30067		-14.532237	-22.425101	-4.181233
30068		-14.501901	-22.505334	-3.975802
30069		-14.467880	-22.587326	-3.778274
30070		-14.424946	-22.657954	-3.600333
30071		-14.361562	-22.725984	-3.425964
30072		-14.307768	-22.781914	-3.252110
30073		-14.264938	-22.831670	-3.071819
30074		-14.217445	-22.871767	-2.895254
30075		-14.193586	-22.914721	-2.728609
30076		-14.159618	-22.961856	-2.573680
30077		-14.130807	-22.992533	-2.436800
30078		-14.077345	-23.014923	-2.308725
30079		-14.016016	-23.028606	-2.185985
30080		-13.954818	-23.035353	-2.062051
30081		-13.917149	-23.022155	-1.939915
30082		-13.890274	-23.008371	-1.823310
30083		-13.876724	-22.990383	-1.711562
30084		-13.853544	-22.997505	-1.618205
30085		-13.820526	-23.003054	-1.537649
30086		-13.759438	-23.007931	-1.470522
30087		-13.707138	-23.005992	-1.399632
30088		-13.669387	-23.001789	-1.327898
30089		-13.649331	-22.995046	-1.256425
30090		-13.631363	-22.979195	-1.194197
30091		-13.596987	-22.971279	-1.134898
30092		-13.554607	-22.973163	-1.091239
30093		-13.506656	-22.965368	-1.057958
30094		-13.473695	-22.951867	-1.033420
30095		-13.444312	-22.939133	-1.011402
30096		-13.407303	-22.924838	-0.993315
30097		-13.384326	-22.914895	-0.973222
30098		-13.369200	-22.906128	-0.954315
30099		-13.361720	-22.896830	-0.943546
30100		-13.353704	-22.883553	-0.953021
30101		-13.339026	-22.877665	-0.976523
30102		-13.305135	-22.873957	-1.014312
30103		-13.258769	-22.865524	-1.059662
30104		-13.216720	-22.859470	-1.106268
30105		-13.171950	-22.846998	-1.161127
30106		-13.145879	-22.827981	-1.217379
30107		-13.127823	-22.807228	-1.274175
30108		-13.108416	-22.776384	-1.335859
30109		-13.096480	-22.756387	-1.398751
30110		-13.092385	-22.746522	-1.461679
30111		-13.090126	-22.745985	-1.521280
30112		-13.085861	-22.743439	-1.579914
30113		-13.079375	-22.736724	-1.635341
30114		-13.069882	-22.726950	-1.689527
30115		-13.060782	-22.712066	-1.743294
30116		-13.053123	-22.689774	-1.800848
30117		-13.063079	-22.657675	-1.860160
30118		-13.082054	-22.624657	-1.922596
30119		-13.090205	-22.590589	-1.990488
30120		-13.094515	-22.552921	-2.060939
30121		-13.088362	-22.511092	-2.136245
30122		-13.076379	-22.473746	-2.215545
30123		-13.068359	-22.428359	-2.296258
30124		-13.066332	-22.386866	-2.376905
30125		-13.052029	-22.331692	-2.461021
30126		-13.050628	-22.268197	-2.544207
30127		-13.068449	-22.191739	-2.623512
30128		-13.077464	-22.115062	-2.711989
30129		-13.098115	-22.037977	-2.814479
30130		-13.098757	-21.969607	-2.928348
30131		-13.112316	-21.909409	-3.041563
30132		-13.130489	-21.844076	-3.160272
30133		-13.159381	-21.771274	-3.280883
30134		-13.202458	-21.689507	-3.405643
30135		-13.259296	-21.601712	-3.540119
30136		-13.311653	-21.512761	-3.682066
30137		-13.348832	-21.429187	-3.839896
30138		-13.374693	-21.358081	-4.020379
30139		-13.398791	-21.295438	-4.227085
30140		-13.415717	-21.238534	-4.454256
30141		-13.436828	-21.175597	-4.696165
30142		-13.457252	-21.116939	-4.951855
30143		-13.475523	-21.056965	-5.213798
30144		-13.498687	-20.998119	-5.481350
30145		-13.527529	-20.941183	-5.761894
30146		-13.556961	-20.882169	-6.055637
30147		-13.588545	-20.811408	-6.368446
30148		-13.623557	-20.733211	-6.699750
30149		-13.650206	-20.658283	-7.046862
30150		-13.676095	-20.597193	-7.406306
30151		-13.705289	-20.535807	-7.776472
30152		-13.729745	-20.462567	-8.156408
30153		-13.762219	-20.380006	-8.536470
30154		-13.795714	-20.297905	-8.916173
30155		-13.825296	-20.217985	-9.301637
30156		-13.854656	-20.141839	-9.690130
30157		-13.896140	-20.054806	-10.093393
30158		-13.934735	-19.953104	-10.508071
30159		-13.975488	-19.853376	-10.926534
30160		-14.020479	-19.756687	-11.353322
30161		-14.053452	-19.667955	-11.784879
30162		-14.087312	-19.583491	-12.222571
30163		-14.145423	-19.476265	-12.668650
30164		-14.217735	-19.359698	-13.117212
30165		-14.306933	-19.228478	-13.565812
30166		-14.417336	-19.077107	-14.017894
30167		-14.527108	-18.935675	-14.468595
30168		-14.631498	-18.809061	-14.924098
30169		-14.696391	-18.700097	-15.392503
30170		-14.739874	-18.598860	-15.873701
30171		-14.762378	-18.518929	-16.355256
30172		-14.768620	-18.461000	-16.840286
30173		-14.775728	-18.418264	-17.323139
30174		-14.809909	-18.341034	-17.808532
30175		-14.871107	-18.237479	-18.291628
30176		-14.974696	-18.121814	-18.762291
30177		-15.105471	-17.962943	-19.226856
30178		-15.271855	-17.765502	-19.694133
30179		-15.408814	-17.604032	-20.163002
30180		-15.458640	-17.540429	-20.623520
30181		-15.486278	-17.507247	-21.087662
30182		-15.503485	-17.470055	-21.569985
30183		-15.512137	-17.424187	-22.053722
30184		-15.530960	-17.372056	-22.527705
30185		-15.584762	-17.280576	-23.003737
30186		-15.671075	-17.145381	-23.479821
30187		-15.794828	-16.982198	-23.948727
30188		-15.887636	-16.856120	-24.410358
30189		-15.981190	-16.731268	-24.872255
30190		-16.093591	-16.584513	-25.350587
30191		-16.217204	-16.423295	-25.838491
30192		-16.345939	-16.255976	-26.323757
30193		-16.487874	-16.080714	-26.815857
30194		-16.570164	-15.934243	-27.306945
30195		-16.622504	-15.806750	-27.789650
30196		-16.659419	-15.687040	-28.265525
30197		-16.712818	-15.586218	-28.736103
30198		-16.751133	-15.519679	-29.199897
30199		-16.778111	-15.463985	-29.662098
30200		-16.809745	-15.406512	-30.127255
30201		-16.829392	-15.348021	-30.590800
30202		-16.848750	-15.281109	-31.052875
30203		-16.864684	-15.197245	-31.515329
30204		-16.877856	-15.102563	-31.974825
30205		-16.913700	-14.984199	-32.430638
30206		-16.968114	-14.852522	-32.886542
30207		-17.010654	-14.759840	-33.338082
30208		-17.018169	-14.728585	-33.785881
30209		-16.999813	-14.726426	-34.231592
30210		-16.976775	-14.710144	-34.686898
30211		-16.942428	-14.690421	-35.137166
30212		-16.904303	-14.680231	-35.574926
30213		-16.871637	-14.660156	-36.003705
30214		-16.848653	-14.618325	-36.429163
30215		-16.850137	-14.549378	-36.853068
30216		-16.870257	-14.481568	-37.274985
30217		-16.876083	-14.428875	-37.701731
30218		-16.878944	-14.383644	-38.132907
30219		-16.884838	-14.327397	-38.562560
30220		-16.901270	-14.256198	-38.999259
30221		-16.915844	-14.183697	-39.434361
30222		-16.927978	-14.141503	-39.860955
30223		-16.955176	-14.097447	-40.284468
30224		-16.968316	-14.059617	-40.700153
30225		-16.993038	-14.016326	-41.106902
30226		-17.019484	-13.959702	-41.508615
30227		-17.048337	-13.890361	-41.904672
30228		-17.084437	-13.810283	-42.295222
30229		-17.116316	-13.742220	-42.671299
30230		-17.138191	-13.691109	-43.047985
30231		-17.126165	-13.676987	-43.417106
30232		-17.093109	-13.694794	-43.776009
30233		-17.065122	-13.716227	-44.128855
30234		-17.039663	-13.720038	-44.477499
30235		-17.032304	-13.700645	-44.819557
30236		-17.039102	-13.672207	-45.157354
30237		-17.039114	-13.635863	-45.492194
30238		-17.026812	-13.606228	-45.824354
30239		-16.995206	-13.592005	-46.156082
30240		-16.946137	-13.608787	-46.477292
30241		-16.906285	-13.612982	-46.795560
30242		-16.876414	-13.613661	-47.103947
30243		-16.861614	-13.606391	-47.404173
30244		-16.849533	-13.588830	-47.701354
30245		-16.831295	-13.577426	-47.982700
30246		-16.808931	-13.566815	-48.255494
30247		-16.788591	-13.546891	-48.527762
30248		-16.782189	-13.526993	-48.798760
30249		-16.765080	-13.528389	-49.055032
30250		-16.746909	-13.524854	-49.303244
30251		-16.744499	-13.509527	-49.541476
30252		-16.750611	-13.490889	-49.778190
30253		-16.752716	-13.485152	-50.008410
30254		-16.742066	-13.487229	-50.230556
30255		-16.719875	-13.490821	-50.449887
30256		-16.684237	-13.502346	-50.663646
30257		-16.635743	-13.529816	-50.864932
30258		-16.593604	-13.542483	-51.060066
30259		-16.561994	-13.539121	-51.252214
30260		-16.537020	-13.536069	-51.439573
30261		-16.510504	-13.520129	-51.619686
30262		-16.486933	-13.506170	-51.794564
30263		-16.467920	-13.504330	-51.960249
30264		-16.440017	-13.507648	-52.117129
30265		-16.407322	-13.510904	-52.267098
30266		-16.385091	-13.507970	-52.408308
30267		-16.374566	-13.494204	-52.541776
30268		-16.367936	-13.479265	-52.666692
30269		-16.356987	-13.467326	-52.792016
30270		-16.336811	-13.469814	-52.912236
30271		-16.319653	-13.481230	-53.027013
30272		-16.303709	-13.493391	-53.138061
30273		-16.295693	-13.503854	-53.241680
30274		-16.293024	-13.515435	-53.335176
30275		-16.286487	-13.524889	-53.423410
30276		-16.274763	-13.538665	-53.497946
30277		-16.256664	-13.555575	-53.561064
30278		-16.240150	-13.567710	-53.618082
30279		-16.231272	-13.576604	-53.662040
30280		-16.229346	-13.577883	-53.699266
30281		-16.233097	-13.581398	-53.727045
30282		-16.235061	-13.585481	-53.748358
30283		-16.241946	-13.588366	-53.761428
30284		-16.248903	-13.584683	-53.767898
30285		-16.259195	-13.573512	-53.771600
30286		-16.264801	-13.568485	-53.769102
30287		-16.259264	-13.566640	-53.758903
30288		-16.250954	-13.555793	-53.748899
30289		-16.240639	-13.554576	-53.735129
30290		-16.211080	-13.569105	-53.715594
30291		-16.159045	-13.602763	-53.696443
30292		-16.081853	-13.662328	-53.672320
30293		-15.995164	-13.741244	-53.639443
30294		-15.908204	-13.812371	-53.599608
30295		-15.825454	-13.886458	-53.553526
30296		-15.743627	-13.965736	-53.497215
30297		-15.676128	-14.026177	-53.437814
30298		-15.626334	-14.070481	-53.374007
30299		-15.595604	-14.108968	-53.301934
30300		-15.566937	-14.141876	-53.220543
30301		-15.541358	-14.166532	-53.132608
30302		-15.520113	-14.200650	-53.035033
30303		-15.488415	-14.243108	-52.928448
30304		-15.456422	-14.279664	-52.812514
30305		-15.437194	-14.309987	-52.686138
30306		-15.429672	-14.345539	-52.547131
30307		-15.413986	-14.375165	-52.398819
30308		-15.405847	-14.394088	-52.240845
30309		-15.405628	-14.410442	-52.075600
30310		-15.416454	-14.416643	-51.905924
30311		-15.436088	-14.415885	-51.730980
30312		-15.452157	-14.419286	-51.549534
30313		-15.461008	-14.428290	-51.364233
30314		-15.465616	-14.447854	-51.173963
30315		-15.465885	-14.469746	-50.979148
30316		-15.469791	-14.483828	-50.779280
30317		-15.474110	-14.502893	-50.561561
30318		-15.477815	-14.525644	-50.327019
30319		-15.484328	-14.539582	-50.082117
30320		-15.495427	-14.548773	-49.827816
30321		-15.512254	-14.557245	-49.564501
30322		-15.523763	-14.563549	-49.298287
30323		-15.531949	-14.564299	-49.034071
30324		-15.532098	-14.567194	-48.760267
30325		-15.532699	-14.562002	-48.479877
30326		-15.537002	-14.539734	-48.200657
30327		-15.549916	-14.535568	-47.911395
30328		-15.540088	-14.554743	-47.609836
30329		-15.481827	-14.600133	-47.304949
30330		-15.415648	-14.670144	-46.987389
30331		-15.358667	-14.740257	-46.652313
30332		-15.326021	-14.772938	-46.306141
30333		-15.318469	-14.795592	-45.945172
30334		-15.311376	-14.823203	-45.571749
30335		-15.289909	-14.850924	-45.193209
30336		-15.276232	-14.869951	-44.816496
30337		-15.269789	-14.896339	-44.428745
30338		-15.271473	-14.923582	-44.027993
30339		-15.283696	-14.940127	-43.623896
30340		-15.302480	-14.957644	-43.208077
30341		-15.327425	-14.978514	-42.787607
30342		-15.339108	-15.019245	-42.358759
30343		-15.348678	-15.072875	-41.918705
30344		-15.350022	-15.121928	-41.473465
30345		-15.352623	-15.173459	-41.017624
30346		-15.355259	-15.224774	-40.556585
30347		-15.384937	-15.268099	-40.095750
30348		-15.402558	-15.299443	-39.639526
30349		-15.421070	-15.326988	-39.179773
30350		-15.446292	-15.357117	-38.716911
30351		-15.460361	-15.390398	-38.250339
30352		-15.445486	-15.436078	-37.775178
30353		-15.427537	-15.489237	-37.284404
30354		-15.414547	-15.542923	-36.778398
30355		-15.391998	-15.605285	-36.263036
30356		-15.355626	-15.667234	-35.743611
30357		-15.329057	-15.723559	-35.215751
30358		-15.301297	-15.779414	-34.680591
30359		-15.276551	-15.827212	-34.146597
30360		-15.268763	-15.873741	-33.612687
30361		-15.243933	-15.927607	-33.078872
30362		-15.202793	-15.989516	-32.549114
30363		-15.134171	-16.070650	-32.017098
30364		-15.057703	-16.142874	-31.482815
30365		-14.982491	-16.201349	-30.948363
30366		-14.920133	-16.249859	-30.403868
30367		-14.869672	-16.309303	-29.853922
30368		-14.810856	-16.373240	-29.308076
30369		-14.740390	-16.455486	-28.776513
30370		-14.659686	-16.562107	-28.260789
30371		-14.553695	-16.677482	-27.755008
30372		-14.431745	-16.780865	-27.255969
30373		-14.297876	-16.885185	-26.744641
30374		-14.177620	-16.994221	-26.206020
30375		-14.066455	-17.097845	-25.649321
30376		-13.966904	-17.198395	-25.092077
30377		-13.865744	-17.308883	-24.538825
30378		-13.782159	-17.434923	-23.994645
30379		-13.687699	-17.592067	-23.448503
30380		-13.593780	-17.746814	-22.917220
30381		-13.505320	-17.900286	-22.398794
30382		-13.436706	-18.046857	-21.874096
30383		-13.395861	-18.197829	-21.319727
30384		-13.358741	-18.363702	-20.745019
30385		-13.333720	-18.541146	-20.169375
30386		-13.305259	-18.715813	-19.612497
30387		-13.284623	-18.875882	-19.073038
30388		-13.259622	-19.039722	-18.540205
30389		-13.242312	-19.221737	-17.998829
30390		-13.248354	-19.422341	-17.443388
30391		-13.287129	-19.602040	-16.900633
30392		-13.310385	-19.781304	-16.370576
30393		-13.327102	-19.944574	-15.847534
30394		-13.321688	-20.103593	-15.328637
30395		-13.336294	-20.267140	-14.797887
30396		-13.371299	-20.418225	-14.263814
30397		-13.442764	-20.545023	-13.726583
30398		-13.503619	-20.690506	-13.186116
30399		-13.544571	-20.832271	-12.661636
30400		-13.571717	-20.964197	-12.161081
30401		-13.576689	-21.094962	-11.676437
30402		-13.588094	-21.205650	-11.205597
30403		-13.585205	-21.316672	-10.736107
30404		-13.569929	-21.416501	-10.267219
30405		-13.577528	-21.507520	-9.792325
30406		-13.583475	-21.596783	-9.322256
30407		-13.592765	-21.683470	-8.851597
30408		-13.603732	-21.774308	-8.392210
30409		-13.610496	-21.853920	-7.956275
30410		-13.619846	-21.926331	-7.538462
30411		-13.623848	-22.012959	-7.118951
30412		-13.592956	-22.096692	-6.702980
30413		-13.562221	-22.165922	-6.301599
30414		-13.531127	-22.220665	-5.908370
30415		-13.510937	-22.268056	-5.516934
30416		-13.515690	-22.323225	-5.125466
30417		-13.511627	-22.383765	-4.733835
30418		-13.504572	-22.449885	-4.345453
30419		-13.513699	-22.515750	-3.968891
30420		-13.514857	-22.580224	-3.597451
30421		-13.497903	-22.622534	-3.235149
30422		-13.492010	-22.667825	-2.876292
30423		-13.479330	-22.724650	-2.513865
30424		-13.477295	-22.781216	-2.148014
30425		-13.490015	-22.830328	-1.778528
30426		-13.505540	-22.880633	-1.417383
30427		-13.529962	-22.915037	-1.070189
30428		-13.540778	-22.949682	-0.729879
30429		-13.530883	-22.965243	-0.402829
30430		-13.528492	-22.968130	-0.078150
30431		-13.525610	-22.974173	0.238750
30432		-13.532726	-22.981656	0.529874
30433		-13.556937	-22.998420	0.804052
30434		-13.565675	-23.016243	1.074726
30435		-13.578831	-23.019870	1.341884
30436		-13.605954	-23.031042	1.611565
30437		-13.654438	-23.041872	1.879764
30438		-13.703788	-23.053119	2.146041
30439		-13.763564	-23.057637	2.395923
30440		-13.790431	-23.059827	2.626739
30441		-13.807572	-23.047084	2.836018
30442		-13.813774	-23.039041	3.025794
30443		-13.821611	-23.033731	3.208354
30444		-13.834132	-23.032947	3.382556
30445		-13.855846	-23.039043	3.557611
30446		-13.892232	-23.055370	3.722997
30447		-13.926377	-23.069170	3.873121
30448		-13.940762	-23.080275	4.000840
30449		-13.933859	-23.089058	4.112537
30450		-13.921788	-23.092952	4.214392
30451		-13.921297	-23.088659	4.315188
30452		-13.931699	-23.084760	4.414157
30453		-13.961194	-23.094212	4.511446
30454		-13.981123	-23.113278	4.595953
30455		-13.998398	-23.130640	4.666771
30456		-14.010456	-23.144849	4.727518
30457		-14.019390	-23.158832	4.782320
30458		-14.026907	-23.181952	4.830210
30459		-14.029411	-23.202625	4.869720
30460		-14.049230	-23.221112	4.905764
30461		-14.069089	-23.229230	4.934243
30462		-14.097259	-23.222004	4.955874
30463		-14.119772	-23.207381	4.965855
30464		-14.126722	-23.205455	4.961838
30465		-14.126828	-23.205192	4.950644
30466		-14.137278	-23.209199	4.943938
30467		-14.174671	-23.208190	4.947879
30468		-14.245100	-23.202081	4.960921
30469		-14.336437	-23.190621	4.976450
30470		-14.415217	-23.195194	4.980250
30471		-14.466432	-23.202901	4.960246
30472		-14.458572	-23.204531	4.924880
30473		-14.459299	-23.203892	4.896761
30474		-14.458850	-23.208530	4.873607
30475		-14.466295	-23.210709	4.856073
30476		-14.494417	-23.216624	4.837477
30477		-14.527542	-23.219960	4.818999
30478		-14.565021	-23.209217	4.789129
30479		-14.577907	-23.200800	4.747289
30480		-14.579383	-23.198414	4.700669
30481		-14.563963	-23.187959	4.650414
30482		-14.552226	-23.178789	4.606525
30483		-14.547666	-23.156548	4.567453
30484		-14.549408	-23.123866	4.526574
30485		-14.547647	-23.089083	4.480590
30486		-14.542024	-23.055693	4.423268
30487		-14.534897	-23.028021	4.355729
30488		-14.514139	-22.996029	4.285514
30489		-14.497517	-22.953934	4.219363
30490		-14.482919	-22.910177	4.158372
30491		-14.485782	-22.859997	4.099075
30492		-14.498828	-22.798932	4.041206
30493		-14.513582	-22.727767	3.979049
30494		-14.530333	-22.652637	3.916132
30495		-14.526452	-22.578388	3.838573
30496		-14.508323	-22.511527	3.745599
30497		-14.481728	-22.438261	3.645686
30498		-14.469036	-22.364104	3.544511
30499		-14.460768	-22.285472	3.439895
30500		-14.460440	-22.209547	3.333842
30501		-14.457245	-22.136355	3.218722
30502		-14.441173	-22.069954	3.090481
30503		-14.412744	-21.994798	2.949194
30504		-14.390656	-21.920078	2.793958
30505		-14.371842	-21.854749	2.613729
30506		-14.337907	-21.799956	2.407089
30507		-14.297360	-21.744509	2.186530
30508		-14.256570	-21.680408	1.961609
30509		-14.220694	-21.606709	1.729006
30510		-14.191941	-21.519595	1.498492
30511		-14.178271	-21.427228	1.271360
30512		-14.164258	-21.331978	1.042508
30513		-14.156635	-21.219197	0.806537
30514		-14.146506	-21.093315	0.555392
30515		-14.131527	-20.969349	0.296733
30516		-14.119207	-20.853633	0.026653
30517		-14.097736	-20.740376	-0.259681
30518		-14.079154	-20.617958	-0.557039
30519		-14.069861	-20.474601	-0.859873
30520		-14.070545	-20.328865	-1.167404
30521		-14.082405	-20.189042	-1.484782
30522		-14.095379	-20.053788	-1.819680
30523		-14.108100	-19.913335	-2.179237
30524		-14.094564	-19.774988	-2.566601
30525		-14.081376	-19.644684	-2.972875
30526		-14.074807	-19.505202	-3.399303
30527		-14.073978	-19.357191	-3.841249
30528		-14.084683	-19.232251	-4.287829
30529		-14.089876	-19.117444	-4.743765
30530		-14.100139	-18.980550	-5.216508
30531		-14.128225	-18.842946	-5.698245
30532		-14.170939	-18.687046	-6.185238
30533		-14.244022	-18.492045	-6.681752
30534		-14.308891	-18.312322	-7.183560
30535		-14.326821	-18.204281	-7.681258
30536		-14.336180	-18.127995	-8.184510
30537		-14.337377	-18.015307	-8.710673
30538		-14.360569	-17.877786	-9.240050
30539		-14.426088	-17.727457	-9.757327
30540		-14.519261	-17.535133	-10.276298
30541		-14.654630	-17.312075	-10.788449
30542		-14.815999	-17.091063	-11.309356
30543		-14.876607	-16.979177	-11.825426
30544		-14.861376	-16.939526	-12.354029
30545		-14.836822	-16.913966	-12.900354
30546		-14.827869	-16.854496	-13.466467
30547		-14.844679	-16.761401	-14.033814
30548		-14.890076	-16.638145	-14.592914
30549		-14.986751	-16.484421	-15.153471
30550		-15.045641	-16.365569	-15.720277
30551		-15.062895	-16.286606	-16.296565
30552		-15.088732	-16.191495	-16.891928
30553		-15.130423	-16.070921	-17.497496
30554		-15.195352	-15.909535	-18.105091
30555		-15.295271	-15.702970	-18.712822
30556		-15.422491	-15.486026	-19.318539
30557		-15.504838	-15.336775	-19.921204
30558		-15.505715	-15.286293	-20.508684
30559		-15.509092	-15.237916	-21.099106
30560		-15.527069	-15.136192	-21.704798
30561		-15.564265	-15.014121	-22.310747
30562		-15.628703	-14.873436	-22.904908
30563		-15.748282	-14.694570	-23.494188
30564		-15.870138	-14.501207	-24.076111
30565		-16.008322	-14.301048	-24.658972
30566		-16.106235	-14.128909	-25.245827
30567		-16.173182	-13.995453	-25.834095
30568		-16.228681	-13.871370	-26.430907
30569		-16.296655	-13.733372	-27.027072
30570		-16.360978	-13.594544	-27.616301
30571		-16.446047	-13.453843	-28.198256
30572		-16.541495	-13.316782	-28.775673
30573		-16.635339	-13.166427	-29.348713
30574		-16.732708	-12.979609	-29.930738
30575		-16.824319	-12.809865	-30.509293
30576		-16.857939	-12.709383	-31.073799
30577		-16.862835	-12.657174	-31.634768
30578		-16.821269	-12.630676	-32.197801
30579		-16.792160	-12.589839	-32.757152
30580		-16.778436	-12.528069	-33.308447
30581		-16.783904	-12.442438	-33.843939
30582		-16.824516	-12.334318	-34.374096
30583		-16.897656	-12.212037	-34.910312
30584		-16.949445	-12.109253	-35.443840
30585		-17.001948	-12.023519	-35.980970
30586		-17.013349	-11.990030	-36.510125
30587		-17.021747	-11.987170	-37.026218
30588		-17.052791	-11.956220	-37.544415
30589		-17.094190	-11.905306	-38.062948
30590		-17.148001	-11.842979	-38.575629
30591		-17.206708	-11.764651	-39.083613
30592		-17.251948	-11.692308	-39.577946
30593		-17.280937	-11.625534	-40.051325
30594		-17.304175	-11.545802	-40.512752
30595		-17.334754	-11.456427	-40.961770
30596		-17.348521	-11.378467	-41.390483
30597		-17.347078	-11.328033	-41.802957
30598		-17.330930	-11.288155	-42.206542
30599		-17.337620	-11.249824	-42.615610
30600		-17.297082	-11.261945	-43.007479
30601		-17.239369	-11.301280	-43.381937
30602		-17.186004	-11.325298	-43.748936
30603		-17.131808	-11.331208	-44.106673
30604		-17.090065	-11.326082	-44.462508
30605		-17.062927	-11.305439	-44.824680
30606		-17.038107	-11.286389	-45.187598
30607		-17.001129	-11.283585	-45.542233
30608		-16.952101	-11.292904	-45.884085
30609		-16.899833	-11.310905	-46.212025
30610		-16.866648	-11.312856	-46.532990
30611		-16.864271	-11.295398	-46.842778
30612		-16.878017	-11.273867	-47.141816
30613		-16.893817	-11.255657	-47.436246
30614		-16.929517	-11.215707	-47.732660
30615		-16.958002	-11.173441	-48.025425
30616		-16.990794	-11.148197	-48.308503
30617		-17.034617	-11.119507	-48.582510
30618		-17.085929	-11.082887	-48.849093
30619		-17.142242	-11.049109	-49.106935
30620		-17.209573	-11.012035	-49.354877
30621		-17.295366	-10.957194	-49.587986
30622		-17.376159	-10.892084	-49.812395
30623		-17.443956	-10.828049	-50.032739
30624		-17.505795	-10.766501	-50.249738
30625		-17.574405	-10.699139	-50.460478
30626		-17.650118	-10.631279	-50.661796
30627		-17.729262	-10.567612	-50.852160
30628		-17.813533	-10.502224	-51.021378
30629		-17.913715	-10.425075	-51.169453
30630		-18.032766	-10.337543	-51.299383
30631		-18.148193	-10.250974	-51.411846
30632		-18.249648	-10.188711	-51.500390
30633		-18.333567	-10.151049	-51.560948
30634		-18.402356	-10.120660	-51.601831
30635		-18.464377	-10.103760	-51.615167
30636		-18.512158	-10.092251	-51.610533
30637		-18.558141	-10.078724	-51.591553
30638		-18.598989	-10.068866	-51.563690
30639		-18.626526	-10.062200	-51.531057
30640		-18.641157	-10.055434	-51.506483
30641		-18.646653	-10.050934	-51.483605
30642		-18.631192	-10.057061	-51.461998
30643		-18.611471	-10.058981	-51.445122
30644		-18.580703	-10.059126	-51.428993
30645		-18.546665	-10.058099	-51.415149
30646		-18.521928	-10.055894	-51.403356
30647		-18.505922	-10.051639	-51.391309
30648		-18.498792	-10.046805	-51.375275
30649		-18.495246	-10.046469	-51.352008
30650		-18.464479	-10.067817	-51.318761
30651		-18.430629	-10.103339	-51.266614
30652		-18.407775	-10.125838	-51.206518
30653		-18.395854	-10.137553	-51.129799
30654		-18.393522	-10.142593	-51.043732
30655		-18.398268	-10.134668	-50.944314
30656		-18.405598	-10.125372	-50.829280
30657		-18.424383	-10.112722	-50.702813
30658		-18.446315	-10.097450	-50.568844
30659		-18.453838	-10.096796	-50.428483
30660		-18.446943	-10.118428	-50.270771
30661		-18.425136	-10.138316	-50.106523
30662		-18.405689	-10.149205	-49.932660
30663		-18.393385	-10.142595	-49.753608
30664		-18.384336	-10.130251	-49.567685
30665		-18.380072	-10.117938	-49.373576
30666		-18.370324	-10.104012	-49.170956
30667		-18.361139	-10.097664	-48.959606
30668		-18.334452	-10.094815	-48.739488
30669		-18.293909	-10.105401	-48.509996
30670		-18.239626	-10.123265	-48.273398
30671		-18.185179	-10.132643	-48.033122
30672		-18.133674	-10.137019	-47.787152
30673		-18.082056	-10.146690	-47.531527
30674		-18.033537	-10.155274	-47.271415
30675		-17.999004	-10.164227	-47.006589
30676		-17.959606	-10.184792	-46.736577
30677		-17.903939	-10.225032	-46.457081
30678		-17.848719	-10.274507	-46.162975
30679		-17.804584	-10.315414	-45.862918
30680		-17.758880	-10.358256	-45.557366
30681		-17.718287	-10.405198	-45.248043
30682		-17.695230	-10.428553	-44.934741
30683		-17.681122	-10.439414	-44.620620
30684		-17.668117	-10.449942	-44.300340
30685		-17.654961	-10.448085	-43.984924
30686		-17.651962	-10.443896	-43.676340
30687		-17.652688	-10.437942	-43.361639
30688		-17.658088	-10.443714	-43.039994
30689		-17.644390	-10.463569	-42.708319
30690		-17.630307	-10.475495	-42.366721
30691		-17.605265	-10.501267	-42.008028
30692		-17.573175	-10.532013	-41.641395
30693		-17.545906	-10.551193	-41.274660
30694		-17.517032	-10.557114	-40.904928
30695		-17.511089	-10.565384	-40.539603
30696		-17.493232	-10.574618	-40.183757
30697		-17.490602	-10.594575	-39.826549
30698		-17.467612	-10.658314	-39.459334
30699		-17.416612	-10.759166	-39.075768
30700		-17.360559	-10.853783	-38.673750
30701		-17.304350	-10.920763	-38.252392
30702		-17.261940	-10.974829	-37.808199
30703		-17.245043	-11.024154	-37.348215
30704		-17.240196	-11.072009	-36.886184
30705		-17.224380	-11.130733	-36.427717
30706		-17.198390	-11.202400	-35.980247
30707		-17.187524	-11.294441	-35.538728
30708		-17.164260	-11.403966	-35.109548
30709		-17.124395	-11.527214	-34.686223
30710		-17.088705	-11.647432	-34.259284
30711		-17.065062	-11.731319	-33.829552
30712		-17.056674	-11.807740	-33.383963
30713		-17.056308	-11.901233	-32.923891
30714		-17.039457	-12.018189	-32.464697
30715		-16.993589	-12.158845	-32.009083
30716		-16.957433	-12.311273	-31.563094
30717		-16.904273	-12.469513	-31.128775
30718		-16.867558	-12.615808	-30.706586
30719		-16.834699	-12.756096	-30.280146
30720		-16.817316	-12.874059	-29.831019
30721		-16.786616	-13.006903	-29.368600
30722		-16.747192	-13.131167	-28.920899
30723		-16.699062	-13.265974	-28.473046
30724		-16.648152	-13.407086	-28.024854
30725		-16.612071	-13.529513	-27.585048
30726		-16.579801	-13.647167	-27.147703
30727		-16.549846	-13.769943	-26.711934
30728		-16.501905	-13.891558	-26.274380
30729		-16.434379	-14.008948	-25.833384
30730		-16.362928	-14.121102	-25.390848
30731		-16.296755	-14.235658	-24.942067
30732		-16.239987	-14.351253	-24.499807
30733		-16.191272	-14.468799	-24.070078
30734		-16.137518	-14.603778	-23.641113
30735		-16.086934	-14.753908	-23.214588
30736		-16.011654	-14.915356	-22.785938
30737		-15.926501	-15.066917	-22.353755
30738		-15.819107	-15.225999	-21.901818
30739		-15.691916	-15.390543	-21.438406
30740		-15.575615	-15.561989	-20.973352
30741		-15.470834	-15.727976	-20.518710
30742		-15.371737	-15.891475	-20.065945
30743		-15.259038	-16.041936	-19.622646
30744		-15.127133	-16.177808	-19.182322
30745		-14.996201	-16.319428	-18.732016
30746		-14.861329	-16.460720	-18.272991
30747		-14.750639	-16.586183	-17.805296
30748		-14.648850	-16.715532	-17.332344
30749		-14.554855	-16.839182	-16.860188
30750		-14.451185	-16.960020	-16.392720
30751		-14.357951	-17.068975	-15.935817
30752		-14.282060	-17.172580	-15.490115
30753		-14.209422	-17.260600	-15.054670
30754		-14.157801	-17.341442	-14.621271
30755		-14.105421	-17.436088	-14.187660
30756		-14.052238	-17.535859	-13.752455
30757		-13.997814	-17.627800	-13.326921
30758		-13.948581	-17.698490	-12.905991
30759		-13.910166	-17.759968	-12.488751
30760		-13.874110	-17.818874	-12.073272
30761		-13.851351	-17.883051	-11.655425
30762		-13.840511	-17.960222	-11.239644
30763		-13.823552	-18.034213	-10.822087
30764		-13.818785	-18.110386	-10.407384
30765		-13.801750	-18.179327	-9.999786
30766		-13.770277	-18.244930	-9.597347
30767		-13.739878	-18.310194	-9.203309
30768		-13.706990	-18.366497	-8.817839
30769		-13.679245	-18.425485	-8.431526
30770		-13.641435	-18.492965	-8.044959
30771		-13.614092	-18.567573	-7.655367
30772		-13.598128	-18.654512	-7.268517
30773		-13.597363	-18.739092	-6.890807
30774		-13.588838	-18.819936	-6.525989
30775		-13.567628	-18.907326	-6.177918
30776		-13.536699	-18.984488	-5.853281
30777		-13.491432	-19.047088	-5.546201
30778		-13.447664	-19.124646	-5.243041
30779		-13.415785	-19.218291	-4.941127
30780		-13.389429	-19.321512	-4.645856
30781		-13.359092	-19.427383	-4.363437
30782		-13.330143	-19.532981	-4.095747
30783		-13.306087	-19.654541	-3.847156
30784		-13.274618	-19.773522	-3.614481
30785		-13.225096	-19.888364	-3.394729
30786		-13.182178	-20.008736	-3.178724
30787		-13.148784	-20.125509	-2.959277
30788		-13.125798	-20.244785	-2.734319
30789		-13.116875	-20.353472	-2.514089
30790		-13.117958	-20.466269	-2.304826
30791		-13.126461	-20.556691	-2.114223
30792		-13.137332	-20.647300	-1.930591
30793		-13.149898	-20.723849	-1.751389
30794		-13.139864	-20.792506	-1.578955
30795		-13.134473	-20.860271	-1.411050
30796		-13.130024	-20.921017	-1.253999
30797		-13.147118	-20.981704	-1.093756
30798		-13.171037	-21.044025	-0.934845
30799		-13.201552	-21.097060	-0.781534
30800		-13.223111	-21.140728	-0.636920
30801		-13.229803	-21.179330	-0.504473
30802		-13.218486	-21.210303	-0.397339
30803		-13.190316	-21.234770	-0.300920
30804		-13.164366	-21.261564	-0.209626
30805		-13.155058	-21.286183	-0.119013
30806		-13.167426	-21.315596	-0.027859
30807		-13.165620	-21.333751	0.046902
30808		-13.140620	-21.350081	0.107039
30809		-13.104210	-21.361470	0.155820
30810		-13.070216	-21.372821	0.198698
30811		-13.052650	-21.388579	0.244408
30812		-13.047514	-21.397816	0.285678
30813		-13.044919	-21.405510	0.319778
30814		-13.032944	-21.409837	0.342508
30815		-13.015600	-21.396544	0.345214
30816		-12.988564	-21.378198	0.337428
30817		-12.947724	-21.363912	0.321033
30818		-12.920143	-21.358393	0.305134
30819		-12.907067	-21.358097	0.291486
30820		-12.897540	-21.364196	0.272592
30821		-12.895386	-21.362503	0.247722
30822		-12.896082	-21.366893	0.221064
30823		-12.893196	-21.366422	0.191530
30824		-12.894523	-21.360178	0.160816
30825		-12.902873	-21.356860	0.130394
30826		-12.902909	-21.347467	0.095736
30827		-12.896698	-21.339433	0.055728
30828		-12.887606	-21.328520	0.015716
30829		-12.884251	-21.320935	-0.023965
30830		-12.888050	-21.318022	-0.059874
30831		-12.893382	-21.310728	-0.094573
30832		-12.909598	-21.298895	-0.131079
30833		-12.916272	-21.287993	-0.167557
30834		-12.913470	-21.270556	-0.204158
30835		-12.908806	-21.258180	-0.239628
30836		-12.909510	-21.246502	-0.270582
30837		-12.915767	-21.229604	-0.301037
30838		-12.928951	-21.220013	-0.326963
30839		-12.937470	-21.197574	-0.353314
30840		-12.947665	-21.163952	-0.387737
30841		-12.949257	-21.129665	-0.430410
30842		-12.960553	-21.091899	-0.478935
30843		-12.948756	-21.057575	-0.527401
30844		-12.941808	-21.023589	-0.575774
30845		-12.936397	-20.992824	-0.621260
30846		-12.940465	-20.959332	-0.668779
30847		-12.942501	-20.918923	-0.718936
30848		-12.940491	-20.878390	-0.771113
30849		-12.944340	-20.828573	-0.823319
30850		-12.955590	-20.781746	-0.881662
30851		-12.958418	-20.730881	-0.949938
30852		-12.963953	-20.680697	-1.030996
30853		-12.966304	-20.643074	-1.119311
30854		-12.960796	-20.609388	-1.209983
30855		-12.967175	-20.575691	-1.300328
30856		-12.993979	-20.536815	-1.385821
30857		-13.028340	-20.489084	-1.478300
30858		-13.058295	-20.435458	-1.585958
30859		-13.070151	-20.382709	-1.702414
30860		-13.084091	-20.331880	-1.831241
30861		-13.098732	-20.282013	-1.960718
30862		-13.127907	-20.226506	-2.092214
30863		-13.177508	-20.164587	-2.229263
30864		-13.226820	-20.095764	-2.379396
30865		-13.273080	-20.024606	-2.546295
30866		-13.313130	-19.965993	-2.725465
30867		-13.354209	-19.909425	-2.916250
30868		-13.408817	-19.859594	-3.127270
30869		-13.457669	-19.805206	-3.355018
30870		-13.512043	-19.743114	-3.590010
30871		-13.566609	-19.679578	-3.826981
30872		-13.627196	-19.615045	-4.064939
30873		-13.705130	-19.528694	-4.304760
30874		-13.802394	-19.427735	-4.545682
30875		-13.900845	-19.326542	-4.788947
30876		-13.977906	-19.241706	-5.046591
30877		-14.033381	-19.156981	-5.333897
30878		-14.069264	-19.068813	-5.656733
30879		-14.115379	-18.979911	-6.006718
30880		-14.158688	-18.895359	-6.361780
30881		-14.206633	-18.806107	-6.710231
30882		-14.248308	-18.722399	-7.049553
30883		-14.287384	-18.635706	-7.386283
30884		-14.329679	-18.547557	-7.726113
30885		-14.366214	-18.454342	-8.066773
30886		-14.406119	-18.344591	-8.413562
30887		-14.457728	-18.211012	-8.770376
30888		-14.523295	-18.055476	-9.140155
30889		-14.604617	-17.886831	-9.518815
30890		-14.680313	-17.715969	-9.902301
30891		-14.755537	-17.548136	-10.295749
30892		-14.819259	-17.394954	-10.700294
30893		-14.867198	-17.259487	-11.119691
30894		-14.901272	-17.138270	-11.548753
30895		-14.928220	-17.016421	-11.992781
30896		-14.970009	-16.883739	-12.442291
30897		-15.033961	-16.724243	-12.900227
30898		-15.125637	-16.532729	-13.365447
30899		-15.246933	-16.323799	-13.834586
30900		-15.336871	-16.133176	-14.313462
30901		-15.380899	-15.988918	-14.805519
30902		-15.378115	-15.889174	-15.309891
30903		-15.359191	-15.814845	-15.824296
30904		-15.344082	-15.742777	-16.345290
30905		-15.365123	-15.642786	-16.863470
30906		-15.412330	-15.526989	-17.373811
30907		-15.470107	-15.412864	-17.875329
30908		-15.534168	-15.303847	-18.372820
30909		-15.612829	-15.183232	-18.874081
30910		-15.683676	-15.077328	-19.384745
30911		-15.729914	-14.990975	-19.892824
30912		-15.774771	-14.911627	-20.399603
30913		-15.814184	-14.818511	-20.908807
30914		-15.857258	-14.718680	-21.417680
30915		-15.913561	-14.607075	-21.916854
30916		-16.009105	-14.459470	-22.410368
30917		-16.130948	-14.296146	-22.898650
30918		-16.270413	-14.132657	-23.385145
30919		-16.357566	-14.021498	-23.871774
30920		-16.388196	-13.955624	-24.354125
30921		-16.399846	-13.909708	-24.831931
30922		-16.418331	-13.860762	-25.309401
30923		-16.442087	-13.810605	-25.783355
30924		-16.473762	-13.746613	-26.254390
30925		-16.520304	-13.663830	-26.718006
30926		-16.600938	-13.548804	-27.183276
30927		-16.685406	-13.438087	-27.647092
30928		-16.771651	-13.339236	-28.115604
30929		-16.822305	-13.274723	-28.583218
30930		-16.875878	-13.211136	-29.055563
30931		-16.938311	-13.131571	-29.537636
30932		-16.992972	-13.057397	-30.018068
30933		-17.040198	-12.990086	-30.489199
30934		-17.086936	-12.918815	-30.954012
30935		-17.141069	-12.835734	-31.414236
30936		-17.201013	-12.754860	-31.871128
30937		-17.244504	-12.706717	-32.314739
30938		-17.269437	-12.679597	-32.757633
30939		-17.265683	-12.691582	-33.196245
30940		-17.250583	-12.717053	-33.627174
30941		-17.243230	-12.717976	-34.059861
30942		-17.248579	-12.691672	-34.498584
30943		-17.265845	-12.652248	-34.934684
30944		-17.279872	-12.612623	-35.364165
30945		-17.296780	-12.581856	-35.790701
30946		-17.284479	-12.589913	-36.213129
30947		-17.260920	-12.603485	-36.638298
30948		-17.247266	-12.592129	-37.068711
30949		-17.232719	-12.572887	-37.496334
30950		-17.228055	-12.535037	-37.924413
30951		-17.224446	-12.490534	-38.348293
30952		-17.227816	-12.446718	-38.764803
30953		-17.234715	-12.404497	-39.170937
30954		-17.246937	-12.362684	-39.569027
30955		-17.246238	-12.336100	-39.961690
30956		-17.219272	-12.327594	-40.348438
30957		-17.183586	-12.330503	-40.728973
30958		-17.136495	-12.353724	-41.105170
30959		-17.076095	-12.391414	-41.470910
30960		-17.011148	-12.432874	-41.829875
30961		-16.956957	-12.463976	-42.189016
30962		-16.899585	-12.486498	-42.548628
30963		-16.853997	-12.505793	-42.902421
30964		-16.811947	-12.515571	-43.260051
30965		-16.774765	-12.523852	-43.616843
30966		-16.749761	-12.517256	-43.970029
30967		-16.733720	-12.496720	-44.316611
30968		-16.729750	-12.466628	-44.651899
30969		-16.726365	-12.427304	-44.974890
30970		-16.726120	-12.393161	-45.289459
30971		-16.726459	-12.374587	-45.598148
30972		-16.717936	-12.370205	-45.894243
30973		-16.714092	-12.374628	-46.183612
30974		-16.710266	-12.373333	-46.465751
30975		-16.713999	-12.361989	-46.743740
30976		-16.728650	-12.341361	-47.008322
30977		-16.741878	-12.319315	-47.261613
30978		-16.736633	-12.302339	-47.510966
30979		-16.720876	-12.299055	-47.750484
30980		-16.703227	-12.298242	-47.989598
30981		-16.692650	-12.294305	-48.220569
30982		-16.691553	-12.285633	-48.448344
30983		-16.701870	-12.272385	-48.677286
30984		-16.718596	-12.256781	-48.908903
30985		-16.739651	-12.240739	-49.134902
30986		-16.753847	-12.238287	-49.352651
30987		-16.745013	-12.256228	-49.564014
30988		-16.725232	-12.280507	-49.765399
30989		-16.699344	-12.303272	-49.968866
30990		-16.681895	-12.327396	-50.170627
30991		-16.651687	-12.362650	-50.369487
30992		-16.602571	-12.410555	-50.561720
30993		-16.543211	-12.463847	-50.750424
30994		-16.475588	-12.510536	-50.941095
30995		-16.419910	-12.546820	-51.128771
30996		-16.373199	-12.577467	-51.310752
30997		-16.329672	-12.608462	-51.479577
30998		-16.286722	-12.634837	-51.647578
30999		-16.252381	-12.654244	-51.810211
31000		-16.211338	-12.675519	-51.966788
31001		-16.154916	-12.704310	-52.110950
31002		-16.097834	-12.721768	-52.252615
31003		-16.047994	-12.733055	-52.380637
31004		-15.997264	-12.743223	-52.501054
31005		-15.948022	-12.751779	-52.615061
31006		-15.897623	-12.760013	-52.728566
31007		-15.851718	-12.770491	-52.834685
31008		-15.799512	-12.782287	-52.933496
31009		-15.756535	-12.795669	-53.019565
31010		-15.708895	-12.810921	-53.099092
31011		-15.667858	-12.825875	-53.169225
31012		-15.634114	-12.827938	-53.234529
31013		-15.603319	-12.835837	-53.289699
31014		-15.582808	-12.839916	-53.336869
31015		-15.570160	-12.839327	-53.378807
31016		-15.567617	-12.832462	-53.416436
31017		-15.575959	-12.824219	-53.449938
31018		-15.579317	-12.822241	-53.476134
31019		-15.577030	-12.814086	-53.505167
31020		-15.574568	-12.802192	-53.529685
31021		-15.563576	-12.794252	-53.549743
31022		-15.543263	-12.790074	-53.561095
31023		-15.525596	-12.785098	-53.564023
31024		-15.507345	-12.774970	-53.557978
31025		-15.497620	-12.772334	-53.543492
31026		-15.483139	-12.777240	-53.518172
31027		-15.470959	-12.767832	-53.482612
31028		-15.477990	-12.744068	-53.441076
31029		-15.492871	-12.718685	-53.388550
31030		-15.501013	-12.694778	-53.325950
31031		-15.492225	-12.676642	-53.254399
31032		-15.478386	-12.664706	-53.171522
31033		-15.453575	-12.649478	-53.080501
31034		-15.433229	-12.619478	-52.979983
31035		-15.423635	-12.580856	-52.873980
31036		-15.407960	-12.540226	-52.757207
31037		-15.396800	-12.491899	-52.630158
31038		-15.391269	-12.436510	-52.499129
31039		-15.392905	-12.374830	-52.360601
31040		-15.390595	-12.323547	-52.216127
31041		-15.381463	-12.285000	-52.066078
31042		-15.365137	-12.250073	-51.908817
31043		-15.351619	-12.207657	-51.742457
31044		-15.335546	-12.158965	-51.571745
31045		-15.326360	-12.107417	-51.392991
31046		-15.311748	-12.058492	-51.210055
31047		-15.299407	-12.019425	-51.021696
31048		-15.278482	-12.004932	-50.825774
31049		-15.251896	-11.999589	-50.622310
31050		-15.216401	-12.003854	-50.411759
31051		-15.169583	-12.019324	-50.191364
31052		-15.115205	-12.048602	-49.956071
31053		-15.049989	-12.096652	-49.707091
31054		-14.977648	-12.163088	-49.437239
31055		-14.909220	-12.232538	-49.154726
31056		-14.837757	-12.305915	-48.863503
31057		-14.778307	-12.376927	-48.569942
31058		-14.727136	-12.444742	-48.274049
31059		-14.683907	-12.508125	-47.970995
31060		-14.652195	-12.560559	-47.660685
31061		-14.628488	-12.602406	-47.342249
31062		-14.610966	-12.646523	-47.011740
31063		-14.608200	-12.669308	-46.673029
31064		-14.626233	-12.663311	-46.326476
31065		-14.663574	-12.646582	-45.970443
31066		-14.704063	-12.616480	-45.608067
31067		-14.762327	-12.570717	-45.236941
31068		-14.819408	-12.525327	-44.850137
31069		-14.885217	-12.469951	-44.458050
31070		-14.966284	-12.405645	-44.052976
31071		-15.057407	-12.332785	-43.639254
31072		-15.159130	-12.266002	-43.219259
31073		-15.279421	-12.189937	-42.795536
31074		-15.395022	-12.127593	-42.359268
31075		-15.479696	-12.093622	-41.903722
31076		-15.536148	-12.066698	-41.438942
31077		-15.598655	-12.028771	-40.964871
31078		-15.657593	-11.995974	-40.483080
31079		-15.728889	-11.962514	-39.988602
31080		-15.802502	-11.935994	-39.487823
31081		-15.870286	-11.925459	-38.982893
31082		-15.916569	-11.936095	-38.472883
31083		-15.944701	-11.964760	-37.957643
31084		-15.968542	-12.005564	-37.431471
31085		-16.003806	-12.044408	-36.895769
31086		-16.033225	-12.107633	-36.351491
31087		-16.042682	-12.203088	-35.805757
31088		-16.063509	-12.297591	-35.266929
31089		-16.098715	-12.392522	-34.731241
31090		-16.138466	-12.499435	-34.193532
31091		-16.178693	-12.607977	-33.655986
31092		-16.215307	-12.718550	-33.104002
31093		-16.229285	-12.857108	-32.562858
31094		-16.237409	-12.993365	-32.036630
31095		-16.268112	-13.119904	-31.510930
31096		-16.322412	-13.216350	-30.985489
31097		-16.368468	-13.316635	-30.450370
31098		-16.391765	-13.423865	-29.913507
31099		-16.414381	-13.527837	-29.381249
31100		-16.452868	-13.643968	-28.858588
31101		-16.481668	-13.774565	-28.340226
31102		-16.491452	-13.918811	-27.822737
31103		-16.477343	-14.070486	-27.300398
31104		-16.467072	-14.211141	-26.763851
31105		-16.448207	-14.339821	-26.208284
31106		-16.455343	-14.468131	-25.640202
31107		-16.433336	-14.586587	-25.068169
31108		-16.446577	-14.689237	-24.514910
31109		-16.466068	-14.795774	-23.972090
31110		-16.491027	-14.907412	-23.438396
31111		-16.508665	-15.013544	-22.903579
31112		-16.532461	-15.127975	-22.349259
31113		-16.556586	-15.220668	-21.777484
31114		-16.568666	-15.333743	-21.186151
31115		-16.575034	-15.446990	-20.596901
31116		-16.583948	-15.547080	-20.025513
31117		-16.578584	-15.657129	-19.460799
31118		-16.546762	-15.756465	-18.913287
31119		-16.519884	-15.851489	-18.377887
31120		-16.489716	-15.953241	-17.839302
31121		-16.463240	-16.072865	-17.294162
31122		-16.427127	-16.183777	-16.752082
31123		-16.399349	-16.283551	-16.220778
31124		-16.389040	-16.370697	-15.691479
31125		-16.375105	-16.461224	-15.167074
31126		-16.344927	-16.559745	-14.636775
31127		-16.320210	-16.655240	-14.103786
31128		-16.292502	-16.734570	-13.579829
31129		-16.275718	-16.804670	-13.059300
31130		-16.244582	-16.885234	-12.543905
31131		-16.203672	-16.960842	-12.034626
31132		-16.171216	-17.033544	-11.528582
31133		-16.143946	-17.105392	-11.024824
31134		-16.116765	-17.179759	-10.513481
31135		-16.088383	-17.246053	-10.001709
31136		-16.050953	-17.311322	-9.494576
31137		-16.027302	-17.366202	-8.996131
31138		-16.021485	-17.436340	-8.493683
31139		-16.062006	-17.522918	-7.990426
31140		-16.083050	-17.601152	-7.493321
31141		-16.111583	-17.674704	-7.003640
31142		-16.125495	-17.741497	-6.528168
31143		-16.132835	-17.799002	-6.068208
31144		-16.147218	-17.848262	-5.619457
31145		-16.182436	-17.900988	-5.178295
31146		-16.210255	-17.924707	-4.761125
31147		-16.222297	-17.959411	-4.353239
31148		-16.219864	-17.992072	-3.947306
31149		-16.209065	-18.032598	-3.550950
31150		-16.196431	-18.071364	-3.155598
31151		-16.183974	-18.113487	-2.771226
31152		-16.173530	-18.165077	-2.396771
31153		-16.155062	-18.230021	-2.035764
31154		-16.106030	-18.279517	-1.694759
31155		-16.059742	-18.339349	-1.356741
31156		-16.009922	-18.389414	-1.019176
31157		-15.965125	-18.438651	-0.696976
31158		-15.934276	-18.504171	-0.386497
31159		-15.905796	-18.569368	-0.095589
31160		-15.870801	-18.622666	0.175297
31161		-15.839501	-18.674841	0.432707
31162		-15.805690	-18.711295	0.672317
31163		-15.772425	-18.752185	0.895928
31164		-15.729019	-18.797996	1.103635
31165		-15.675734	-18.858964	1.298016
31166		-15.617098	-18.919505	1.478261
31167		-15.557437	-18.978868	1.648273
31168		-15.502214	-19.035485	1.807919
31169		-15.434592	-19.096050	1.957289
31170		-15.371799	-19.153295	2.099665
31171		-15.322758	-19.229509	2.232226
31172		-15.272554	-19.291391	2.344981
31173		-15.213652	-19.360596	2.447286
31174		-15.155691	-19.425687	2.548625
31175		-15.108750	-19.484858	2.646376
31176		-15.076021	-19.549947	2.746522
31177		-15.063698	-19.617382	2.846446
31178		-15.048942	-19.682623	2.941644
31179		-15.020582	-19.737149	3.019751
31180		-14.979934	-19.781223	3.080289
31181		-14.943182	-19.814654	3.131667
31182		-14.902984	-19.851479	3.179464
31183		-14.869795	-19.884038	3.220516
31184		-14.839241	-19.921908	3.251661
31185		-14.797854	-19.956142	3.271932
31186		-14.766128	-19.988577	3.293079
31187		-14.743062	-20.012347	3.313970
31188		-14.732951	-20.023285	3.330494
31189		-14.723956	-20.032423	3.336590
31190		-14.699955	-20.040806	3.340005
31191		-14.677101	-20.058998	3.342947
31192		-14.655411	-20.075973	3.342993
31193		-14.637089	-20.089522	3.341546
31194		-14.626732	-20.099001	3.333573
31195		-14.615511	-20.101598	3.319800
31196		-14.603640	-20.103822	3.302642
31197		-14.597051	-20.097579	3.281561
31198		-14.588468	-20.098749	3.261993
31199		-14.584082	-20.094366	3.236596
31200		-14.584214	-20.087760	3.205912
31201		-14.582475	-20.084636	3.174552
31202		-14.581080	-20.075715	3.138643
31203		-14.570548	-20.067062	3.096282
31204		-14.558463	-20.052726	3.042816
31205		-14.544898	-20.038643	2.983938
31206		-14.530863	-20.028481	2.921780
31207		-14.511119	-20.015868	2.855994
31208		-14.503973	-19.999467	2.788325
31209		-14.501408	-19.981782	2.717124
31210		-14.517687	-19.955671	2.633930
31211		-14.519913	-19.932658	2.529257
31212		-14.507505	-19.914784	2.413998
31213		-14.483825	-19.897678	2.294680
31214		-14.460371	-19.883824	2.172642
31215		-14.441744	-19.868695	2.049303
31216		-14.434685	-19.848452	1.919260
31217		-14.442962	-19.828289	1.785148
31218		-14.445999	-19.805568	1.641035
31219		-14.458515	-19.779392	1.484221
31220		-14.469131	-19.767383	1.321917
31221		-14.489634	-19.746973	1.160353
31222		-14.513295	-19.729562	0.997492
31223		-14.525935	-19.704242	0.829866
31224		-14.536714	-19.677819	0.657946
31225		-14.544716	-19.654830	0.474711
31226		-14.556586	-19.645285	0.281570
31227		-14.565007	-19.640543	0.082593
31228		-14.580074	-19.623319	-0.117857
31229		-14.605086	-19.604604	-0.319484
31230		-14.625297	-19.578850	-0.526732
31231		-14.635206	-19.557029	-0.745266
31232		-14.645223	-19.548361	-0.982438
31233		-14.631139	-19.538088	-1.253778
31234		-14.614006	-19.526097	-1.550165
31235		-14.584147	-19.528404	-1.853430
31236		-14.548071	-19.532382	-2.149273
31237		-14.515781	-19.531292	-2.443153
31238		-14.499746	-19.517919	-2.730925
31239		-14.504963	-19.489362	-3.014058
31240		-14.534234	-19.457451	-3.297966
31241		-14.559051	-19.425161	-3.581424
31242		-14.577278	-19.380335	-3.865000
31243		-14.605444	-19.319610	-4.152932
31244		-14.648583	-19.244907	-4.438205
31245		-14.706729	-19.162354	-4.720894
31246		-14.760225	-19.087658	-5.013989
31247		-14.804582	-19.019888	-5.324072
31248		-14.834803	-18.960914	-5.644966
31249		-14.867375	-18.903537	-5.975895
31250		-14.902786	-18.847296	-6.311401
31251		-14.941591	-18.781414	-6.643603
31252		-14.993662	-18.709213	-6.976379
31253		-15.034775	-18.637902	-7.316714
31254		-15.073013	-18.565018	-7.665237
31255		-15.101798	-18.485531	-8.028349
31256		-15.131782	-18.404314	-8.400407
31257		-15.161236	-18.327525	-8.780725
31258		-15.184787	-18.245555	-9.171658
31259		-15.219725	-18.151873	-9.568184
31260		-15.257320	-18.050001	-9.969891
31261		-15.290926	-17.950402	-10.376893
31262		-15.327766	-17.861292	-10.782719
31263		-15.359092	-17.779706	-11.198521
31264		-15.381536	-17.706263	-11.620672
31265		-15.417350	-17.617853	-12.045240
31266		-15.468512	-17.507926	-12.474940
31267		-15.514633	-17.387416	-12.907468
31268		-15.540658	-17.293415	-13.337149
31269		-15.545200	-17.217275	-13.772575
31270		-15.548337	-17.146482	-14.214533
31271		-15.549976	-17.062954	-14.667440
31272		-15.551370	-16.980683	-15.118392
31273		-15.564629	-16.891602	-15.567877
31274		-15.589249	-16.801801	-16.013589
31275		-15.617416	-16.716672	-16.458545
31276		-15.626109	-16.632674	-16.909282
31277		-15.616261	-16.557674	-17.355903
31278		-15.611691	-16.486398	-17.800116
31279		-15.619085	-16.403744	-18.244232
31280		-15.639850	-16.347911	-18.686812
31281		-15.648226	-16.333430	-19.127594
31282		-15.643826	-16.327053	-19.578019
31283		-15.644002	-16.314709	-20.036335
31284		-15.656808	-16.301628	-20.492713
31285		-15.675363	-16.287332	-20.938103
31286		-15.706582	-16.258682	-21.373017
31287		-15.755815	-16.216670	-21.798678
31288		-15.813561	-16.172482	-22.220098
31289		-15.851914	-16.132280	-22.647045
31290		-15.862923	-16.108075	-23.078086
31291		-15.857000	-16.089528	-23.513644
31292		-15.864318	-16.050789	-23.953836
31293		-15.881775	-15.991980	-24.389640
31294		-15.925378	-15.913482	-24.817060
31295		-15.978463	-15.813558	-25.236314
31296		-16.052202	-15.706451	-25.653996
31297		-16.127115	-15.598777	-26.070670
31298		-16.177550	-15.502923	-26.494455
31299		-16.183960	-15.431467	-26.922829
31300		-16.168501	-15.367885	-27.351888
31301		-16.154267	-15.306616	-27.781123
31302		-16.150052	-15.243978	-28.207927
31303		-16.160793	-15.168114	-28.629531
31304		-16.178541	-15.087730	-29.046777
31305		-16.216855	-15.007479	-29.466233
31306		-16.245018	-14.945127	-29.888703
31307		-16.262922	-14.884659	-30.314094
31308		-16.266067	-14.819110	-30.745087
31309		-16.247049	-14.771536	-31.162786
31310		-16.221806	-14.730755	-31.577024
31311		-16.200588	-14.678099	-31.984481
31312		-16.168704	-14.615156	-32.385425
31313		-16.129438	-14.537496	-32.778515
31314		-16.107282	-14.444971	-33.164353
31315		-16.083250	-14.370065	-33.539348
31316		-16.016945	-14.351146	-33.907153
31317		-15.927136	-14.353885	-34.274166
31318		-15.841333	-14.349107	-34.646041
31319		-15.780521	-14.317607	-35.018972
31320		-15.737826	-14.270449	-35.380964
31321		-15.715001	-14.214630	-35.734097
31322		-15.697551	-14.146872	-36.078408
31323		-15.694839	-14.075118	-36.419196
31324		-15.680008	-14.018612	-36.758229
31325		-15.664847	-13.973827	-37.100951
31326		-15.645404	-13.930456	-37.446408
31327		-15.634439	-13.885349	-37.795330
31328		-15.647910	-13.843013	-38.144884
31329		-15.651198	-13.818961	-38.481230
31330		-15.655862	-13.784329	-38.811447
31331		-15.670783	-13.740625	-39.136275
31332		-15.692863	-13.697343	-39.449942
31333		-15.712980	-13.649684	-39.757332
31334		-15.730692	-13.596243	-40.060553
31335		-15.754214	-13.543097	-40.360046
31336		-15.788422	-13.493655	-40.662110
31337		-15.796895	-13.458634	-40.963508
31338		-15.797484	-13.425727	-41.263147
31339		-15.794143	-13.398274	-41.560951
31340		-15.790960	-13.375820	-41.856635
31341		-15.792149	-13.347870	-42.149653
31342		-15.781777	-13.325296	-42.437825
31343		-15.754588	-13.310030	-42.719037
31344		-15.735334	-13.294067	-43.005483
31345		-15.709960	-13.288725	-43.289531
31346		-15.658402	-13.288454	-43.571129
31347		-15.595488	-13.274720	-43.849774
31348		-15.543511	-13.253032	-44.122057
31349		-15.502344	-13.236339	-44.385041
31350		-15.468465	-13.218965	-44.635804
31351		-15.445336	-13.204221	-44.881735
31352		-15.423119	-13.201793	-45.128315
31353		-15.391833	-13.217998	-45.378811
31354		-15.336048	-13.243400	-45.631545
31355		-15.269080	-13.285548	-45.883000
31356		-15.218832	-13.325208	-46.123874
31357		-15.176418	-13.359871	-46.358497
31358		-15.162833	-13.395948	-46.573192
31359		-15.173375	-13.432954	-46.785837
31360		-15.200317	-13.466148	-46.999398
31361		-15.241036	-13.498823	-47.210558
31362		-15.288378	-13.531185	-47.422874
31363		-15.328240	-13.571261	-47.636123
31364		-15.354143	-13.611665	-47.847904
31365		-15.370922	-13.640059	-48.057955
31366		-15.377381	-13.661928	-48.265530
31367		-15.385063	-13.676158	-48.473136
31368		-15.398860	-13.687299	-48.676949
31369		-15.418091	-13.698119	-48.879334
31370		-15.434724	-13.701191	-49.083033
31371		-15.444813	-13.708866	-49.289614
31372		-15.452315	-13.718372	-49.486448
31373		-15.446792	-13.734201	-49.676361
31374		-15.428233	-13.749728	-49.860277
31375		-15.411208	-13.763158	-50.039857
31376		-15.400199	-13.769258	-50.209657
31377		-15.390415	-13.773513	-50.372337
31378		-15.376280	-13.780931	-50.524109
31379		-15.362168	-13.780486	-50.668982
31380		-15.353532	-13.775078	-50.804889
31381		-15.346311	-13.765056	-50.936166
31382		-15.335061	-13.758460	-51.065243
31383		-15.319144	-13.752787	-51.192668
31384		-15.294704	-13.751313	-51.315844
31385		-15.266846	-13.745232	-51.437777
31386		-15.237243	-13.728487	-51.552130
31387		-15.223278	-13.696363	-51.663423
31388		-15.202942	-13.666980	-51.768285
31389		-15.182733	-13.634919	-51.872011
31390		-15.166813	-13.598630	-51.966453
31391		-15.148730	-13.563626	-52.055411
31392		-15.124172	-13.531873	-52.139848
31393		-15.096630	-13.506526	-52.217171
31394		-15.075998	-13.473735	-52.288127
31395		-15.065845	-13.440255	-52.350234
31396		-15.052996	-13.399696	-52.398593
31397		-15.036664	-13.351418	-52.439461
31398		-15.028014	-13.301846	-52.471013
31399		-15.026616	-13.251221	-52.498120
31400		-15.013057	-13.217904	-52.514209
31401		-14.983205	-13.203843	-52.517293
31402		-14.943660	-13.201490	-52.511991
31403		-14.906277	-13.200634	-52.495121
31404		-14.867202	-13.184917	-52.472596
31405		-14.835379	-13.172165	-52.443632
31406		-14.807768	-13.155201	-52.409423
31407		-14.782080	-13.137541	-52.371390
31408		-14.750330	-13.127161	-52.323460
31409		-14.714024	-13.121129	-52.265962
31410		-14.672559	-13.116835	-52.202310
31411		-14.626721	-13.109756	-52.135670
31412		-14.583935	-13.121751	-52.061157
31413		-14.543911	-13.151918	-51.971817
31414		-14.497566	-13.194490	-51.873777
31415		-14.456497	-13.236408	-51.765678
31416		-14.416237	-13.267635	-51.648213
31417		-14.385321	-13.286249	-51.528495
31418		-14.364967	-13.297733	-51.404854
31419		-14.353746	-13.288553	-51.282980
31420		-14.345526	-13.280001	-51.153521
31421		-14.329281	-13.288705	-51.016049
31422		-14.301957	-13.316227	-50.870815
31423		-14.270581	-13.359642	-50.710245
31424		-14.245510	-13.412752	-50.534974
31425		-14.233666	-13.448146	-50.348819
31426		-14.239491	-13.459195	-50.151651
31427		-14.255408	-13.454438	-49.944260
31428		-14.281395	-13.439560	-49.723895
31429		-14.313594	-13.419185	-49.491756
31430		-14.339235	-13.398829	-49.250936
31431		-14.364857	-13.381959	-49.000749
31432		-14.386302	-13.374143	-48.735260
31433		-14.409670	-13.355588	-48.461151
31434		-14.437596	-13.326364	-48.178902
31435		-14.469908	-13.289096	-47.892569
31436		-14.507276	-13.244010	-47.599142
31437		-14.548029	-13.193020	-47.301826
31438		-14.576548	-13.150132	-46.997127
31439		-14.599899	-13.102890	-46.685230
31440		-14.626134	-13.050615	-46.360164
31441		-14.659779	-13.001556	-46.019433
31442		-14.696830	-12.954072	-45.667798
31443		-14.739374	-12.907447	-45.305368
31444		-14.776996	-12.873274	-44.933593
31445		-14.825881	-12.833078	-44.552372
31446		-14.877998	-12.783351	-44.161618
31447		-14.943987	-12.732539	-43.757511
31448		-15.011758	-12.681312	-43.343993
31449		-15.076969	-12.636522	-42.922273
31450		-15.139804	-12.596314	-42.498914
31451		-15.203229	-12.564856	-42.074600
31452		-15.251357	-12.544275	-41.651637
31453		-15.301423	-12.512990	-41.217686
31454		-15.351685	-12.475585	-40.778540
31455		-15.392375	-12.443057	-40.330474
31456		-15.435683	-12.410824	-39.878220
31457		-15.477723	-12.391827	-39.419621
31458		-15.521445	-12.390754	-38.954206
31459		-15.551967	-12.418873	-38.480071
31460		-15.582725	-12.441872	-37.997703
31461		-15.617305	-12.463649	-37.513114
31462		-15.645235	-12.472355	-37.032603
31463		-15.658249	-12.488911	-36.547719
31464		-15.668327	-12.518938	-36.055486
31465		-15.664170	-12.558053	-35.563281
31466		-15.660452	-12.603606	-35.071664
31467		-15.664642	-12.651824	-34.583374
31468		-15.654087	-12.711175	-34.098808
31469		-15.644085	-12.792520	-33.612823
31470		-15.626440	-12.876330	-33.130033
31471		-15.608867	-12.953533	-32.638977
31472		-15.596935	-13.020775	-32.138720
31473		-15.591711	-13.088750	-31.625157
31474		-15.594048	-13.164306	-31.111057
31475		-15.602466	-13.249269	-30.601460
31476		-15.604486	-13.351328	-30.092191
31477		-15.598849	-13.473177	-29.600826
31478		-15.575643	-13.619142	-29.121095
31479		-15.542747	-13.765926	-28.646308
31480		-15.504666	-13.916768	-28.167128
31481		-15.458957	-14.060217	-27.690595
31482		-15.404777	-14.193881	-27.208102
31483		-15.351882	-14.322696	-26.716290
31484		-15.307300	-14.443617	-26.218885
31485		-15.281956	-14.559796	-25.712780
31486		-15.263205	-14.663010	-25.207580
31487		-15.217224	-14.784071	-24.707891
31488		-15.154097	-14.908012	-24.209962
31489		-15.093060	-15.027839	-23.714745
31490		-15.041676	-15.141295	-23.209481
31491		-14.997725	-15.252216	-22.693972
31492		-14.963386	-15.353334	-22.170516
31493		-14.925573	-15.457262	-21.644047
31494		-14.904605	-15.551058	-21.127827
31495		-14.887169	-15.643454	-20.624489
31496		-14.862102	-15.737998	-20.124442
31497		-14.830731	-15.849857	-19.622026
31498		-14.794412	-15.954336	-19.122988
31499		-14.749125	-16.046099	-18.623571
31500		-14.713930	-16.137644	-18.124429
31501		-14.684486	-16.231019	-17.627132
31502		-14.656075	-16.326888	-17.135657
31503		-14.644998	-16.415509	-16.647119
31504		-14.631301	-16.498411	-16.163709
31505		-14.601471	-16.588955	-15.684223
31506		-14.566530	-16.675655	-15.210725
31507		-14.525804	-16.764696	-14.739770
31508		-14.472281	-16.854900	-14.270369
31509		-14.408609	-16.937860	-13.807615
31510		-14.315631	-17.019865	-13.358944
31511		-14.223747	-17.121256	-12.905504
31512		-14.089719	-17.215445	-12.477447
31513		-13.957426	-17.340385	-12.059422
31514		-13.814150	-17.458635	-11.654084
31515		-13.663264	-17.561050	-11.263995
31516		-13.515644	-17.659432	-10.879464
31517		-13.375357	-17.751556	-10.498101
31518		-13.241838	-17.849553	-10.113165
31519		-13.108459	-17.960106	-9.722049
31520		-12.979549	-18.082020	-9.331863
31521		-12.871065	-18.193548	-8.956725
31522		-12.792350	-18.320159	-8.586772
31523		-12.719594	-18.434553	-8.227073
31524		-12.663192	-18.540940	-7.879802
31525		-12.621104	-18.653475	-7.534570
31526		-12.590524	-18.767764	-7.195126
31527		-12.557293	-18.884639	-6.871762
31528		-12.537491	-19.016448	-6.547326
31529		-12.542569	-19.155912	-6.218677
31530		-12.590781	-19.297221	-5.892325
31531		-12.609328	-19.429051	-5.575478
31532		-12.609872	-19.543369	-5.287734
31533		-12.610907	-19.650496	-5.022811
31534		-12.617603	-19.768114	-4.757985
31535		-12.638333	-19.896501	-4.481259
31536		-12.672606	-20.026461	-4.186034
31537		-12.721659	-20.151848	-3.880712
31538		-12.759717	-20.255369	-3.576484
31539		-12.793161	-20.360371	-3.306554
31540		-12.800786	-20.446781	-3.082636
31541		-12.793892	-20.551589	-2.873581
31542		-12.795677	-20.651454	-2.669687
31543		-12.806706	-20.752727	-2.456812
31544		-12.827346	-20.849728	-2.242395
31545		-12.850979	-20.934767	-2.032058
31546		-12.866723	-21.000559	-1.839075
31547		-12.884982	-21.063666	-1.665100
31548		-12.906738	-21.134889	-1.499903
31549		-12.896988	-21.188072	-1.350914
31550		-12.864312	-21.248278	-1.219495
31551		-12.829937	-21.323960	-1.096123
31552		-12.781266	-21.380353	-0.981286
31553		-12.745579	-21.433375	-0.860566
31554		-12.710191	-21.477708	-0.733734
31555		-12.697876	-21.518838	-0.600018
31556		-12.698509	-21.554350	-0.473980
31557		-12.736325	-21.598256	-0.355467
31558		-12.768943	-21.644109	-0.251706
31559		-12.782048	-21.683162	-0.157534
31560		-12.772686	-21.712739	-0.068096
31561		-12.747688	-21.727401	0.017596
31562		-12.745644	-21.728944	0.103270
31563		-12.756680	-21.729728	0.195072
31564		-12.776967	-21.743657	0.285600
31565		-12.785272	-21.760899	0.368683
31566		-12.795454	-21.778866	0.447456
31567		-12.820716	-21.786783	0.516889
31568		-12.841182	-21.790343	0.575708
31569		-12.839694	-21.787022	0.621071
31570		-12.835502	-21.788951	0.663572
31571		-12.834757	-21.786829	0.703607
31572		-12.834527	-21.779699	0.740123
31573		-12.845492	-21.770824	0.769368
31574		-12.846423	-21.760078	0.790884
31575		-12.840304	-21.750142	0.799821
31576		-12.842731	-21.755663	0.801035
31577		-12.839511	-21.763565	0.796780
31578		-12.831515	-21.764560	0.794720
31579		-12.823176	-21.753448	0.803951
31580		-12.829130	-21.729094	0.814268
31581		-12.846935	-21.696380	0.826581
31582		-12.867080	-21.662294	0.827973
31583		-12.875421	-21.633382	0.813170
31584		-12.871613	-21.614379	0.788251
31585		-12.856640	-21.605931	0.760674
31586		-12.842772	-21.594504	0.738963
31587		-12.830217	-21.582967	0.716152
31588		-12.813800	-21.565887	0.695320
31589		-12.801640	-21.557093	0.677842
31590		-12.790170	-21.556284	0.659214
31591		-12.787202	-21.559955	0.641239
31592		-12.784530	-21.561160	0.620593
31593		-12.784959	-21.552880	0.597029
31594		-12.784659	-21.540730	0.571031
31595		-12.780337	-21.528214	0.543768
31596		-12.776431	-21.510714	0.515846
31597		-12.779888	-21.492761	0.495511
31598		-12.791646	-21.485166	0.472060
31599		-12.808149	-21.479303	0.445318
31600		-12.809928	-21.480222	0.415285
31601		-12.811825	-21.482132	0.385235
31602		-12.820939	-21.486028	0.359986
31603		-12.837225	-21.479119	0.337934
31604		-12.856579	-21.459997	0.314199
31605		-12.876807	-21.435355	0.288898
31606		-12.904378	-21.405906	0.262397
31607		-12.923921	-21.376531	0.232567
31608		-12.945294	-21.348087	0.201262
31609		-12.970281	-21.315432	0.167447
31610		-12.995996	-21.300460	0.135863
31611		-13.020612	-21.282438	0.104262
31612		-13.040538	-21.265242	0.071098
31613		-13.071439	-21.242826	0.042385
31614		-13.105139	-21.212177	0.012632
31615		-13.156360	-21.168567	-0.013944
31616		-13.203650	-21.125207	-0.044399
31617		-13.268714	-21.081801	-0.085874
31618		-13.322548	-21.042708	-0.137891
31619		-13.368116	-21.006086	-0.203178
31620		-13.390141	-20.970742	-0.278767
31621		-13.418078	-20.930722	-0.359884
31622		-13.445903	-20.885298	-0.446122
31623		-13.488229	-20.841401	-0.545003
31624		-13.547744	-20.794440	-0.655248
31625		-13.604935	-20.748722	-0.776212
31626		-13.661524	-20.702505	-0.900593
31627		-13.715483	-20.650451	-1.030272
31628		-13.774810	-20.588777	-1.167914
31629		-13.836563	-20.513320	-1.317167
31630		-13.913305	-20.433418	-1.474703
31631		-14.011153	-20.352350	-1.645840
31632		-14.095128	-20.285062	-1.844859
31633		-14.165903	-20.222176	-2.083571
31634		-14.233370	-20.169673	-2.348989
31635		-14.280230	-20.124092	-2.625049
31636		-14.328131	-20.071814	-2.909332
31637		-14.374646	-20.015599	-3.192937
31638		-14.421156	-19.949582	-3.480790
31639		-14.483202	-19.860475	-3.771721
31640		-14.569737	-19.750749	-4.066505
31641		-14.633685	-19.648437	-4.371491
31642		-14.685606	-19.555199	-4.686214
31643		-14.721535	-19.466757	-5.024764
31644		-14.761783	-19.371304	-5.377097
31645		-14.810757	-19.265501	-5.742175
31646		-14.883711	-19.140483	-6.117613
31647		-14.952144	-19.007270	-6.504164
31648		-15.001770	-18.876675	-6.899972
31649		-15.046164	-18.753932	-7.302701
31650		-15.082741	-18.640736	-7.720302
31651		-15.126232	-18.517727	-8.150195
31652		-15.161014	-18.393641	-8.592662
31653		-15.192288	-18.265118	-9.038261
31654		-15.238747	-18.107920	-9.488373
31655		-15.308278	-17.919858	-9.942499
31656		-15.354084	-17.758906	-10.402889
31657		-15.342615	-17.666624	-10.863854
31658		-15.325128	-17.595393	-11.334370
31659		-15.296506	-17.510738	-11.831943
31660		-15.265947	-17.425502	-12.334720
31661		-15.250572	-17.332758	-12.833714
31662		-15.250732	-17.211891	-13.328434
31663		-15.285747	-17.061184	-13.820928
31664		-15.347982	-16.894754	-14.312408
31665		-15.396386	-16.727736	-14.809817
31666		-15.401607	-16.589779	-15.317107
31667		-15.383971	-16.475482	-15.828512
31668		-15.358078	-16.356585	-16.351322
31669		-15.344938	-16.229445	-16.874681
31670		-15.346949	-16.100439	-17.396976
31671		-15.388211	-15.956197	-17.914161
31672		-15.440937	-15.793982	-18.434978
31673		-15.475246	-15.636543	-18.954626
31674		-15.505035	-15.482258	-19.465922
31675		-15.572856	-15.309651	-19.978759
31676		-15.646586	-15.130301	-20.496579
31677		-15.703290	-14.955155	-21.009488
31678		-15.763812	-14.760896	-21.521643
31679		-15.817816	-14.559893	-22.035437
31680		-15.863328	-14.378093	-22.540814
31681		-15.918205	-14.213401	-23.048926
31682		-15.923145	-14.081602	-23.570217
31683		-15.876005	-13.980374	-24.096794
31684		-15.828479	-13.869055	-24.626863
31685		-15.799729	-13.728496	-25.156030
31686		-15.793436	-13.559718	-25.666588
31687		-15.796609	-13.364756	-26.165058
31688		-15.807420	-13.160276	-26.664175
31689		-15.843130	-12.955127	-27.166585
31690		-15.868055	-12.767108	-27.669760
31691		-15.872007	-12.614817	-28.171299
31692		-15.837236	-12.486078	-28.667103
31693		-15.802009	-12.336932	-29.160264
31694		-15.771557	-12.167427	-29.656507
31695		-15.730518	-12.015005	-30.148269
31696		-15.668204	-11.900942	-30.631917
31697		-15.579369	-11.804665	-31.114821
31698		-15.501372	-11.683855	-31.609948
31699		-15.448584	-11.550237	-32.107253
31700		-15.421223	-11.419960	-32.601415
31701		-15.420756	-11.280094	-33.083327
31702		-15.423219	-11.143625	-33.549285
31703		-15.441717	-11.013891	-34.000024
31704		-15.479941	-10.884728	-34.447409
31705		-15.502687	-10.771886	-34.904259
31706		-15.501303	-10.698135	-35.360670
31707		-15.504995	-10.623428	-35.826304
31708		-15.519338	-10.530714	-36.296277
31709		-15.551585	-10.434295	-36.754644
31710		-15.598323	-10.347217	-37.196710
31711		-15.650697	-10.257083	-37.631384
31712		-15.692482	-10.177777	-38.059443
31713		-15.729240	-10.101576	-38.487000
31714		-15.769294	-10.024508	-38.906814
31715		-15.827458	-9.936441	-39.320391
31716		-15.881577	-9.846615	-39.720553
31717		-15.941418	-9.754178	-40.107332
31718		-16.004941	-9.659747	-40.491397
31719		-16.054524	-9.567658	-40.867005
31720		-16.071727	-9.482720	-41.250968
31721		-16.054866	-9.422603	-41.632718
31722		-16.004251	-9.384370	-42.001899
31723		-15.950199	-9.341597	-42.361751
31724		-15.900879	-9.307269	-42.707385
31725		-15.854646	-9.260514	-43.041145
31726		-15.823995	-9.214451	-43.360314
31727		-15.803983	-9.169611	-43.669551
31728		-15.791674	-9.114216	-43.975118
31729		-15.763462	-9.060277	-44.275189
31730		-15.706709	-9.019737	-44.570677
31731		-15.641182	-8.978887	-44.864276
31732		-15.578338	-8.924100	-45.149182
31733		-15.520412	-8.883913	-45.427808
31734		-15.469853	-8.862789	-45.694833
31735		-15.424003	-8.847190	-45.958793
31736		-15.379630	-8.840025	-46.219545
31737		-15.341644	-8.841106	-46.470400
31738		-15.315346	-8.829753	-46.713395
31739		-15.294000	-8.805781	-46.955530
31740		-15.266221	-8.793858	-47.187661
31741		-15.231815	-8.789842	-47.415486
31742		-15.194219	-8.788061	-47.636473
31743		-15.161488	-8.798976	-47.852500
31744		-15.125244	-8.826577	-48.058322
31745		-15.102080	-8.845805	-48.266087
31746		-15.086669	-8.864313	-48.473760
31747		-15.089662	-8.873762	-48.685198
31748		-15.103494	-8.874289	-48.896648
31749		-15.105540	-8.884641	-49.098460
31750		-15.118112	-8.870465	-49.296391
31751		-15.159986	-8.838257	-49.494506
31752		-15.229369	-8.799710	-49.687463
31753		-15.309363	-8.757906	-49.876952
31754		-15.379369	-8.719323	-50.058854
31755		-15.446658	-8.674195	-50.230575
31756		-15.503088	-8.623541	-50.389350
31757		-15.549248	-8.570855	-50.539567
31758		-15.587173	-8.514298	-50.677693
31759		-15.631830	-8.444904	-50.809309
31760		-15.685423	-8.372227	-50.934927
31761		-15.748497	-8.299000	-51.049061
31762		-15.799152	-8.239170	-51.149077
31763		-15.828211	-8.193723	-51.237096
31764		-15.842042	-8.153650	-51.315832
31765		-15.843365	-8.121203	-51.387659
31766		-15.843485	-8.082144	-51.456638
31767		-15.844885	-8.043819	-51.516807
31768		-15.844668	-8.009306	-51.565443
31769		-15.841284	-7.972320	-51.604922
31770		-15.839274	-7.940091	-51.630647
31771		-15.827178	-7.905975	-51.646310
31772		-15.814376	-7.867663	-51.656112
31773		-15.800602	-7.831874	-51.657007
31774		-15.791682	-7.795111	-51.648590
31775		-15.786932	-7.750195	-51.632970
31776		-15.790894	-7.702343	-51.613268
31777		-15.803838	-7.653866	-51.589435
31778		-15.814133	-7.604154	-51.560087
31779		-15.813181	-7.564821	-51.528262
31780		-15.801438	-7.525039	-51.487694
31781		-15.782646	-7.488556	-51.440789
31782		-15.757585	-7.458834	-51.387485
31783		-15.750881	-7.423760	-51.320222
31784		-15.760279	-7.378047	-51.241225
31785		-15.786586	-7.321589	-51.149673
31786		-15.831622	-7.252173	-51.051478
31787		-15.881016	-7.185099	-50.940976
31788		-15.911447	-7.131361	-50.824169
31789		-15.909460	-7.082247	-50.712654
31790		-15.859390	-7.086592	-50.584859
31791		-15.794177	-7.105121	-50.450911
31792		-15.751087	-7.093839	-50.316963
31793		-15.730850	-7.077040	-50.173439
31794		-15.715180	-7.060641	-50.020459
31795		-15.682084	-7.046022	-49.865137
31796		-15.620121	-7.062816	-49.697966
31797		-15.550232	-7.109359	-49.509927
31798		-15.464326	-7.194948	-49.294182
31799		-15.380010	-7.289238	-49.061629
31800		-15.298809	-7.374252	-48.822597
31801		-15.230385	-7.443133	-48.580413
31802		-15.187890	-7.477397	-48.330597
31803		-15.175851	-7.489946	-48.068375
31804		-15.177006	-7.491008	-47.795421
31805		-15.186272	-7.496929	-47.512274
31806		-15.196203	-7.516745	-47.221018
31807		-15.190216	-7.553237	-46.918961
31808		-15.163660	-7.604428	-46.610155
31809		-15.114121	-7.671662	-46.290537
31810		-15.083140	-7.735609	-45.953788
31811		-15.063495	-7.788413	-45.613210
31812		-15.020888	-7.866114	-45.258149
31813		-14.970057	-7.961102	-44.895110
31814		-14.912383	-8.069406	-44.526449
31815		-14.847255	-8.199783	-44.158313
31816		-14.755032	-8.359899	-43.787428
31817		-14.630005	-8.555671	-43.406923
31818		-14.490148	-8.762308	-43.022794
31819		-14.380103	-8.933017	-42.634039
31820		-14.287783	-9.095759	-42.225281
31821		-14.196782	-9.257919	-41.799252
31822		-14.094720	-9.419643	-41.370426
31823		-14.006919	-9.564146	-40.931350
31824		-13.927126	-9.702696	-40.491931
31825		-13.858634	-9.841445	-40.052135
31826		-13.781585	-9.974478	-39.604971
31827		-13.682426	-10.119865	-39.153193
31828		-13.587731	-10.277520	-38.684092
31829		-13.505222	-10.419054	-38.194643
31830		-13.422963	-10.551414	-37.686671
31831		-13.344877	-10.674212	-37.168966
31832		-13.258022	-10.799386	-36.645620
31833		-13.182451	-10.929537	-36.116047
31834		-13.111312	-11.067716	-35.583691
31835		-13.032898	-11.206277	-35.052403
31836		-12.970454	-11.340611	-34.528589
31837		-12.900949	-11.478485	-34.005204
31838		-12.846020	-11.619637	-33.471979
31839		-12.788196	-11.768248	-32.935575
31840		-12.731668	-11.903395	-32.389452
31841		-12.693235	-12.048004	-31.826540
31842		-12.669386	-12.198163	-31.260293
31843		-12.652513	-12.352525	-30.690697
31844		-12.640168	-12.507738	-30.125147
31845		-12.630779	-12.667231	-29.571676
31846		-12.625817	-12.827225	-29.013495
31847		-12.618364	-12.975872	-28.445895
31848		-12.599454	-13.118669	-27.856170
31849		-12.601770	-13.263646	-27.245516
31850		-12.616482	-13.392994	-26.630620
31851		-12.629482	-13.527257	-26.014053
31852		-12.662352	-13.646220	-25.401437
31853		-12.702275	-13.769989	-24.802307
31854		-12.759250	-13.895013	-24.215562
31855		-12.813839	-14.022031	-23.626888
31856		-12.856686	-14.157252	-23.032649
31857		-12.872587	-14.293004	-22.438281
31858		-12.873491	-14.413014	-21.851689
31859		-12.882196	-14.523101	-21.263355
31860		-12.901687	-14.625345	-20.685726
31861		-12.920307	-14.713424	-20.124419
31862		-12.927022	-14.809310	-19.583188
31863		-12.924474	-14.912222	-19.054080
31864		-12.927907	-15.028872	-18.522007
31865		-12.929116	-15.142531	-17.978615
31866		-12.927623	-15.253896	-17.429534
31867		-12.927474	-15.352808	-16.898858
31868		-12.919317	-15.448258	-16.385739
31869		-12.912083	-15.538338	-15.881620
31870		-12.902740	-15.631380	-15.386376
31871		-12.890246	-15.717154	-14.898351
31872		-12.887186	-15.802329	-14.417042
31873		-12.883968	-15.887821	-13.945923
31874		-12.869751	-15.960413	-13.492442
31875		-12.833357	-16.038765	-13.050879
31876		-12.792072	-16.126046	-12.615780
31877		-12.747329	-16.222401	-12.189665
31878		-12.710733	-16.317854	-11.768300
31879		-12.676386	-16.399525	-11.347784
31880		-12.636144	-16.481888	-10.931255
31881		-12.601463	-16.581783	-10.525296
31882		-12.588499	-16.700140	-10.142122
31883		-12.597579	-16.831928	-9.781416
31884		-12.596050	-16.960364	-9.427610
31885		-12.575449	-17.080429	-9.073082
31886		-12.547347	-17.201296	-8.714094
31887		-12.532104	-17.332382	-8.359042
31888		-12.522977	-17.465747	-8.015936
31889		-12.525205	-17.602238	-7.682271
31890		-12.523673	-17.732485	-7.350714
31891		-12.520582	-17.858239	-7.021871
31892		-12.532652	-17.984734	-6.687594
31893		-12.554460	-18.107149	-6.348623
31894		-12.581047	-18.220898	-6.009430
31895		-12.625282	-18.323154	-5.676715
31896		-12.659983	-18.432485	-5.354345
31897		-12.688106	-18.538247	-5.036303
31898		-12.713812	-18.652969	-4.721289
31899		-12.739785	-18.772052	-4.404022
31900		-12.751357	-18.896364	-4.094128
31901		-12.792706	-19.014380	-3.797918
31902		-12.829293	-19.137837	-3.521495
31903		-12.848178	-19.272999	-3.256862
31904		-12.827270	-19.397759	-3.005842
31905		-12.806273	-19.523132	-2.756133
31906		-12.773414	-19.654608	-2.509033
31907		-12.741242	-19.770088	-2.270429
31908		-12.702298	-19.893032	-2.049240
31909		-12.654296	-20.011304	-1.843289
31910		-12.604982	-20.145412	-1.649241
31911		-12.533395	-20.264721	-1.483863
31912		-12.460919	-20.380480	-1.337977
31913		-12.384476	-20.498857	-1.197239
31914		-12.314773	-20.623158	-1.059940
31915		-12.233513	-20.732316	-0.932419
31916		-12.156277	-20.832237	-0.804224
31917		-12.099855	-20.933185	-0.668408
31918		-12.063539	-21.029561	-0.525343
31919		-12.075800	-21.124388	-0.374231
31920		-12.118074	-21.219054	-0.225788
31921		-12.158630	-21.301524	-0.094034
31922		-12.135690	-21.340771	0.008313
31923		-12.112983	-21.368934	0.101315
31924		-12.097989	-21.396925	0.189536
31925		-12.102420	-21.423871	0.277617
31926		-12.105041	-21.447155	0.369177
31927		-12.112466	-21.453815	0.453742
31928		-12.103490	-21.449502	0.525472
31929		-12.091218	-21.447535	0.583894
31930		-12.066150	-21.459342	0.624494
31931		-12.042724	-21.480807	0.655809
31932		-12.019618	-21.499834	0.684454
31933		-12.005214	-21.524428	0.716826
31934		-12.010221	-21.550913	0.746498
31935		-12.014139	-21.571263	0.764200
31936		-12.013375	-21.584833	0.765361
31937		-11.982582	-21.586851	0.757851
31938		-11.959271	-21.588963	0.749255
31939		-11.938464	-21.594837	0.741623
31940		-11.923451	-21.589673	0.728211
31941		-11.921852	-21.592222	0.719245
31942		-11.927339	-21.598739	0.709130
31943		-11.944595	-21.606781	0.699117
31944		-11.960482	-21.602441	0.680713
31945		-11.972611	-21.607565	0.658827
31946		-11.979881	-21.614550	0.631453
31947		-11.979978	-21.609479	0.600951
31948		-11.984066	-21.608965	0.560048
31949		-11.992283	-21.613536	0.512592
31950		-12.001439	-21.631913	0.461692
31951		-12.002205	-21.647868	0.411102
31952		-12.002567	-21.658204	0.361042
31953		-12.000852	-21.669181	0.315236
31954		-11.999177	-21.671461	0.265240
31955		-12.005107	-21.678409	0.220153
31956		-12.012635	-21.683312	0.181185
31957		-12.026904	-21.689077	0.144353
31958		-12.052791	-21.703355	0.115828
31959		-12.089571	-21.714810	0.092428
31960		-12.147801	-21.727376	0.077568
31961		-12.219700	-21.733568	0.065802
31962		-12.311940	-21.733338	0.058487
31963		-12.396737	-21.725152	0.050963
31964		-12.494279	-21.710454	0.042062
31965		-12.589142	-21.692463	0.033832
31966		-12.674190	-21.668224	0.020839
31967		-12.765530	-21.642506	0.007625
31968		-12.851085	-21.625834	-0.005574
31969		-12.922955	-21.604952	-0.014745
31970		-12.972682	-21.569428	-0.028729
31971		-13.022720	-21.539058	-0.032502
31972		-13.061686	-21.501905	-0.033226
31973		-13.095025	-21.451303	-0.031176
31974		-13.123910	-21.392772	-0.028022
31975		-13.166664	-21.329316	-0.020659
31976		-13.206460	-21.267189	-0.015355
31977		-13.257605	-21.204184	-0.017452
31978		-13.276276	-21.141823	-0.036002
31979		-13.288639	-21.070909	-0.083355
31980		-13.282710	-21.007304	-0.144086
31981		-13.273303	-20.945375	-0.212394
31982		-13.261440	-20.885691	-0.288156
31983		-13.256914	-20.827655	-0.373094
31984		-13.266532	-20.768226	-0.475778
31985		-13.273247	-20.712082	-0.602099
31986		-13.263023	-20.672073	-0.758756
31987		-13.244050	-20.636772	-0.954245
31988		-13.203533	-20.613100	-1.175683
31989		-13.151270	-20.597530	-1.403371
31990		-13.089670	-20.575630	-1.641294
31991		-13.031331	-20.548507	-1.881109
31992		-12.981569	-20.508235	-2.123774
31993		-12.958761	-20.459389	-2.369414
31994		-12.931029	-20.414841	-2.627920
31995		-12.920227	-20.364724	-2.891643
31996		-12.910028	-20.307900	-3.167935
31997		-12.894376	-20.247644	-3.454511
31998		-12.866012	-20.203541	-3.745286
31999		-12.844776	-20.141374	-4.038766
32000		-12.842382	-20.078673	-4.328842
32001		-12.854287	-20.009733	-4.612868
32002		-12.902136	-19.929542	-4.892133
32003		-12.948875	-19.841646	-5.173972
32004		-12.978281	-19.763966	-5.461919
32005		-13.011071	-19.679706	-5.752883
32006		-13.062893	-19.588317	-6.045765
32007		-13.143415	-19.488650	-6.334825
32008		-13.229064	-19.388484	-6.615307
32009		-13.313617	-19.281311	-6.910996
32010		-13.400788	-19.168227	-7.211145
32011		-13.500875	-19.047012	-7.520378
32012		-13.611343	-18.919833	-7.838066
32013		-13.718632	-18.798695	-8.168588
32014		-13.786162	-18.673479	-8.521959
32015		-13.854337	-18.555658	-8.881380
32016		-13.935936	-18.418489	-9.252216
32017		-14.040309	-18.256531	-9.629562
32018		-14.169007	-18.088732	-10.002738
32019		-14.335356	-17.917458	-10.377472
32020		-14.483788	-17.763687	-10.761271
32021		-14.617401	-17.600422	-11.156438
32022		-14.766604	-17.422216	-11.567637
32023		-14.902768	-17.233692	-11.993955
32024		-15.003507	-17.066942	-12.430487
32025		-15.062400	-16.946896	-12.871165
32026		-15.122722	-16.849494	-13.313181
32027		-15.157591	-16.755243	-13.759735
32028		-15.196230	-16.645697	-14.211308
32029		-15.237630	-16.527430	-14.656507
32030		-15.300955	-16.378178	-15.100649
32031		-15.397461	-16.206093	-15.542060
32032		-15.512677	-16.035073	-15.987086
32033		-15.605435	-15.879899	-16.429305
32034		-15.718741	-15.742572	-16.881331
32035		-15.794331	-15.618389	-17.334677
32036		-15.880645	-15.474137	-17.798077
32037		-15.971619	-15.305672	-18.267049
32038		-16.047179	-15.135793	-18.737047
32039		-16.113693	-14.972961	-19.208587
32040		-16.175162	-14.810609	-19.682862
32041		-16.237371	-14.637958	-20.157977
32042		-16.318957	-14.455051	-20.631443
32043		-16.438305	-14.268248	-21.102847
32044		-16.548382	-14.107210	-21.568508
32045		-16.570852	-13.997631	-22.044728
32046		-16.542398	-13.928321	-22.523439
32047		-16.494239	-13.865101	-23.018216
32048		-16.449263	-13.790416	-23.522031
32049		-16.408372	-13.710355	-24.026896
32050		-16.379647	-13.628196	-24.526856
32051		-16.361395	-13.535038	-25.015998
32052		-16.368629	-13.429930	-25.503513
32053		-16.392190	-13.322715	-25.984848
32054		-16.403261	-13.210559	-26.462973
32055		-16.415374	-13.078554	-26.939757
32056		-16.430327	-12.961246	-27.407296
32057		-16.463937	-12.846859	-27.877996
32058		-16.492536	-12.731770	-28.349580
32059		-16.499869	-12.625548	-28.818869
32060		-16.517266	-12.516146	-29.278317
32061		-16.547921	-12.397851	-29.726418
32062		-16.588587	-12.281946	-30.164671
32063		-16.648771	-12.159926	-30.592720
32064		-16.717266	-12.033772	-31.016596
32065		-16.792872	-11.938401	-31.441269
32066		-16.823624	-11.903388	-31.875893
32067		-16.808007	-11.921171	-32.318079
32068		-16.782444	-11.953371	-32.778380
32069		-16.755742	-11.985901	-33.250364
32070		-16.738917	-12.015135	-33.727922
32071		-16.741721	-12.037681	-34.197852
32072		-16.760672	-12.045732	-34.656250
32073		-16.799190	-12.047436	-35.106375
32074		-16.848970	-12.035155	-35.552089
32075		-16.919851	-11.997379	-35.995904
32076		-17.010556	-11.950588	-36.441755
32077		-17.096459	-11.904562	-36.893198
32078		-17.190898	-11.855944	-37.347932
32079		-17.268197	-11.803967	-37.792789
32080		-17.337669	-11.762229	-38.213030
32081		-17.401919	-11.727118	-38.610055
32082		-17.466674	-11.689300	-38.998717
32083		-17.535902	-11.651889	-39.379039
32084		-17.611954	-11.618479	-39.749188
32085		-17.685747	-11.589558	-40.116289
32086		-17.754863	-11.555113	-40.487027
32087		-17.818857	-11.525591	-40.857492
32088		-17.862303	-11.504006	-41.220532
32089		-17.894310	-11.474536	-41.588540
32090		-17.904368	-11.460543	-41.946946
32091		-17.902746	-11.474403	-42.290173
32092		-17.898799	-11.482192	-42.633380
32093		-17.903110	-11.491465	-42.972197
32094		-17.912542	-11.506772	-43.300060
32095		-17.925142	-11.525356	-43.617385
32096		-17.943939	-11.537237	-43.932398
32097		-17.971744	-11.550906	-44.253427
32098		-17.989888	-11.589200	-44.565941
32099		-17.978285	-11.635438	-44.874744
32100		-17.967447	-11.680133	-45.176283
32101		-17.961375	-11.716370	-45.472348
32102		-17.942591	-11.751862	-45.770584
32103		-17.920402	-11.794961	-46.062198
32104		-17.899066	-11.832044	-46.353696
32105		-17.871212	-11.876505	-46.636612
32106		-17.829458	-11.934575	-46.909405
32107		-17.768452	-11.993701	-47.172500
32108		-17.716248	-12.042161	-47.434667
32109		-17.672547	-12.080915	-47.696367
32110		-17.649168	-12.109445	-47.951734
32111		-17.636601	-12.136042	-48.195067
32112		-17.633816	-12.156382	-48.429734
32113		-17.638126	-12.163390	-48.653999
32114		-17.640053	-12.171523	-48.859333
32115		-17.628802	-12.175743	-49.051542
32116		-17.613630	-12.176732	-49.232952
32117		-17.603127	-12.166291	-49.405012
32118		-17.610993	-12.155113	-49.563424
32119		-17.620863	-12.141151	-49.706696
32120		-17.615016	-12.138017	-49.838594
32121		-17.600744	-12.138638	-49.958037
32122		-17.573782	-12.132577	-50.066203
32123		-17.549996	-12.122154	-50.163905
32124		-17.532461	-12.106023	-50.245060
32125		-17.527787	-12.077648	-50.315976
32126		-17.528875	-12.038364	-50.378160
32127		-17.533689	-11.996114	-50.433181
32128		-17.545767	-11.956820	-50.482488
32129		-17.559212	-11.916981	-50.526425
32130		-17.567932	-11.879217	-50.566443
32131		-17.577500	-11.841236	-50.602294
32132		-17.593661	-11.806833	-50.637686
32133		-17.615513	-11.767718	-50.672228
32134		-17.622726	-11.732492	-50.704525
32135		-17.614958	-11.711070	-50.728444
32136		-17.598624	-11.694101	-50.745069
32137		-17.586427	-11.666703	-50.755470
32138		-17.588773	-11.628627	-50.755592
32139		-17.598887	-11.572022	-50.752658
32140		-17.627944	-11.512757	-50.746358
32141		-17.640989	-11.471356	-50.734082
32142		-17.625998	-11.443008	-50.716088
32143		-17.571342	-11.440880	-50.689362
32144		-17.505476	-11.456813	-50.638891
32145		-17.446929	-11.469230	-50.571212
32146		-17.391671	-11.468170	-50.492133
32147		-17.351445	-11.449980	-50.403035
32148		-17.324257	-11.422532	-50.305150
32149		-17.300467	-11.391304	-50.197551
32150		-17.281783	-11.352587	-50.084607
32151		-17.275771	-11.313266	-49.959167
32152		-17.264819	-11.273197	-49.818693
32153		-17.251049	-11.235664	-49.664553
32154		-17.231930	-11.199775	-49.498908
32155		-17.189820	-11.183193	-49.321396
32156		-17.128137	-11.175317	-49.131327
32157		-17.082127	-11.162882	-48.937171
32158		-17.044455	-11.148667	-48.729032
32159		-17.023799	-11.126159	-48.508948
32160		-17.019063	-11.096475	-48.277653
32161		-17.015594	-11.075940	-48.032258
32162		-17.016121	-11.065099	-47.776387
32163		-17.006399	-11.058562	-47.515136
32164		-16.959852	-11.069111	-47.240120
32165		-16.872822	-11.103188	-46.948663
32166		-16.779377	-11.143443	-46.642674
32167		-16.714084	-11.161408	-46.328791
32168		-16.676433	-11.166187	-46.001972
32169		-16.657275	-11.168807	-45.663597
32170		-16.652678	-11.160441	-45.322779
32171		-16.640942	-11.158639	-44.976182
32172		-16.612836	-11.178487	-44.619159
32173		-16.574067	-11.204566	-44.252907
32174		-16.533299	-11.227228	-43.879923
32175		-16.491967	-11.256875	-43.494214
32176		-16.460377	-11.280844	-43.099816
32177		-16.437256	-11.302254	-42.697249
32178		-16.425695	-11.318240	-42.289723
32179		-16.412014	-11.350762	-41.879839
32180		-16.385304	-11.377113	-41.465071
32181		-16.375723	-11.388235	-41.044618
32182		-16.375610	-11.389063	-40.622637
32183		-16.382057	-11.392472	-40.192281
32184		-16.407488	-11.373805	-39.762901
32185		-16.447799	-11.338486	-39.333260
32186		-16.477382	-11.302478	-38.901499
32187		-16.519099	-11.261370	-38.468364
32188		-16.567203	-11.220726	-38.039507
32189		-16.591236	-11.196793	-37.615531
32190		-16.595317	-11.194146	-37.195151
32191		-16.594720	-11.213683	-36.772950
32192		-16.569118	-11.248339	-36.351480
32193		-16.527041	-11.294314	-35.934756
32194		-16.473662	-11.360491	-35.511890
32195		-16.406687	-11.443686	-35.084032
32196		-16.324655	-11.522220	-34.642641
32197		-16.251687	-11.607461	-34.192748
32198		-16.199395	-11.717256	-33.731164
32199		-16.152503	-11.823845	-33.257987
32200		-16.087146	-11.929659	-32.775767
32201		-16.035686	-12.041428	-32.285161
32202		-15.997936	-12.139016	-31.798620
32203		-15.954628	-12.223520	-31.315429
32204		-15.921180	-12.310225	-30.822495
32205		-15.893921	-12.405307	-30.367542
32206		-15.853015	-12.499894	-29.918021
32207		-15.813548	-12.615211	-29.459337
32208		-15.776821	-12.716960	-28.995866
32209		-15.731013	-12.818544	-28.523659
32210		-15.709214	-12.928842	-28.031001
32211		-15.703417	-13.049717	-27.528410
32212		-15.713703	-13.189913	-27.024152
32213		-15.718286	-13.337817	-26.520230
32214		-15.709890	-13.489504	-26.024516
32215		-15.661697	-13.623943	-25.539354
32216		-15.642271	-13.734769	-25.065472
32217		-15.626907	-13.846161	-24.586542
32218		-15.595293	-13.967681	-24.092633
32219		-15.574860	-14.095738	-23.581950
32220		-15.547886	-14.243835	-23.055995
32221		-15.534663	-14.396098	-22.525724
32222		-15.533922	-14.549610	-22.007245
32223		-15.543788	-14.668734	-21.512403
32224		-15.548777	-14.782666	-21.028376
32225		-15.557727	-14.888107	-20.547199
32226		-15.557097	-14.986591	-20.070056
32227		-15.543423	-15.083741	-19.593795
32228		-15.536430	-15.179285	-19.107409
32229		-15.523548	-15.275510	-18.623577
32230		-15.525110	-15.382437	-18.140573
32231		-15.530063	-15.496516	-17.673027
32232		-15.540364	-15.617304	-17.213293
32233		-15.547446	-15.758636	-16.761934
32234		-15.532267	-15.884020	-16.339223
32235		-15.464646	-15.992493	-15.933089
32236		-15.399368	-16.097883	-15.526734
32237		-15.334699	-16.214730	-15.112142
32238		-15.293868	-16.340765	-14.681456
32239		-15.251103	-16.472333	-14.248136
32240		-15.222315	-16.610779	-13.826287
32241		-15.173458	-16.754137	-13.423382
32242		-15.093832	-16.862857	-13.047032
32243		-15.001036	-16.957091	-12.681559
32244		-14.920143	-17.067408	-12.316166
32245		-14.838763	-17.196166	-11.951254
32246		-14.770096	-17.326403	-11.582037
32247		-14.716599	-17.457192	-11.203481
32248		-14.647440	-17.566120	-10.830109
32249		-14.582963	-17.651689	-10.477122
32250		-14.512812	-17.749091	-10.135325
32251		-14.455705	-17.851563	-9.796615
32252		-14.390520	-17.956804	-9.469130
32253		-14.345718	-18.053011	-9.155659
32254		-14.300233	-18.156390	-8.858190
32255		-14.240962	-18.251052	-8.564286
32256		-14.145551	-18.312429	-8.272898
32257		-14.079500	-18.353199	-7.985276
32258		-14.001927	-18.376661	-7.703683
32259		-13.954799	-18.420596	-7.428207
32260		-13.922118	-18.471418	-7.174307
32261		-13.881024	-18.507267	-6.951629
32262		-13.826916	-18.573534	-6.734922
32263		-13.758838	-18.639153	-6.519982
32264		-13.690342	-18.711188	-6.290933
32265		-13.650274	-18.776518	-6.054918
32266		-13.610914	-18.830732	-5.825151
32267		-13.563526	-18.886547	-5.600328
32268		-13.529495	-18.939648	-5.374636
32269		-13.497389	-18.994824	-5.137865
32270		-13.502001	-19.064655	-4.885439
32271		-13.522113	-19.131761	-4.629963
32272		-13.532180	-19.162146	-4.411347
32273		-13.513772	-19.204658	-4.219316
32274		-13.458485	-19.248717	-4.045009
32275		-13.385861	-19.282471	-3.884508
32276		-13.288298	-19.319209	-3.729087
32277		-13.195861	-19.341689	-3.574389
