// General information: 
//  MT Manager version: 2022.2.0 
//  XDA version: 2022.2.0 build 7381 rev 124627 built on 2023-07-19
// Device information: 
//  DeviceId: 00B44856
//  ProductCode: MTW2-3A7G6
//  Firmware Version: 4.3.5
//  Hardware Version: 2.0.0
// Device settings: 
//  Filter Profile: human(46.1)
//  Option Flags: Orientation Smoother Disabled, Position/Velocity Smoother Disabled, Continuous Zero Rotation Update Disabled, AHS Disabled, ICC Disabled
// Coordinate system: ENU
PacketCounter	SampleTimeFine	Roll	Pitch	Yaw
29254		-24.445016	-11.504620	10.877406
29255		-24.434648	-11.502719	10.889066
29256		-24.426641	-11.491601	10.892936
29257		-24.436886	-11.477185	10.889706
29258		-24.472912	-11.459269	10.885925
29259		-24.515114	-11.441923	10.877809
29260		-24.540478	-11.420612	10.868656
29261		-24.554750	-11.396885	10.860014
29262		-24.549695	-11.372730	10.853967
29263		-24.535768	-11.348968	10.847248
29264		-24.519077	-11.315030	10.832398
29265		-24.502147	-11.281786	10.812296
29266		-24.480136	-11.248764	10.793038
29267		-24.462658	-11.225334	10.780110
29268		-24.452106	-11.205306	10.768192
29269		-24.451724	-11.191989	10.762755
29270		-24.449189	-11.172976	10.756562
29271		-24.447026	-11.152345	10.751275
29272		-24.446423	-11.122533	10.747620
29273		-24.437031	-11.097253	10.741500
29274		-24.420236	-11.068118	10.736940
29275		-24.402982	-11.042159	10.731398
29276		-24.396988	-11.015309	10.731753
29277		-24.394837	-10.993874	10.730993
29278		-24.396515	-10.969604	10.732924
29279		-24.390734	-10.957324	10.735535
29280		-24.376837	-10.947514	10.739184
29281		-24.350379	-10.943027	10.741167
29282		-24.318128	-10.937531	10.741430
29283		-24.285222	-10.933909	10.733934
29284		-24.253220	-10.927699	10.720946
29285		-24.210297	-10.924069	10.707590
29286		-24.166294	-10.913237	10.691852
29287		-24.124068	-10.903080	10.674103
29288		-24.083457	-10.890327	10.652975
29289		-24.047997	-10.881579	10.629195
29290		-24.025239	-10.867146	10.600938
29291		-24.016364	-10.856061	10.568960
29292		-24.019166	-10.841755	10.532326
29293		-24.034500	-10.829595	10.492722
29294		-24.057775	-10.820321	10.450121
29295		-24.095210	-10.811571	10.399975
29296		-24.129796	-10.801426	10.346102
29297		-24.147307	-10.795987	10.286950
29298		-24.149401	-10.791200	10.225761
29299		-24.136162	-10.792631	10.164657
29300		-24.114994	-10.787672	10.100037
29301		-24.091987	-10.782689	10.030728
29302		-24.062428	-10.770413	9.956335
29303		-24.039394	-10.761597	9.877369
29304		-24.016249	-10.754215	9.796364
29305		-23.999359	-10.756223	9.717597
29306		-23.982310	-10.756135	9.638133
29307		-23.973744	-10.755402	9.558275
29308		-23.962014	-10.745326	9.466593
29309		-23.942341	-10.737712	9.372621
29310		-23.930818	-10.734609	9.274695
29311		-23.931508	-10.735279	9.170274
29312		-23.946960	-10.731552	9.058846
29313		-23.971637	-10.729501	8.938527
29314		-23.995640	-10.718777	8.807170
29315		-24.017788	-10.707661	8.670512
29316		-24.029473	-10.692970	8.528195
29317		-24.030800	-10.683945	8.384155
29318		-24.014311	-10.665329	8.233086
29319		-23.974830	-10.646223	8.075203
29320		-23.912503	-10.623090	7.912325
29321		-23.827925	-10.607297	7.744970
29322		-23.729910	-10.588420	7.569645
29323		-23.627477	-10.570499	7.382169
29324		-23.528721	-10.548331	7.182979
29325		-23.446032	-10.530407	6.976620
29326		-23.373358	-10.512799	6.767517
29327		-23.321226	-10.497266	6.552315
29328		-23.291088	-10.477165	6.330945
29329		-23.281596	-10.461660	6.105815
29330		-23.297217	-10.444584	5.874327
29331		-23.329685	-10.437596	5.636711
29332		-23.373121	-10.428927	5.388340
29333		-23.418500	-10.424791	5.132400
29334		-23.458366	-10.412177	4.867080
29335		-23.484939	-10.396153	4.593975
29336		-23.502835	-10.376524	4.313271
29337		-23.515821	-10.364195	4.030105
29338		-23.521034	-10.345989	3.739455
29339		-23.510316	-10.330453	3.440254
29340		-23.483667	-10.309876	3.138129
29341		-23.453324	-10.297059	2.826167
29342		-23.414841	-10.284564	2.507779
29343		-23.373365	-10.274835	2.175675
29344		-23.337483	-10.259141	1.828691
29345		-23.302806	-10.245059	1.470720
29346		-23.269655	-10.230816	1.106941
29347		-23.239896	-10.222725	0.734688
29348		-23.218300	-10.211889	0.357522
29349		-23.191849	-10.196505	-0.032928
29350		-23.167104	-10.175928	-0.437198
29351		-23.145437	-10.156252	-0.855095
29352		-23.117280	-10.138123	-1.283713
29353		-23.097557	-10.120549	-1.723819
29354		-23.083208	-10.091766	-2.175789
29355		-23.074059	-10.066168	-2.632181
29356		-23.060783	-10.040257	-3.092169
29357		-23.022250	-10.011300	-3.564513
29358		-22.945874	-9.963851	-4.049943
29359		-22.823881	-9.903395	-4.546513
29360		-22.654038	-9.832986	-5.053411
29361		-22.440687	-9.766819	-5.566853
29362		-22.197531	-9.709325	-6.087616
29363		-21.915554	-9.661879	-6.612664
29364		-21.601219	-9.603900	-7.138060
29365		-21.260740	-9.542907	-7.661820
29366		-20.922335	-9.468322	-8.188754
29367		-20.596856	-9.400404	-8.721392
29368		-20.303150	-9.342676	-9.256939
29369		-20.032061	-9.295030	-9.798592
29370		-19.789550	-9.235085	-10.349107
29371		-19.572839	-9.165515	-10.909468
29372		-19.386236	-9.079139	-11.480832
29373		-19.228162	-8.998118	-12.058249
29374		-19.104088	-8.913303	-12.644836
29375		-19.024105	-8.833856	-13.232476
29376		-18.973807	-8.754300	-13.820055
29377		-18.932831	-8.675963	-14.408769
29378		-18.898350	-8.592613	-15.003718
29379		-18.855197	-8.504942	-15.613777
29380		-18.810251	-8.408545	-16.241463
29381		-18.757626	-8.310627	-16.885679
29382		-18.701404	-8.214460	-17.533195
29383		-18.642281	-8.132473	-18.177320
29384		-18.571460	-8.057044	-18.813097
29385		-18.469904	-7.983551	-19.449958
29386		-18.330208	-7.906890	-20.090224
29387		-18.164228	-7.836224	-20.740945
29388		-17.977371	-7.757323	-21.410555
29389		-17.775052	-7.674689	-22.096061
29390		-17.570644	-7.596696	-22.779372
29391		-17.355888	-7.533372	-23.444454
29392		-17.127556	-7.462757	-24.099197
29393		-16.873626	-7.391967	-24.748136
29394		-16.617082	-7.326301	-25.394725
29395		-16.372321	-7.272647	-26.038126
29396		-16.155223	-7.221408	-26.691085
29397		-15.958738	-7.180674	-27.346095
29398		-15.799007	-7.132870	-28.005348
29399		-15.652918	-7.086939	-28.664291
29400		-15.529355	-7.039014	-29.313313
29401		-15.419317	-6.996167	-29.955569
29402		-15.319942	-6.944263	-30.594949
29403		-15.220168	-6.888683	-31.246069
29404		-15.139140	-6.830456	-31.904899
29405		-15.069371	-6.779385	-32.571092
29406		-15.020915	-6.722194	-33.241562
29407		-14.976160	-6.664085	-33.914644
29408		-14.934618	-6.602694	-34.590610
29409		-14.886649	-6.557459	-35.259937
29410		-14.859570	-6.520314	-35.922220
29411		-14.833115	-6.484451	-36.581706
29412		-14.818199	-6.436995	-37.242271
29413		-14.799476	-6.389546	-37.905905
29414		-14.779305	-6.346236	-38.563103
29415		-14.739262	-6.302594	-39.223580
29416		-14.678830	-6.246900	-39.894594
29417		-14.585633	-6.191558	-40.573602
29418		-14.480395	-6.130517	-41.256893
29419		-14.351128	-6.072401	-41.948807
29420		-14.199834	-6.015317	-42.644699
29421		-14.020037	-5.963096	-43.332374
29422		-13.815961	-5.911114	-44.005233
29423		-13.593299	-5.892382	-44.656528
29424		-13.389579	-5.896472	-45.290861
29425		-13.193804	-5.903943	-45.917560
29426		-13.004605	-5.895846	-46.547789
29427		-12.817334	-5.882926	-47.181860
29428		-12.640203	-5.868044	-47.818444
29429		-12.473660	-5.865844	-48.448996
29430		-12.338204	-5.866676	-49.065415
29431		-12.224143	-5.873985	-49.665570
29432		-12.152002	-5.868494	-50.254909
29433		-12.114181	-5.851632	-50.838961
29434		-12.105159	-5.828036	-51.424949
29435		-12.108746	-5.818469	-52.014339
29436		-12.146040	-5.813230	-52.607683
29437		-12.196914	-5.812978	-53.201681
29438		-12.272508	-5.806764	-53.794057
29439		-12.355196	-5.797834	-54.389968
29440		-12.460316	-5.784687	-54.990703
29441		-12.584472	-5.776618	-55.597771
29442		-12.728251	-5.767247	-56.208595
29443		-12.878043	-5.754462	-56.814270
29444		-13.041180	-5.732558	-57.415277
29445		-13.190332	-5.712169	-58.005220
29446		-13.328818	-5.687672	-58.589778
29447		-13.442459	-5.670861	-59.172773
29448		-13.550059	-5.649445	-59.754393
29449		-13.645431	-5.627602	-60.342600
29450		-13.737023	-5.593186	-60.934923
29451		-13.811885	-5.553645	-61.535693
29452		-13.882506	-5.508952	-62.126382
29453		-13.933846	-5.454605	-62.708219
29454		-13.956188	-5.383887	-63.282264
29455		-13.920708	-5.316403	-63.851577
29456		-13.848402	-5.256673	-64.418872
29457		-13.744363	-5.211426	-64.986785
29458		-13.622097	-5.164521	-65.555461
29459		-13.477442	-5.108417	-66.124987
29460		-13.327021	-5.038647	-66.698000
29461		-13.156507	-4.961132	-67.271320
29462		-12.971250	-4.884305	-67.845311
29463		-12.761251	-4.816727	-68.418285
29464		-12.541184	-4.752268	-68.985900
29465		-12.300898	-4.682587	-69.545226
29466		-12.047730	-4.618836	-70.080264
29467		-11.806157	-4.587091	-70.596680
29468		-11.605595	-4.566366	-71.106551
29469		-11.443799	-4.547840	-71.613615
29470		-11.337326	-4.513849	-72.123659
29471		-11.265854	-4.456125	-72.642201
29472		-11.230748	-4.386242	-73.162383
29473		-11.205005	-4.321527	-73.674594
29474		-11.183666	-4.252151	-74.173300
29475		-11.146646	-4.183327	-74.656084
29476		-11.116766	-4.109578	-75.119772
29477		-11.073162	-4.047944	-75.565957
29478		-11.013449	-3.991893	-76.002426
29479		-10.941144	-3.943010	-76.430236
29480		-10.863643	-3.898910	-76.849742
29481		-10.780758	-3.865530	-77.263605
29482		-10.696291	-3.834953	-77.673391
29483		-10.597516	-3.807954	-78.080825
29484		-10.495259	-3.780699	-78.474065
29485		-10.390652	-3.753291	-78.852927
29486		-10.278318	-3.724405	-79.210338
29487		-10.155799	-3.700614	-79.553587
29488		-10.032776	-3.685243	-79.881999
29489		-9.903117	-3.677466	-80.198681
29490		-9.780923	-3.673046	-80.508000
29491		-9.669210	-3.676189	-80.805986
29492		-9.568337	-3.668786	-81.095764
29493		-9.474797	-3.649147	-81.375641
29494		-9.385465	-3.617043	-81.639269
29495		-9.293955	-3.576116	-81.892839
29496		-9.214580	-3.534709	-82.128572
29497		-9.131050	-3.494185	-82.345949
29498		-9.057676	-3.439959	-82.550521
29499		-8.990691	-3.371915	-82.746549
29500		-8.934518	-3.288412	-82.923660
29501		-8.883989	-3.185776	-83.084580
29502		-8.845569	-3.086950	-83.233184
29503		-8.806999	-3.003132	-83.364560
29504		-8.762827	-2.921565	-83.473181
29505		-8.718420	-2.844043	-83.567006
29506		-8.670856	-2.770843	-83.648698
29507		-8.626105	-2.705435	-83.717835
29508		-8.599451	-2.655380	-83.779091
29509		-8.576593	-2.611643	-83.831120
29510		-8.568061	-2.568614	-83.876917
29511		-8.561171	-2.526544	-83.908695
29512		-8.575938	-2.488832	-83.928933
29513		-8.593228	-2.460419	-83.937660
29514		-8.605792	-2.436925	-83.938451
29515		-8.606878	-2.410797	-83.935143
29516		-8.608324	-2.386465	-83.925768
29517		-8.605469	-2.366527	-83.912693
29518		-8.598939	-2.350308	-83.892788
29519		-8.601784	-2.332308	-83.871716
29520		-8.610532	-2.309656	-83.846556
29521		-8.605312	-2.287333	-83.817811
29522		-8.598349	-2.264753	-83.784809
29523		-8.580193	-2.245732	-83.749143
29524		-8.556925	-2.228395	-83.707046
29525		-8.530368	-2.203550	-83.664038
29526		-8.512373	-2.170351	-83.615892
29527		-8.490584	-2.130864	-83.564311
29528		-8.459097	-2.076974	-83.509699
29529		-8.427770	-2.005595	-83.456010
29530		-8.423647	-1.938622	-83.406028
29531		-8.445637	-1.885345	-83.357036
29532		-8.486271	-1.824375	-83.303015
29533		-8.532051	-1.746655	-83.239346
29534		-8.575704	-1.668868	-83.151940
29535		-8.608224	-1.611237	-83.030352
29536		-8.626276	-1.580170	-82.871187
29537		-8.626579	-1.562751	-82.681014
29538		-8.632355	-1.548850	-82.469977
29539		-8.630274	-1.553902	-82.250799
29540		-8.630544	-1.564344	-82.022423
29541		-8.641327	-1.580503	-81.776893
29542		-8.677126	-1.588738	-81.509245
29543		-8.735002	-1.592658	-81.215571
29544		-8.811102	-1.597864	-80.897890
29545		-8.894003	-1.613392	-80.561085
29546		-8.982533	-1.638527	-80.206740
29547		-9.072223	-1.670531	-79.835812
29548		-9.151764	-1.700363	-79.442519
29549		-9.224646	-1.730036	-79.032459
29550		-9.279972	-1.772102	-78.618328
29551		-9.302249	-1.819338	-78.196342
29552		-9.313056	-1.864943	-77.762910
29553		-9.316791	-1.913028	-77.308852
29554		-9.307538	-1.960768	-76.831142
29555		-9.282949	-2.020716	-76.333739
29556		-9.256354	-2.089528	-75.815905
29557		-9.239879	-2.162924	-75.283564
29558		-9.241923	-2.234064	-74.746745
29559		-9.240679	-2.310353	-74.209247
29560		-9.249160	-2.383631	-73.664123
29561		-9.275316	-2.450473	-73.110339
29562		-9.320923	-2.507743	-72.537726
29563		-9.394050	-2.561228	-71.948739
29564		-9.500890	-2.614515	-71.345015
29565		-9.606420	-2.668526	-70.732626
29566		-9.705629	-2.728296	-70.119255
29567		-9.807409	-2.781465	-69.502640
29568		-9.899684	-2.824964	-68.881000
29569		-9.978660	-2.861849	-68.250736
29570		-10.056933	-2.898360	-67.607516
29571		-10.131684	-2.939196	-66.953014
29572		-10.196802	-2.985002	-66.284820
29573		-10.258772	-3.033190	-65.610595
29574		-10.321033	-3.079269	-64.933023
29575		-10.380153	-3.131987	-64.257261
29576		-10.442906	-3.188575	-63.578714
29577		-10.510718	-3.250583	-62.893771
29578		-10.577876	-3.317897	-62.197378
29579		-10.636975	-3.390072	-61.492360
29580		-10.694671	-3.455971	-60.775603
29581		-10.752076	-3.514964	-60.053967
29582		-10.797874	-3.573700	-59.325573
29583		-10.835022	-3.631507	-58.588165
29584		-10.863860	-3.700669	-57.842629
29585		-10.873396	-3.785994	-57.093159
29586		-10.878542	-3.882039	-56.342549
29587		-10.887067	-3.975388	-55.595685
29588		-10.912997	-4.052960	-54.849070
29589		-10.955170	-4.112727	-54.096610
29590		-10.999987	-4.169901	-53.329515
29591		-11.044694	-4.233664	-52.548585
29592		-11.085203	-4.302110	-51.760952
29593		-11.113738	-4.382525	-50.972179
29594		-11.139354	-4.458934	-50.183640
29595		-11.162629	-4.532272	-49.394266
29596		-11.190069	-4.602289	-48.598909
29597		-11.212477	-4.660232	-47.792648
29598		-11.223276	-4.697348	-46.972780
29599		-11.210362	-4.723238	-46.138319
29600		-11.169633	-4.745680	-45.291599
29601		-11.101035	-4.772797	-44.436623
29602		-11.002413	-4.818032	-43.581917
29603		-10.902991	-4.886651	-42.733341
29604		-10.814873	-4.959872	-41.884672
29605		-10.773340	-5.029662	-41.037469
29606		-10.783725	-5.081148	-40.179186
29607		-10.848366	-5.112572	-39.309259
29608		-10.944694	-5.132481	-38.426056
29609		-11.039436	-5.158075	-37.533650
29610		-11.130056	-5.195045	-36.634427
29611		-11.224718	-5.249713	-35.732262
29612		-11.312889	-5.316267	-34.828825
29613		-11.411067	-5.403335	-33.928316
29614		-11.539308	-5.497027	-33.031426
29615		-11.685256	-5.585704	-32.137974
29616		-11.850469	-5.673510	-31.246299
29617		-12.023864	-5.761894	-30.357486
29618		-12.193737	-5.843533	-29.472455
29619		-12.354256	-5.937474	-28.589531
29620		-12.524788	-6.036375	-27.712698
29621		-12.708566	-6.141421	-26.842300
29622		-12.900252	-6.239820	-25.986678
29623		-13.099903	-6.341184	-25.139129
29624		-13.307590	-6.442895	-24.302311
29625		-13.511343	-6.542815	-23.482737
29626		-13.682351	-6.628836	-22.680640
29627		-13.829070	-6.710499	-21.890266
29628		-13.959624	-6.799252	-21.103415
29629		-14.085383	-6.904532	-20.320202
29630		-14.204105	-7.010617	-19.540141
29631		-14.328891	-7.114330	-18.765390
29632		-14.455839	-7.206069	-18.002242
29633		-14.574476	-7.279858	-17.260666
29634		-14.672034	-7.338848	-16.539303
29635		-14.759682	-7.398537	-15.834611
29636		-14.841136	-7.457394	-15.138871
29637		-14.919761	-7.528062	-14.444257
29638		-14.996935	-7.592333	-13.760317
29639		-15.068414	-7.660200	-13.086066
29640		-15.142918	-7.721996	-12.422524
29641		-15.215733	-7.782501	-11.772895
29642		-15.297931	-7.835962	-11.135393
29643		-15.392613	-7.878607	-10.513468
29644		-15.471008	-7.897783	-9.899553
29645		-15.522087	-7.924698	-9.288707
29646		-15.555630	-7.964391	-8.681915
29647		-15.593016	-8.025984	-8.080954
29648		-15.625957	-8.096715	-7.489879
29649		-15.669401	-8.176372	-6.905613
29650		-15.733915	-8.249993	-6.332119
29651		-15.814217	-8.316030	-5.783197
29652		-15.893435	-8.357612	-5.258997
29653		-15.946098	-8.384682	-4.752845
29654		-15.975883	-8.403763	-4.251638
29655		-15.981579	-8.445307	-3.751197
29656		-15.956743	-8.502513	-3.248526
29657		-15.912337	-8.567262	-2.747463
29658		-15.856588	-8.624206	-2.255120
29659		-15.810889	-8.682641	-1.776764
29660		-15.789437	-8.739398	-1.319261
29661		-15.775182	-8.782667	-0.881346
29662		-15.755641	-8.808627	-0.456738
29663		-15.735817	-8.844229	-0.039319
29664		-15.718263	-8.889198	0.376134
29665		-15.706365	-8.940591	0.787029
29666		-15.703795	-8.983039	1.188942
29667		-15.702329	-9.023660	1.580387
29668		-15.709225	-9.066024	1.965324
29669		-15.739901	-9.119028	2.339638
29670		-15.796564	-9.173842	2.699415
29671		-15.859785	-9.220234	3.042451
29672		-15.924212	-9.250062	3.368862
29673		-15.983847	-9.278080	3.680467
29674		-16.040900	-9.308122	3.991699
29675		-16.101794	-9.338361	4.298212
29676		-16.161407	-9.367783	4.603707
29677		-16.219672	-9.404656	4.899817
29678		-16.284062	-9.429333	5.188044
29679		-16.360471	-9.444246	5.458604
29680		-16.453033	-9.435353	5.712125
29681		-16.532370	-9.415218	5.950695
29682		-16.588997	-9.392681	6.176241
29683		-16.631307	-9.375048	6.388971
29684		-16.650776	-9.358358	6.584945
29685		-16.643970	-9.348246	6.768960
29686		-16.633946	-9.343474	6.944589
29687		-16.626473	-9.350573	7.109372
29688		-16.621036	-9.358891	7.263426
29689		-16.620625	-9.366643	7.409818
29690		-16.625909	-9.360862	7.543480
29691		-16.628722	-9.352554	7.661393
29692		-16.629094	-9.336389	7.766114
29693		-16.628005	-9.319877	7.855968
29694		-16.618810	-9.297434	7.936139
29695		-16.607693	-9.283764	8.008272
29696		-16.599107	-9.274923	8.070825
29697		-16.588325	-9.274704	8.121218
29698		-16.585055	-9.269974	8.161341
29699		-16.593199	-9.263774	8.192732
29700		-16.607016	-9.250978	8.218186
29701		-16.619808	-9.240869	8.241867
29702		-16.632759	-9.229889	8.259035
29703		-16.640494	-9.219670	8.268316
29704		-16.635280	-9.205319	8.266174
29705		-16.629629	-9.198613	8.251232
29706		-16.625921	-9.190438	8.235266
29707		-16.620483	-9.186400	8.217871
29708		-16.622826	-9.169730	8.199685
29709		-16.635742	-9.161722	8.181202
29710		-16.655187	-9.152043	8.160491
29711		-16.672524	-9.143079	8.133843
29712		-16.691251	-9.124067	8.103323
29713		-16.712133	-9.097120	8.066926
29714		-16.741132	-9.069076	8.024763
29715		-16.771732	-9.055930	7.985907
29716		-16.814332	-9.044050	7.946136
29717		-16.856341	-9.034095	7.907113
29718		-16.892943	-9.014351	7.869700
29719		-16.916107	-8.990310	7.828589
29720		-16.915736	-8.962467	7.784896
29721		-16.908977	-8.946526	7.743390
29722		-16.906824	-8.939877	7.703493
29723		-16.904070	-8.939618	7.655736
29724		-16.889328	-8.929957	7.604484
29725		-16.876736	-8.921894	7.547710
29726		-16.857705	-8.910637	7.489150
29727		-16.853583	-8.900906	7.432793
29728		-16.849389	-8.887934	7.378508
29729		-16.848536	-8.878170	7.324108
29730		-16.856545	-8.865210	7.268118
29731		-16.871252	-8.854313	7.208253
29732		-16.891336	-8.834300	7.146928
29733		-16.908853	-8.822335	7.081232
29734		-16.928214	-8.805364	7.010052
29735		-16.947439	-8.795189	6.931890
29736		-16.968078	-8.781455	6.841268
29737		-16.995231	-8.772177	6.743498
29738		-17.035078	-8.761303	6.637977
29739		-17.083585	-8.755425	6.531221
29740		-17.148712	-8.747210	6.413842
29741		-17.221752	-8.739538	6.290322
29742		-17.311288	-8.717298	6.161535
29743		-17.401975	-8.690144	6.023562
29744		-17.489473	-8.656021	5.869105
29745		-17.575630	-8.630811	5.697486
29746		-17.663007	-8.603355	5.513067
29747		-17.752803	-8.575028	5.314343
29748		-17.839046	-8.540981	5.102813
29749		-17.920924	-8.504956	4.872741
29750		-17.993590	-8.461468	4.624916
29751		-18.065336	-8.419792	4.356500
29752		-18.150751	-8.372840	4.070470
29753		-18.228896	-8.334132	3.768204
29754		-18.294149	-8.288849	3.453214
29755		-18.348943	-8.241461	3.131444
29756		-18.404617	-8.195278	2.794644
29757		-18.451274	-8.155612	2.445612
29758		-18.490507	-8.114195	2.081237
29759		-18.529996	-8.072771	1.695477
29760		-18.569627	-8.027356	1.290298
29761		-18.612671	-7.983265	0.864123
29762		-18.666128	-7.934953	0.417506
29763		-18.737217	-7.890150	-0.041103
29764		-18.819222	-7.839502	-0.504786
29765		-18.904867	-7.793856	-0.973715
29766		-18.979418	-7.743791	-1.452098
29767		-19.035765	-7.695475	-1.944789
29768		-19.077872	-7.645297	-2.456262
29769		-19.111340	-7.599705	-2.988735
29770		-19.137273	-7.549245	-3.538571
29771		-19.157006	-7.501751	-4.095530
29772		-19.168121	-7.451239	-4.660669
29773		-19.159325	-7.401162	-5.227795
29774		-19.130969	-7.341557	-5.800171
29775		-19.071310	-7.284853	-6.380881
29776		-18.992546	-7.227341	-6.975340
29777		-18.912304	-7.188212	-7.581150
29778		-18.851901	-7.159740	-8.186316
29779		-18.812142	-7.127949	-8.785719
29780		-18.781287	-7.079961	-9.389649
29781		-18.744178	-7.019845	-9.997708
29782		-18.714886	-6.952231	-10.620781
29783		-18.690002	-6.888095	-11.262339
29784		-18.686529	-6.827515	-11.918945
29785		-18.699534	-6.774727	-12.578992
29786		-18.729323	-6.725410	-13.230190
29787		-18.745023	-6.685194	-13.872334
29788		-18.757909	-6.643171	-14.509717
29789		-18.768678	-6.601997	-15.154297
29790		-18.785089	-6.551127	-15.814677
29791		-18.813031	-6.489189	-16.495276
29792		-18.843121	-6.408666	-17.195482
29793		-18.859473	-6.320662	-17.910396
29794		-18.874658	-6.230540	-18.621108
29795		-18.886297	-6.151974	-19.322152
29796		-18.888116	-6.072544	-20.009639
29797		-18.873235	-6.001161	-20.690313
29798		-18.850611	-5.922295	-21.372665
29799		-18.811402	-5.841085	-22.067988
29800		-18.766645	-5.754141	-22.778554
29801		-18.710371	-5.676117	-23.506832
29802		-18.655170	-5.599193	-24.245572
29803		-18.575203	-5.519092	-24.993203
29804		-18.474361	-5.441651	-25.739137
29805		-18.367228	-5.379329	-26.474885
29806		-18.251739	-5.331509	-27.195947
29807		-18.130350	-5.295891	-27.908270
29808		-18.014962	-5.271763	-28.615313
29809		-17.910216	-5.261586	-29.319985
29810		-17.824514	-5.250092	-30.027505
29811		-17.747548	-5.237008	-30.745111
29812		-17.685953	-5.218083	-31.470001
29813		-17.635712	-5.200689	-32.197578
29814		-17.608154	-5.176125	-32.923029
29815		-17.598174	-5.151223	-33.641306
29816		-17.605988	-5.117203	-34.350728
29817		-17.621056	-5.077800	-35.057179
29818		-17.655607	-5.033428	-35.759545
29819		-17.712081	-4.992222	-36.462473
29820		-17.785135	-4.950031	-37.160483
29821		-17.851990	-4.914388	-37.861047
29822		-17.913020	-4.874503	-38.561704
29823		-17.949508	-4.831528	-39.266402
29824		-17.959651	-4.786722	-39.973376
29825		-17.930779	-4.745251	-40.680313
29826		-17.875813	-4.708356	-41.386455
29827		-17.786921	-4.687022	-42.088886
29828		-17.677268	-4.666583	-42.783435
29829		-17.546849	-4.657341	-43.466688
29830		-17.418225	-4.653801	-44.135580
29831		-17.288573	-4.657799	-44.799424
29832		-17.162255	-4.663852	-45.458684
29833		-17.031041	-4.669933	-46.120594
29834		-16.908272	-4.671429	-46.790607
29835		-16.772855	-4.670041	-47.472156
29836		-16.641825	-4.670179	-48.150750
29837		-16.507523	-4.678913	-48.825486
29838		-16.383125	-4.695389	-49.493529
29839		-16.272194	-4.725207	-50.153184
29840		-16.185766	-4.751335	-50.809203
29841		-16.118679	-4.772200	-51.464647
29842		-16.087066	-4.789588	-52.120066
29843		-16.094027	-4.811698	-52.777104
29844		-16.132178	-4.830510	-53.436421
29845		-16.166740	-4.842558	-54.101189
29846		-16.201331	-4.851346	-54.769285
29847		-16.218879	-4.849933	-55.440935
29848		-16.222069	-4.840220	-56.114410
29849		-16.205336	-4.844160	-56.780714
29850		-16.189399	-4.865899	-57.433177
29851		-16.166259	-4.899925	-58.070967
29852		-16.153233	-4.932550	-58.696777
29853		-16.153594	-4.966912	-59.323183
29854		-16.174859	-4.996601	-59.954694
29855		-16.207441	-5.031038	-60.603137
29856		-16.253725	-5.060260	-61.269251
29857		-16.305325	-5.085679	-61.948143
29858		-16.370607	-5.108041	-62.631359
29859		-16.440857	-5.128434	-63.313944
29860		-16.521120	-5.162380	-63.987632
29861		-16.625235	-5.211454	-64.644010
29862		-16.781098	-5.273901	-65.283180
29863		-16.971503	-5.328970	-65.912521
29864		-17.182048	-5.346205	-66.535465
29865		-17.391816	-5.325986	-67.148490
29866		-17.595843	-5.280371	-67.750141
29867		-17.764401	-5.231176	-68.343298
29868		-17.895749	-5.203781	-68.920715
29869		-17.980343	-5.203738	-69.484834
29870		-18.021394	-5.206020	-70.034515
29871		-18.017246	-5.203222	-70.571967
29872		-17.980130	-5.200973	-71.099969
29873		-17.914464	-5.204894	-71.619377
29874		-17.820458	-5.204243	-72.133104
29875		-17.699311	-5.194267	-72.642883
29876		-17.576236	-5.172859	-73.146584
29877		-17.452357	-5.146210	-73.646170
29878		-17.326131	-5.121147	-74.132651
29879		-17.211216	-5.110066	-74.597753
29880		-17.125088	-5.110622	-75.039822
29881		-17.056298	-5.112212	-75.466413
29882		-17.004523	-5.103682	-75.879955
29883		-16.953488	-5.086773	-76.284451
29884		-16.911294	-5.062525	-76.676460
29885		-16.874995	-5.034992	-77.058214
29886		-16.834670	-5.004374	-77.427159
29887		-16.775874	-4.973035	-77.777588
29888		-16.706588	-4.942167	-78.108223
29889		-16.626586	-4.905047	-78.422477
29890		-16.550176	-4.865866	-78.719591
29891		-16.470366	-4.835533	-78.997063
29892		-16.399418	-4.804702	-79.257368
29893		-16.335376	-4.769624	-79.502840
29894		-16.276153	-4.728219	-79.736870
29895		-16.220418	-4.684758	-79.954976
29896		-16.174255	-4.642062	-80.161464
29897		-16.128834	-4.602953	-80.349254
29898		-16.097056	-4.566913	-80.514069
29899		-16.069874	-4.526721	-80.652423
29900		-16.050185	-4.480786	-80.772734
29901		-16.021478	-4.435875	-80.880568
29902		-15.990676	-4.390892	-80.976563
29903		-15.962128	-4.353412	-81.071873
29904		-15.939798	-4.321785	-81.161150
29905		-15.926006	-4.289436	-81.243193
29906		-15.920459	-4.253885	-81.314716
29907		-15.915953	-4.217953	-81.372881
29908		-15.911432	-4.182464	-81.416362
29909		-15.899004	-4.139001	-81.454395
29910		-15.876778	-4.093444	-81.486359
29911		-15.847353	-4.057612	-81.512106
29912		-15.812749	-4.027598	-81.532172
29913		-15.774714	-3.999074	-81.548112
29914		-15.734772	-3.970160	-81.556127
29915		-15.687862	-3.941679	-81.562895
29916		-15.641594	-3.911584	-81.560176
29917		-15.587629	-3.884615	-81.554577
29918		-15.525070	-3.865792	-81.544535
29919		-15.458378	-3.850661	-81.536287
29920		-15.399947	-3.834577	-81.534078
29921		-15.351428	-3.820869	-81.532599
29922		-15.328120	-3.811028	-81.531672
29923		-15.315926	-3.795716	-81.523505
29924		-15.318865	-3.778387	-81.515054
29925		-15.337373	-3.762411	-81.503770
29926		-15.359175	-3.749153	-81.495477
29927		-15.378215	-3.739252	-81.488414
29928		-15.402835	-3.732018	-81.477943
29929		-15.424913	-3.716662	-81.458003
29930		-15.436631	-3.689104	-81.429886
29931		-15.446855	-3.657969	-81.393295
29932		-15.459779	-3.623590	-81.342175
29933		-15.468503	-3.592178	-81.278131
29934		-15.462413	-3.561878	-81.202281
29935		-15.431391	-3.537557	-81.124389
29936		-15.383518	-3.512402	-81.047649
29937		-15.325416	-3.494989	-80.969253
29938		-15.275571	-3.490865	-80.878832
29939		-15.243238	-3.495220	-80.771139
29940		-15.228759	-3.489208	-80.636594
29941		-15.228053	-3.472244	-80.474595
29942		-15.239747	-3.448659	-80.295235
29943		-15.253415	-3.423173	-80.100761
29944		-15.277869	-3.404797	-79.893628
29945		-15.313000	-3.391187	-79.675544
29946		-15.350900	-3.372005	-79.444074
29947		-15.388736	-3.345237	-79.195390
29948		-15.423775	-3.304414	-78.925133
29949		-15.450531	-3.262845	-78.629798
29950		-15.457645	-3.236656	-78.312098
29951		-15.448103	-3.218724	-77.979099
29952		-15.438776	-3.199585	-77.633830
29953		-15.441234	-3.178992	-77.271215
29954		-15.462494	-3.157801	-76.884398
29955		-15.498290	-3.140547	-76.476081
29956		-15.541467	-3.126399	-76.051601
29957		-15.583610	-3.124785	-75.611004
29958		-15.637680	-3.124899	-75.150207
29959		-15.703038	-3.117940	-74.674640
29960		-15.774114	-3.106063	-74.179656
29961		-15.847266	-3.091320	-73.664390
29962		-15.906447	-3.077198	-73.138580
29963		-15.943175	-3.072795	-72.605232
29964		-15.954496	-3.080987	-72.063264
29965		-15.964331	-3.085995	-71.514764
29966		-15.981700	-3.091927	-70.950796
29967		-16.012471	-3.095910	-70.362076
29968		-16.059038	-3.096405	-69.747272
29969		-16.113741	-3.095309	-69.113050
29970		-16.148882	-3.102571	-68.473995
29971		-16.160841	-3.122902	-67.834716
29972		-16.164556	-3.144809	-67.192217
29973		-16.184956	-3.168903	-66.541925
29974		-16.206436	-3.192347	-65.878696
29975		-16.226308	-3.211145	-65.197280
29976		-16.246041	-3.226405	-64.499709
29977		-16.251053	-3.241512	-63.789610
29978		-16.247081	-3.260244	-63.069250
29979		-16.229863	-3.277210	-62.337101
29980		-16.198225	-3.301920	-61.600011
29981		-16.143261	-3.332458	-60.864516
29982		-16.069908	-3.377088	-60.131207
29983		-16.005556	-3.428998	-59.400002
29984		-15.955527	-3.484563	-58.662340
29985		-15.928156	-3.533318	-57.903271
29986		-15.910541	-3.565375	-57.115938
29987		-15.905456	-3.589461	-56.304960
29988		-15.888764	-3.612297	-55.478518
29989		-15.860849	-3.647332	-54.650178
29990		-15.823594	-3.699627	-53.824809
29991		-15.798915	-3.760533	-53.005118
29992		-15.778719	-3.822423	-52.187256
29993		-15.760865	-3.882713	-51.366488
29994		-15.744836	-3.941175	-50.534300
29995		-15.728905	-4.003076	-49.690210
29996		-15.695170	-4.062928	-48.834008
29997		-15.650772	-4.126118	-47.970529
29998		-15.599850	-4.195030	-47.103992
29999		-15.544909	-4.267990	-46.238267
30000		-15.511667	-4.340024	-45.375333
30001		-15.482912	-4.412294	-44.516836
30002		-15.439086	-4.488125	-43.668380
30003		-15.373826	-4.563610	-42.816619
30004		-15.288708	-4.641789	-41.955719
30005		-15.191991	-4.726344	-41.083194
30006		-15.082068	-4.809633	-40.206119
30007		-14.961897	-4.888883	-39.327231
30008		-14.839183	-4.970885	-38.454217
30009		-14.711970	-5.056627	-37.594572
30010		-14.590825	-5.145556	-36.744823
30011		-14.488681	-5.237262	-35.903878
30012		-14.406251	-5.333893	-35.066282
30013		-14.339351	-5.431770	-34.225289
30014		-14.295257	-5.528839	-33.376401
30015		-14.257191	-5.617619	-32.521118
30016		-14.227649	-5.702596	-31.661056
30017		-14.205469	-5.790340	-30.801537
30018		-14.190863	-5.873343	-29.950875
30019		-14.190763	-5.958305	-29.112605
30020		-14.201574	-6.049299	-28.278952
30021		-14.237616	-6.148163	-27.451112
30022		-14.303691	-6.246624	-26.622889
30023		-14.380850	-6.334097	-25.798633
30024		-14.449413	-6.406591	-24.982477
30025		-14.512811	-6.474785	-24.177226
30026		-14.567982	-6.549131	-23.389445
30027		-14.646811	-6.632026	-22.623293
30028		-14.740700	-6.714333	-21.871286
30029		-14.854266	-6.808719	-21.124342
30030		-14.993797	-6.897569	-20.381377
30031		-15.140446	-6.981399	-19.642172
30032		-15.306701	-7.048621	-18.906654
30033		-15.479629	-7.104816	-18.179858
30034		-15.644169	-7.154988	-17.465211
30035		-15.795435	-7.209007	-16.765229
30036		-15.927625	-7.272634	-16.079023
30037		-16.050175	-7.357873	-15.406353
30038		-16.161658	-7.442781	-14.748479
30039		-16.270949	-7.525275	-14.099831
30040		-16.387111	-7.594100	-13.457197
30041		-16.496266	-7.651387	-12.816200
30042		-16.584869	-7.695600	-12.172582
30043		-16.652592	-7.735713	-11.530771
30044		-16.714971	-7.786243	-10.894880
30045		-16.771374	-7.855647	-10.272034
30046		-16.838827	-7.934823	-9.653233
30047		-16.908858	-8.015076	-9.040930
30048		-16.973912	-8.075193	-8.437646
30049		-17.036030	-8.116894	-7.843966
30050		-17.087451	-8.149662	-7.259233
30051		-17.132602	-8.182967	-6.681857
30052		-17.149620	-8.209661	-6.108696
30053		-17.167969	-8.248978	-5.536759
30054		-17.207716	-8.299657	-4.972695
30055		-17.272808	-8.353217	-4.419899
30056		-17.360493	-8.394748	-3.881463
30057		-17.471775	-8.429658	-3.354814
30058		-17.604805	-8.454604	-2.835899
30059		-17.745756	-8.468003	-2.319485
30060		-17.879441	-8.465309	-1.813928
30061		-17.995517	-8.463172	-1.314876
30062		-18.092398	-8.468236	-0.834186
30063		-18.187736	-8.493845	-0.362846
30064		-18.299099	-8.524190	0.098163
30065		-18.422685	-8.554588	0.553831
30066		-18.541006	-8.578883	1.002733
30067		-18.657345	-8.605255	1.452595
30068		-18.755068	-8.623309	1.891964
30069		-18.823275	-8.631939	2.316274
30070		-18.855884	-8.627775	2.726698
30071		-18.868053	-8.632441	3.122244
30072		-18.884323	-8.647561	3.501826
30073		-18.892225	-8.666307	3.862719
30074		-18.888212	-8.674442	4.208198
30075		-18.889779	-8.684123	4.538629
30076		-18.912598	-8.687096	4.858777
30077		-18.950012	-8.681168	5.172616
30078		-18.999753	-8.657947	5.476322
30079		-19.046238	-8.631344	5.768415
30080		-19.079571	-8.610132	6.042192
30081		-19.118735	-8.596375	6.293598
30082		-19.160568	-8.582959	6.522359
30083		-19.213268	-8.563312	6.724869
30084		-19.269327	-8.538947	6.905026
30085		-19.319766	-8.512191	7.067941
30086		-19.360117	-8.482296	7.220611
30087		-19.385330	-8.452965	7.367376
30088		-19.398294	-8.426548	7.506240
30089		-19.392401	-8.407651	7.624775
30090		-19.368617	-8.390596	7.719808
30091		-19.334672	-8.379838	7.791632
30092		-19.294362	-8.370370	7.847898
30093		-19.264097	-8.364613	7.894564
30094		-19.235428	-8.340824	7.928475
30095		-19.200161	-8.317250	7.953232
30096		-19.156681	-8.295269	7.971613
30097		-19.097554	-8.281038	7.983817
30098		-19.032902	-8.271699	7.989945
30099		-18.964769	-8.264456	7.982773
30100		-18.901251	-8.250289	7.955193
30101		-18.861487	-8.236155	7.913906
30102		-18.853090	-8.220215	7.868924
30103		-18.863055	-8.209645	7.830554
30104		-18.869835	-8.199893	7.797207
30105		-18.867680	-8.190513	7.767128
30106		-18.840637	-8.180020	7.732782
30107		-18.800692	-8.174444	7.692481
30108		-18.760621	-8.168144	7.633062
30109		-18.727730	-8.164202	7.561734
30110		-18.720418	-8.156960	7.489800
30111		-18.745109	-8.145740	7.426368
30112		-18.786716	-8.125057	7.374065
30113		-18.830885	-8.101161	7.325198
30114		-18.867740	-8.072150	7.275207
30115		-18.903644	-8.047947	7.216667
30116		-18.926514	-8.020423	7.149223
30117		-18.945869	-7.989780	7.070064
30118		-18.947467	-7.955128	6.983622
30119		-18.936306	-7.919522	6.889995
30120		-18.906330	-7.878289	6.795090
30121		-18.858584	-7.831273	6.694583
30122		-18.796461	-7.778070	6.586745
30123		-18.715801	-7.729258	6.471430
30124		-18.627128	-7.672025	6.346533
30125		-18.542629	-7.617586	6.218954
30126		-18.472911	-7.561654	6.081360
30127		-18.433045	-7.500167	5.926514
30128		-18.417994	-7.427364	5.742526
30129		-18.429123	-7.349537	5.532081
30130		-18.478157	-7.271477	5.304939
30131		-18.530652	-7.195404	5.068544
30132		-18.567284	-7.114526	4.818380
30133		-18.576545	-7.043918	4.548187
30134		-18.570090	-6.980056	4.250324
30135		-18.554919	-6.922930	3.921122
30136		-18.531625	-6.862006	3.560052
30137		-18.502771	-6.803283	3.168834
30138		-18.470719	-6.749507	2.759578
30139		-18.450465	-6.700727	2.342516
30140		-18.437805	-6.643867	1.918621
30141		-18.416437	-6.591937	1.485807
30142		-18.383322	-6.537454	1.031969
30143		-18.323969	-6.483135	0.553993
30144		-18.238917	-6.432252	0.049355
30145		-18.146562	-6.391296	-0.483048
30146		-18.060626	-6.356083	-1.035298
30147		-17.986464	-6.324052	-1.602300
30148		-17.912939	-6.283200	-2.183555
30149		-17.836698	-6.241739	-2.774141
30150		-17.766378	-6.200159	-3.373404
30151		-17.694041	-6.163101	-3.979564
30152		-17.642590	-6.126415	-4.589795
30153		-17.592428	-6.093808	-5.208712
30154		-17.547707	-6.055832	-5.841492
30155		-17.499761	-6.020646	-6.487178
30156		-17.463179	-5.986894	-7.145130
30157		-17.433218	-5.959915	-7.809048
30158		-17.403552	-5.932648	-8.477299
30159		-17.375712	-5.903631	-9.147068
30160		-17.333824	-5.865051	-9.824436
30161		-17.275303	-5.827688	-10.508136
30162		-17.222576	-5.796290	-11.195508
30163		-17.163258	-5.770578	-11.894528
30164		-17.092574	-5.747184	-12.602684
30165		-17.013118	-5.730961	-13.323465
30166		-16.936001	-5.718604	-14.056016
30167		-16.856166	-5.706550	-14.795697
30168		-16.772180	-5.692515	-15.546387
30169		-16.684215	-5.684679	-16.302429
30170		-16.592914	-5.672848	-17.061638
30171		-16.487409	-5.657926	-17.818893
30172		-16.384649	-5.643734	-18.572736
30173		-16.275879	-5.632588	-19.320810
30174		-16.177281	-5.625492	-20.063919
30175		-16.081742	-5.624100	-20.812224
30176		-15.994290	-5.628320	-21.568353
30177		-15.918158	-5.635519	-22.332681
30178		-15.851813	-5.635531	-23.112666
30179		-15.788923	-5.632364	-23.911843
30180		-15.740625	-5.627206	-24.724819
30181		-15.714175	-5.626147	-25.539752
30182		-15.708887	-5.621837	-26.338459
30183		-15.694754	-5.618305	-27.119481
30184		-15.674305	-5.613407	-27.887147
30185		-15.641097	-5.609705	-28.652199
30186		-15.596780	-5.604123	-29.424395
30187		-15.543709	-5.600068	-30.209724
30188		-15.497025	-5.595878	-31.001506
30189		-15.458528	-5.589252	-31.795893
30190		-15.422616	-5.572610	-32.587138
30191		-15.360738	-5.554780	-33.374176
30192		-15.299743	-5.540277	-34.156719
30193		-15.227250	-5.535432	-34.941584
30194		-15.165381	-5.530785	-35.725203
30195		-15.113325	-5.523889	-36.497158
30196		-15.089893	-5.502369	-37.269296
30197		-15.076084	-5.476990	-38.039584
30198		-15.059911	-5.448707	-38.810283
30199		-15.043888	-5.422640	-39.573755
30200		-15.025306	-5.394965	-40.327453
30201		-14.975576	-5.371393	-41.072621
30202		-14.915381	-5.358748	-41.808257
30203		-14.831533	-5.358428	-42.539184
30204		-14.735592	-5.359587	-43.273100
30205		-14.625236	-5.367401	-44.014289
30206		-14.523847	-5.379679	-44.762030
30207		-14.449774	-5.388621	-45.515802
30208		-14.405578	-5.389444	-46.271362
30209		-14.387286	-5.388876	-47.015583
30210		-14.401065	-5.385843	-47.742449
30211		-14.428203	-5.391012	-48.452827
30212		-14.466070	-5.406504	-49.152266
30213		-14.498909	-5.429999	-49.852555
30214		-14.533163	-5.453809	-50.557411
30215		-14.563459	-5.480846	-51.270575
30216		-14.608113	-5.506297	-51.987774
30217		-14.674014	-5.532138	-52.704531
30218		-14.759742	-5.553881	-53.412298
30219		-14.852681	-5.566048	-54.113769
30220		-14.948812	-5.564215	-54.806244
30221		-15.042603	-5.563044	-55.498082
30222		-15.139215	-5.567601	-56.192796
30223		-15.235606	-5.580036	-56.882162
30224		-15.335082	-5.598537	-57.562133
30225		-15.427663	-5.622049	-58.234643
30226		-15.511763	-5.639630	-58.902195
30227		-15.575236	-5.647033	-59.568892
30228		-15.625648	-5.648518	-60.233056
30229		-15.658866	-5.645592	-60.895959
30230		-15.689755	-5.634537	-61.555874
30231		-15.695565	-5.622822	-62.209473
30232		-15.693776	-5.612798	-62.849192
30233		-15.683579	-5.605034	-63.473885
30234		-15.654634	-5.596219	-64.086128
30235		-15.601465	-5.591629	-64.690764
30236		-15.540502	-5.583671	-65.291584
30237		-15.460921	-5.575225	-65.886262
30238		-15.376973	-5.563584	-66.476429
30239		-15.296609	-5.554881	-67.056341
30240		-15.231777	-5.548182	-67.619393
30241		-15.177176	-5.537255	-68.166161
30242		-15.130124	-5.520334	-68.699968
30243		-15.083917	-5.491916	-69.224524
30244		-15.039877	-5.456580	-69.742329
30245		-14.994384	-5.412432	-70.254072
30246		-14.953344	-5.370118	-70.756659
30247		-14.917349	-5.336819	-71.253431
30248		-14.891491	-5.309436	-71.740303
30249		-14.885604	-5.290360	-72.218402
30250		-14.894335	-5.273688	-72.685150
30251		-14.889809	-5.251109	-73.149710
30252		-14.848873	-5.218325	-73.601018
30253		-14.787963	-5.190152	-74.041982
30254		-14.737249	-5.169985	-74.471580
30255		-14.677576	-5.155227	-74.889923
30256		-14.617752	-5.149754	-75.294196
30257		-14.565602	-5.155686	-75.679564
30258		-14.530106	-5.175563	-76.048768
30259		-14.509306	-5.202779	-76.396394
30260		-14.511283	-5.237858	-76.724257
30261		-14.560662	-5.272948	-77.038310
30262		-14.656945	-5.305491	-77.339186
30263		-14.786111	-5.326726	-77.626761
30264		-14.936606	-5.334081	-77.893392
30265		-15.085161	-5.328855	-78.137991
30266		-15.219247	-5.320196	-78.364042
30267		-15.329567	-5.323443	-78.573401
30268		-15.415423	-5.335400	-78.765334
30269		-15.482429	-5.349608	-78.947991
30270		-15.527759	-5.355568	-79.117461
30271		-15.550753	-5.359346	-79.266576
30272		-15.553525	-5.354043	-79.393848
30273		-15.522090	-5.342646	-79.507194
30274		-15.457517	-5.337858	-79.608303
30275		-15.382700	-5.346430	-79.701132
30276		-15.310414	-5.359467	-79.781551
30277		-15.250041	-5.369289	-79.848105
30278		-15.206109	-5.366316	-79.907892
30279		-15.173115	-5.356473	-79.962110
30280		-15.154389	-5.347508	-80.007660
30281		-15.138663	-5.338915	-80.049915
30282		-15.125430	-5.326242	-80.085978
30283		-15.114782	-5.313163	-80.108490
30284		-15.112904	-5.301285	-80.123221
30285		-15.107228	-5.282793	-80.127724
30286		-15.105555	-5.268800	-80.126760
30287		-15.102210	-5.257334	-80.117598
30288		-15.094194	-5.248357	-80.100441
30289		-15.079065	-5.249622	-80.074531
30290		-15.061130	-5.252196	-80.040433
30291		-15.045387	-5.249963	-79.998390
30292		-15.035756	-5.248144	-79.945649
30293		-15.033929	-5.254286	-79.872219
30294		-15.041990	-5.259796	-79.780656
30295		-15.052033	-5.259321	-79.676252
30296		-15.059781	-5.253044	-79.560700
30297		-15.072191	-5.247085	-79.438198
30298		-15.078407	-5.236426	-79.312039
30299		-15.081550	-5.225922	-79.182647
30300		-15.080400	-5.220701	-79.052133
30301		-15.077337	-5.216245	-78.918330
30302		-15.074475	-5.219475	-78.772105
30303		-15.070982	-5.220974	-78.610896
30304		-15.076686	-5.220779	-78.437969
30305		-15.089086	-5.223082	-78.257695
30306		-15.107281	-5.225015	-78.068726
30307		-15.140174	-5.229057	-77.874016
30308		-15.182305	-5.226082	-77.671419
30309		-15.222910	-5.216198	-77.460450
30310		-15.259631	-5.208028	-77.243039
30311		-15.285309	-5.204351	-77.016747
30312		-15.301537	-5.207533	-76.779855
30313		-15.303347	-5.216632	-76.530495
30314		-15.300337	-5.229761	-76.265314
30315		-15.291651	-5.238359	-75.983591
30316		-15.279273	-5.252563	-75.686584
30317		-15.252795	-5.269930	-75.370194
30318		-15.234679	-5.288907	-75.027123
30319		-15.209010	-5.309074	-74.663838
30320		-15.174423	-5.327787	-74.286549
30321		-15.141048	-5.344659	-73.898828
30322		-15.123648	-5.360362	-73.501397
30323		-15.123542	-5.374709	-73.086785
30324		-15.146927	-5.391107	-72.644867
30325		-15.196011	-5.403936	-72.183508
30326		-15.246826	-5.414893	-71.703034
30327		-15.285910	-5.434187	-71.197641
30328		-15.324372	-5.452795	-70.667163
30329		-15.357139	-5.461485	-70.109974
30330		-15.374420	-5.468785	-69.528655
30331		-15.377201	-5.481495	-68.920947
30332		-15.360172	-5.507224	-68.303449
30333		-15.321178	-5.542955	-67.680061
30334		-15.279471	-5.585168	-67.052201
30335		-15.255279	-5.628732	-66.422801
30336		-15.240539	-5.683054	-65.797486
30337		-15.240364	-5.748317	-65.167344
30338		-15.265577	-5.811855	-64.525195
30339		-15.318481	-5.865101	-63.864685
30340		-15.389757	-5.915716	-63.189802
30341		-15.478216	-5.960645	-62.500242
30342		-15.579807	-6.008051	-61.796653
30343		-15.689429	-6.058797	-61.076631
30344		-15.785982	-6.118553	-60.345651
30345		-15.860668	-6.188685	-59.606345
30346		-15.910264	-6.264203	-58.862062
30347		-15.939755	-6.330618	-58.112630
30348		-15.950129	-6.389067	-57.356465
30349		-15.940594	-6.433742	-56.586133
30350		-15.906430	-6.480734	-55.800186
30351		-15.851272	-6.533119	-55.000942
30352		-15.779216	-6.594133	-54.193415
30353		-15.700922	-6.657787	-53.385041
30354		-15.625723	-6.730352	-52.576241
30355		-15.572302	-6.808769	-51.762296
30356		-15.535633	-6.886625	-50.943197
30357		-15.519625	-6.958276	-50.114022
30358		-15.524669	-7.019846	-49.273921
30359		-15.535458	-7.066385	-48.424375
30360		-15.540754	-7.097236	-47.566310
30361		-15.544248	-7.115145	-46.702300
30362		-15.519750	-7.128369	-45.833589
30363		-15.457670	-7.156182	-44.958838
30364		-15.370808	-7.208079	-44.078408
30365		-15.284505	-7.286485	-43.196129
30366		-15.204017	-7.377139	-42.312356
30367		-15.153932	-7.460925	-41.425741
30368		-15.136965	-7.524697	-40.535847
30369		-15.145382	-7.572127	-39.642328
30370		-15.158216	-7.606327	-38.744322
30371		-15.177543	-7.637899	-37.838203
30372		-15.196325	-7.678896	-36.925729
30373		-15.219871	-7.732676	-36.003625
30374		-15.242656	-7.795245	-35.075842
30375		-15.265719	-7.856150	-34.146098
30376		-15.285379	-7.904680	-33.218428
30377		-15.296828	-7.938150	-32.292486
30378		-15.277423	-7.962132	-31.367447
30379		-15.212868	-7.980357	-30.451064
30380		-15.106595	-8.002952	-29.544310
30381		-14.997019	-8.052933	-28.637251
30382		-14.903535	-8.115620	-27.728329
30383		-14.810949	-8.172086	-26.829334
30384		-14.710085	-8.217995	-25.943427
30385		-14.613107	-8.267781	-25.074424
30386		-14.528492	-8.338847	-24.213723
30387		-14.479674	-8.417599	-23.356190
30388		-14.454995	-8.496558	-22.507809
30389		-14.462874	-8.568940	-21.671616
30390		-14.514858	-8.635808	-20.850291
30391		-14.600537	-8.697046	-20.047226
30392		-14.700065	-8.759367	-19.260660
30393		-14.798763	-8.821580	-18.487308
30394		-14.875860	-8.877302	-17.722002
30395		-14.949100	-8.926285	-16.961349
30396		-15.018751	-8.971120	-16.207569
30397		-15.093828	-9.016440	-15.465614
30398		-15.173730	-9.060217	-14.740409
30399		-15.272314	-9.109558	-14.029038
30400		-15.381527	-9.157627	-13.324412
30401		-15.501092	-9.192465	-12.625293
30402		-15.611520	-9.210579	-11.930919
30403		-15.688299	-9.223071	-11.249085
30404		-15.726015	-9.246139	-10.575270
30405		-15.744995	-9.290037	-9.903557
30406		-15.749415	-9.348947	-9.231678
30407		-15.763056	-9.408995	-8.561288
30408		-15.801994	-9.459467	-7.897655
30409		-15.867320	-9.498110	-7.243572
30410		-15.953877	-9.520887	-6.594584
30411		-16.053778	-9.532442	-5.957236
30412		-16.150930	-9.530925	-5.329340
30413		-16.250683	-9.530788	-4.711916
30414		-16.349731	-9.549522	-4.101253
30415		-16.440774	-9.575499	-3.500063
30416		-16.526489	-9.599062	-2.902699
30417		-16.618957	-9.614486	-2.311749
30418		-16.706153	-9.619725	-1.729811
30419		-16.793979	-9.612838	-1.162513
30420		-16.883877	-9.608457	-0.601630
30421		-16.961904	-9.602932	-0.051850
30422		-17.040393	-9.604664	0.490167
30423		-17.114434	-9.618964	1.025418
30424		-17.188120	-9.643243	1.555683
30425		-17.262950	-9.668925	2.075702
30426		-17.340195	-9.693260	2.582119
30427		-17.423753	-9.718582	3.076336
30428		-17.499632	-9.733812	3.554233
30429		-17.561442	-9.728284	4.022909
30430		-17.595994	-9.709252	4.482466
30431		-17.612854	-9.684411	4.931707
30432		-17.618740	-9.659496	5.371079
30433		-17.627144	-9.652499	5.804336
30434		-17.633921	-9.652141	6.230300
30435		-17.647167	-9.657483	6.652008
30436		-17.668373	-9.655454	7.064730
30437		-17.707953	-9.644610	7.464398
30438		-17.758623	-9.628430	7.840308
30439		-17.807415	-9.610227	8.189015
30440		-17.870537	-9.592229	8.515030
30441		-17.951249	-9.578784	8.820981
30442		-18.054761	-9.565822	9.117997
30443		-18.178074	-9.550067	9.409656
30444		-18.297619	-9.519871	9.686254
30445		-18.409159	-9.482481	9.941202
30446		-18.508603	-9.441142	10.172210
30447		-18.590159	-9.408277	10.377604
30448		-18.653686	-9.377232	10.561824
30449		-18.700743	-9.344096	10.729705
30450		-18.738160	-9.318044	10.883844
30451		-18.766134	-9.308634	11.028873
30452		-18.786378	-9.298919	11.162617
30453		-18.788573	-9.280893	11.280115
30454		-18.776235	-9.251402	11.379665
30455		-18.755222	-9.234942	11.459447
30456		-18.738612	-9.227913	11.519456
30457		-18.716773	-9.222744	11.563834
30458		-18.686288	-9.199122	11.596375
30459		-18.640149	-9.165991	11.621482
30460		-18.586600	-9.135089	11.640286
30461		-18.537282	-9.099331	11.652420
30462		-18.482687	-9.055348	11.661104
30463		-18.440228	-9.006993	11.663461
30464		-18.411503	-8.959885	11.665944
30465		-18.394143	-8.926968	11.671782
30466		-18.378894	-8.905032	11.680938
30467		-18.360390	-8.895046	11.687138
30468		-18.347490	-8.889696	11.684959
30469		-18.335353	-8.876661	11.666293
30470		-18.322329	-8.844844	11.625118
30471		-18.317801	-8.806017	11.573916
30472		-18.321573	-8.773473	11.526889
30473		-18.320069	-8.759640	11.492407
30474		-18.305434	-8.756648	11.468451
30475		-18.267405	-8.761393	11.439667
30476		-18.217745	-8.761632	11.402846
30477		-18.161444	-8.760699	11.357218
30478		-18.115737	-8.756762	11.303513
30479		-18.091172	-8.741022	11.248609
30480		-18.085027	-8.718677	11.197304
30481		-18.093461	-8.693734	11.152131
30482		-18.106621	-8.671658	11.111945
30483		-18.106603	-8.652597	11.068592
30484		-18.090424	-8.634836	11.015711
30485		-18.077954	-8.608252	10.951972
30486		-18.067203	-8.574270	10.873598
30487		-18.061396	-8.536641	10.793158
30488		-18.058710	-8.490272	10.721474
30489		-18.066661	-8.441374	10.659244
30490		-18.063885	-8.395222	10.593728
30491		-18.055859	-8.352725	10.518034
30492		-18.050490	-8.312888	10.429995
30493		-18.040466	-8.272878	10.319152
30494		-18.040831	-8.223786	10.189939
30495		-18.069143	-8.164742	10.039720
30496		-18.108860	-8.100398	9.876567
30497		-18.147517	-8.041530	9.709387
30498		-18.188701	-7.989912	9.534021
30499		-18.216029	-7.942518	9.340580
30500		-18.234514	-7.897501	9.124587
30501		-18.238794	-7.851027	8.875874
30502		-18.243380	-7.806759	8.600152
30503		-18.250248	-7.758668	8.301257
30504		-18.247646	-7.696934	7.979736
30505		-18.243164	-7.631404	7.640512
30506		-18.243887	-7.575861	7.293992
30507		-18.228888	-7.523153	6.938549
30508		-18.192125	-7.471049	6.575668
30509		-18.135543	-7.418218	6.193499
30510		-18.063152	-7.350206	5.779680
30511		-17.978239	-7.270973	5.333151
30512		-17.899830	-7.190877	4.864273
30513		-17.822770	-7.113078	4.380918
30514		-17.744973	-7.031276	3.886400
30515		-17.669871	-6.944599	3.379939
30516		-17.603707	-6.855080	2.867481
30517		-17.548910	-6.775182	2.349765
30518		-17.512238	-6.709573	1.828265
30519		-17.484384	-6.643465	1.293642
30520		-17.469052	-6.574762	0.740815
30521		-17.461453	-6.510001	0.168836
30522		-17.457378	-6.443825	-0.421501
30523		-17.446121	-6.378707	-1.029913
30524		-17.427872	-6.307014	-1.651743
30525		-17.401279	-6.238926	-2.284860
30526		-17.377978	-6.173892	-2.925530
30527		-17.354467	-6.115396	-3.578143
30528		-17.328379	-6.063972	-4.242252
30529		-17.309825	-6.019104	-4.917433
30530		-17.301603	-5.972777	-5.598920
30531		-17.292749	-5.932134	-6.288853
30532		-17.285804	-5.892801	-6.988390
30533		-17.273233	-5.849897	-7.702589
30534		-17.260497	-5.808416	-8.436388
30535		-17.248160	-5.774736	-9.185681
30536		-17.250708	-5.750113	-9.939572
30537		-17.261552	-5.726444	-10.688377
30538		-17.276445	-5.693669	-11.436451
30539		-17.279744	-5.664035	-12.193739
30540		-17.283508	-5.629220	-12.968123
30541		-17.287153	-5.597851	-13.763740
30542		-17.291578	-5.560810	-14.581232
30543		-17.296048	-5.528171	-15.416358
30544		-17.303456	-5.496748	-16.254051
30545		-17.287826	-5.471469	-17.082679
30546		-17.271229	-5.446312	-17.896932
30547		-17.240722	-5.416864	-18.706713
30548		-17.215739	-5.383212	-19.526425
30549		-17.193296	-5.350067	-20.367062
30550		-17.190823	-5.318816	-21.224847
30551		-17.196235	-5.298239	-22.089672
30552		-17.212639	-5.278295	-22.952703
30553		-17.214613	-5.259529	-23.810364
30554		-17.203947	-5.230292	-24.669074
30555		-17.179474	-5.187807	-25.536041
30556		-17.144538	-5.138882	-26.416183
30557		-17.105434	-5.098513	-27.311425
30558		-17.073942	-5.071076	-28.205106
30559		-17.058998	-5.048813	-29.085788
30560		-17.047665	-5.017872	-29.952053
30561		-17.025195	-4.982514	-30.810691
30562		-17.000290	-4.945588	-31.671076
30563		-16.974402	-4.901117	-32.544139
30564		-16.961979	-4.852955	-33.429181
30565		-16.953118	-4.799096	-34.326431
30566		-16.946759	-4.745419	-35.229030
30567		-16.948224	-4.697536	-36.126593
30568		-16.962916	-4.650049	-37.014481
30569		-16.968816	-4.600864	-37.889490
30570		-16.968759	-4.547012	-38.750644
30571		-16.962680	-4.491518	-39.604728
30572		-16.959577	-4.433235	-40.460789
30573		-16.950677	-4.379887	-41.318268
30574		-16.938124	-4.326144	-42.177013
30575		-16.903310	-4.273595	-43.040837
30576		-16.856505	-4.223330	-43.902903
30577		-16.787842	-4.181545	-44.758279
30578		-16.714976	-4.147903	-45.594089
30579		-16.637083	-4.123843	-46.412397
30580		-16.548083	-4.085732	-47.219783
30581		-16.440468	-4.044882	-48.027705
30582		-16.322554	-4.000698	-48.844580
30583		-16.201142	-3.966783	-49.673733
30584		-16.087065	-3.943768	-50.507479
30585		-15.986832	-3.929753	-51.340730
30586		-15.902317	-3.919384	-52.165967
30587		-15.820074	-3.907125	-52.975645
30588		-15.737559	-3.889209	-53.772117
30589		-15.639657	-3.878898	-54.559415
30590		-15.551156	-3.872950	-55.338967
30591		-15.463165	-3.866926	-56.120576
30592		-15.388691	-3.846699	-56.901028
30593		-15.309553	-3.811693	-57.680915
30594		-15.210276	-3.765925	-58.459468
30595		-15.083875	-3.716993	-59.236567
30596		-14.944432	-3.663869	-60.004347
30597		-14.776555	-3.614113	-60.765595
30598		-14.590271	-3.557619	-61.515596
30599		-14.364022	-3.497283	-62.253119
30600		-14.107132	-3.452192	-62.966284
30601		-13.832345	-3.430552	-63.652724
30602		-13.548790	-3.421734	-64.317727
30603		-13.247476	-3.402103	-64.965694
30604		-12.946177	-3.361641	-65.606289
30605		-12.645000	-3.319515	-66.238745
30606		-12.353760	-3.287833	-66.863551
30607		-12.075972	-3.272500	-67.473661
30608		-11.828582	-3.265131	-68.065331
30609		-11.614848	-3.255387	-68.637105
30610		-11.449011	-3.236902	-69.189974
30611		-11.321847	-3.211066	-69.727400
30612		-11.234533	-3.175464	-70.257570
30613		-11.191886	-3.127317	-70.777745
30614		-11.202741	-3.066563	-71.288586
30615		-11.245181	-3.003660	-71.782323
30616		-11.304293	-2.946402	-72.252611
30617		-11.371535	-2.892721	-72.699323
30618		-11.447259	-2.831873	-73.125077
30619		-11.496456	-2.757860	-73.535992
30620		-11.535854	-2.681306	-73.932034
30621		-11.559971	-2.602388	-74.318289
30622		-11.544418	-2.525918	-74.690791
30623		-11.494390	-2.457717	-75.049048
30624		-11.426363	-2.403581	-75.394513
30625		-11.355478	-2.360573	-75.727350
30626		-11.297012	-2.320708	-76.049116
30627		-11.263129	-2.281694	-76.364616
30628		-11.249163	-2.242943	-76.671411
30629		-11.252861	-2.203747	-76.966495
30630		-11.283462	-2.166610	-77.244538
30631		-11.337749	-2.127931	-77.502393
30632		-11.410208	-2.086633	-77.734051
30633		-11.496282	-2.043587	-77.940712
30634		-11.580702	-2.002929	-78.124795
30635		-11.637838	-1.965985	-78.282496
30636		-11.673307	-1.936897	-78.421613
30637		-11.699228	-1.916266	-78.535644
30638		-11.701203	-1.906090	-78.624124
30639		-11.683165	-1.903529	-78.684846
30640		-11.649736	-1.904210	-78.716359
30641		-11.599615	-1.899129	-78.718194
30642		-11.540519	-1.886025	-78.694662
30643		-11.474736	-1.877840	-78.654446
30644		-11.403611	-1.879113	-78.604452
30645		-11.327964	-1.891907	-78.546570
30646		-11.263294	-1.905844	-78.484599
30647		-11.221275	-1.923906	-78.410456
30648		-11.200449	-1.927104	-78.325230
30649		-11.209705	-1.913218	-78.231369
30650		-11.236624	-1.890484	-78.128822
30651		-11.272876	-1.867593	-78.023119
30652		-11.324585	-1.847696	-77.906110
30653		-11.402656	-1.831424	-77.772373
30654		-11.503342	-1.814570	-77.621916
30655		-11.615177	-1.794257	-77.465063
30656		-11.719110	-1.770923	-77.300265
30657		-11.823214	-1.753364	-77.126730
30658		-11.924857	-1.735144	-76.948200
30659		-12.013105	-1.706480	-76.765182
30660		-12.073139	-1.676837	-76.572776
30661		-12.105679	-1.659185	-76.363705
30662		-12.108519	-1.652173	-76.139755
30663		-12.088388	-1.646264	-75.904950
30664		-12.050581	-1.638604	-75.664588
30665		-12.005778	-1.628264	-75.420736
30666		-11.950637	-1.615247	-75.171798
30667		-11.895388	-1.607040	-74.910255
30668		-11.840843	-1.598772	-74.632745
30669		-11.784427	-1.587042	-74.331861
30670		-11.726561	-1.568227	-74.013971
30671		-11.675314	-1.554579	-73.682949
30672		-11.632853	-1.554603	-73.344858
30673		-11.591887	-1.559377	-73.001804
30674		-11.558524	-1.562377	-72.650041
30675		-11.552054	-1.558066	-72.287906
30676		-11.569769	-1.540283	-71.913455
30677		-11.604167	-1.506225	-71.525734
30678		-11.646002	-1.465285	-71.118013
30679		-11.680045	-1.424326	-70.685992
30680		-11.698179	-1.388409	-70.229936
30681		-11.700668	-1.360924	-69.756641
30682		-11.667890	-1.344837	-69.277017
30683		-11.613218	-1.335053	-68.795801
30684		-11.553365	-1.323358	-68.310826
30685		-11.502788	-1.312918	-67.816167
30686		-11.448723	-1.294247	-67.304980
30687		-11.394232	-1.264641	-66.767848
30688		-11.342786	-1.234665	-66.201837
30689		-11.289678	-1.220645	-65.606291
30690		-11.237030	-1.220393	-64.984441
30691		-11.177644	-1.226293	-64.343153
30692		-11.110094	-1.235367	-63.694497
30693		-11.038744	-1.250015	-63.046955
30694		-10.945055	-1.267832	-62.396462
30695		-10.827756	-1.288131	-61.738984
30696		-10.697252	-1.312354	-61.063624
30697		-10.567371	-1.328291	-60.369297
30698		-10.440310	-1.325559	-59.650832
30699		-10.331600	-1.313584	-58.909018
30700		-10.219641	-1.305873	-58.142927
30701		-10.101190	-1.327252	-57.365740
30702		-9.967002	-1.383991	-56.587642
30703		-9.838146	-1.458442	-55.820166
30704		-9.726837	-1.540123	-55.061297
30705		-9.650525	-1.616946	-54.305607
30706		-9.603678	-1.683995	-53.546412
30707		-9.591067	-1.735604	-52.778359
30708		-9.615656	-1.778147	-51.992585
30709		-9.665199	-1.813557	-51.188534
30710		-9.718621	-1.846862	-50.369297
30711		-9.763815	-1.887362	-49.551847
30712		-9.792618	-1.946555	-48.745505
30713		-9.832787	-2.026172	-47.956558
30714		-9.895463	-2.114050	-47.176265
30715		-9.983445	-2.195599	-46.395472
30716		-10.078161	-2.259984	-45.600738
30717		-10.170699	-2.303109	-44.788897
30718		-10.234344	-2.339854	-43.960458
30719		-10.258848	-2.372540	-43.122860
30720		-10.240376	-2.416940	-42.285569
30721		-10.194305	-2.482669	-41.451592
30722		-10.125280	-2.575232	-40.619223
30723		-10.065685	-2.690753	-39.787952
30724		-10.018965	-2.812977	-38.949166
30725		-9.991830	-2.918428	-38.103104
30726		-9.971303	-3.005561	-37.252994
30727		-9.964802	-3.075735	-36.402485
30728		-9.953972	-3.123695	-35.559183
30729		-9.928005	-3.149050	-34.721287
30730		-9.873525	-3.165663	-33.892489
30731		-9.797682	-3.196890	-33.065623
30732		-9.724353	-3.250270	-32.241162
30733		-9.666877	-3.321960	-31.414073
30734		-9.624242	-3.389143	-30.584845
30735		-9.593124	-3.448804	-29.748427
30736		-9.567569	-3.500676	-28.911903
30737		-9.527135	-3.552319	-28.082775
30738		-9.456363	-3.613459	-27.272417
30739		-9.368185	-3.693332	-26.483476
30740		-9.281805	-3.790656	-25.714411
30741		-9.205410	-3.899097	-24.953142
30742		-9.137635	-4.001471	-24.189155
30743		-9.069190	-4.088098	-23.417515
30744		-9.001358	-4.173351	-22.635153
30745		-8.932798	-4.253280	-21.853319
30746		-8.853604	-4.320998	-21.084266
30747		-8.779527	-4.385716	-20.332048
30748		-8.715241	-4.455028	-19.595695
30749		-8.674370	-4.532538	-18.874218
30750		-8.658129	-4.614119	-18.161945
30751		-8.664029	-4.685817	-17.459151
30752		-8.690205	-4.750223	-16.761258
30753		-8.732991	-4.808004	-16.065069
30754		-8.787612	-4.857442	-15.373666
30755		-8.871359	-4.897946	-14.691844
30756		-8.965762	-4.921506	-14.026409
30757		-9.067929	-4.941430	-13.377502
30758		-9.171210	-4.963022	-12.739017
30759		-9.276859	-4.989902	-12.108123
30760		-9.388543	-5.020120	-11.485544
30761		-9.507021	-5.049009	-10.873769
30762		-9.633978	-5.075254	-10.270941
30763		-9.753289	-5.100086	-9.671678
30764		-9.867262	-5.123329	-9.080874
30765		-9.968636	-5.141280	-8.498323
30766		-10.044661	-5.154588	-7.920984
30767		-10.101411	-5.166045	-7.350443
30768		-10.138248	-5.191913	-6.783706
30769		-10.178986	-5.246258	-6.219083
30770		-10.229899	-5.317221	-5.656976
30771		-10.295999	-5.382364	-5.099763
30772		-10.377528	-5.433928	-4.557577
30773		-10.465053	-5.474287	-4.031517
30774		-10.554235	-5.510107	-3.519367
30775		-10.651544	-5.553113	-3.015657
30776		-10.746096	-5.596865	-2.516453
30777		-10.830451	-5.645325	-2.020396
30778		-10.894933	-5.699053	-1.525502
30779		-10.955296	-5.766956	-1.037149
30780		-11.014489	-5.846779	-0.558583
30781		-11.073803	-5.936005	-0.095229
30782		-11.145346	-6.028272	0.353474
30783		-11.240223	-6.124267	0.793199
30784		-11.338871	-6.218547	1.228521
30785		-11.445729	-6.314004	1.664295
30786		-11.559881	-6.415701	2.102304
30787		-11.671018	-6.524539	2.535982
30788		-11.781470	-6.633153	2.959405
30789		-11.904546	-6.740320	3.364878
30790		-12.049201	-6.845430	3.747315
30791		-12.230684	-6.947024	4.117672
30792		-12.431988	-7.038784	4.481728
30793		-12.642995	-7.119745	4.843325
30794		-12.860613	-7.189463	5.195826
30795		-13.073075	-7.241709	5.525328
30796		-13.260226	-7.282257	5.836352
30797		-13.438128	-7.327643	6.132112
30798		-13.598620	-7.380443	6.410024
30799		-13.745991	-7.432162	6.666882
30800		-13.889439	-7.465835	6.901166
30801		-14.025182	-7.483502	7.113681
30802		-14.142823	-7.494360	7.306735
30803		-14.237676	-7.514761	7.488157
30804		-14.302051	-7.539886	7.658348
30805		-14.327620	-7.569162	7.814723
30806		-14.334650	-7.592587	7.950231
30807		-14.331242	-7.604061	8.063035
30808		-14.325686	-7.606794	8.156433
30809		-14.317127	-7.613479	8.235815
30810		-14.309805	-7.628242	8.309479
30811		-14.299303	-7.646061	8.382088
30812		-14.283258	-7.650659	8.449301
30813		-14.261011	-7.644552	8.500094
30814		-14.241231	-7.620405	8.524610
30815		-14.224823	-7.593481	8.531973
30816		-14.212151	-7.574762	8.533353
30817		-14.209774	-7.566128	8.535219
30818		-14.214812	-7.565918	8.539023
30819		-14.226180	-7.568316	8.542380
30820		-14.247858	-7.574987	8.545504
30821		-14.279067	-7.584169	8.538664
30822		-14.327102	-7.593936	8.524790
30823		-14.384853	-7.599882	8.504327
30824		-14.446412	-7.594191	8.479036
30825		-14.510784	-7.580533	8.448789
30826		-14.570290	-7.569325	8.414138
30827		-14.619542	-7.564997	8.375897
30828		-14.657809	-7.565772	8.338502
30829		-14.681340	-7.566328	8.302598
30830		-14.696528	-7.566349	8.266164
30831		-14.703786	-7.562245	8.229687
30832		-14.711525	-7.554881	8.192477
30833		-14.728002	-7.548423	8.156635
30834		-14.755755	-7.537167	8.121182
30835		-14.782315	-7.522530	8.086913
30836		-14.809014	-7.506386	8.053076
30837		-14.817938	-7.487763	8.016918
30838		-14.809837	-7.461279	7.975324
30839		-14.792136	-7.432715	7.925472
30840		-14.772028	-7.397122	7.864655
30841		-14.757853	-7.357489	7.796614
30842		-14.764982	-7.316696	7.729537
30843		-14.797767	-7.272275	7.668170
30844		-14.836377	-7.225373	7.606383
30845		-14.872917	-7.172647	7.540903
30846		-14.901849	-7.120861	7.466851
30847		-14.920619	-7.070129	7.378843
30848		-14.938384	-7.021147	7.274202
30849		-14.950653	-6.973975	7.153892
30850		-14.964774	-6.922381	7.020057
30851		-14.992180	-6.874713	6.878533
30852		-15.023161	-6.815813	6.732165
30853		-15.042313	-6.754707	6.581950
30854		-15.046259	-6.707534	6.428291
30855		-15.037564	-6.668352	6.261379
30856		-15.015534	-6.636126	6.073936
30857		-14.988087	-6.602686	5.860144
30858		-14.967650	-6.563003	5.619186
30859		-14.955977	-6.519743	5.356417
30860		-14.957205	-6.472599	5.084553
30861		-14.962109	-6.425130	4.809045
30862		-14.970037	-6.374622	4.526674
30863		-14.985160	-6.321398	4.228488
30864		-15.005098	-6.270505	3.904230
30865		-15.050135	-6.219960	3.553517
30866		-15.112886	-6.165387	3.179613
30867		-15.166974	-6.104016	2.791222
30868		-15.227420	-6.042644	2.396630
30869		-15.287753	-5.994816	2.000918
30870		-15.333472	-5.943697	1.600738
30871		-15.363000	-5.890805	1.188882
30872		-15.382800	-5.844806	0.760772
30873		-15.374965	-5.799039	0.309263
30874		-15.345635	-5.744426	-0.171143
30875		-15.306830	-5.690103	-0.677806
30876		-15.274165	-5.635922	-1.206007
30877		-15.242754	-5.581781	-1.745523
30878		-15.216300	-5.527277	-2.283943
30879		-15.198155	-5.470447	-2.813493
30880		-15.188265	-5.412087	-3.328328
30881		-15.183381	-5.353192	-3.840136
30882		-15.181045	-5.296085	-4.364910
30883		-15.178238	-5.240950	-4.907955
30884		-15.175970	-5.179932	-5.478969
30885		-15.174547	-5.112457	-6.068666
30886		-15.170106	-5.040460	-6.669840
30887		-15.159166	-4.961948	-7.271496
30888		-15.140696	-4.877023	-7.875747
30889		-15.112924	-4.788018	-8.487697
30890		-15.078017	-4.697263	-9.107765
30891		-15.029821	-4.603769	-9.733383
30892		-14.987668	-4.511664	-10.374843
30893		-14.957470	-4.429067	-11.026614
30894		-14.933876	-4.358872	-11.681268
30895		-14.905489	-4.290007	-12.335703
30896		-14.858414	-4.219667	-12.987771
30897		-14.786265	-4.151991	-13.641739
30898		-14.700545	-4.086305	-14.309175
30899		-14.600323	-4.020404	-14.995376
30900		-14.488663	-3.954389	-15.706331
30901		-14.368565	-3.893244	-16.432758
30902		-14.253148	-3.832677	-17.171310
30903		-14.145313	-3.769441	-17.908049
30904		-14.046166	-3.707444	-18.630156
30905		-13.952560	-3.650580	-19.338826
30906		-13.863950	-3.598252	-20.047742
30907		-13.785916	-3.552249	-20.770537
30908		-13.723529	-3.517746	-21.504835
30909		-13.673050	-3.490702	-22.244580
30910		-13.636783	-3.461422	-22.991011
30911		-13.589951	-3.429327	-23.740368
30912		-13.532523	-3.391774	-24.485921
30913		-13.465851	-3.356379	-25.224367
30914		-13.390139	-3.320601	-25.961324
30915		-13.307150	-3.285490	-26.703093
30916		-13.215208	-3.251503	-27.451278
30917		-13.126841	-3.224112	-28.208226
30918		-13.043260	-3.204441	-28.971467
30919		-12.968255	-3.188595	-29.740581
30920		-12.918017	-3.176146	-30.507014
30921		-12.876130	-3.169568	-31.262124
30922		-12.842139	-3.158986	-32.008658
30923		-12.802122	-3.145622	-32.754137
30924		-12.756719	-3.130118	-33.494345
30925		-12.705271	-3.119798	-34.239126
30926		-12.641737	-3.110455	-34.989360
30927		-12.556702	-3.100668	-35.748924
30928		-12.474011	-3.093052	-36.512447
30929		-12.396762	-3.097080	-37.274309
30930		-12.330181	-3.101875	-38.030322
30931		-12.261826	-3.111503	-38.779507
30932		-12.194461	-3.122471	-39.525252
30933		-12.140843	-3.139586	-40.268046
30934		-12.104808	-3.166372	-41.008817
30935		-12.092968	-3.207103	-41.755418
30936		-12.122801	-3.249038	-42.509679
30937		-12.200895	-3.286184	-43.271306
30938		-12.322610	-3.312629	-44.034645
30939		-12.468580	-3.341474	-44.792797
30940		-12.651535	-3.370681	-45.536723
30941		-12.863819	-3.394744	-46.266798
30942		-13.089940	-3.411928	-46.986871
30943		-13.325463	-3.417189	-47.700541
30944		-13.555903	-3.409926	-48.418590
30945		-13.753317	-3.399807	-49.140731
30946		-13.911291	-3.400189	-49.857719
30947		-14.026333	-3.410754	-50.562753
30948		-14.115310	-3.424570	-51.248668
30949		-14.160781	-3.433132	-51.925175
30950		-14.167805	-3.443520	-52.595980
30951		-14.126563	-3.456556	-53.264445
30952		-14.040877	-3.472155	-53.931664
30953		-13.913916	-3.502845	-54.595696
30954		-13.749564	-3.542271	-55.256205
30955		-13.558874	-3.588502	-55.911938
30956		-13.367825	-3.630373	-56.559125
30957		-13.188848	-3.665481	-57.195359
30958		-13.027933	-3.692609	-57.827166
30959		-12.869458	-3.712000	-58.452397
30960		-12.727514	-3.730154	-59.066451
30961		-12.595317	-3.746781	-59.671265
30962		-12.469783	-3.759055	-60.267177
30963		-12.349909	-3.763653	-60.862762
30964		-12.234647	-3.767079	-61.450493
30965		-12.130213	-3.772870	-62.036914
30966		-12.041399	-3.779018	-62.616578
30967		-11.970767	-3.787057	-63.193606
30968		-11.919615	-3.788530	-63.768189
30969		-11.892268	-3.788577	-64.345035
30970		-11.889854	-3.792926	-64.920634
30971		-11.918377	-3.808813	-65.499343
30972		-11.977278	-3.827851	-66.068756
30973		-12.064299	-3.850608	-66.627297
30974		-12.180903	-3.872210	-67.169372
30975		-12.315444	-3.887493	-67.696148
30976		-12.460176	-3.897323	-68.212346
30977		-12.605198	-3.905158	-68.726052
30978		-12.744442	-3.912633	-69.237691
30979		-12.863253	-3.918524	-69.741171
30980		-12.962136	-3.929555	-70.230285
30981		-13.028339	-3.944898	-70.705229
30982		-13.058592	-3.953177	-71.167158
30983		-13.056126	-3.953089	-71.615795
30984		-13.023804	-3.948833	-72.051546
30985		-12.968431	-3.945269	-72.476461
30986		-12.898541	-3.943899	-72.895288
30987		-12.816035	-3.943165	-73.303481
30988		-12.735014	-3.945877	-73.704668
30989		-12.659229	-3.953655	-74.098730
30990		-12.583566	-3.966119	-74.484574
30991		-12.512533	-3.979984	-74.861279
30992		-12.440165	-3.989604	-75.226134
30993		-12.362429	-3.989439	-75.574148
30994		-12.281936	-3.979897	-75.907715
30995		-12.186976	-3.961206	-76.228877
30996		-12.094702	-3.943768	-76.542020
30997		-12.006667	-3.928889	-76.840897
30998		-11.926854	-3.921990	-77.131324
30999		-11.857580	-3.920677	-77.410302
31000		-11.790155	-3.908006	-77.680738
31001		-11.722873	-3.883171	-77.940867
31002		-11.659773	-3.853400	-78.187278
31003		-11.608618	-3.829637	-78.422874
31004		-11.570961	-3.804826	-78.649243
31005		-11.559685	-3.783302	-78.869406
31006		-11.573511	-3.767101	-79.080871
31007		-11.604359	-3.741567	-79.283131
31008		-11.643425	-3.705385	-79.474417
31009		-11.676076	-3.665118	-79.652995
31010		-11.703463	-3.627376	-79.819202
31011		-11.731400	-3.590030	-79.967063
31012		-11.754534	-3.554832	-80.095189
31013		-11.769551	-3.529391	-80.206530
31014		-11.785194	-3.507109	-80.308170
31015		-11.802157	-3.493340	-80.402677
31016		-11.809519	-3.479092	-80.487856
31017		-11.809691	-3.465501	-80.556371
31018		-11.807665	-3.444183	-80.608675
31019		-11.789815	-3.416963	-80.647100
31020		-11.764497	-3.392906	-80.673982
31021		-11.733004	-3.363591	-80.685035
31022		-11.704451	-3.329044	-80.685119
31023		-11.679445	-3.296595	-80.672426
31024		-11.663750	-3.270747	-80.653251
31025		-11.660322	-3.246375	-80.627064
31026		-11.663684	-3.226546	-80.587176
31027		-11.673765	-3.203892	-80.529479
31028		-11.685428	-3.176441	-80.459163
31029		-11.697750	-3.146917	-80.376027
31030		-11.712101	-3.112471	-80.281178
31031		-11.735862	-3.074079	-80.175160
31032		-11.765868	-3.031419	-80.058633
31033		-11.803776	-2.988424	-79.929074
31034		-11.836193	-2.949844	-79.788968
31035		-11.862722	-2.922562	-79.642831
31036		-11.876044	-2.899216	-79.491968
31037		-11.892931	-2.873883	-79.339091
31038		-11.926281	-2.844227	-79.180193
31039		-11.977189	-2.800805	-79.012413
31040		-12.045988	-2.741489	-78.831655
31041		-12.114456	-2.676266	-78.639159
31042		-12.172276	-2.621021	-78.431985
31043		-12.228421	-2.576184	-78.211462
31044		-12.285061	-2.533032	-77.981478
31045		-12.345387	-2.486193	-77.750075
31046		-12.398903	-2.439454	-77.517568
31047		-12.451119	-2.398763	-77.283995
31048		-12.507436	-2.362485	-77.045883
31049		-12.568615	-2.333658	-76.795367
31050		-12.640780	-2.305379	-76.524735
31051		-12.715294	-2.274461	-76.230297
31052		-12.775550	-2.245269	-75.914475
31053		-12.821385	-2.221009	-75.572181
31054		-12.852158	-2.201967	-75.204007
31055		-12.859797	-2.190547	-74.809183
31056		-12.827640	-2.195703	-74.389016
31057		-12.755576	-2.215134	-73.951010
31058		-12.657561	-2.248973	-73.495604
31059		-12.539383	-2.287736	-73.017843
31060		-12.405951	-2.329730	-72.511060
31061		-12.273963	-2.368087	-71.970825
31062		-12.140607	-2.394845	-71.397004
31063		-12.015525	-2.423520	-70.794470
31064		-11.897151	-2.459608	-70.165970
31065		-11.789038	-2.488915	-69.517966
31066		-11.699266	-2.510378	-68.848816
31067		-11.645501	-2.522475	-68.152990
31068		-11.625144	-2.523123	-67.431476
31069		-11.620480	-2.504437	-66.686142
31070		-11.616335	-2.485776	-65.922436
31071		-11.615973	-2.470927	-65.137587
31072		-11.624352	-2.457301	-64.332145
31073		-11.644106	-2.434526	-63.510716
31074		-11.669668	-2.395164	-62.676855
31075		-11.705612	-2.343491	-61.827951
31076		-11.734827	-2.294906	-60.966088
31077		-11.749631	-2.268031	-60.090975
31078		-11.746332	-2.262139	-59.198516
31079		-11.736425	-2.262007	-58.294677
31080		-11.714758	-2.264952	-57.387222
31081		-11.688798	-2.271552	-56.476026
31082		-11.658438	-2.286855	-55.561566
31083		-11.631285	-2.309809	-54.646156
31084		-11.590178	-2.336637	-53.725515
31085		-11.550821	-2.371052	-52.795685
31086		-11.511559	-2.412658	-51.854384
31087		-11.475157	-2.448684	-50.905728
31088		-11.429693	-2.483657	-49.946751
31089		-11.380423	-2.532112	-48.980916
31090		-11.323703	-2.595833	-48.010517
31091		-11.272264	-2.669742	-47.039147
31092		-11.240469	-2.743535	-46.063416
31093		-11.230489	-2.799636	-45.079618
31094		-11.234258	-2.835118	-44.084092
31095		-11.239682	-2.860738	-43.087132
31096		-11.227170	-2.887741	-42.094626
31097		-11.203679	-2.925591	-41.112873
31098		-11.174646	-2.975625	-40.142666
31099		-11.158132	-3.039789	-39.175572
31100		-11.151718	-3.112853	-38.205956
31101		-11.154459	-3.184363	-37.228947
31102		-11.159652	-3.248042	-36.241873
31103		-11.176227	-3.306000	-35.252897
31104		-11.187484	-3.352956	-34.270088
31105		-11.208282	-3.396828	-33.301210
31106		-11.224359	-3.437068	-32.350547
31107		-11.235049	-3.470758	-31.410019
31108		-11.239092	-3.508194	-30.476585
31109		-11.246633	-3.548918	-29.542746
31110		-11.258474	-3.599643	-28.604418
31111		-11.289172	-3.652068	-27.660576
31112		-11.332255	-3.700793	-26.718105
31113		-11.379623	-3.741264	-25.781758
31114		-11.442574	-3.779054	-24.858376
31115		-11.523047	-3.808811	-23.954644
31116		-11.606673	-3.831758	-23.062429
31117		-11.680242	-3.851970	-22.172235
31118		-11.754503	-3.876526	-21.282767
31119		-11.825734	-3.907206	-20.397754
31120		-11.895412	-3.943868	-19.519373
31121		-11.961480	-3.977563	-18.651145
31122		-12.024919	-4.000314	-17.792961
31123		-12.086485	-4.021142	-16.943286
31124		-12.143398	-4.041239	-16.098272
31125		-12.191594	-4.066573	-15.260679
31126		-12.237748	-4.099355	-14.431072
31127		-12.286787	-4.135251	-13.606326
31128		-12.347143	-4.168083	-12.786587
31129		-12.428324	-4.199418	-11.973169
31130		-12.537648	-4.233848	-11.176558
31131		-12.666268	-4.266665	-10.397656
31132		-12.800492	-4.290790	-9.632301
31133		-12.932789	-4.307491	-8.873374
31134		-13.055396	-4.328021	-8.117594
31135		-13.154429	-4.353005	-7.372136
31136		-13.233637	-4.387037	-6.640130
31137		-13.294761	-4.430733	-5.923900
31138		-13.354752	-4.477426	-5.223004
31139		-13.437455	-4.512582	-4.531427
31140		-13.513161	-4.526321	-3.847942
31141		-13.574341	-4.532315	-3.182780
31142		-13.641027	-4.547693	-2.535760
31143		-13.715441	-4.566313	-1.909816
31144		-13.784612	-4.569782	-1.300552
31145		-13.848673	-4.565310	-0.707830
31146		-13.905566	-4.560162	-0.128360
31147		-13.955673	-4.565679	0.439945
31148		-13.986433	-4.577492	0.999165
31149		-14.001210	-4.592745	1.551867
31150		-14.004604	-4.608483	2.094303
31151		-14.005883	-4.625761	2.620360
31152		-14.005101	-4.643044	3.125659
31153		-14.009594	-4.663253	3.616329
31154		-14.009921	-4.700859	4.091289
31155		-14.012841	-4.760386	4.551848
31156		-14.005820	-4.827249	4.992274
31157		-14.004776	-4.886994	5.408994
31158		-14.013793	-4.939991	5.805307
31159		-14.032554	-4.989409	6.182700
31160		-14.060598	-5.030619	6.544434
31161		-14.100400	-5.066072	6.890116
31162		-14.139059	-5.090441	7.212091
31163		-14.175400	-5.112918	7.512897
31164		-14.213059	-5.143995	7.793636
31165		-14.250256	-5.177771	8.056753
31166		-14.277692	-5.222163	8.301722
31167		-14.285440	-5.283267	8.533684
31168		-14.274207	-5.351842	8.747947
31169		-14.250830	-5.419116	8.943677
31170		-14.209457	-5.480066	9.122705
31171		-14.161298	-5.532625	9.289528
31172		-14.101591	-5.581838	9.442631
31173		-14.034175	-5.641075	9.583118
31174		-13.963233	-5.701832	9.711693
31175		-13.900829	-5.763650	9.830876
31176		-13.853903	-5.822469	9.941846
31177		-13.824066	-5.873421	10.041131
31178		-13.819645	-5.917630	10.129072
31179		-13.828709	-5.950581	10.201208
31180		-13.835209	-5.977390	10.265264
31181		-13.831108	-6.013710	10.325449
31182		-13.819761	-6.055837	10.381973
31183		-13.804336	-6.096154	10.435923
31184		-13.784093	-6.132966	10.483646
31185		-13.766942	-6.167137	10.525467
31186		-13.747244	-6.199260	10.563156
31187		-13.719743	-6.225027	10.598994
31188		-13.694560	-6.240354	10.627424
31189		-13.667520	-6.246465	10.644587
31190		-13.649663	-6.252428	10.654450
31191		-13.641284	-6.263665	10.655697
31192		-13.639206	-6.278861	10.651869
31193		-13.642724	-6.289326	10.645139
31194		-13.648619	-6.289688	10.639126
31195		-13.658271	-6.286461	10.634975
31196		-13.677344	-6.284765	10.626752
31197		-13.702003	-6.289526	10.611754
31198		-13.731093	-6.290321	10.585673
31199		-13.764091	-6.286608	10.550526
31200		-13.798866	-6.272645	10.509978
31201		-13.835204	-6.250179	10.464791
31202		-13.860390	-6.222946	10.413515
31203		-13.873077	-6.195486	10.350332
31204		-13.878837	-6.181120	10.280532
31205		-13.888343	-6.174805	10.200219
31206		-13.912248	-6.176306	10.113125
31207		-13.936100	-6.174320	10.014765
31208		-13.959624	-6.165557	9.903178
31209		-13.977008	-6.145419	9.775755
31210		-13.987261	-6.114509	9.631659
31211		-13.994976	-6.086468	9.477330
31212		-14.004102	-6.065315	9.316939
31213		-13.999290	-6.046245	9.153937
31214		-13.985317	-6.019458	8.988331
31215		-13.958105	-5.999064	8.813617
31216		-13.916891	-5.987177	8.622879
31217		-13.874279	-5.981600	8.417913
31218		-13.839585	-5.980969	8.205221
31219		-13.822418	-5.978910	7.980893
31220		-13.828082	-5.973523	7.750069
31221		-13.836192	-5.951833	7.511741
31222		-13.849373	-5.923958	7.265839
31223		-13.862430	-5.896724	7.006764
31224		-13.870263	-5.873785	6.730247
31225		-13.881679	-5.859865	6.440978
31226		-13.915308	-5.851086	6.141078
31227		-13.957876	-5.841412	5.836534
31228		-13.990958	-5.821142	5.525998
31229		-14.008338	-5.795295	5.207880
31230		-14.009525	-5.774323	4.877979
31231		-13.995231	-5.755144	4.523167
31232		-13.977713	-5.740155	4.144784
31233		-13.970271	-5.736709	3.752031
31234		-13.982064	-5.741491	3.359802
31235		-13.994015	-5.749255	2.971772
31236		-13.989560	-5.748108	2.588317
31237		-13.965274	-5.743126	2.201552
31238		-13.917552	-5.731307	1.795089
31239		-13.858543	-5.719050	1.364532
31240		-13.798843	-5.707848	0.908777
31241		-13.737178	-5.699023	0.434101
31242		-13.690995	-5.686679	-0.042631
31243		-13.663592	-5.660815	-0.514330
31244		-13.647565	-5.621303	-0.981249
31245		-13.642204	-5.580608	-1.455308
31246		-13.664081	-5.548219	-1.945935
31247		-13.707260	-5.530672	-2.448456
31248		-13.771726	-5.517013	-2.956524
31249		-13.854598	-5.499436	-3.466994
31250		-13.945851	-5.479285	-3.983005
31251		-14.027017	-5.456709	-4.511303
31252		-14.104048	-5.425746	-5.059738
31253		-14.161655	-5.396153	-5.626434
31254		-14.201492	-5.366772	-6.207664
31255		-14.215277	-5.337094	-6.796348
31256		-14.194771	-5.303848	-7.390719
31257		-14.141342	-5.274329	-7.986975
31258		-14.074098	-5.253769	-8.583287
31259		-13.996361	-5.237240	-9.182203
31260		-13.924760	-5.219832	-9.782060
31261		-13.854503	-5.204184	-10.391530
31262		-13.794891	-5.184050	-11.013094
31263		-13.746009	-5.162708	-11.643384
31264		-13.706425	-5.137812	-12.279890
31265		-13.673864	-5.109159	-12.915868
31266		-13.635319	-5.069050	-13.551032
31267		-13.583483	-5.023831	-14.191117
31268		-13.525179	-4.977377	-14.837032
31269		-13.462382	-4.928574	-15.486434
31270		-13.412167	-4.883418	-16.130136
31271		-13.367429	-4.835227	-16.767560
31272		-13.317938	-4.782323	-17.400118
31273		-13.258569	-4.728769	-18.030234
31274		-13.181454	-4.675574	-18.664760
31275		-13.083612	-4.632532	-19.307543
31276		-12.975228	-4.598194	-19.954468
31277		-12.852185	-4.567567	-20.602184
31278		-12.730421	-4.537562	-21.244399
31279		-12.600853	-4.499271	-21.881507
31280		-12.476024	-4.447068	-22.515781
31281		-12.365729	-4.389105	-23.146231
31282		-12.282402	-4.326395	-23.769540
31283		-12.200766	-4.266803	-24.384451
31284		-12.118717	-4.212534	-24.986376
31285		-12.024619	-4.175346	-25.577572
31286		-11.930280	-4.152084	-26.159841
31287		-11.826393	-4.128621	-26.742630
31288		-11.727721	-4.098172	-27.332509
31289		-11.628462	-4.063145	-27.934947
31290		-11.521904	-4.023841	-28.543923
31291		-11.423177	-3.991812	-29.150532
31292		-11.331378	-3.963989	-29.752302
31293		-11.234191	-3.944377	-30.352293
31294		-11.146378	-3.927031	-30.953197
31295		-11.070414	-3.911769	-31.562408
31296		-11.016780	-3.895857	-32.187680
31297		-10.990021	-3.881331	-32.831373
31298		-10.986968	-3.869478	-33.490573
31299		-10.992237	-3.865213	-34.157123
31300		-11.010335	-3.866908	-34.821696
31301		-11.025302	-3.864472	-35.481896
31302		-11.034434	-3.855289	-36.138874
31303		-11.033951	-3.844284	-36.799852
31304		-11.032528	-3.831272	-37.475232
31305		-11.023930	-3.823361	-38.162589
31306		-11.008823	-3.823897	-38.857017
31307		-10.994194	-3.829050	-39.557243
31308		-10.974126	-3.829591	-40.256993
31309		-10.940690	-3.828344	-40.956798
31310		-10.902138	-3.829322	-41.658216
31311		-10.853010	-3.835684	-42.363731
31312		-10.797724	-3.845276	-43.073873
31313		-10.734602	-3.853216	-43.790057
31314		-10.665165	-3.858570	-44.509799
31315		-10.585914	-3.862602	-45.237419
31316		-10.497687	-3.872725	-45.962997
31317		-10.397393	-3.897435	-46.676447
31318		-10.301849	-3.933336	-47.367883
31319		-10.204398	-3.973643	-48.036254
31320		-10.102187	-4.004338	-48.687478
31321		-9.999159	-4.022836	-49.333672
31322		-9.897745	-4.033637	-49.985603
31323		-9.803950	-4.046216	-50.648618
31324		-9.714640	-4.065776	-51.319286
31325		-9.629238	-4.079858	-51.984840
31326		-9.557478	-4.094098	-52.636194
31327		-9.491596	-4.100233	-53.271768
31328		-9.434734	-4.103893	-53.892190
31329		-9.405673	-4.110751	-54.496401
31330		-9.405218	-4.124641	-55.089536
31331		-9.424682	-4.145462	-55.679421
31332		-9.452761	-4.161548	-56.266949
31333		-9.487324	-4.167499	-56.853426
31334		-9.525482	-4.160375	-57.440045
31335		-9.564896	-4.144034	-58.028522
31336		-9.598641	-4.121308	-58.617037
31337		-9.616510	-4.096224	-59.201930
31338		-9.620917	-4.067224	-59.775410
31339		-9.608139	-4.035888	-60.341541
31340		-9.573876	-4.006614	-60.898824
31341		-9.505060	-3.972208	-61.450742
31342		-9.401578	-3.941011	-62.002659
31343		-9.256138	-3.914361	-62.554324
31344		-9.067769	-3.895417	-63.106194
31345		-8.835323	-3.883044	-63.654979
31346		-8.584280	-3.874760	-64.194802
31347		-8.306170	-3.872842	-64.727298
31348		-8.004809	-3.882607	-65.255034
31349		-7.694889	-3.914275	-65.776928
31350		-7.391770	-3.953741	-66.295404
31351		-7.104240	-3.993046	-66.817112
31352		-6.848517	-4.027599	-67.335204
31353		-6.635149	-4.062042	-67.846566
31354		-6.474401	-4.095249	-68.350131
31355		-6.367449	-4.132423	-68.844797
31356		-6.319913	-4.178544	-69.327951
31357		-6.326410	-4.232701	-69.803551
31358		-6.388044	-4.283815	-70.274917
31359		-6.500906	-4.337754	-70.743317
31360		-6.662928	-4.388901	-71.206525
31361		-6.850957	-4.423294	-71.659928
31362		-7.048956	-4.431247	-72.103837
31363		-7.231245	-4.420434	-72.538567
31364		-7.387821	-4.396475	-72.964274
31365		-7.505721	-4.373728	-73.377722
31366		-7.597356	-4.352890	-73.778373
31367		-7.662967	-4.338098	-74.167846
31368		-7.708542	-4.325766	-74.549682
31369		-7.736957	-4.319017	-74.923903
31370		-7.754493	-4.311419	-75.287548
31371		-7.759928	-4.302555	-75.635230
31372		-7.756002	-4.296969	-75.966292
31373		-7.742842	-4.284701	-76.288493
31374		-7.726487	-4.259978	-76.595810
31375		-7.710555	-4.228020	-76.891548
31376		-7.697863	-4.190757	-77.172090
31377		-7.687141	-4.148569	-77.438378
31378		-7.677520	-4.108408	-77.691214
31379		-7.672423	-4.078053	-77.933326
31380		-7.678009	-4.042744	-78.166705
31381		-7.685197	-3.998808	-78.383483
31382		-7.695550	-3.941050	-78.593385
31383		-7.710230	-3.871690	-78.791990
31384		-7.710329	-3.793067	-78.973337
31385		-7.687354	-3.703031	-79.138669
31386		-7.640316	-3.609385	-79.287938
31387		-7.569246	-3.526162	-79.423431
31388		-7.483204	-3.454702	-79.547766
31389		-7.385975	-3.394944	-79.662415
31390		-7.295139	-3.346523	-79.763293
31391		-7.225761	-3.299162	-79.851729
31392		-7.187790	-3.246438	-79.928566
31393		-7.180357	-3.183155	-79.995105
31394		-7.182454	-3.110325	-80.052202
31395		-7.186344	-3.039860	-80.101699
31396		-7.189591	-2.968916	-80.137105
31397		-7.203715	-2.890666	-80.163664
31398		-7.214779	-2.811305	-80.178984
31399		-7.218172	-2.737632	-80.181804
31400		-7.216032	-2.662158	-80.170265
31401		-7.197825	-2.581237	-80.142432
31402		-7.158945	-2.498030	-80.098487
31403		-7.099861	-2.416345	-80.046520
31404		-7.007428	-2.327084	-79.992859
31405		-6.886419	-2.235584	-79.944991
31406		-6.756799	-2.153684	-79.899113
31407		-6.632046	-2.084344	-79.847336
31408		-6.518122	-2.023391	-79.781072
31409		-6.414668	-1.969505	-79.699784
31410		-6.335688	-1.921319	-79.607841
31411		-6.282964	-1.880838	-79.504926
31412		-6.257075	-1.842501	-79.395418
31413		-6.249428	-1.804314	-79.279287
31414		-6.260679	-1.759348	-79.148016
31415		-6.282291	-1.714028	-79.003417
31416		-6.296678	-1.671926	-78.842047
31417		-6.300042	-1.642813	-78.668433
31418		-6.297672	-1.629014	-78.485168
31419		-6.305134	-1.627270	-78.296848
31420		-6.333259	-1.632218	-78.100372
31421		-6.396904	-1.634789	-77.897071
31422		-6.492731	-1.625585	-77.679431
31423		-6.612027	-1.600968	-77.449169
31424		-6.741282	-1.574622	-77.202754
31425		-6.866747	-1.558542	-76.940574
31426		-6.977046	-1.553408	-76.665119
31427		-7.070706	-1.553018	-76.375009
31428		-7.151820	-1.557263	-76.069052
31429		-7.220204	-1.572258	-75.746185
31430		-7.268902	-1.588832	-75.410348
31431		-7.303592	-1.601420	-75.055884
31432		-7.325087	-1.609383	-74.680039
31433		-7.333734	-1.616078	-74.284602
31434		-7.327322	-1.629687	-73.870959
31435		-7.317636	-1.647370	-73.441439
31436		-7.315328	-1.664628	-72.994605
31437		-7.319702	-1.687469	-72.532138
31438		-7.331085	-1.702277	-72.060625
31439		-7.346629	-1.709624	-71.575599
31440		-7.374744	-1.716759	-71.073374
31441		-7.421389	-1.723604	-70.547701
31442		-7.495999	-1.728150	-69.999314
31443		-7.600077	-1.726433	-69.428070
31444		-7.729792	-1.723815	-68.836523
31445		-7.874483	-1.718151	-68.227038
31446		-8.010401	-1.720407	-67.606531
31447		-8.128712	-1.724746	-66.979703
31448		-8.232071	-1.732557	-66.348612
31449		-8.324570	-1.743552	-65.709666
31450		-8.413648	-1.752812	-65.059963
31451		-8.490701	-1.748379	-64.394661
31452		-8.553113	-1.741819	-63.721200
31453		-8.606128	-1.741896	-63.038180
31454		-8.637230	-1.753486	-62.351391
31455		-8.645626	-1.776397	-61.663148
31456		-8.640685	-1.813957	-60.972744
31457		-8.634138	-1.858117	-60.277044
31458		-8.623150	-1.894831	-59.570197
31459		-8.625705	-1.924285	-58.841856
31460		-8.617754	-1.953335	-58.094952
31461		-8.598527	-1.983138	-57.330928
31462		-8.558857	-2.018144	-56.559359
31463		-8.510290	-2.066181	-55.789065
31464		-8.462337	-2.124589	-55.022598
31465		-8.425504	-2.186089	-54.255586
31466		-8.391834	-2.243765	-53.484269
31467		-8.359117	-2.297193	-52.704912
31468		-8.317315	-2.346415	-51.908463
31469		-8.275340	-2.392521	-51.093232
31470		-8.228748	-2.441106	-50.265290
31471		-8.175634	-2.497250	-49.433499
31472		-8.114024	-2.561245	-48.603377
31473		-8.057614	-2.629996	-47.781336
31474		-8.004317	-2.703715	-46.968615
31475		-7.959428	-2.779875	-46.159896
31476		-7.920612	-2.851236	-45.350982
31477		-7.893504	-2.929846	-44.531663
31478		-7.880865	-3.011742	-43.701374
31479		-7.908421	-3.075600	-42.858816
31480		-7.954020	-3.113120	-42.006958
31481		-8.007996	-3.150053	-41.150461
31482		-8.065345	-3.203175	-40.297319
31483		-8.121317	-3.272937	-39.447255
31484		-8.171111	-3.362389	-38.596618
31485		-8.206399	-3.456565	-37.741243
31486		-8.234187	-3.544072	-36.882652
31487		-8.255238	-3.626244	-36.023273
31488		-8.269308	-3.704006	-35.157615
31489		-8.285201	-3.777548	-34.286501
31490		-8.289167	-3.851683	-33.410445
31491		-8.286113	-3.921310	-32.531545
31492		-8.269227	-3.993284	-31.653768
31493		-8.257650	-4.067917	-30.781072
31494		-8.241624	-4.145701	-29.915021
31495		-8.226622	-4.222252	-29.058090
31496		-8.209183	-4.303687	-28.208530
31497		-8.200154	-4.385452	-27.361108
31498		-8.199057	-4.464444	-26.510476
31499		-8.209864	-4.539065	-25.666081
31500		-8.232947	-4.611966	-24.833244
31501		-8.281095	-4.672893	-24.015639
31502		-8.336215	-4.733277	-23.212932
31503		-8.389340	-4.796194	-22.419684
31504		-8.432156	-4.863724	-21.637185
31505		-8.478288	-4.933587	-20.866570
31506		-8.529832	-5.008500	-20.106037
31507		-8.600661	-5.086111	-19.347672
31508		-8.682251	-5.155909	-18.597737
31509		-8.766085	-5.219243	-17.861655
31510		-8.841168	-5.285910	-17.136320
31511		-8.905466	-5.363403	-16.419069
31512		-8.953984	-5.452659	-15.706286
31513		-8.990025	-5.545927	-14.990092
31514		-9.004106	-5.645217	-14.270686
31515		-9.001495	-5.777730	-13.546465
31516		-8.984109	-5.936324	-12.818102
31517		-8.976464	-6.110878	-12.091200
31518		-8.990086	-6.284065	-11.368839
31519		-9.037225	-6.442568	-10.652127
31520		-9.113279	-6.578335	-9.947094
31521		-9.214689	-6.700007	-9.259843
31522		-9.323135	-6.823279	-8.591957
31523		-9.426017	-6.948064	-7.943087
31524		-9.521359	-7.085942	-7.303910
31525		-9.633032	-7.222738	-6.676972
31526		-9.752810	-7.358430	-6.062790
31527		-9.872178	-7.488563	-5.458227
31528		-10.000382	-7.614752	-4.863852
31529		-10.136157	-7.730850	-4.284802
31530		-10.261327	-7.828167	-3.723787
31531		-10.374704	-7.920114	-3.182699
31532		-10.471286	-8.020954	-2.659930
31533		-10.578840	-8.137358	-2.151740
31534		-10.696441	-8.268124	-1.647864
31535		-10.826412	-8.394861	-1.144347
31536		-10.969360	-8.506516	-0.647177
31537		-11.126368	-8.595549	-0.165843
31538		-11.271956	-8.663748	0.291030
31539		-11.414374	-8.726462	0.725750
31540		-11.579856	-8.789705	1.142707
31541		-11.762730	-8.860415	1.555436
31542		-11.940756	-8.919102	1.963089
31543		-12.116922	-8.981216	2.368254
31544		-12.276409	-9.045675	2.763922
31545		-12.424570	-9.103082	3.139558
31546		-12.558152	-9.149651	3.491247
31547		-12.685947	-9.185649	3.823553
31548		-12.808694	-9.221662	4.132934
31549		-12.915793	-9.253198	4.422025
31550		-13.016512	-9.266566	4.697974
31551		-13.104594	-9.268644	4.969454
31552		-13.175960	-9.270754	5.233910
31553		-13.239058	-9.293974	5.492015
31554		-13.297214	-9.339124	5.738353
31555		-13.349722	-9.383965	5.966022
31556		-13.403833	-9.409954	6.169265
31557		-13.456911	-9.417312	6.351884
31558		-13.504686	-9.416981	6.517807
31559		-13.545703	-9.413861	6.674510
31560		-13.586313	-9.410337	6.820763
31561		-13.618613	-9.408975	6.960432
31562		-13.654413	-9.403569	7.090347
31563		-13.691642	-9.399498	7.207484
31564		-13.731360	-9.390306	7.312380
31565		-13.778705	-9.383842	7.404477
31566		-13.830141	-9.373145	7.484822
31567		-13.879954	-9.347498	7.550663
31568		-13.921276	-9.307060	7.608800
31569		-13.947608	-9.270451	7.661842
31570		-13.962127	-9.243954	7.716048
31571		-13.965892	-9.226848	7.766227
31572		-13.957182	-9.216846	7.809911
31573		-13.947692	-9.208078	7.843035
31574		-13.945327	-9.195110	7.862178
31575		-13.941744	-9.176318	7.872392
31576		-13.946420	-9.156836	7.881168
31577		-13.954901	-9.146908	7.891298
31578		-13.959398	-9.138884	7.904407
31579		-13.961944	-9.128308	7.923424
31580		-13.962920	-9.109553	7.939206
31581		-13.962693	-9.076786	7.942088
31582		-13.971981	-9.035266	7.931170
31583		-13.993460	-8.991758	7.904490
31584		-14.024348	-8.953265	7.874364
31585		-14.048381	-8.925895	7.852547
31586		-14.058034	-8.901402	7.837886
31587		-14.053227	-8.884105	7.829884
31588		-14.041098	-8.871970	7.818196
31589		-14.024512	-8.858494	7.798555
31590		-14.004821	-8.839785	7.771146
31591		-13.984842	-8.824627	7.741251
31592		-13.970505	-8.814995	7.710896
31593		-13.955243	-8.806441	7.682462
31594		-13.929401	-8.793775	7.652237
31595		-13.896456	-8.779682	7.625593
31596		-13.874364	-8.770764	7.600419
31597		-13.851312	-8.771618	7.572650
31598		-13.839362	-8.768276	7.544026
31599		-13.847848	-8.761414	7.513440
31600		-13.868110	-8.749019	7.481646
31601		-13.902883	-8.732272	7.452763
31602		-13.945359	-8.715181	7.428402
31603		-13.985855	-8.699118	7.397843
31604		-14.007174	-8.675951	7.363381
31605		-14.029407	-8.651188	7.322925
31606		-14.046846	-8.618779	7.275030
31607		-14.059109	-8.582778	7.218376
31608		-14.068798	-8.546691	7.154366
31609		-14.076581	-8.507566	7.084216
31610		-14.085718	-8.468757	7.007354
31611		-14.094657	-8.431376	6.926028
31612		-14.112468	-8.395275	6.834018
31613		-14.131258	-8.359292	6.729980
31614		-14.164532	-8.320934	6.612801
31615		-14.212604	-8.276737	6.478835
31616		-14.270607	-8.223058	6.325496
31617		-14.334849	-8.160072	6.148493
31618		-14.407690	-8.095657	5.951208
31619		-14.485666	-8.035065	5.738941
31620		-14.569029	-7.976809	5.521052
31621		-14.625297	-7.933753	5.295163
31622		-14.657344	-7.902303	5.055189
31623		-14.654666	-7.877173	4.791711
31624		-14.623469	-7.852176	4.502871
31625		-14.580906	-7.832692	4.197884
31626		-14.545353	-7.812295	3.884755
31627		-14.511652	-7.786840	3.556307
31628		-14.485871	-7.762475	3.210608
31629		-14.470107	-7.736397	2.849650
31630		-14.473967	-7.711177	2.464135
31631		-14.487695	-7.691841	2.054574
31632		-14.520926	-7.676543	1.620115
31633		-14.563441	-7.657392	1.166908
31634		-14.614844	-7.634998	0.704278
31635		-14.669185	-7.612914	0.237274
31636		-14.722979	-7.587182	-0.228488
31637		-14.766299	-7.558745	-0.697767
31638		-14.792266	-7.524471	-1.182550
31639		-14.799133	-7.479905	-1.683883
31640		-14.802774	-7.428759	-2.204663
31641		-14.796228	-7.382850	-2.750289
31642		-14.788056	-7.341782	-3.315298
31643		-14.793896	-7.306770	-3.892822
31644		-14.807993	-7.265418	-4.472884
31645		-14.823665	-7.209581	-5.057571
31646		-14.838057	-7.149349	-5.649675
31647		-14.843240	-7.086980	-6.253769
31648		-14.837709	-7.022917	-6.871679
31649		-14.833423	-6.967467	-7.506293
31650		-14.835846	-6.913028	-8.154285
31651		-14.842916	-6.856513	-8.813167
31652		-14.860208	-6.786571	-9.475506
31653		-14.864474	-6.703283	-10.143261
31654		-14.848982	-6.614527	-10.819182
31655		-14.811492	-6.527373	-11.504621
31656		-14.756185	-6.442343	-12.204532
31657		-14.683617	-6.363372	-12.918455
31658		-14.620066	-6.295501	-13.638391
31659		-14.555432	-6.230754	-14.349665
31660		-14.483585	-6.160048	-15.060305
31661		-14.392082	-6.091880	-15.769828
31662		-14.280313	-6.021441	-16.486444
31663		-14.151571	-5.953793	-17.213184
31664		-14.021009	-5.877397	-17.956370
31665		-13.880738	-5.795770	-18.712996
31666		-13.746190	-5.713443	-19.474914
31667		-13.615024	-5.636113	-20.233758
31668		-13.497824	-5.557936	-20.989406
31669		-13.389842	-5.475400	-21.743539
31670		-13.285304	-5.393745	-22.504626
31671		-13.182469	-5.314733	-23.273654
31672		-13.097628	-5.233283	-24.049120
31673		-13.034661	-5.151284	-24.828198
31674		-12.981388	-5.069547	-25.614776
31675		-12.932874	-4.986075	-26.405148
31676		-12.886827	-4.905252	-27.202751
31677		-12.854078	-4.825318	-28.002051
31678		-12.836985	-4.735936	-28.808973
31679		-12.831048	-4.645902	-29.621618
31680		-12.843871	-4.556280	-30.440705
31681		-12.870596	-4.469321	-31.268157
31682		-12.923760	-4.391154	-32.097007
31683		-13.012587	-4.315950	-32.923646
31684		-13.141189	-4.226637	-33.738138
31685		-13.303946	-4.111451	-34.539331
31686		-13.479293	-3.968503	-35.330579
31687		-13.654786	-3.801663	-36.129384
31688		-13.833721	-3.620919	-36.941207
31689		-13.991604	-3.448158	-37.764510
31690		-14.138218	-3.286735	-38.588267
31691		-14.261423	-3.131266	-39.405871
31692		-14.347054	-2.971438	-40.211872
31693		-14.375784	-2.816592	-41.011708
31694		-14.338255	-2.665082	-41.810355
31695		-14.248339	-2.527647	-42.611083
31696		-14.130464	-2.404765	-43.417762
31697		-13.980841	-2.291475	-44.225218
31698		-13.811604	-2.190884	-45.032104
31699		-13.619700	-2.110800	-45.840960
31700		-13.424026	-2.043553	-46.647617
31701		-13.218774	-1.980414	-47.456056
31702		-13.026105	-1.918194	-48.263773
31703		-12.849591	-1.845165	-49.077630
31704		-12.716799	-1.759002	-49.901556
31705		-12.609624	-1.671600	-50.738154
31706		-12.533249	-1.595218	-51.572871
31707		-12.501847	-1.534064	-52.394328
31708		-12.512463	-1.482780	-53.201028
31709		-12.538963	-1.430454	-53.996959
31710		-12.591346	-1.373561	-54.793327
31711		-12.654085	-1.309526	-55.599450
31712		-12.719331	-1.239741	-56.416015
31713		-12.778127	-1.176695	-57.237619
31714		-12.830015	-1.116794	-58.060799
31715		-12.854755	-1.052101	-58.881758
31716		-12.845370	-0.976610	-59.701542
31717		-12.796672	-0.895672	-60.516687
31718		-12.729708	-0.820838	-61.320251
31719		-12.637717	-0.742820	-62.121159
31720		-12.531173	-0.660766	-62.918403
31721		-12.431751	-0.595642	-63.699969
31722		-12.363539	-0.550821	-64.460122
31723		-12.327253	-0.511876	-65.202739
31724		-12.320355	-0.450401	-65.931103
31725		-12.324675	-0.368303	-66.652321
31726		-12.329980	-0.276897	-67.370063
31727		-12.339847	-0.196677	-68.081354
31728		-12.352505	-0.123696	-68.779055
31729		-12.366146	-0.048597	-69.453495
31730		-12.393364	0.029625	-70.098691
31731		-12.429596	0.103804	-70.714784
31732		-12.484922	0.182811	-71.314297
31733		-12.552858	0.277029	-71.900703
31734		-12.626476	0.397160	-72.480230
31735		-12.677186	0.517852	-73.048763
31736		-12.706755	0.638888	-73.602636
31737		-12.703737	0.757228	-74.138693
31738		-12.675002	0.863184	-74.653556
31739		-12.641124	0.954772	-75.143472
31740		-12.602247	1.026652	-75.603116
31741		-12.561612	1.087046	-76.038212
31742		-12.515057	1.147207	-76.450448
31743		-12.457638	1.216841	-76.847387
31744		-12.387114	1.287861	-77.232903
31745		-12.309953	1.349273	-77.607783
31746		-12.243296	1.399653	-77.969800
31747		-12.176666	1.439499	-78.312473
31748		-12.138659	1.471968	-78.629690
31749		-12.136172	1.506278	-78.922270
31750		-12.154631	1.548727	-79.193101
31751		-12.192582	1.592075	-79.443283
31752		-12.259651	1.631810	-79.670699
31753		-12.367312	1.671669	-79.874699
31754		-12.524755	1.720554	-80.064678
31755		-12.706008	1.782517	-80.242371
31756		-12.899461	1.853034	-80.409859
31757		-13.082424	1.925051	-80.570457
31758		-13.252368	1.994408	-80.718240
31759		-13.400595	2.052435	-80.854147
31760		-13.528963	2.091583	-80.979619
31761		-13.645302	2.115854	-81.093107
31762		-13.750523	2.145065	-81.189932
31763		-13.838791	2.189449	-81.266055
31764		-13.892679	2.238346	-81.329270
31765		-13.913401	2.289859	-81.384632
31766		-13.898733	2.331049	-81.430465
31767		-13.878248	2.358021	-81.463110
31768		-13.842509	2.369850	-81.486127
31769		-13.793163	2.382992	-81.495973
31770		-13.745488	2.407310	-81.498223
31771		-13.714000	2.440796	-81.491747
31772		-13.697341	2.476706	-81.479441
31773		-13.700594	2.510516	-81.463345
31774		-13.718452	2.542537	-81.448463
31775		-13.745052	2.574034	-81.430063
31776		-13.779034	2.606995	-81.406246
31777		-13.821357	2.637503	-81.370658
31778		-13.874193	2.667936	-81.320075
31779		-13.922799	2.692529	-81.251579
31780		-13.961617	2.715670	-81.163138
31781		-13.998134	2.739463	-81.062263
31782		-14.029761	2.771024	-80.949252
31783		-14.062518	2.812661	-80.823773
31784		-14.090618	2.858998	-80.685352
31785		-14.092434	2.909278	-80.531711
31786		-14.060696	2.953212	-80.360527
31787		-13.988690	2.999905	-80.166952
31788		-13.893017	3.057477	-79.953098
31789		-13.784846	3.123013	-79.710625
31790		-13.677388	3.197326	-79.437143
31791		-13.546822	3.271693	-79.138776
31792		-13.387510	3.328113	-78.822646
31793		-13.202790	3.365852	-78.489943
31794		-13.013511	3.388648	-78.139381
31795		-12.845323	3.395945	-77.763560
31796		-12.693448	3.407203	-77.358841
31797		-12.561411	3.436234	-76.917427
31798		-12.459954	3.484055	-76.434212
31799		-12.377835	3.534446	-75.915098
31800		-12.294710	3.559427	-75.364232
31801		-12.199869	3.548481	-74.790118
31802		-12.089500	3.511482	-74.200620
31803		-11.983276	3.462618	-73.596433
31804		-11.890502	3.414518	-72.979149
31805		-11.813213	3.372923	-72.342587
31806		-11.741221	3.339086	-71.683460
31807		-11.671852	3.318714	-70.993376
31808		-11.593945	3.294350	-70.277277
31809		-11.504438	3.251741	-69.542547
31810		-11.400426	3.186928	-68.795887
31811		-11.284153	3.100984	-68.037242
31812		-11.157614	3.009624	-67.267864
31813		-11.029431	2.920835	-66.477652
31814		-10.893507	2.836957	-65.659215
31815		-10.749406	2.762619	-64.810989
31816		-10.595782	2.691190	-63.929485
31817		-10.432183	2.622214	-63.024943
31818		-10.243195	2.551147	-62.107561
31819		-10.018700	2.464867	-61.188952
31820		-9.781785	2.363331	-60.271068
31821		-9.555984	2.251641	-59.350426
31822		-9.347306	2.129085	-58.424486
31823		-9.157769	1.997956	-57.482962
31824		-8.991208	1.865312	-56.523399
31825		-8.863919	1.745941	-55.548702
31826		-8.766531	1.651927	-54.563067
31827		-8.680228	1.586405	-53.578023
31828		-8.588719	1.524464	-52.599802
31829		-8.496606	1.446234	-51.625710
31830		-8.400454	1.348866	-50.653590
31831		-8.317313	1.243324	-49.680613
31832		-8.251216	1.140667	-48.708215
31833		-8.206867	1.044218	-47.739155
31834		-8.179821	0.951179	-46.768432
31835		-8.176970	0.856025	-45.798583
31836		-8.190349	0.762241	-44.826575
31837		-8.233370	0.672254	-43.851704
31838		-8.297597	0.591950	-42.885264
31839		-8.364655	0.515100	-41.932207
31840		-8.417131	0.424838	-40.997046
31841		-8.474428	0.317040	-40.075709
31842		-8.534579	0.195296	-39.156880
31843		-8.603622	0.070376	-38.241721
31844		-8.674902	-0.054676	-37.327088
31845		-8.746604	-0.175539	-36.411441
31846		-8.817980	-0.286678	-35.499841
31847		-8.883521	-0.388437	-34.597873
31848		-8.923375	-0.482358	-33.707922
31849		-8.954346	-0.578602	-32.834184
31850		-8.970190	-0.686332	-31.973239
31851		-8.989298	-0.803416	-31.125237
31852		-9.011665	-0.917689	-30.282112
31853		-9.045281	-1.031867	-29.439642
31854		-9.094134	-1.162970	-28.592601
31855		-9.164105	-1.289580	-27.747301
31856		-9.247153	-1.391750	-26.907075
31857		-9.336845	-1.466942	-26.077649
31858		-9.410446	-1.527548	-25.263494
31859		-9.466810	-1.589594	-24.461284
31860		-9.502380	-1.661915	-23.667251
31861		-9.537129	-1.741765	-22.877510
31862		-9.582091	-1.830517	-22.085787
31863		-9.635963	-1.914457	-21.293881
31864		-9.691654	-1.991611	-20.501311
31865		-9.756081	-2.057112	-19.714729
31866		-9.824060	-2.106490	-18.943324
31867		-9.892680	-2.151380	-18.191284
31868		-9.952566	-2.204538	-17.450423
31869		-10.018449	-2.269041	-16.722695
31870		-10.072046	-2.334380	-16.008770
31871		-10.113222	-2.400822	-15.301929
31872		-10.143324	-2.466608	-14.601704
31873		-10.181104	-2.528042	-13.907297
31874		-10.218336	-2.579003	-13.223946
31875		-10.240064	-2.616892	-12.554301
31876		-10.260260	-2.661031	-11.895068
31877		-10.286360	-2.716648	-11.247582
31878		-10.298871	-2.787679	-10.611437
31879		-10.313224	-2.861871	-9.988139
31880		-10.322503	-2.931721	-9.380139
31881		-10.335589	-2.996626	-8.788460
31882		-10.365147	-3.072557	-8.210361
31883		-10.402558	-3.170235	-7.639694
31884		-10.444393	-3.283342	-7.063585
31885		-10.497408	-3.399569	-6.484354
31886		-10.561111	-3.507922	-5.906997
31887		-10.642534	-3.615588	-5.343894
31888		-10.739301	-3.733781	-4.796449
31889		-10.858665	-3.873642	-4.262945
31890		-11.003087	-4.030952	-3.733227
31891		-11.177772	-4.187995	-3.203404
31892		-11.367832	-4.326885	-2.673377
31893		-11.571045	-4.450598	-2.149566
31894		-11.770055	-4.558548	-1.638373
31895		-11.954561	-4.664572	-1.140499
31896		-12.121975	-4.776811	-0.652466
31897		-12.280641	-4.904085	-0.171899
31898		-12.426804	-5.048678	0.306943
31899		-12.585045	-5.200741	0.777564
31900		-12.751558	-5.346162	1.242189
31901		-12.904622	-5.464807	1.692035
31902		-13.030869	-5.576808	2.127572
31903		-13.118974	-5.698615	2.552457
31904		-13.175828	-5.838363	2.975712
31905		-13.212224	-5.985784	3.401892
31906		-13.238923	-6.128186	3.822298
31907		-13.251883	-6.258477	4.227373
31908		-13.269952	-6.385655	4.609478
31909		-13.297575	-6.522898	4.972195
31910		-13.341908	-6.662380	5.317465
31911		-13.399890	-6.789410	5.653880
31912		-13.470829	-6.916178	5.989585
31913		-13.535071	-7.038064	6.327943
31914		-13.605113	-7.137751	6.663177
31915		-13.680927	-7.216700	6.988056
31916		-13.754946	-7.289172	7.294774
31917		-13.826223	-7.360232	7.578428
31918		-13.905133	-7.425339	7.835808
31919		-13.988931	-7.481462	8.072434
31920		-14.076661	-7.518332	8.291858
31921		-14.162627	-7.543708	8.492124
31922		-14.250861	-7.565784	8.672112
31923		-14.355690	-7.592451	8.837682
31924		-14.465043	-7.616364	8.990710
31925		-14.569392	-7.631339	9.129521
31926		-14.660135	-7.631952	9.249640
31927		-14.726410	-7.626809	9.348079
31928		-14.759356	-7.623977	9.422814
31929		-14.770216	-7.625028	9.475953
31930		-14.764073	-7.630222	9.514622
31931		-14.751365	-7.643451	9.548941
31932		-14.720434	-7.669621	9.584858
31933		-14.678220	-7.706365	9.622630
31934		-14.623610	-7.738615	9.648934
31935		-14.563111	-7.756692	9.657567
31936		-14.509170	-7.765153	9.646788
31937		-14.455836	-7.772000	9.620686
31938		-14.410827	-7.774039	9.588976
31939		-14.383119	-7.777699	9.563703
31940		-14.377289	-7.782490	9.541119
31941		-14.377245	-7.776142	9.517991
31942		-14.382259	-7.764712	9.494744
31943		-14.392950	-7.748018	9.464891
31944		-14.393905	-7.726666	9.428574
31945		-14.387089	-7.706806	9.386221
31946		-14.379551	-7.694089	9.345074
31947		-14.371274	-7.690760	9.306668
31948		-14.363788	-7.692552	9.268329
31949		-14.370236	-7.702343	9.231402
31950		-14.392410	-7.715557	9.198468
31951		-14.425214	-7.728865	9.171247
31952		-14.464245	-7.739644	9.145577
31953		-14.501690	-7.745053	9.116996
31954		-14.544215	-7.748049	9.085879
31955		-14.591475	-7.752004	9.055369
31956		-14.640350	-7.751570	9.024572
31957		-14.683292	-7.745667	8.992257
31958		-14.717703	-7.746092	8.959978
31959		-14.742089	-7.753722	8.929214
31960		-14.765635	-7.763422	8.896036
31961		-14.787828	-7.774194	8.858749
31962		-14.817529	-7.777855	8.815009
31963		-14.858045	-7.773707	8.763709
31964		-14.898778	-7.760170	8.707616
31965		-14.952723	-7.741174	8.645675
31966		-15.008781	-7.716169	8.582235
31967		-15.059622	-7.686334	8.518898
31968		-15.118286	-7.654058	8.453944
31969		-15.168043	-7.624769	8.381300
31970		-15.208603	-7.597612	8.305856
31971		-15.245158	-7.566085	8.230165
31972		-15.279995	-7.533267	8.160049
31973		-15.303214	-7.495951	8.084109
31974		-15.300848	-7.450995	7.998164
31975		-15.280436	-7.403043	7.898917
31976		-15.249676	-7.354327	7.781239
31977		-15.218439	-7.303846	7.647502
31978		-15.197540	-7.243078	7.499870
31979		-15.193828	-7.178921	7.340992
31980		-15.189784	-7.117537	7.182654
31981		-15.178090	-7.057208	7.027601
31982		-15.153479	-6.994076	6.866527
31983		-15.127397	-6.934100	6.685020
31984		-15.108755	-6.878539	6.476387
31985		-15.105889	-6.835819	6.244445
31986		-15.121343	-6.797625	5.993828
31987		-15.168657	-6.758413	5.730149
31988		-15.238296	-6.717658	5.463948
31989		-15.303793	-6.671033	5.192417
31990		-15.352535	-6.622604	4.909642
31991		-15.387650	-6.581016	4.609647
31992		-15.409854	-6.537727	4.293042
31993		-15.421477	-6.487501	3.958982
31994		-15.432681	-6.432047	3.606472
31995		-15.447036	-6.377435	3.235905
31996		-15.451552	-6.321807	2.857359
31997		-15.453705	-6.261800	2.471713
31998		-15.455756	-6.207763	2.082025
31999		-15.452552	-6.154204	1.683990
32000		-15.445045	-6.099999	1.273464
32001		-15.434075	-6.049299	0.847927
32002		-15.424891	-5.992511	0.401422
32003		-15.411358	-5.931691	-0.065185
32004		-15.413279	-5.870831	-0.546310
32005		-15.423291	-5.805803	-1.034825
32006		-15.443873	-5.730854	-1.532446
32007		-15.453917	-5.654621	-2.039253
32008		-15.457947	-5.582749	-2.562754
32009		-15.455488	-5.518983	-3.102465
32010		-15.457541	-5.457101	-3.658916
32011		-15.460466	-5.395285	-4.233649
32012		-15.460686	-5.328875	-4.825697
32013		-15.456643	-5.260199	-5.430587
32014		-15.455332	-5.184128	-6.041555
32015		-15.441559	-5.108586	-6.653808
32016		-15.428730	-5.030912	-7.265995
32017		-15.397625	-4.953038	-7.887016
32018		-15.352603	-4.876747	-8.525593
32019		-15.308189	-4.811628	-9.187175
32020		-15.270626	-4.750923	-9.868871
32021		-15.235441	-4.690816	-10.563374
32022		-15.204824	-4.624534	-11.264728
32023		-15.169578	-4.548010	-11.974161
32024		-15.114508	-4.465245	-12.692527
32025		-15.048163	-4.382782	-13.411794
32026		-14.979015	-4.308898	-14.131918
32027		-14.910463	-4.237541	-14.851306
32028		-14.845929	-4.166779	-15.570181
32029		-14.776869	-4.103649	-16.293307
32030		-14.708905	-4.037951	-17.023472
32031		-14.634835	-3.972002	-17.769556
32032		-14.569530	-3.907210	-18.532472
32033		-14.505391	-3.840758	-19.310443
32034		-14.443589	-3.765366	-20.093085
32035		-14.383126	-3.683654	-20.876644
32036		-14.310193	-3.598829	-21.651973
32037		-14.219470	-3.511838	-22.419196
32038		-14.111201	-3.428495	-23.186373
32039		-13.989116	-3.352502	-23.956537
32040		-13.882559	-3.282917	-24.730744
32041		-13.795576	-3.225630	-25.508134
32042		-13.732083	-3.169396	-26.288734
32043		-13.668710	-3.108732	-27.076702
32044		-13.624370	-3.039981	-27.874246
32045		-13.576001	-2.967381	-28.681501
32046		-13.531243	-2.886448	-29.486562
32047		-13.489479	-2.804916	-30.280387
32048		-13.443838	-2.720081	-31.061251
32049		-13.392325	-2.645634	-31.830570
32050		-13.336263	-2.579663	-32.592460
32051		-13.278744	-2.524114	-33.347591
32052		-13.226833	-2.469351	-34.108493
32053		-13.172118	-2.415911	-34.873864
32054		-13.119848	-2.356376	-35.647675
32055		-13.069016	-2.292339	-36.430568
32056		-13.006223	-2.236001	-37.217887
32057		-12.938798	-2.199705	-38.002281
32058		-12.872085	-2.176385	-38.781780
32059		-12.812925	-2.160943	-39.557477
32060		-12.777654	-2.156961	-40.325709
32061		-12.755580	-2.173427	-41.093068
32062		-12.761246	-2.208266	-41.868103
32063		-12.799055	-2.259172	-42.658457
32064		-12.881244	-2.315842	-43.465127
32065		-13.008393	-2.374568	-44.288109
32066		-13.184901	-2.426936	-45.118074
32067		-13.397174	-2.463454	-45.941623
32068		-13.651725	-2.493778	-46.748864
32069		-13.913517	-2.520943	-47.536763
32070		-14.177098	-2.561396	-48.306159
32071		-14.426289	-2.616112	-49.067870
32072		-14.660849	-2.678631	-49.829249
32073		-14.875662	-2.744068	-50.596523
32074		-15.085530	-2.809837	-51.374710
32075		-15.282522	-2.867547	-52.157386
32076		-15.462132	-2.908556	-52.939366
32077		-15.608314	-2.942953	-53.712242
32078		-15.733487	-2.983158	-54.472652
32079		-15.827628	-3.037043	-55.220186
32080		-15.886785	-3.095310	-55.954429
32081		-15.922168	-3.161258	-56.675916
32082		-15.941478	-3.233760	-57.389323
32083		-15.943708	-3.307401	-58.102290
32084		-15.926530	-3.373562	-58.814494
32085		-15.882900	-3.424660	-59.530730
32086		-15.813422	-3.462207	-60.247091
32087		-15.718570	-3.494097	-60.958099
32088		-15.601343	-3.516650	-61.661711
32089		-15.468143	-3.541250	-62.359197
32090		-15.328523	-3.585316	-63.040965
32091		-15.201082	-3.643666	-63.701557
32092		-15.106326	-3.709352	-64.351606
32093		-15.029175	-3.766812	-64.994347
32094		-14.985381	-3.809294	-65.629770
32095		-14.960097	-3.844502	-66.259825
32096		-14.938485	-3.875697	-66.886917
32097		-14.913073	-3.908296	-67.505921
32098		-14.896995	-3.941956	-68.108919
32099		-14.892560	-3.979080	-68.688561
32100		-14.894521	-4.013559	-69.248344
32101		-14.893074	-4.033535	-69.796357
32102		-14.887590	-4.041127	-70.330720
32103		-14.870587	-4.046831	-70.852543
32104		-14.839310	-4.063273	-71.352946
32105		-14.791246	-4.092932	-71.829464
32106		-14.736204	-4.121970	-72.280554
32107		-14.673404	-4.147080	-72.712289
32108		-14.593614	-4.164168	-73.128516
32109		-14.509118	-4.179547	-73.532352
32110		-14.434367	-4.184858	-73.925939
32111		-14.367849	-4.179939	-74.303945
32112		-14.317593	-4.171152	-74.660408
32113		-14.287141	-4.160181	-74.993923
32114		-14.268354	-4.141407	-75.297936
32115		-14.256527	-4.111459	-75.582275
32116		-14.243014	-4.072020	-75.845775
32117		-14.211142	-4.028318	-76.094576
32118		-14.171750	-3.991100	-76.327449
32119		-14.117252	-3.957677	-76.542191
32120		-14.052689	-3.928865	-76.737249
32121		-13.986898	-3.900939	-76.919422
32122		-13.925872	-3.868184	-77.089993
32123		-13.854640	-3.828600	-77.254275
32124		-13.785093	-3.780069	-77.415874
32125		-13.715004	-3.721073	-77.577496
32126		-13.651361	-3.660138	-77.737575
32127		-13.597609	-3.604151	-77.889080
32128		-13.543048	-3.558756	-78.023021
32129		-13.485095	-3.523922	-78.131659
32130		-13.429043	-3.499797	-78.214828
32131		-13.380961	-3.481615	-78.278916
32132		-13.335940	-3.464782	-78.325629
32133		-13.309497	-3.443292	-78.358733
32134		-13.320730	-3.413446	-78.381614
32135		-13.373703	-3.382420	-78.390916
32136		-13.436686	-3.344243	-78.389542
32137		-13.495500	-3.307164	-78.375115
32138		-13.546419	-3.278610	-78.353187
32139		-13.576771	-3.247959	-78.320707
32140		-13.601401	-3.217531	-78.283393
32141		-13.620270	-3.179797	-78.233491
32142		-13.647134	-3.126133	-78.169814
32143		-13.682112	-3.064527	-78.084100
32144		-13.719642	-3.003144	-77.976989
32145		-13.748937	-2.947183	-77.848053
32146		-13.766420	-2.897507	-77.698846
32147		-13.770457	-2.862311	-77.533416
32148		-13.755335	-2.836239	-77.358518
32149		-13.729807	-2.808061	-77.177929
32150		-13.709055	-2.777060	-76.985023
32151		-13.694684	-2.737754	-76.773116
32152		-13.684963	-2.691397	-76.535184
32153		-13.669124	-2.642692	-76.270773
32154		-13.655321	-2.601016	-75.977651
32155		-13.643039	-2.564242	-75.653055
32156		-13.621589	-2.531287	-75.300511
32157		-13.600702	-2.507319	-74.929592
32158		-13.577484	-2.490406	-74.545387
32159		-13.554506	-2.474057	-74.145274
32160		-13.529270	-2.462251	-73.728329
32161		-13.498463	-2.453708	-73.290968
32162		-13.466348	-2.438897	-72.830666
32163		-13.450208	-2.411987	-72.347792
32164		-13.454101	-2.374147	-71.832410
32165		-13.473890	-2.335021	-71.288709
32166		-13.502451	-2.313010	-70.720623
32167		-13.519170	-2.316758	-70.140750
32168		-13.503335	-2.338574	-69.557558
32169		-13.472230	-2.364368	-68.969177
32170		-13.439081	-2.394818	-68.371682
32171		-13.398703	-2.408546	-67.755394
32172		-13.344802	-2.403699	-67.117968
32173		-13.271148	-2.389539	-66.454723
32174		-13.168878	-2.377410	-65.772242
32175		-13.041904	-2.370041	-65.068460
32176		-12.890831	-2.372914	-64.346519
32177		-12.724521	-2.398750	-63.612111
32178		-12.542964	-2.438017	-62.862483
32179		-12.375071	-2.474238	-62.101917
32180		-12.219593	-2.494961	-61.327348
32181		-12.061644	-2.509988	-60.539849
32182		-11.898915	-2.523216	-59.742412
32183		-11.736582	-2.527938	-58.931927
32184		-11.576128	-2.532699	-58.105662
32185		-11.419570	-2.543498	-57.266402
32186		-11.260430	-2.556061	-56.409142
32187		-11.112717	-2.564257	-55.535834
32188		-10.970618	-2.569751	-54.648962
32189		-10.842172	-2.571435	-53.749316
32190		-10.727657	-2.573495	-52.838602
32191		-10.632787	-2.565673	-51.921361
32192		-10.559265	-2.546331	-50.994554
32193		-10.507505	-2.516971	-50.061264
32194		-10.463547	-2.482750	-49.122104
32195		-10.429435	-2.453896	-48.179174
32196		-10.385942	-2.430091	-47.225353
32197		-10.347461	-2.426862	-46.260860
32198		-10.317302	-2.449743	-45.284495
32199		-10.319162	-2.492558	-44.298675
32200		-10.353796	-2.536130	-43.308414
32201		-10.435688	-2.562780	-42.316108
32202		-10.538858	-2.572483	-41.331050
32203		-10.657971	-2.578918	-40.350692
32204		-10.775247	-2.587095	-39.372981
32205		-10.903372	-2.593851	-38.393501
32206		-11.034619	-2.585949	-37.410939
32207		-11.161762	-2.574896	-36.429257
32208		-11.285840	-2.583798	-35.457497
32209		-11.414783	-2.621206	-34.498144
32210		-11.548886	-2.669685	-33.549747
32211		-11.698001	-2.713514	-32.613260
32212		-11.846681	-2.748052	-31.685878
32213		-11.997823	-2.774503	-30.763432
32214		-12.132363	-2.784923	-29.851408
32215		-12.251855	-2.781895	-28.947348
32216		-12.338044	-2.778438	-28.052803
32217		-12.395367	-2.800886	-27.168886
32218		-12.427066	-2.859020	-26.299881
32219		-12.438682	-2.933938	-25.445138
32220		-12.429745	-3.020807	-24.603386
32221		-12.407770	-3.107137	-23.773484
32222		-12.383717	-3.187770	-22.955632
32223		-12.366412	-3.254293	-22.146087
32224		-12.338743	-3.301124	-21.344141
32225		-12.303976	-3.333186	-20.552475
32226		-12.267491	-3.364715	-19.778341
32227		-12.230366	-3.410316	-19.018952
32228		-12.189817	-3.474578	-18.274612
32229		-12.154326	-3.550642	-17.547530
32230		-12.129289	-3.632769	-16.840275
32231		-12.139999	-3.710157	-16.150774
32232		-12.174679	-3.775198	-15.473093
32233		-12.229571	-3.814602	-14.800371
32234		-12.282636	-3.835328	-14.128594
32235		-12.327186	-3.857290	-13.456836
32236		-12.359746	-3.890839	-12.791481
32237		-12.374052	-3.950413	-12.131338
32238		-12.377531	-4.020999	-11.482976
32239		-12.374036	-4.098665	-10.849201
32240		-12.369246	-4.178061	-10.231068
32241		-12.362644	-4.253299	-9.622372
32242		-12.349848	-4.326366	-9.015127
32243		-12.335056	-4.397380	-8.406387
32244		-12.322918	-4.477831	-7.800477
32245		-12.316704	-4.552309	-7.201037
32246		-12.302187	-4.610119	-6.608096
32247		-12.268990	-4.653741	-6.022572
32248		-12.220479	-4.704571	-5.449134
32249		-12.181857	-4.769565	-4.887052
32250		-12.154785	-4.847729	-4.332048
32251		-12.152984	-4.930366	-3.778729
32252		-12.168601	-5.002743	-3.229242
32253		-12.209540	-5.063739	-2.689182
32254		-12.275432	-5.123926	-2.154633
32255		-12.351263	-5.181670	-1.622931
32256		-12.434009	-5.235145	-1.097365
32257		-12.519817	-5.293428	-0.579305
32258		-12.621813	-5.353131	-0.077993
32259		-12.744657	-5.409245	0.407308
32260		-12.896927	-5.461399	0.877866
32261		-13.086598	-5.512592	1.345027
32262		-13.304500	-5.574186	1.819843
32263		-13.550612	-5.625935	2.303254
32264		-13.791709	-5.656395	2.789296
32265		-14.017371	-5.672290	3.270478
32266		-14.228599	-5.693613	3.738903
32267		-14.422591	-5.725111	4.191022
32268		-14.594785	-5.765368	4.627417
32269		-14.737260	-5.815499	5.046780
32270		-14.849317	-5.868699	5.450153
32271		-14.927302	-5.907429	5.832259
32272		-14.958949	-5.921849	6.193328
32273		-14.964483	-5.931462	6.541938
32274		-14.951259	-5.958462	6.879045
32275		-14.922472	-5.996599	7.209169
32276		-14.882197	-6.040700	7.533140
32277		-14.840941	-6.091729	7.855300
32278		-14.806436	-6.146208	8.170210
32279		-14.764684	-6.184930	8.461828
32280		-14.719986	-6.184613	8.721740
32281		-14.680135	-6.153626	8.948601
32282		-14.668777	-6.122709	9.161928
32283		-14.681600	-6.112336	9.365235
32284		-14.709475	-6.113512	9.556201
32285		-14.752758	-6.111552	9.743662
32286		-14.804886	-6.083478	9.916883
32287		-14.852736	-6.037456	10.072270
32288		-14.882308	-5.991420	10.208658
32289		-14.878651	-5.953189	10.320857
32290		-14.845445	-5.916749	10.406154
32291		-14.794600	-5.880345	10.470907
32292		-14.749478	-5.854495	10.524626
32293		-14.713171	-5.834913	10.570560
32294		-14.691720	-5.817118	10.616104
32295		-14.683072	-5.806405	10.659168
32296		-14.675115	-5.803453	10.701075
32297		-14.657836	-5.800586	10.735895
32298		-14.629654	-5.787102	10.761591
32299		-14.598386	-5.762911	10.773910
32300		-14.563888	-5.734283	10.773301
32301		-14.544101	-5.715632	10.774668
32302		-14.542836	-5.709516	10.778923
32303		-14.540211	-5.712762	10.787966
32304		-14.520574	-5.712195	10.798223
32305		-14.500910	-5.706401	10.801220
32306		-14.493201	-5.696593	10.789631
32307		-14.500781	-5.687191	10.769536
32308		-14.528137	-5.684363	10.749125
32309		-14.585187	-5.681926	10.742278
32310		-14.646362	-5.677040	10.747214
32311		-14.698711	-5.664826	10.757949
32312		-14.739106	-5.643801	10.762752
32313		-14.767473	-5.616992	10.751547
32314		-14.784420	-5.581454	10.723162
32315		-14.798406	-5.547372	10.683433
32316		-14.800746	-5.518991	10.642668
32317		-14.793016	-5.494863	10.610121
32318		-14.760367	-5.476852	10.588723
32319		-14.708509	-5.461554	10.574144
32320		-14.643349	-5.446599	10.557304
32321		-14.579222	-5.433018	10.530846
32322		-14.525518	-5.421908	10.499823
32323		-14.498892	-5.411747	10.472183
32324		-14.489665	-5.399142	10.452966
32325		-14.486831	-5.378949	10.434284
32326		-14.485539	-5.346073	10.414451
32327		-14.476584	-5.307879	10.389242
32328		-14.471437	-5.270426	10.358903
32329		-14.463068	-5.238730	10.325280
32330		-14.447361	-5.209153	10.287920
32331		-14.434787	-5.184413	10.254230
32332		-14.434205	-5.167240	10.226393
32333		-14.439764	-5.148540	10.197058
32334		-14.455032	-5.125264	10.162701
32335		-14.475086	-5.091343	10.116385
32336		-14.501405	-5.043947	10.059769
32337		-14.539125	-4.990208	9.998523
32338		-14.586653	-4.938484	9.935029
32339		-14.636479	-4.887161	9.862309
32340		-14.675574	-4.834653	9.779786
32341		-14.696027	-4.780752	9.686920
32342		-14.698623	-4.719918	9.579780
32343		-14.673097	-4.653462	9.452210
32344		-14.628300	-4.586925	9.302028
32345		-14.570755	-4.526794	9.128920
32346		-14.540033	-4.471496	8.935473
32347		-14.549107	-4.416343	8.725376
32348		-14.608429	-4.350356	8.496820
32349		-14.704031	-4.273536	8.260722
32350		-14.814957	-4.187368	8.010873
32351		-14.910916	-4.092252	7.745281
32352		-14.983231	-3.998319	7.451184
32353		-15.032086	-3.911785	7.119823
32354		-15.061853	-3.831139	6.752235
32355		-15.088097	-3.756258	6.350520
32356		-15.115440	-3.681906	5.923660
32357		-15.138001	-3.599399	5.477930
32358		-15.155163	-3.511629	5.016660
32359		-15.146748	-3.425960	4.540080
32360		-15.108304	-3.347634	4.047566
32361		-15.043555	-3.277539	3.541442
32362		-14.962764	-3.210528	3.019169
32363		-14.865770	-3.139929	2.476337
32364		-14.768523	-3.057171	1.908879
32365		-14.677075	-2.964848	1.318320
32366		-14.587729	-2.872758	0.706755
32367		-14.482720	-2.790244	0.078698
32368		-14.343567	-2.707859	-0.558012
32369		-14.156138	-2.625229	-1.203422
32370		-13.929399	-2.542594	-1.857682
32371		-13.661336	-2.466014	-2.522948
32372		-13.394037	-2.389468	-3.201119
32373		-13.135809	-2.307071	-3.892216
32374		-12.899081	-2.211601	-4.602273
