// General information: 
//  MT Manager version: 2022.2.0 
//  XDA version: 2022.2.0 build 7381 rev 124627 built on 2023-07-19
// Device information: 
//  DeviceId: 00B44805
//  ProductCode: MTW2-3A7G6
//  Firmware Version: 4.3.5
//  Hardware Version: 2.0.0
// Device settings: 
//  Filter Profile: human(46.1)
//  Option Flags: Orientation Smoother Disabled, Position/Velocity Smoother Disabled, Continuous Zero Rotation Update Disabled, AHS Disabled, ICC Disabled
// Coordinate system: ENU
PacketCounter	SampleTimeFine	Roll	Pitch	Yaw
29254		-9.848815	-7.575636	14.231791
29255		-9.867552	-7.579389	14.251034
29256		-9.870508	-7.582930	14.268736
29257		-9.859471	-7.579577	14.281594
29258		-9.828235	-7.572840	14.291651
29259		-9.783894	-7.563328	14.296953
29260		-9.749871	-7.553165	14.296247
29261		-9.735509	-7.531855	14.283628
29262		-9.738940	-7.505605	14.267377
29263		-9.745380	-7.477741	14.245441
29264		-9.745523	-7.451484	14.221681
29265		-9.733409	-7.423268	14.198785
29266		-9.712862	-7.394115	14.176154
29267		-9.689690	-7.361527	14.155293
29268		-9.682696	-7.327735	14.139294
29269		-9.698154	-7.292014	14.124244
29270		-9.734298	-7.258119	14.110759
29271		-9.771516	-7.223509	14.098906
29272		-9.795260	-7.195287	14.087161
29273		-9.791300	-7.169713	14.077955
29274		-9.764661	-7.149672	14.073905
29275		-9.732523	-7.128836	14.071786
29276		-9.709613	-7.114385	14.070124
29277		-9.698335	-7.102131	14.067476
29278		-9.695034	-7.094403	14.067203
29279		-9.692442	-7.088825	14.066104
29280		-9.683760	-7.089502	14.064109
29281		-9.663653	-7.093510	14.065842
29282		-9.633128	-7.102901	14.068804
29283		-9.583760	-7.114105	14.068039
29284		-9.518787	-7.125891	14.067664
29285		-9.453073	-7.134688	14.065935
29286		-9.396277	-7.142600	14.059745
29287		-9.347642	-7.149780	14.051986
29288		-9.311273	-7.158710	14.039082
29289		-9.291668	-7.166907	14.023476
29290		-9.275745	-7.176875	14.003877
29291		-9.256382	-7.185096	13.977323
29292		-9.236635	-7.193069	13.946186
29293		-9.220103	-7.194502	13.910684
29294		-9.211374	-7.191364	13.869983
29295		-9.214138	-7.182132	13.821572
29296		-9.229876	-7.174841	13.769934
29297		-9.255739	-7.164470	13.711937
29298		-9.285380	-7.154525	13.647740
29299		-9.312126	-7.147704	13.580291
29300		-9.319325	-7.143367	13.510543
29301		-9.306004	-7.141299	13.440094
29302		-9.277597	-7.144895	13.367092
29303		-9.245136	-7.147242	13.290999
29304		-9.207583	-7.151869	13.211093
29305		-9.178296	-7.154317	13.124711
29306		-9.159647	-7.156819	13.033566
29307		-9.145997	-7.159347	12.941239
29308		-9.128529	-7.168501	12.845302
29309		-9.109755	-7.179857	12.748745
29310		-9.085729	-7.193977	12.652959
29311		-9.064076	-7.208812	12.555559
29312		-9.038420	-7.225861	12.453636
29313		-9.005288	-7.245849	12.346157
29314		-8.956038	-7.266391	12.232299
29315		-8.895933	-7.282873	12.112069
29316		-8.836767	-7.303694	11.978825
29317		-8.781488	-7.319807	11.835038
29318		-8.724247	-7.332539	11.675964
29319		-8.658575	-7.342641	11.509376
29320		-8.582893	-7.352321	11.333830
29321		-8.506585	-7.358399	11.151914
29322		-8.434803	-7.367614	10.966621
29323		-8.381767	-7.370907	10.775447
29324		-8.349757	-7.371867	10.572187
29325		-8.361476	-7.367461	10.360475
29326		-8.415040	-7.362739	10.140688
29327		-8.478858	-7.350499	9.910613
29328		-8.528640	-7.342556	9.672066
29329		-8.563006	-7.332148	9.429600
29330		-8.599652	-7.327169	9.183690
29331		-8.655347	-7.323996	8.929222
29332		-8.725232	-7.321410	8.667260
29333		-8.791957	-7.315884	8.398364
29334		-8.814837	-7.316105	8.128415
29335		-8.789136	-7.317768	7.859324
29336		-8.746794	-7.320652	7.587616
29337		-8.714088	-7.318473	7.307538
29338		-8.687088	-7.322151	7.018432
29339		-8.662980	-7.324912	6.720398
29340		-8.626401	-7.329793	6.413389
29341		-8.591974	-7.333664	6.096659
29342		-8.562737	-7.341016	5.770474
29343		-8.535547	-7.345401	5.438381
29344		-8.497621	-7.354470	5.096680
29345		-8.451330	-7.359675	4.749535
29346		-8.405896	-7.364410	4.393685
29347		-8.381799	-7.362347	4.031037
29348		-8.372269	-7.363189	3.656343
29349		-8.374831	-7.358679	3.272565
29350		-8.373029	-7.357906	2.876973
29351		-8.369281	-7.355807	2.471680
29352		-8.355995	-7.358690	2.053538
29353		-8.335272	-7.361472	1.622347
29354		-8.303099	-7.363711	1.175245
29355		-8.276582	-7.363605	0.713501
29356		-8.260923	-7.362573	0.232493
29357		-8.254705	-7.366781	-0.267573
29358		-8.223514	-7.378773	-0.781686
29359		-8.155100	-7.395455	-1.303107
29360		-8.048155	-7.418287	-1.830705
29361		-7.941785	-7.434285	-2.365377
29362		-7.844160	-7.448116	-2.911751
29363		-7.737936	-7.457116	-3.461789
29364		-7.591337	-7.465602	-4.019413
29365		-7.415759	-7.475189	-4.575372
29366		-7.226300	-7.484416	-5.136522
29367		-7.060900	-7.483358	-5.703584
29368		-6.920631	-7.477409	-6.276266
29369		-6.808786	-7.467244	-6.849982
29370		-6.717064	-7.452153	-7.428553
29371		-6.641403	-7.431359	-8.005227
29372		-6.564024	-7.413109	-8.582376
29373		-6.488357	-7.385465	-9.159985
29374		-6.409978	-7.349796	-9.744615
29375		-6.342551	-7.305274	-10.338559
29376		-6.292485	-7.264496	-10.939934
29377		-6.277071	-7.222718	-11.551425
29378		-6.286144	-7.182273	-12.171688
29379		-6.295001	-7.140422	-12.803780
29380		-6.256544	-7.108836	-13.436449
29381		-6.159026	-7.073887	-14.070871
29382		-6.010996	-7.035973	-14.709485
29383		-5.860059	-6.989723	-15.351663
29384		-5.714089	-6.945104	-16.002921
29385		-5.590593	-6.903413	-16.658683
29386		-5.489606	-6.868676	-17.320182
29387		-5.423195	-6.838259	-17.983646
29388		-5.340266	-6.816981	-18.652429
29389		-5.204376	-6.800522	-19.318510
29390		-5.020446	-6.784131	-19.980551
29391		-4.823564	-6.762450	-20.646800
29392		-4.609481	-6.748745	-21.318075
29393		-4.407260	-6.739738	-21.996076
29394		-4.234790	-6.734025	-22.683236
29395		-4.128656	-6.729947	-23.375600
29396		-4.074816	-6.727105	-24.072012
29397		-4.053545	-6.716186	-24.772317
29398		-4.027085	-6.703977	-25.461929
29399		-3.975683	-6.684517	-26.145682
29400		-3.893414	-6.664687	-26.819998
29401		-3.811392	-6.645778	-27.489806
29402		-3.739241	-6.637290	-28.153894
29403		-3.687268	-6.631069	-28.807877
29404		-3.630095	-6.630757	-29.462736
29405		-3.555765	-6.633665	-30.109927
29406		-3.454096	-6.643841	-30.751376
29407		-3.327153	-6.653180	-31.393244
29408		-3.192456	-6.660483	-32.037381
29409		-3.086660	-6.657597	-32.687926
29410		-3.019529	-6.649728	-33.346940
29411		-2.997418	-6.635537	-34.017203
29412		-2.988569	-6.620757	-34.696422
29413		-2.996666	-6.599222	-35.378107
29414		-2.994905	-6.581206	-36.059229
29415		-2.977053	-6.567862	-36.738515
29416		-2.910561	-6.570109	-37.412599
29417		-2.800842	-6.583037	-38.081013
29418		-2.648392	-6.610761	-38.746308
29419		-2.462953	-6.649498	-39.407429
29420		-2.243372	-6.699934	-40.068850
29421		-1.992757	-6.756225	-40.727754
29422		-1.737257	-6.811463	-41.383947
29423		-1.529780	-6.851842	-42.037374
29424		-1.368579	-6.888582	-42.692092
29425		-1.247092	-6.925014	-43.343816
29426		-1.139120	-6.965760	-43.989148
29427		-1.048716	-7.010662	-44.627929
29428		-0.985073	-7.056407	-45.263819
29429		-0.954061	-7.092826	-45.895891
29430		-0.936220	-7.124516	-46.524766
29431		-0.953419	-7.150069	-47.149876
29432		-0.998231	-7.179542	-47.771975
29433		-1.068185	-7.213275	-48.391047
29434		-1.149701	-7.249684	-49.001789
29435		-1.247292	-7.278276	-49.599999
29436		-1.330896	-7.307040	-50.184827
29437		-1.395195	-7.327879	-50.757221
29438		-1.416399	-7.351477	-51.321684
29439		-1.431945	-7.373032	-51.879870
29440		-1.469059	-7.386886	-52.435976
29441		-1.530136	-7.393573	-52.993347
29442		-1.614509	-7.397381	-53.551624
29443		-1.721112	-7.392590	-54.115841
29444		-1.851048	-7.380431	-54.687252
29445		-2.002893	-7.352984	-55.262639
29446		-2.158396	-7.324814	-55.841187
29447		-2.318461	-7.294192	-56.421007
29448		-2.475581	-7.265554	-57.003823
29449		-2.630624	-7.239132	-57.587015
29450		-2.745289	-7.220926	-58.168959
29451		-2.819837	-7.204357	-58.745381
29452		-2.844385	-7.188494	-59.317542
29453		-2.825725	-7.169807	-59.890810
29454		-2.751377	-7.164717	-60.461847
29455		-2.654421	-7.154865	-61.029395
29456		-2.554109	-7.142922	-61.601673
29457		-2.470050	-7.131426	-62.176679
29458		-2.392556	-7.124288	-62.755393
29459		-2.308450	-7.120504	-63.332530
29460		-2.195391	-7.127334	-63.909934
29461		-2.054088	-7.138789	-64.483860
29462		-1.879240	-7.156981	-65.056124
29463		-1.688944	-7.171633	-65.632885
29464		-1.487774	-7.182626	-66.217175
29465		-1.294519	-7.181477	-66.809503
29466		-1.138250	-7.172411	-67.409247
29467		-1.055559	-7.149063	-68.008626
29468		-1.048475	-7.117735	-68.615364
29469		-1.106004	-7.079841	-69.218197
29470		-1.188003	-7.045782	-69.808732
29471		-1.267610	-7.012904	-70.380212
29472		-1.300817	-6.988581	-70.929449
29473		-1.264469	-6.963971	-71.453428
29474		-1.161098	-6.945474	-71.957806
29475		-1.018011	-6.929103	-72.451672
29476		-0.865271	-6.914389	-72.942460
29477		-0.736764	-6.899697	-73.428870
29478		-0.635272	-6.891446	-73.913929
29479		-0.551510	-6.890436	-74.390373
29480		-0.468091	-6.897204	-74.852594
29481		-0.369904	-6.908358	-75.297582
29482		-0.236930	-6.930829	-75.720998
29483		-0.077093	-6.951999	-76.123561
29484		0.101653	-6.974642	-76.510420
29485		0.279176	-6.993529	-76.887801
29486		0.433801	-7.017229	-77.259647
29487		0.554578	-7.037566	-77.626232
29488		0.656400	-7.063614	-77.989060
29489		0.752167	-7.090317	-78.344935
29490		0.857365	-7.120737	-78.688626
29491		0.980366	-7.151573	-79.017584
29492		1.113747	-7.177695	-79.326515
29493		1.237878	-7.202387	-79.617451
29494		1.357521	-7.227741	-79.893401
29495		1.469920	-7.253014	-80.147400
29496		1.568695	-7.276816	-80.384124
29497		1.646745	-7.295203	-80.608928
29498		1.715289	-7.317264	-80.820108
29499		1.801436	-7.337694	-81.013428
29500		1.918856	-7.362650	-81.191187
29501		2.065510	-7.385404	-81.349703
29502		2.236200	-7.407626	-81.485113
29503		2.411111	-7.420273	-81.601144
29504		2.564752	-7.427160	-81.707163
29505		2.690681	-7.430599	-81.799972
29506		2.795241	-7.430441	-81.879575
29507		2.876199	-7.426698	-81.943196
29508		2.923766	-7.418545	-81.995001
29509		2.945719	-7.414894	-82.033411
29510		2.956213	-7.414846	-82.058086
29511		2.962074	-7.409899	-82.069825
29512		2.961287	-7.401677	-82.074316
29513		2.960167	-7.391441	-82.072716
29514		2.960080	-7.382350	-82.064591
29515		2.967721	-7.375779	-82.052435
29516		2.972028	-7.369230	-82.036475
29517		2.976160	-7.360194	-82.009952
29518		2.975221	-7.354662	-81.980435
29519		2.979272	-7.349773	-81.944868
29520		2.999847	-7.349065	-81.902372
29521		3.031956	-7.350679	-81.851671
29522		3.065204	-7.352702	-81.797728
29523		3.098928	-7.357601	-81.739713
29524		3.132490	-7.362056	-81.673645
29525		3.170797	-7.366437	-81.607197
29526		3.220393	-7.366651	-81.530590
29527		3.287212	-7.369645	-81.439522
29528		3.358041	-7.376274	-81.327357
29529		3.432913	-7.384019	-81.195967
29530		3.517995	-7.400904	-81.048930
29531		3.627747	-7.421188	-80.875825
29532		3.763279	-7.451362	-80.674459
29533		3.937859	-7.493168	-80.446875
29534		4.142830	-7.532766	-80.196711
29535		4.376782	-7.574302	-79.922726
29536		4.616057	-7.617792	-79.624025
29537		4.830162	-7.656922	-79.296813
29538		4.972180	-7.700976	-78.957498
29539		5.040823	-7.751157	-78.604156
29540		5.062812	-7.804000	-78.230514
29541		5.068758	-7.848516	-77.837478
29542		5.050798	-7.889427	-77.429934
29543		5.022145	-7.929058	-77.006251
29544		4.968005	-7.962170	-76.569473
29545		4.901591	-7.987343	-76.126261
29546		4.831968	-8.014881	-75.672014
29547		4.778646	-8.039756	-75.211707
29548		4.709544	-8.066446	-74.741545
29549		4.637428	-8.093842	-74.265348
29550		4.557792	-8.133657	-73.777663
29551		4.477100	-8.173127	-73.277140
29552		4.407413	-8.209539	-72.767189
29553		4.366926	-8.244382	-72.246465
29554		4.335938	-8.276169	-71.715854
29555		4.300024	-8.302481	-71.176289
29556		4.240027	-8.320502	-70.630797
29557		4.166253	-8.338106	-70.079825
29558		4.089666	-8.354275	-69.517487
29559		4.022563	-8.376984	-68.939379
29560		3.955452	-8.400727	-68.341960
29561		3.897282	-8.422936	-67.728281
29562		3.828474	-8.442673	-67.099455
29563		3.760068	-8.454844	-66.464369
29564		3.686423	-8.465408	-65.820155
29565		3.605617	-8.479149	-65.167596
29566		3.523667	-8.493120	-64.502909
29567		3.457707	-8.512137	-63.822621
29568		3.399633	-8.529656	-63.126396
29569		3.362468	-8.550181	-62.413559
29570		3.334893	-8.564894	-61.686273
29571		3.323755	-8.582963	-60.957132
29572		3.314111	-8.600373	-60.222718
29573		3.293584	-8.615663	-59.480654
29574		3.248159	-8.632160	-58.737530
29575		3.180033	-8.651607	-57.993747
29576		3.076409	-8.667491	-57.249935
29577		2.977948	-8.687002	-56.505559
29578		2.892940	-8.707473	-55.749354
29579		2.825169	-8.729165	-54.989531
29580		2.751160	-8.748847	-54.223191
29581		2.696992	-8.767690	-53.455981
29582		2.662741	-8.788069	-52.688082
29583		2.646354	-8.809883	-51.921290
29584		2.616430	-8.828432	-51.155596
29585		2.583271	-8.845714	-50.389253
29586		2.536025	-8.862523	-49.618028
29587		2.493382	-8.880757	-48.846853
29588		2.450122	-8.898172	-48.064562
29589		2.441358	-8.922434	-47.278064
29590		2.448443	-8.946638	-46.482618
29591		2.466552	-8.971096	-45.682073
29592		2.473400	-8.995378	-44.881369
29593		2.466905	-9.022952	-44.078005
29594		2.437861	-9.049334	-43.274722
29595		2.404229	-9.075675	-42.469030
29596		2.379527	-9.098341	-41.658306
29597		2.413423	-9.126005	-40.837485
29598		2.510139	-9.153845	-40.002450
29599		2.700366	-9.179481	-39.154052
29600		2.949752	-9.198018	-38.284317
29601		3.245910	-9.207917	-37.396845
29602		3.540173	-9.203272	-36.494532
29603		3.799228	-9.197412	-35.578608
29604		3.992050	-9.185267	-34.662955
29605		4.112761	-9.170664	-33.747627
29606		4.184099	-9.151816	-32.830574
29607		4.269926	-9.137236	-31.910062
29608		4.396884	-9.121283	-30.988432
29609		4.581101	-9.103846	-30.067382
29610		4.775104	-9.080368	-29.143557
29611		4.956676	-9.052056	-28.221822
29612		5.056289	-9.027777	-27.300543
29613		5.033371	-9.006189	-26.389430
29614		4.882074	-8.988476	-25.484950
29615		4.675925	-8.978151	-24.584526
29616		4.477727	-8.976110	-23.683203
29617		4.334751	-8.987584	-22.774804
29618		4.226898	-8.996002	-21.865793
29619		4.151703	-9.001916	-20.959762
29620		4.063506	-9.004046	-20.068566
29621		3.933545	-9.013617	-19.190156
29622		3.745333	-9.025458	-18.322828
29623		3.519670	-9.039823	-17.463783
29624		3.276314	-9.056615	-16.608843
29625		3.070607	-9.086215	-15.755827
29626		2.904171	-9.115730	-14.902925
29627		2.792208	-9.138402	-14.056903
29628		2.699313	-9.145938	-13.222335
29629		2.600404	-9.151722	-12.405508
29630		2.438309	-9.150894	-11.610670
29631		2.216718	-9.146866	-10.840065
29632		1.963800	-9.149027	-10.086578
29633		1.741629	-9.159604	-9.349979
29634		1.570372	-9.177936	-8.617812
29635		1.464849	-9.192410	-7.889146
29636		1.381512	-9.194898	-7.166994
29637		1.284253	-9.190112	-6.450932
29638		1.145952	-9.174595	-5.746653
29639		0.966581	-9.155506	-5.056938
29640		0.761331	-9.135198	-4.381019
29641		0.560246	-9.123667	-3.718810
29642		0.386677	-9.124382	-3.072004
29643		0.279215	-9.133815	-2.444551
29644		0.234344	-9.151136	-1.826332
29645		0.233051	-9.165143	-1.218351
29646		0.208582	-9.168327	-0.626128
29647		0.140801	-9.163046	-0.052230
29648		0.006871	-9.148452	0.504243
29649		-0.188920	-9.132219	1.047840
29650		-0.435259	-9.121490	1.580412
29651		-0.674992	-9.123425	2.103606
29652		-0.840731	-9.142063	2.622622
29653		-0.905404	-9.170124	3.137135
29654		-0.896102	-9.199157	3.642003
29655		-0.844058	-9.226490	4.131801
29656		-0.801710	-9.246515	4.604718
29657		-0.788857	-9.263270	5.060777
29658		-0.819046	-9.279985	5.504328
29659		-0.876138	-9.299048	5.936168
29660		-0.927079	-9.325173	6.365389
29661		-0.945863	-9.358450	6.797144
29662		-0.926923	-9.392534	7.226487
29663		-0.885870	-9.421189	7.652190
29664		-0.854161	-9.448202	8.069419
29665		-0.842515	-9.469679	8.473072
29666		-0.864272	-9.487147	8.858755
29667		-0.913737	-9.504946	9.228348
29668		-0.988641	-9.515839	9.585844
29669		-1.078624	-9.525277	9.935437
29670		-1.183428	-9.531107	10.280518
29671		-1.289371	-9.541225	10.619821
29672		-1.389392	-9.549002	10.954546
29673		-1.473505	-9.555055	11.284022
29674		-1.548568	-9.554466	11.608667
29675		-1.625081	-9.549847	11.929418
29676		-1.718768	-9.538265	12.238791
29677		-1.836578	-9.527932	12.539072
29678		-1.976402	-9.514317	12.825305
29679		-2.117161	-9.500606	13.096604
29680		-2.225233	-9.489996	13.354469
29681		-2.283181	-9.481787	13.602353
29682		-2.300425	-9.474966	13.841039
29683		-2.290895	-9.465535	14.069631
29684		-2.288378	-9.456146	14.288089
29685		-2.310286	-9.445548	14.489564
29686		-2.359654	-9.433490	14.672106
29687		-2.436125	-9.419514	14.841241
29688		-2.546795	-9.407313	14.996758
29689		-2.684466	-9.394858	15.137795
29690		-2.818604	-9.380475	15.267833
29691		-2.910338	-9.363752	15.389490
29692		-2.969125	-9.343954	15.502449
29693		-3.003317	-9.322704	15.600321
29694		-3.027548	-9.296444	15.682684
29695		-3.047553	-9.268211	15.754040
29696		-3.072219	-9.241461	15.813151
29697		-3.110617	-9.217721	15.863046
29698		-3.156747	-9.193789	15.902862
29699		-3.201419	-9.172349	15.936466
29700		-3.237900	-9.150807	15.971639
29701		-3.266793	-9.132963	16.002458
29702		-3.282188	-9.119435	16.034596
29703		-3.293317	-9.108651	16.065154
29704		-3.307894	-9.102773	16.093118
29705		-3.327388	-9.097778	16.118220
29706		-3.340275	-9.092450	16.138284
29707		-3.345461	-9.086826	16.151159
29708		-3.340736	-9.078804	16.161842
29709		-3.338135	-9.064814	16.164660
29710		-3.338548	-9.049123	16.162438
29711		-3.344939	-9.030454	16.156514
29712		-3.347812	-9.012447	16.145773
29713		-3.342238	-8.994931	16.134316
29714		-3.322923	-8.976001	16.120865
29715		-3.299217	-8.951944	16.108007
29716		-3.289885	-8.926052	16.086106
29717		-3.321275	-8.901014	16.057104
29718		-3.370865	-8.869389	16.022355
29719		-3.415079	-8.842210	15.982977
29720		-3.434890	-8.818918	15.942486
29721		-3.441642	-8.799242	15.901213
29722		-3.441697	-8.784123	15.859842
29723		-3.444595	-8.770333	15.812142
29724		-3.456132	-8.756960	15.764227
29725		-3.478920	-8.745026	15.710544
29726		-3.504256	-8.736343	15.659670
29727		-3.519272	-8.729005	15.607402
29728		-3.518625	-8.727286	15.554333
29729		-3.505054	-8.727436	15.497872
29730		-3.481330	-8.727246	15.436716
29731		-3.454929	-8.727505	15.369183
29732		-3.425278	-8.727455	15.296955
29733		-3.409141	-8.725772	15.220686
29734		-3.402065	-8.727319	15.139299
29735		-3.403952	-8.727737	15.054249
29736		-3.406882	-8.726304	14.968672
29737		-3.401465	-8.716387	14.882482
29738		-3.367137	-8.700710	14.799476
29739		-3.256731	-8.671061	14.719357
29740		-3.078839	-8.643623	14.641939
29741		-2.872825	-8.617936	14.548043
29742		-2.680531	-8.595941	14.435853
29743		-2.536852	-8.572235	14.297208
29744		-2.451695	-8.547792	14.134484
29745		-2.440730	-8.522774	13.947004
29746		-2.479491	-8.498028	13.736793
29747		-2.536118	-8.468023	13.509595
29748		-2.586478	-8.434126	13.265088
29749		-2.613843	-8.399081	13.009766
29750		-2.603062	-8.362380	12.740525
29751		-2.569362	-8.321646	12.458780
29752		-2.527941	-8.275982	12.159796
29753		-2.508974	-8.222011	11.839323
29754		-2.514763	-8.165610	11.495463
29755		-2.537593	-8.101059	11.125267
29756		-2.566941	-8.034246	10.738399
29757		-2.597593	-7.965019	10.335117
29758		-2.635679	-7.897219	9.915620
29759		-2.680913	-7.829284	9.484432
29760		-2.722944	-7.762929	9.039379
29761		-2.764369	-7.695372	8.582752
29762		-2.795369	-7.629617	8.112776
29763		-2.822854	-7.561900	7.630012
29764		-2.852972	-7.497820	7.131939
29765		-2.903832	-7.434170	6.623087
29766		-2.968591	-7.376273	6.097776
29767		-3.036743	-7.322500	5.563320
29768		-3.095808	-7.279417	5.022821
29769		-3.136258	-7.243003	4.476446
29770		-3.130844	-7.209274	3.925684
29771		-3.086368	-7.182498	3.371848
29772		-3.013005	-7.156567	2.813422
29773		-2.932077	-7.128784	2.251559
29774		-2.849379	-7.102819	1.683340
29775		-2.771813	-7.075937	1.113090
29776		-2.707083	-7.039761	0.537174
29777		-2.669066	-6.990755	-0.048363
29778		-2.651611	-6.935208	-0.639479
29779		-2.647126	-6.871154	-1.241398
29780		-2.631723	-6.814162	-1.847034
29781		-2.604722	-6.757772	-2.458309
29782		-2.560219	-6.706484	-3.079524
29783		-2.516796	-6.653395	-3.709042
29784		-2.468266	-6.599820	-4.352128
29785		-2.434069	-6.536515	-5.006605
29786		-2.420017	-6.463655	-5.668276
29787		-2.455137	-6.380174	-6.338802
29788		-2.528797	-6.295665	-7.009007
29789		-2.637776	-6.208081	-7.680160
29790		-2.751907	-6.128204	-8.352208
29791		-2.870829	-6.057641	-9.024212
29792		-2.953005	-5.996796	-9.694441
29793		-2.964684	-5.938768	-10.365916
29794		-2.897501	-5.883020	-11.040415
29795		-2.793434	-5.822848	-11.724827
29796		-2.681523	-5.770093	-12.420090
29797		-2.600921	-5.707730	-13.127217
29798		-2.546217	-5.649156	-13.843850
29799		-2.523737	-5.590816	-14.564313
29800		-2.503599	-5.538856	-15.283404
29801		-2.486325	-5.491167	-15.999074
29802		-2.448738	-5.454531	-16.709310
29803		-2.373042	-5.412275	-17.417697
29804		-2.257490	-5.373120	-18.128298
29805		-2.144566	-5.328497	-18.843725
29806		-2.054340	-5.281311	-19.568631
29807		-2.005729	-5.229548	-20.305037
29808		-1.992953	-5.172664	-21.048730
29809		-2.028301	-5.114689	-21.798393
29810		-2.090628	-5.064867	-22.550999
29811		-2.169689	-5.020910	-23.300924
29812		-2.237531	-4.977235	-24.044597
29813		-2.299767	-4.934432	-24.783490
29814		-2.342208	-4.891058	-25.513823
29815		-2.381788	-4.844776	-26.239318
29816		-2.416005	-4.807446	-26.958591
29817		-2.453489	-4.769306	-27.678158
29818		-2.486816	-4.739327	-28.398143
29819		-2.514669	-4.711706	-29.115588
29820		-2.524135	-4.694403	-29.826633
29821		-2.507090	-4.684222	-30.532364
29822		-2.455844	-4.689478	-31.227577
29823		-2.372063	-4.703625	-31.917768
29824		-2.256163	-4.730196	-32.601204
29825		-2.141561	-4.760955	-33.283324
29826		-2.026268	-4.799803	-33.966477
29827		-1.917920	-4.837917	-34.652774
29828		-1.808153	-4.875774	-35.342324
29829		-1.720536	-4.906970	-36.038959
29830		-1.651770	-4.938397	-36.740066
29831		-1.599818	-4.967064	-37.447424
29832		-1.556618	-4.998692	-38.156728
29833		-1.517267	-5.032914	-38.866826
29834		-1.446254	-5.077612	-39.575945
29835		-1.357836	-5.130706	-40.282167
29836		-1.235262	-5.183637	-40.984174
29837		-1.109606	-5.235985	-41.683715
29838		-0.996596	-5.290573	-42.383591
29839		-0.922999	-5.340560	-43.081923
29840		-0.872927	-5.389056	-43.779769
29841		-0.847539	-5.436159	-44.472767
29842		-0.827045	-5.483453	-45.160919
29843		-0.819159	-5.524653	-45.843805
29844		-0.811772	-5.566907	-46.521044
29845		-0.803322	-5.610000	-47.192653
29846		-0.766111	-5.666812	-47.859763
29847		-0.707571	-5.726927	-48.519742
29848		-0.632816	-5.789435	-49.177575
29849		-0.571934	-5.846510	-49.835228
29850		-0.533812	-5.898112	-50.498703
29851		-0.532815	-5.936076	-51.168311
29852		-0.580927	-5.965488	-51.846392
29853		-0.672643	-5.987897	-52.523788
29854		-0.776928	-6.011373	-53.200449
29855		-0.879880	-6.034310	-53.866095
29856		-0.968367	-6.058092	-54.519561
29857		-1.049969	-6.078225	-55.158199
29858		-1.130166	-6.088969	-55.779383
29859		-1.224035	-6.087036	-56.387464
29860		-1.339189	-6.071121	-56.981360
29861		-1.517662	-6.029091	-57.568385
29862		-1.785044	-5.979372	-58.156967
29863		-2.122509	-5.937634	-58.751668
29864		-2.462049	-5.911788	-59.348189
29865		-2.747159	-5.905686	-59.947700
29866		-2.936190	-5.911281	-60.546370
29867		-3.040356	-5.912509	-61.143387
29868		-3.069022	-5.911265	-61.744827
29869		-3.064445	-5.906882	-62.350470
29870		-3.053108	-5.902895	-62.956799
29871		-3.081812	-5.896303	-63.559000
29872		-3.147829	-5.881150	-64.154365
29873		-3.241968	-5.866630	-64.738039
29874		-3.330651	-5.860043	-65.304644
29875		-3.402125	-5.861433	-65.854889
29876		-3.442858	-5.875711	-66.388217
29877		-3.424116	-5.893599	-66.906131
29878		-3.354261	-5.914254	-67.405136
29879		-3.268864	-5.927751	-67.893459
29880		-3.194827	-5.942291	-68.375640
29881		-3.149196	-5.955614	-68.851213
29882		-3.108213	-5.976837	-69.315703
29883		-3.062654	-5.993715	-69.766630
29884		-3.021786	-6.021220	-70.202562
29885		-2.967098	-6.043288	-70.622230
29886		-2.881045	-6.064356	-71.016594
29887		-2.765469	-6.078654	-71.389135
29888		-2.633893	-6.094477	-71.738986
29889		-2.513193	-6.100811	-72.068360
29890		-2.417352	-6.102950	-72.379741
29891		-2.358355	-6.092313	-72.675150
29892		-2.326819	-6.081190	-72.953252
29893		-2.299112	-6.072043	-73.210515
29894		-2.243557	-6.073805	-73.445722
29895		-2.174921	-6.073895	-73.661381
29896		-2.096223	-6.072531	-73.859982
29897		-2.015606	-6.065336	-74.040843
29898		-1.947949	-6.047672	-74.208805
29899		-1.901591	-6.020586	-74.366812
29900		-1.866858	-5.999555	-74.511860
29901		-1.838128	-5.973133	-74.642316
29902		-1.808877	-5.951802	-74.755889
29903		-1.799452	-5.938269	-74.854836
29904		-1.819128	-5.923747	-74.943861
29905		-1.850596	-5.904173	-75.020048
29906		-1.864875	-5.882044	-75.083335
29907		-1.845544	-5.861576	-75.129596
29908		-1.797066	-5.843288	-75.161976
29909		-1.724895	-5.827056	-75.181888
29910		-1.653852	-5.817376	-75.195659
29911		-1.590622	-5.809817	-75.205815
29912		-1.532007	-5.806461	-75.211649
29913		-1.472093	-5.805265	-75.210982
29914		-1.404861	-5.804492	-75.204604
29915		-1.331564	-5.805979	-75.196829
29916		-1.254127	-5.810292	-75.180529
29917		-1.178026	-5.809402	-75.165034
29918		-1.118703	-5.810429	-75.148749
29919		-1.068967	-5.813780	-75.131641
29920		-1.033101	-5.820557	-75.112522
29921		-1.004999	-5.823566	-75.090580
29922		-0.980634	-5.830333	-75.065293
29923		-0.961746	-5.833376	-75.034499
29924		-0.964645	-5.834140	-74.999185
29925		-0.987192	-5.825637	-74.957487
29926		-1.032280	-5.817260	-74.907127
29927		-1.083290	-5.808314	-74.850396
29928		-1.130595	-5.801262	-74.790965
29929		-1.171392	-5.796003	-74.728243
29930		-1.198841	-5.790197	-74.665327
29931		-1.204635	-5.783451	-74.601063
29932		-1.193596	-5.771275	-74.533041
29933		-1.178605	-5.751597	-74.461920
29934		-1.173318	-5.732473	-74.383436
29935		-1.169233	-5.715642	-74.294423
29936		-1.173120	-5.698604	-74.190695
29937		-1.187563	-5.679703	-74.068900
29938		-1.217576	-5.660273	-73.927224
29939		-1.252745	-5.637204	-73.769464
29940		-1.294661	-5.613599	-73.591440
29941		-1.325877	-5.593911	-73.393232
29942		-1.344486	-5.583173	-73.169606
29943		-1.348269	-5.572486	-72.921565
29944		-1.357290	-5.557950	-72.652334
29945		-1.373102	-5.541980	-72.363587
29946		-1.386064	-5.535489	-72.051420
29947		-1.384167	-5.529341	-71.714517
29948		-1.376072	-5.519308	-71.355241
29949		-1.346447	-5.509521	-70.967441
29950		-1.299895	-5.506671	-70.553058
29951		-1.251455	-5.505303	-70.110826
29952		-1.218696	-5.499976	-69.648305
29953		-1.199224	-5.492623	-69.171738
29954		-1.215895	-5.479049	-68.678881
29955		-1.257840	-5.461939	-68.173404
29956		-1.322048	-5.449667	-67.653586
29957		-1.386461	-5.436492	-67.119988
29958		-1.455765	-5.416766	-66.572531
29959		-1.511454	-5.397948	-66.013917
29960		-1.550339	-5.380413	-65.442077
29961		-1.569650	-5.361320	-64.852371
29962		-1.585584	-5.344312	-64.247156
29963		-1.587338	-5.334376	-63.622958
29964		-1.571777	-5.324032	-62.976536
29965		-1.543654	-5.317832	-62.318556
29966		-1.516938	-5.301515	-61.648879
29967		-1.493448	-5.286718	-60.975577
29968		-1.491713	-5.264191	-60.299441
29969		-1.517680	-5.242282	-59.617996
29970		-1.576074	-5.231543	-58.928823
29971		-1.639421	-5.229812	-58.227691
29972		-1.707746	-5.227269	-57.515569
29973		-1.751573	-5.231371	-56.798262
29974		-1.767839	-5.244545	-56.069242
29975		-1.748368	-5.264163	-55.330797
29976		-1.713208	-5.286246	-54.580825
29977		-1.662396	-5.309314	-53.823646
29978		-1.602825	-5.331087	-53.059054
29979		-1.519427	-5.361586	-52.289199
29980		-1.436161	-5.391996	-51.508668
29981		-1.346253	-5.427826	-50.717088
29982		-1.269455	-5.459948	-49.911305
29983		-1.203649	-5.490901	-49.090966
29984		-1.167389	-5.514267	-48.263607
29985		-1.144145	-5.535819	-47.432924
29986		-1.143112	-5.554404	-46.598631
29987		-1.143532	-5.581604	-45.765801
29988		-1.132846	-5.613183	-44.928707
29989		-1.093774	-5.652285	-44.089759
29990		-1.043945	-5.699084	-43.245890
29991		-0.983876	-5.755336	-42.396828
29992		-0.936211	-5.813790	-41.543404
29993		-0.890146	-5.875627	-40.684133
29994		-0.854497	-5.938611	-39.820113
29995		-0.811669	-6.006427	-38.949528
29996		-0.768731	-6.079642	-38.075393
29997		-0.720072	-6.157823	-37.201696
29998		-0.681989	-6.239751	-36.328926
29999		-0.639649	-6.324942	-35.462252
30000		-0.589632	-6.411779	-34.602310
30001		-0.512701	-6.507663	-33.745288
30002		-0.419446	-6.607016	-32.889651
30003		-0.301443	-6.708133	-32.035001
30004		-0.180846	-6.804584	-31.183162
30005		-0.059646	-6.906387	-30.334955
30006		0.053790	-7.004305	-29.490191
30007		0.168468	-7.101880	-28.652719
30008		0.270040	-7.200428	-27.816380
30009		0.376573	-7.300644	-26.983555
30010		0.470118	-7.394431	-26.149069
30011		0.555380	-7.484290	-25.314807
30012		0.611369	-7.556764	-24.481700
30013		0.655136	-7.621620	-23.649582
30014		0.678967	-7.671849	-22.818930
30015		0.691953	-7.721519	-21.991491
30016		0.689316	-7.768506	-21.170031
30017		0.683270	-7.821275	-20.351402
30018		0.662866	-7.877045	-19.538402
30019		0.656514	-7.934977	-18.727666
30020		0.641694	-7.987224	-17.923681
30021		0.615283	-8.036872	-17.119963
30022		0.570157	-8.083376	-16.324188
30023		0.509897	-8.130515	-15.530711
30024		0.428568	-8.174908	-14.737334
30025		0.341953	-8.221910	-13.941886
30026		0.231644	-8.271723	-13.144916
30027		0.097524	-8.337613	-12.353656
30028		-0.111360	-8.405044	-11.573325
30029		-0.420225	-8.470144	-10.814973
30030		-0.846492	-8.521894	-10.078930
30031		-1.353338	-8.558773	-9.359707
30032		-1.871813	-8.579269	-8.654535
30033		-2.314740	-8.596966	-7.956436
30034		-2.655417	-8.611748	-7.261761
30035		-2.886515	-8.619412	-6.571421
30036		-3.049351	-8.622014	-5.886119
30037		-3.181996	-8.622830	-5.214830
30038		-3.329624	-8.619136	-4.558083
30039		-3.488820	-8.619270	-3.917587
30040		-3.643087	-8.619850	-3.289712
30041		-3.769242	-8.631974	-2.673123
30042		-3.867251	-8.643632	-2.063770
30043		-3.922825	-8.659998	-1.459886
30044		-3.957915	-8.669666	-0.861504
30045		-4.021033	-8.670958	-0.281134
30046		-4.153571	-8.662729	0.286365
30047		-4.331544	-8.652197	0.841453
30048		-4.533123	-8.645875	1.391566
30049		-4.722777	-8.647776	1.941567
30050		-4.898803	-8.657120	2.490765
30051		-5.064423	-8.672880	3.033361
30052		-5.240263	-8.692433	3.573604
30053		-5.433290	-8.699349	4.105648
30054		-5.663191	-8.699950	4.632684
30055		-5.915160	-8.695976	5.156200
30056		-6.181694	-8.683099	5.675811
30057		-6.422436	-8.664227	6.190510
30058		-6.608412	-8.648704	6.699705
30059		-6.719861	-8.641944	7.206977
30060		-6.780222	-8.636533	7.706233
30061		-6.822572	-8.633028	8.199339
30062		-6.876012	-8.629075	8.679250
30063		-6.954969	-8.620045	9.144717
30064		-7.058625	-8.602065	9.590819
30065		-7.187663	-8.576987	10.022841
30066		-7.324937	-8.542342	10.440502
30067		-7.444160	-8.512012	10.849168
30068		-7.517870	-8.486067	11.255538
30069		-7.537624	-8.473731	11.656320
30070		-7.528227	-8.465571	12.048729
30071		-7.531612	-8.452797	12.429456
30072		-7.560249	-8.443239	12.797676
30073		-7.613306	-8.438572	13.156793
30074		-7.692211	-8.433189	13.511192
30075		-7.773564	-8.428431	13.859029
30076		-7.837149	-8.430285	14.201480
30077		-7.870670	-8.430563	14.536677
30078		-7.895061	-8.431381	14.853977
30079		-7.919310	-8.429739	15.155581
30080		-7.962239	-8.424873	15.439336
30081		-8.013535	-8.420076	15.701876
30082		-8.067507	-8.418731	15.947105
30083		-8.101783	-8.416734	16.178441
30084		-8.106707	-8.412361	16.394294
30085		-8.076177	-8.401061	16.597652
30086		-8.045174	-8.380493	16.782067
30087		-8.036259	-8.353135	16.941270
30088		-8.063819	-8.324068	17.073980
30089		-8.124733	-8.296249	17.182116
30090		-8.201742	-8.271372	17.265026
30091		-8.270092	-8.249474	17.329911
30092		-8.303643	-8.224997	17.380154
30093		-8.304868	-8.198857	17.413142
30094		-8.275657	-8.176689	17.431678
30095		-8.236560	-8.149173	17.435629
30096		-8.209068	-8.114969	17.424533
30097		-8.201335	-8.077933	17.398432
30098		-8.206817	-8.045019	17.363006
30099		-8.222005	-8.022101	17.324597
30100		-8.240467	-8.006377	17.281336
30101		-8.259651	-7.992579	17.232116
30102		-8.273070	-7.980994	17.179012
30103		-8.293019	-7.965150	17.122025
30104		-8.313925	-7.950116	17.064010
30105		-8.334226	-7.937290	17.009481
30106		-8.344498	-7.927791	16.960078
30107		-8.345845	-7.926974	16.919560
30108		-8.343707	-7.930607	16.882494
30109		-8.346594	-7.932754	16.846458
30110		-8.361997	-7.930960	16.804838
30111		-8.380630	-7.922397	16.757882
30112		-8.384938	-7.913440	16.708419
30113		-8.375709	-7.906814	16.654094
30114		-8.366691	-7.902015	16.594412
30115		-8.352526	-7.895218	16.527815
30116		-8.324708	-7.892967	16.451603
30117		-8.289722	-7.892700	16.373318
30118		-8.238257	-7.894494	16.294626
30119		-8.178948	-7.895794	16.214936
30120		-8.120822	-7.897523	16.134857
30121		-8.062988	-7.895883	16.055940
30122		-7.991295	-7.889788	15.973353
30123		-7.908750	-7.883252	15.880816
30124		-7.799857	-7.880354	15.778743
30125		-7.685809	-7.875502	15.667573
30126		-7.578434	-7.870980	15.537177
30127		-7.485427	-7.864822	15.390130
30128		-7.407310	-7.860546	15.225437
30129		-7.330165	-7.845047	15.034672
30130		-7.246504	-7.817368	14.820442
30131		-7.159782	-7.781016	14.582490
30132		-7.073083	-7.740062	14.322060
30133		-6.994694	-7.698232	14.040511
30134		-6.921093	-7.663452	13.733475
30135		-6.836126	-7.634451	13.400244
30136		-6.719235	-7.613476	13.042015
30137		-6.587049	-7.589260	12.662633
30138		-6.446675	-7.558973	12.253077
30139		-6.321084	-7.519843	11.811094
30140		-6.216342	-7.476866	11.335371
30141		-6.136283	-7.424927	10.820540
30142		-6.054377	-7.374842	10.275713
30143		-5.965594	-7.328798	9.708151
30144		-5.869367	-7.287218	9.122976
30145		-5.784347	-7.249616	8.525059
30146		-5.693588	-7.215793	7.914246
30147		-5.597003	-7.186013	7.293991
30148		-5.483792	-7.160427	6.667036
30149		-5.377100	-7.133737	6.033419
30150		-5.264025	-7.109970	5.390269
30151		-5.163304	-7.086827	4.736210
30152		-5.070723	-7.069023	4.067841
30153		-4.995600	-7.053106	3.388191
30154		-4.921993	-7.043332	2.696074
30155		-4.851040	-7.036734	1.996980
30156		-4.753722	-7.033044	1.297562
30157		-4.644547	-7.030622	0.592212
30158		-4.516334	-7.031785	-0.113986
30159		-4.385929	-7.034144	-0.827572
30160		-4.247043	-7.042419	-1.545573
30161		-4.118185	-7.049755	-2.270729
30162		-3.986709	-7.064859	-3.002409
30163		-3.868779	-7.083697	-3.738016
30164		-3.756440	-7.109479	-4.476383
30165		-3.657601	-7.131981	-5.214123
30166		-3.567103	-7.161790	-5.954227
30167		-3.483360	-7.188135	-6.694545
30168		-3.392026	-7.216950	-7.435329
30169		-3.297809	-7.241629	-8.177756
30170		-3.187154	-7.268252	-8.923829
30171		-3.065580	-7.295948	-9.677203
30172		-2.928169	-7.323967	-10.441883
30173		-2.787793	-7.350066	-11.215078
30174		-2.658654	-7.381067	-12.000863
30175		-2.554440	-7.409931	-12.793268
30176		-2.456039	-7.441051	-13.592911
30177		-2.371973	-7.470936	-14.394487
30178		-2.301746	-7.503623	-15.195300
30179		-2.244286	-7.538456	-15.991383
30180		-2.182623	-7.565645	-16.788608
30181		-2.127582	-7.579326	-17.583904
30182		-2.063400	-7.593684	-18.384222
30183		-2.000106	-7.607188	-19.189455
30184		-1.933857	-7.626213	-20.000977
30185		-1.878306	-7.645356	-20.819102
30186		-1.822678	-7.671921	-21.638955
30187		-1.768107	-7.695482	-22.456406
30188		-1.695110	-7.721617	-23.273679
30189		-1.607137	-7.743469	-24.081403
30190		-1.498481	-7.768713	-24.880347
30191		-1.406524	-7.789013	-25.670965
30192		-1.341804	-7.804015	-26.456214
30193		-1.321390	-7.813354	-27.241281
30194		-1.323217	-7.820149	-28.027912
30195		-1.355276	-7.831929	-28.817720
30196		-1.382578	-7.847769	-29.612354
30197		-1.384083	-7.859199	-30.405994
30198		-1.331108	-7.866192	-31.205293
30199		-1.232342	-7.870543	-32.003283
30200		-1.091568	-7.878040	-32.799986
30201		-0.952259	-7.882802	-33.596059
30202		-0.841776	-7.885201	-34.390570
30203		-0.787434	-7.886656	-35.181969
30204		-0.760997	-7.894964	-35.966516
30205		-0.756230	-7.905324	-36.735272
30206		-0.758828	-7.926632	-37.492464
30207		-0.758719	-7.946616	-38.240858
30208		-0.735631	-7.970803	-38.984184
30209		-0.710083	-7.985877	-39.726244
30210		-0.685661	-7.997602	-40.474392
30211		-0.681040	-8.007329	-41.223382
30212		-0.691060	-8.009443	-41.975243
30213		-0.727117	-8.014207	-42.724760
30214		-0.786100	-8.020819	-43.468374
30215		-0.866996	-8.026920	-44.200489
30216		-0.948102	-8.030979	-44.921510
30217		-1.026544	-8.030572	-45.630878
30218		-1.101868	-8.033642	-46.331245
30219		-1.174277	-8.034078	-47.030447
30220		-1.234475	-8.040254	-47.720574
30221		-1.287029	-8.041401	-48.413861
30222		-1.336173	-8.047769	-49.108629
30223		-1.402602	-8.046534	-49.806682
30224		-1.491491	-8.040876	-50.504590
30225		-1.604550	-8.027747	-51.203816
30226		-1.723340	-8.013442	-51.897753
30227		-1.845721	-7.995124	-52.586182
30228		-1.948676	-7.977574	-53.268153
30229		-2.027073	-7.960201	-53.944310
30230		-2.070331	-7.944127	-54.616567
30231		-2.089806	-7.927940	-55.285774
30232		-2.094849	-7.911428	-55.955185
30233		-2.104861	-7.894146	-56.623308
30234		-2.119102	-7.883772	-57.289909
30235		-2.134825	-7.877513	-57.947944
30236		-2.133447	-7.873082	-58.595463
30237		-2.114433	-7.871614	-59.227586
30238		-2.072733	-7.866799	-59.849686
30239		-2.015240	-7.852892	-60.455579
30240		-1.960740	-7.831016	-61.046065
30241		-1.936688	-7.801082	-61.626182
30242		-1.926096	-7.775522	-62.197572
30243		-1.910695	-7.752363	-62.760757
30244		-1.867071	-7.741290	-63.315803
30245		-1.789018	-7.736570	-63.861960
30246		-1.700243	-7.730881	-64.405595
30247		-1.618426	-7.727822	-64.945356
30248		-1.545923	-7.725475	-65.481265
30249		-1.500005	-7.715629	-66.012228
30250		-1.464458	-7.711307	-66.539752
30251		-1.414876	-7.710003	-67.057139
30252		-1.336174	-7.715406	-67.567109
30253		-1.241757	-7.717097	-68.064926
30254		-1.139622	-7.711025	-68.554586
30255		-1.044418	-7.702977	-69.033406
30256		-0.969981	-7.685439	-69.498001
30257		-0.943777	-7.651815	-69.953016
30258		-0.951529	-7.614988	-70.396356
30259		-0.974838	-7.577794	-70.820868
30260		-1.002932	-7.538670	-71.221846
30261		-1.032836	-7.494389	-71.603868
30262		-1.057242	-7.458874	-71.963098
30263		-1.091204	-7.426247	-72.301312
30264		-1.131627	-7.408304	-72.623459
30265		-1.185774	-7.401868	-72.924043
30266		-1.242854	-7.400045	-73.201273
30267		-1.288977	-7.400121	-73.447932
30268		-1.319445	-7.405885	-73.663817
30269		-1.334091	-7.410026	-73.847293
30270		-1.337560	-7.420231	-73.999618
30271		-1.314345	-7.434368	-74.127493
30272		-1.257541	-7.463144	-74.231920
30273		-1.176759	-7.501391	-74.316318
30274		-1.095803	-7.538608	-74.387203
30275		-1.034532	-7.567853	-74.449161
30276		-0.982596	-7.590438	-74.505663
30277		-0.938886	-7.611246	-74.553460
30278		-0.907147	-7.628694	-74.592479
30279		-0.880114	-7.645456	-74.622366
30280		-0.845278	-7.662896	-74.641419
30281		-0.804038	-7.677003	-74.652316
30282		-0.763139	-7.687797	-74.662038
30283		-0.715837	-7.695156	-74.670078
30284		-0.669819	-7.702273	-74.674705
30285		-0.617475	-7.708012	-74.675631
30286		-0.552342	-7.707077	-74.673011
30287		-0.478397	-7.697006	-74.662881
30288		-0.407067	-7.688285	-74.648314
30289		-0.337442	-7.676690	-74.623388
30290		-0.299842	-7.663009	-74.589088
30291		-0.296455	-7.646357	-74.553561
30292		-0.328126	-7.624523	-74.512517
30293		-0.379550	-7.604295	-74.460925
30294		-0.437173	-7.587633	-74.402076
30295		-0.471191	-7.575116	-74.330794
30296		-0.465252	-7.568481	-74.244633
30297		-0.415804	-7.571671	-74.141293
30298		-0.344669	-7.582277	-74.015724
30299		-0.280924	-7.592753	-73.867743
30300		-0.237177	-7.595010	-73.705187
30301		-0.207289	-7.596882	-73.526942
30302		-0.193075	-7.599101	-73.335773
30303		-0.211100	-7.600169	-73.134555
30304		-0.260282	-7.599630	-72.926220
30305		-0.309050	-7.604000	-72.709604
30306		-0.354017	-7.608019	-72.479859
30307		-0.389092	-7.610821	-72.237766
30308		-0.399312	-7.615371	-71.988588
30309		-0.388264	-7.621433	-71.724683
30310		-0.364477	-7.631169	-71.446576
30311		-0.323771	-7.641238	-71.155160
30312		-0.282889	-7.653071	-70.849531
30313		-0.255673	-7.661023	-70.532458
30314		-0.275946	-7.666195	-70.205880
30315		-0.332445	-7.668456	-69.872426
30316		-0.407532	-7.668762	-69.525746
30317		-0.468719	-7.665230	-69.171306
30318		-0.509958	-7.657297	-68.801776
30319		-0.524240	-7.652816	-68.419138
30320		-0.538861	-7.651961	-68.019920
30321		-0.562536	-7.650361	-67.609344
30322		-0.602969	-7.646878	-67.183820
30323		-0.634240	-7.641960	-66.744270
30324		-0.670689	-7.632004	-66.289397
30325		-0.709260	-7.622433	-65.822019
30326		-0.753245	-7.611677	-65.341780
30327		-0.783052	-7.597488	-64.848501
30328		-0.801520	-7.579238	-64.345319
30329		-0.809215	-7.560450	-63.833354
30330		-0.816590	-7.540150	-63.313827
30331		-0.808541	-7.522217	-62.784551
30332		-0.817670	-7.514014	-62.238921
30333		-0.829731	-7.514704	-61.675802
30334		-0.850803	-7.515979	-61.086847
30335		-0.872279	-7.522952	-60.470610
30336		-0.916542	-7.536616	-59.822491
30337		-0.992791	-7.551939	-59.147138
30338		-1.101872	-7.567119	-58.455236
30339		-1.224417	-7.590196	-57.748085
30340		-1.345149	-7.613994	-57.028568
30341		-1.445038	-7.638376	-56.302059
30342		-1.523196	-7.669135	-55.569715
30343		-1.575181	-7.705366	-54.831621
30344		-1.615061	-7.745122	-54.084294
30345		-1.633498	-7.793443	-53.326966
30346		-1.659938	-7.842740	-52.560271
30347		-1.680154	-7.893054	-51.784937
30348		-1.687066	-7.952333	-51.000764
30349		-1.649609	-8.012764	-50.203954
30350		-1.563968	-8.073445	-49.389332
30351		-1.444865	-8.135662	-48.561294
30352		-1.327737	-8.197379	-47.718166
30353		-1.223254	-8.257473	-46.866924
30354		-1.165452	-8.311354	-46.009335
30355		-1.158538	-8.363552	-45.150233
30356		-1.214216	-8.410321	-44.288821
30357		-1.286872	-8.453347	-43.425039
30358		-1.351446	-8.496157	-42.559110
30359		-1.354619	-8.539228	-41.692295
30360		-1.292140	-8.584916	-40.821048
30361		-1.157519	-8.640202	-39.945850
30362		-1.001487	-8.698100	-39.064144
30363		-0.843771	-8.743441	-38.178395
30364		-0.730457	-8.779582	-37.288654
30365		-0.665767	-8.810315	-36.398781
30366		-0.694033	-8.836882	-35.504024
30367		-0.784599	-8.856433	-34.611635
30368		-0.877618	-8.879957	-33.717228
30369		-0.915233	-8.913369	-32.816469
30370		-0.905630	-8.945681	-31.909862
30371		-0.855446	-8.975286	-31.006290
30372		-0.813298	-9.000299	-30.102615
30373		-0.795807	-9.017537	-29.202557
30374		-0.832751	-9.042522	-28.319207
30375		-0.903434	-9.075055	-27.442073
30376		-0.986313	-9.121662	-26.568024
30377		-1.012036	-9.189421	-25.693239
30378		-0.951729	-9.270711	-24.807309
30379		-0.802353	-9.365146	-23.911297
30380		-0.622306	-9.458318	-23.007856
30381		-0.459355	-9.548005	-22.108617
30382		-0.368710	-9.632688	-21.213795
30383		-0.319784	-9.722685	-20.324969
30384		-0.315451	-9.810468	-19.433996
30385		-0.327765	-9.894092	-18.545425
30386		-0.339840	-9.972424	-17.660350
30387		-0.342930	-10.041968	-16.783680
30388		-0.377671	-10.108099	-15.917785
30389		-0.444534	-10.165951	-15.077227
30390		-0.530923	-10.222053	-14.248454
30391		-0.604343	-10.275567	-13.434767
30392		-0.667582	-10.322430	-12.624075
30393		-0.722100	-10.366856	-11.819625
30394		-0.791846	-10.407093	-11.020064
30395		-0.874271	-10.444630	-10.227661
30396		-0.968770	-10.477403	-9.449763
30397		-1.070866	-10.509488	-8.677298
30398		-1.192750	-10.530729	-7.912839
30399		-1.311059	-10.544381	-7.161171
30400		-1.416336	-10.550038	-6.420957
30401		-1.490935	-10.555464	-5.692413
30402		-1.549439	-10.558163	-4.974307
30403		-1.593621	-10.566194	-4.264866
30404		-1.651278	-10.569601	-3.562064
30405		-1.738666	-10.566300	-2.866867
30406		-1.875973	-10.554718	-2.181466
30407		-2.045342	-10.537865	-1.501921
30408		-2.216751	-10.518030	-0.828617
30409		-2.357576	-10.501353	-0.159394
30410		-2.459560	-10.484488	0.503124
30411		-2.518783	-10.474464	1.158252
30412		-2.559263	-10.459771	1.808196
30413		-2.615193	-10.437543	2.444375
30414		-2.714917	-10.411022	3.074593
30415		-2.843827	-10.378861	3.696575
30416		-2.989503	-10.343915	4.308862
30417		-3.111712	-10.318308	4.915671
30418		-3.208256	-10.297196	5.520398
30419		-3.278163	-10.278436	6.116332
30420		-3.345589	-10.258762	6.699753
30421		-3.401280	-10.237283	7.268231
30422		-3.462996	-10.210475	7.817790
30423		-3.545168	-10.183580	8.351234
30424		-3.647566	-10.155612	8.870024
30425		-3.763330	-10.128360	9.380066
30426		-3.894397	-10.098229	9.884497
30427		-4.007473	-10.070859	10.384133
30428		-4.084915	-10.050911	10.881059
30429		-4.109420	-10.041220	11.376125
30430		-4.087756	-10.039851	11.866610
30431		-4.040570	-10.041895	12.343122
30432		-4.001872	-10.038808	12.801491
30433		-3.996914	-10.028351	13.241124
30434		-4.031981	-10.008312	13.665069
30435		-4.093362	-9.981574	14.077497
30436		-4.176848	-9.943347	14.478303
30437		-4.265893	-9.908125	14.865084
30438		-4.344561	-9.873743	15.246478
30439		-4.416127	-9.847272	15.620287
30440		-4.498752	-9.819978	15.982739
30441		-4.585364	-9.791685	16.330798
30442		-4.682418	-9.757250	16.663314
30443		-4.786901	-9.717735	16.980361
30444		-4.890744	-9.679083	17.277677
30445		-4.977557	-9.645446	17.559262
30446		-5.048107	-9.616571	17.822300
30447		-5.108375	-9.590829	18.061627
30448		-5.171688	-9.566243	18.277572
30449		-5.235833	-9.539107	18.472533
30450		-5.307934	-9.514570	18.649223
30451		-5.382475	-9.488777	18.804030
30452		-5.456971	-9.468181	18.940372
30453		-5.518903	-9.447389	19.054932
30454		-5.578698	-9.420682	19.150524
30455		-5.638684	-9.394482	19.230185
30456		-5.701285	-9.369146	19.295253
30457		-5.767627	-9.344660	19.348314
30458		-5.832343	-9.324280	19.393231
30459		-5.892819	-9.309341	19.430736
30460		-5.952618	-9.297979	19.467186
30461		-6.000458	-9.291238	19.500018
30462		-6.020076	-9.292444	19.530641
30463		-6.001181	-9.300374	19.562373
30464		-5.952780	-9.310927	19.590503
30465		-5.903769	-9.319495	19.612515
30466		-5.894974	-9.325487	19.629202
30467		-5.932799	-9.328712	19.635658
30468		-5.994723	-9.333531	19.637282
30469		-6.041609	-9.344208	19.638365
30470		-6.041608	-9.359098	19.634648
30471		-5.995944	-9.372302	19.630233
30472		-5.936698	-9.373639	19.619343
30473		-5.908489	-9.368926	19.598852
30474		-5.926062	-9.356626	19.568047
30475		-5.983732	-9.341263	19.529168
30476		-6.062577	-9.323574	19.486135
30477		-6.138348	-9.310465	19.444298
30478		-6.183377	-9.299818	19.404652
30479		-6.173619	-9.289336	19.367278
30480		-6.126291	-9.278021	19.330373
30481		-6.080701	-9.261455	19.288981
30482		-6.059339	-9.242693	19.243066
30483		-6.064426	-9.221433	19.193277
30484		-6.083982	-9.202015	19.148057
30485		-6.094564	-9.181455	19.103987
30486		-6.074873	-9.164171	19.059844
30487		-6.028923	-9.140851	19.015744
30488		-5.975858	-9.112141	18.962974
30489		-5.927564	-9.076483	18.899944
30490		-5.884823	-9.036435	18.823192
30491		-5.850240	-8.997078	18.732797
30492		-5.810115	-8.960393	18.626139
30493		-5.765677	-8.925304	18.508504
30494		-5.711793	-8.891592	18.371535
30495		-5.638884	-8.856852	18.220505
30496		-5.554246	-8.815608	18.055514
30497		-5.485339	-8.764170	17.874563
30498		-5.439772	-8.709911	17.673163
30499		-5.418590	-8.654280	17.450177
30500		-5.404534	-8.603380	17.205959
30501		-5.376163	-8.554864	16.941686
30502		-5.309420	-8.512269	16.659385
30503		-5.214235	-8.474144	16.358243
30504		-5.096481	-8.440360	16.036544
30505		-4.975544	-8.398322	15.689674
30506		-4.871172	-8.351994	15.313031
30507		-4.808106	-8.296005	14.906379
30508		-4.775512	-8.245916	14.476176
30509		-4.756135	-8.191559	14.030403
30510		-4.725285	-8.148471	13.578500
30511		-4.663448	-8.109579	13.121163
30512		-4.554382	-8.075156	12.659482
30513		-4.407576	-8.041256	12.187614
30514		-4.233067	-8.011852	11.700834
30515		-4.054641	-7.978173	11.196873
30516		-3.882561	-7.936924	10.666870
30517		-3.754113	-7.883299	10.114072
30518		-3.661821	-7.824669	9.536553
30519		-3.601411	-7.760800	8.940622
30520		-3.534475	-7.694364	8.331341
30521		-3.464131	-7.626588	7.716310
30522		-3.384010	-7.565573	7.093272
30523		-3.316470	-7.501319	6.468908
30524		-3.245706	-7.437617	5.835170
30525		-3.172926	-7.374821	5.192511
30526		-3.109881	-7.314958	4.539929
30527		-3.076232	-7.254891	3.871857
30528		-3.069458	-7.200954	3.187277
30529		-3.094467	-7.147109	2.488795
30530		-3.125099	-7.099906	1.775617
30531		-3.149497	-7.050440	1.052742
30532		-3.143360	-7.005759	0.326188
30533		-3.124853	-6.962809	-0.403298
30534		-3.090446	-6.931416	-1.136477
30535		-3.053525	-6.897507	-1.880290
30536		-3.010712	-6.865923	-2.636979
30537		-2.975939	-6.832732	-3.407670
30538		-2.940303	-6.805716	-4.191438
30539		-2.922034	-6.777260	-4.988361
30540		-2.905082	-6.756251	-5.791210
30541		-2.895946	-6.737072	-6.599023
30542		-2.871031	-6.722976	-7.408239
30543		-2.835010	-6.708390	-8.220074
30544		-2.783648	-6.687336	-9.034456
30545		-2.748296	-6.658177	-9.858920
30546		-2.723233	-6.625528	-10.697158
30547		-2.720748	-6.589246	-11.544117
30548		-2.728910	-6.557085	-12.403755
30549		-2.744266	-6.529253	-13.272014
30550		-2.745040	-6.508832	-14.145244
30551		-2.751504	-6.484617	-15.025477
30552		-2.754699	-6.458076	-15.908220
30553		-2.755189	-6.435000	-16.792697
30554		-2.722578	-6.420709	-17.675138
30555		-2.672031	-6.410521	-18.558211
30556		-2.603692	-6.409064	-19.441122
30557		-2.528741	-6.400771	-20.333655
30558		-2.445807	-6.387123	-21.233749
30559		-2.377843	-6.360528	-22.141776
30560		-2.317456	-6.329620	-23.059786
30561		-2.279569	-6.290157	-23.979633
30562		-2.260114	-6.247555	-24.902602
30563		-2.268959	-6.198856	-25.827836
30564		-2.260090	-6.149982	-26.747497
30565		-2.224765	-6.101546	-27.650941
30566		-2.157112	-6.047561	-28.548370
30567		-2.095345	-5.985560	-29.439022
30568		-2.036551	-5.924655	-30.331207
30569		-1.989623	-5.863798	-31.227284
30570		-1.950231	-5.808119	-32.124651
30571		-1.908848	-5.755658	-33.020771
30572		-1.838548	-5.715194	-33.913535
30573		-1.751803	-5.679904	-34.799042
30574		-1.643595	-5.654237	-35.682463
30575		-1.527439	-5.631973	-36.557376
30576		-1.398476	-5.610739	-37.429358
30577		-1.278305	-5.583899	-38.296780
30578		-1.165512	-5.556027	-39.163781
30579		-1.071921	-5.531506	-40.029374
30580		-0.979209	-5.519473	-40.899846
30581		-0.877766	-5.518419	-41.765147
30582		-0.746060	-5.527435	-42.624598
30583		-0.599644	-5.542333	-43.473787
30584		-0.450863	-5.557919	-44.313075
30585		-0.326612	-5.570446	-45.145530
30586		-0.217994	-5.586624	-45.973533
30587		-0.126491	-5.598042	-46.797378
30588		-0.045765	-5.623131	-47.611315
30589		0.009828	-5.645375	-48.417943
30590		0.063809	-5.677313	-49.217716
30591		0.130311	-5.719209	-50.011424
30592		0.237655	-5.770136	-50.798177
30593		0.395249	-5.836052	-51.577151
30594		0.612991	-5.914893	-52.343783
30595		0.870363	-5.996804	-53.098635
30596		1.152439	-6.081412	-53.845962
30597		1.441968	-6.162245	-54.586368
30598		1.744932	-6.241263	-55.322885
30599		2.046137	-6.308624	-56.054261
30600		2.336604	-6.360581	-56.783876
30601		2.585698	-6.399178	-57.513386
30602		2.805370	-6.439979	-58.238894
30603		3.000354	-6.479597	-58.961922
30604		3.200419	-6.518293	-59.680176
30605		3.396674	-6.548038	-60.384894
30606		3.597209	-6.561696	-61.073957
30607		3.803312	-6.557366	-61.744649
30608		4.003978	-6.544718	-62.398696
30609		4.160991	-6.520569	-63.035638
30610		4.252781	-6.485903	-63.660527
30611		4.292763	-6.448939	-64.268449
30612		4.320809	-6.417157	-64.856764
30613		4.328707	-6.392613	-65.429332
30614		4.350244	-6.369476	-65.982211
30615		4.397706	-6.344954	-66.513635
30616		4.477354	-6.312922	-67.024799
30617		4.570059	-6.273698	-67.522803
30618		4.685753	-6.245994	-68.006844
30619		4.797982	-6.217262	-68.470389
30620		4.909284	-6.186037	-68.921364
30621		5.024735	-6.159920	-69.351996
30622		5.158514	-6.136242	-69.762893
30623		5.290632	-6.108639	-70.153138
30624		5.398165	-6.080648	-70.526605
30625		5.464523	-6.044055	-70.883652
30626		5.495060	-6.007681	-71.225589
30627		5.508396	-5.967516	-71.551518
30628		5.526248	-5.928114	-71.858981
30629		5.550367	-5.887551	-72.150583
30630		5.570978	-5.844685	-72.427155
30631		5.576793	-5.794543	-72.692123
30632		5.562189	-5.738420	-72.944160
30633		5.530050	-5.681543	-73.186329
30634		5.495059	-5.636914	-73.411295
30635		5.458662	-5.601872	-73.613456
30636		5.428278	-5.578198	-73.785362
30637		5.435399	-5.566971	-73.928109
30638		5.476629	-5.568142	-74.036442
30639		5.541546	-5.575676	-74.109058
30640		5.615643	-5.593187	-74.151577
30641		5.690720	-5.616698	-74.164509
30642		5.754864	-5.640883	-74.151684
30643		5.811855	-5.669891	-74.117206
30644		5.871718	-5.701993	-74.058180
30645		5.928586	-5.727373	-73.981032
30646		5.970566	-5.744563	-73.884001
30647		5.986719	-5.756612	-73.773020
30648		5.978737	-5.762238	-73.648061
30649		5.956835	-5.757633	-73.510775
30650		5.923535	-5.749058	-73.362428
30651		5.875863	-5.736502	-73.203254
30652		5.805682	-5.708917	-73.040495
30653		5.722661	-5.677497	-72.877052
30654		5.625749	-5.639907	-72.707843
30655		5.541745	-5.606605	-72.534140
30656		5.454811	-5.574233	-72.352851
30657		5.371822	-5.541816	-72.167467
30658		5.312189	-5.517410	-71.972039
30659		5.286046	-5.498805	-71.768017
30660		5.263710	-5.476039	-71.550999
30661		5.248302	-5.448965	-71.324271
30662		5.224262	-5.424025	-71.086076
30663		5.198720	-5.401116	-70.839232
30664		5.169840	-5.381566	-70.580139
30665		5.162506	-5.363649	-70.310047
30666		5.168728	-5.347488	-70.024624
30667		5.189055	-5.330502	-69.728988
30668		5.216168	-5.313636	-69.419687
30669		5.256010	-5.296306	-69.100436
30670		5.279818	-5.279177	-68.765178
30671		5.277485	-5.260794	-68.418095
30672		5.252342	-5.246545	-68.055070
30673		5.214428	-5.238398	-67.672124
30674		5.163567	-5.229790	-67.273699
30675		5.130743	-5.224989	-66.860364
30676		5.106155	-5.228403	-66.428467
30677		5.105248	-5.226558	-65.982844
30678		5.121871	-5.222552	-65.521903
30679		5.152865	-5.211946	-65.048280
30680		5.171609	-5.192027	-64.561070
30681		5.160463	-5.167370	-64.063723
30682		5.117644	-5.139347	-63.550937
30683		5.065326	-5.115204	-63.026726
30684		5.013628	-5.091590	-62.479899
30685		4.983554	-5.074903	-61.916053
30686		4.978494	-5.061824	-61.335392
30687		5.006417	-5.049587	-60.740094
30688		5.044992	-5.033150	-60.136395
30689		5.084143	-5.015531	-59.527841
30690		5.103684	-4.996866	-58.913427
30691		5.104955	-4.978270	-58.293571
30692		5.071628	-4.969505	-57.664058
30693		5.011366	-4.975361	-57.023387
30694		4.915104	-4.981443	-56.364371
30695		4.834273	-4.985119	-55.683012
30696		4.801772	-4.986719	-54.974887
30697		4.853881	-4.987576	-54.249443
30698		4.999143	-4.991721	-53.511385
30699		5.203765	-5.001330	-52.770576
30700		5.396423	-5.011314	-52.027259
30701		5.554872	-5.025900	-51.281876
30702		5.639251	-5.037772	-50.526421
30703		5.644996	-5.052757	-49.764782
30704		5.576062	-5.072444	-48.994438
30705		5.491736	-5.098162	-48.211119
30706		5.417711	-5.130445	-47.412448
30707		5.371843	-5.166895	-46.598590
30708		5.360017	-5.204085	-45.779877
30709		5.378296	-5.243167	-44.958847
30710		5.388259	-5.287301	-44.138187
30711		5.379642	-5.338146	-43.322295
30712		5.318550	-5.385492	-42.507008
30713		5.211157	-5.429590	-41.694960
30714		5.068501	-5.467342	-40.885510
30715		4.944206	-5.507881	-40.074858
30716		4.858398	-5.552487	-39.257145
30717		4.819967	-5.598173	-38.435688
30718		4.825848	-5.652160	-37.610084
30719		4.879652	-5.714565	-36.781402
30720		4.935700	-5.776224	-35.954200
30721		4.968122	-5.840898	-35.132367
30722		4.945657	-5.897205	-34.311512
30723		4.883999	-5.946087	-33.495123
30724		4.784379	-5.990213	-32.671868
30725		4.693523	-6.037681	-31.836056
30726		4.619504	-6.082208	-30.984557
30727		4.596591	-6.137538	-30.119538
30728		4.620820	-6.201224	-29.245687
30729		4.697242	-6.275332	-28.365351
30730		4.798674	-6.355537	-27.480123
30731		4.891303	-6.432537	-26.599329
30732		4.929746	-6.496926	-25.727906
30733		4.924010	-6.561208	-24.873292
30734		4.886215	-6.618217	-24.030638
30735		4.859018	-6.675637	-23.195067
30736		4.853096	-6.737321	-22.364567
30737		4.875683	-6.805013	-21.535372
30738		4.888062	-6.873927	-20.703490
30739		4.885070	-6.940446	-19.878913
30740		4.843203	-7.004571	-19.065140
30741		4.772991	-7.071530	-18.261428
30742		4.694299	-7.140018	-17.461090
30743		4.639048	-7.209134	-16.666964
30744		4.611856	-7.277117	-15.878058
30745		4.634490	-7.347921	-15.094502
30746		4.670290	-7.415346	-14.319160
30747		4.687339	-7.481384	-13.552864
30748		4.664712	-7.534601	-12.798068
30749		4.608825	-7.580854	-12.056157
30750		4.524607	-7.623378	-11.317424
30751		4.436910	-7.663240	-10.584579
30752		4.346042	-7.699565	-9.856330
30753		4.268006	-7.735811	-9.133754
30754		4.200951	-7.768474	-8.416519
30755		4.149509	-7.800050	-7.709223
30756		4.087130	-7.826160	-7.008323
30757		4.026787	-7.847548	-6.318367
30758		3.963453	-7.862927	-5.634870
30759		3.884606	-7.875325	-4.962600
30760		3.768731	-7.881708	-4.303324
30761		3.639464	-7.884390	-3.654844
30762		3.495279	-7.878882	-3.018304
30763		3.358314	-7.864350	-2.390690
30764		3.243112	-7.849465	-1.773002
30765		3.165605	-7.847182	-1.165726
30766		3.118767	-7.851031	-0.566443
30767		3.093638	-7.859871	0.019917
30768		3.041068	-7.858613	0.594970
30769		2.934913	-7.844208	1.155263
30770		2.770875	-7.827366	1.705841
30771		2.575086	-7.807363	2.250619
30772		2.389631	-7.793930	2.793513
30773		2.254920	-7.796269	3.336871
30774		2.161582	-7.809761	3.881560
30775		2.097161	-7.831232	4.417372
30776		2.044880	-7.857424	4.939593
30777		1.993541	-7.888756	5.450340
30778		1.921971	-7.919274	5.949639
30779		1.817781	-7.949944	6.438500
30780		1.688392	-7.983738	6.920134
30781		1.549786	-8.026440	7.395876
30782		1.403965	-8.066710	7.863972
30783		1.265774	-8.109284	8.322918
30784		1.121773	-8.148524	8.771643
30785		0.964488	-8.179742	9.209508
30786		0.781574	-8.205100	9.639112
30787		0.580710	-8.229641	10.062023
30788		0.360891	-8.259116	10.481084
30789		0.142049	-8.294260	10.891606
30790		-0.065868	-8.332239	11.289439
30791		-0.254662	-8.369133	11.678030
30792		-0.442783	-8.403325	12.057951
30793		-0.630948	-8.437440	12.429937
30794		-0.796581	-8.474182	12.792870
30795		-0.921500	-8.522531	13.153326
30796		-1.034849	-8.567942	13.502722
30797		-1.155037	-8.607388	13.836919
30798		-1.290078	-8.645623	14.158987
30799		-1.417508	-8.686303	14.465181
30800		-1.525539	-8.727510	14.757733
30801		-1.611061	-8.769760	15.034001
30802		-1.661160	-8.807446	15.294607
30803		-1.679407	-8.835293	15.539455
30804		-1.700390	-8.852169	15.766274
30805		-1.738817	-8.858385	15.971049
30806		-1.802845	-8.857121	16.147308
30807		-1.886971	-8.846889	16.298955
30808		-1.988022	-8.830865	16.428351
30809		-2.101727	-8.805658	16.536022
30810		-2.226967	-8.772798	16.621409
30811		-2.353612	-8.738561	16.688564
30812		-2.448939	-8.705381	16.746212
30813		-2.501994	-8.678247	16.799599
30814		-2.511380	-8.656219	16.847070
30815		-2.498540	-8.635027	16.892159
30816		-2.486395	-8.609263	16.929955
30817		-2.495484	-8.582262	16.963006
30818		-2.534653	-8.552768	16.985642
30819		-2.601614	-8.521203	17.005839
30820		-2.687396	-8.492972	17.020116
30821		-2.789963	-8.463861	17.028477
30822		-2.897678	-8.434816	17.031927
30823		-2.991198	-8.411773	17.031551
30824		-3.055376	-8.395514	17.030242
30825		-3.089694	-8.383026	17.027080
30826		-3.105635	-8.371050	17.023509
30827		-3.114010	-8.360015	17.017721
30828		-3.115534	-8.345263	17.006634
30829		-3.107855	-8.333326	16.991821
30830		-3.103425	-8.327725	16.972935
30831		-3.110791	-8.325574	16.948135
30832		-3.121692	-8.318506	16.914989
30833		-3.125051	-8.308831	16.879397
30834		-3.123227	-8.292042	16.837338
30835		-3.124717	-8.269515	16.789291
30836		-3.126786	-8.241408	16.735413
30837		-3.134297	-8.210824	16.677043
30838		-3.142142	-8.185484	16.620745
30839		-3.141391	-8.162832	16.567161
30840		-3.114815	-8.147538	16.515171
30841		-3.063744	-8.135736	16.463837
30842		-3.005624	-8.120128	16.407181
30843		-2.957421	-8.101901	16.343467
30844		-2.916941	-8.077107	16.266091
30845		-2.884860	-8.052331	16.180745
30846		-2.856813	-8.023767	16.088903
30847		-2.826207	-7.994372	15.988170
30848		-2.792424	-7.969324	15.878372
30849		-2.753310	-7.945919	15.756746
30850		-2.698770	-7.918834	15.621138
30851		-2.628026	-7.890801	15.470113
30852		-2.542191	-7.859723	15.302722
30853		-2.463587	-7.821116	15.116962
30854		-2.406328	-7.777730	14.909087
30855		-2.381020	-7.730092	14.685590
30856		-2.375104	-7.683953	14.450024
30857		-2.377785	-7.640214	14.207459
30858		-2.361001	-7.602378	13.955372
30859		-2.313715	-7.565776	13.700486
30860		-2.246337	-7.525280	13.435282
30861		-2.185335	-7.483713	13.159405
30862		-2.141120	-7.440296	12.868239
30863		-2.112019	-7.396658	12.561644
30864		-2.099008	-7.356010	12.238217
30865		-2.091537	-7.313613	11.893130
30866		-2.071508	-7.277290	11.525435
30867		-2.044694	-7.243020	11.140268
30868		-1.999355	-7.205141	10.736524
30869		-1.944088	-7.167267	10.318720
30870		-1.893600	-7.130308	9.880400
30871		-1.857463	-7.087071	9.429204
30872		-1.829477	-7.043570	8.968993
30873		-1.814916	-7.003436	8.504022
30874		-1.792200	-6.970255	8.037937
30875		-1.752379	-6.944458	7.575583
30876		-1.687759	-6.920772	7.107063
30877		-1.616494	-6.890694	6.627560
30878		-1.544977	-6.853805	6.129268
30879		-1.492789	-6.803929	5.606842
30880		-1.458681	-6.745327	5.062191
30881		-1.444524	-6.682863	4.498256
30882		-1.431283	-6.618811	3.920733
30883		-1.410872	-6.560583	3.337852
30884		-1.368130	-6.505190	2.745850
30885		-1.314053	-6.452129	2.154684
30886		-1.234991	-6.400642	1.564085
30887		-1.147773	-6.351548	0.973882
30888		-1.052008	-6.305634	0.380542
30889		-0.951417	-6.260437	-0.218827
30890		-0.827534	-6.220805	-0.828328
30891		-0.691644	-6.185005	-1.447133
30892		-0.546056	-6.146869	-2.079616
30893		-0.397266	-6.103585	-2.728951
30894		-0.245519	-6.059393	-3.393344
30895		-0.115636	-6.010495	-4.075345
30896		-0.000720	-5.962497	-4.768440
30897		0.099149	-5.912667	-5.467959
30898		0.197338	-5.870680	-6.170886
30899		0.296805	-5.833663	-6.871231
30900		0.413374	-5.800721	-7.575827
30901		0.538900	-5.768855	-8.281357
30902		0.678752	-5.737568	-8.995957
30903		0.815190	-5.697568	-9.722458
30904		0.944752	-5.657803	-10.464575
30905		1.046552	-5.619435	-11.219387
30906		1.125122	-5.583349	-11.987161
30907		1.185631	-5.552691	-12.768095
30908		1.250945	-5.525289	-13.555789
30909		1.316873	-5.497136	-14.349420
30910		1.398825	-5.480509	-15.139161
30911		1.497045	-5.467758	-15.925380
30912		1.617388	-5.461109	-16.704061
30913		1.747720	-5.455528	-17.475730
30914		1.886924	-5.461243	-18.244069
30915		2.009112	-5.473710	-19.010014
30916		2.117050	-5.490453	-19.776267
30917		2.213433	-5.515842	-20.545774
30918		2.312973	-5.543438	-21.314494
30919		2.412198	-5.566386	-22.085739
30920		2.521403	-5.587279	-22.860146
30921		2.617349	-5.597772	-23.637425
30922		2.705440	-5.605499	-24.419952
30923		2.785767	-5.610164	-25.205427
30924		2.870578	-5.619221	-25.995696
30925		2.946732	-5.629553	-26.787652
30926		3.037475	-5.653902	-27.575299
30927		3.125484	-5.679871	-28.358582
30928		3.218631	-5.706546	-29.138771
30929		3.308483	-5.733486	-29.911059
30930		3.393670	-5.761880	-30.676782
30931		3.450688	-5.782504	-31.435664
30932		3.472646	-5.801239	-32.190832
30933		3.449431	-5.806335	-32.941032
30934		3.389254	-5.808631	-33.685397
30935		3.284678	-5.797728	-34.422595
30936		3.168816	-5.785196	-35.155813
30937		3.044878	-5.768712	-35.884558
30938		2.934026	-5.743479	-36.612717
30939		2.838695	-5.714925	-37.338086
30940		2.767690	-5.682886	-38.063797
30941		2.699317	-5.653263	-38.786098
30942		2.610470	-5.623988	-39.512104
30943		2.491767	-5.607924	-40.238838
30944		2.350085	-5.604721	-40.967166
30945		2.204877	-5.606414	-41.690760
30946		2.107333	-5.616899	-42.408397
30947		2.066099	-5.634701	-43.117482
30948		2.069884	-5.664080	-43.821487
30949		2.088216	-5.701419	-44.521272
30950		2.113076	-5.747887	-45.222058
30951		2.145852	-5.800950	-45.920802
30952		2.198982	-5.863214	-46.613598
30953		2.255005	-5.925165	-47.300779
30954		2.310452	-5.990781	-47.981509
30955		2.360792	-6.053406	-48.656964
30956		2.432798	-6.114526	-49.330868
30957		2.517868	-6.176175	-50.000401
30958		2.633651	-6.239412	-50.667974
30959		2.770297	-6.298274	-51.330004
30960		2.924988	-6.355433	-51.988643
30961		3.085087	-6.409662	-52.644839
30962		3.248805	-6.468771	-53.294931
30963		3.401800	-6.521344	-53.936040
30964		3.532577	-6.573798	-54.567207
30965		3.621316	-6.620560	-55.188791
30966		3.694593	-6.664716	-55.799148
30967		3.750683	-6.702943	-56.395862
30968		3.795582	-6.737084	-56.981021
30969		3.816869	-6.763542	-57.556655
30970		3.815980	-6.774836	-58.121218
30971		3.771617	-6.775127	-58.678539
30972		3.694476	-6.761100	-59.232149
30973		3.572784	-6.734462	-59.787744
30974		3.422706	-6.704728	-60.343943
30975		3.267195	-6.670477	-60.899059
30976		3.122613	-6.642025	-61.450545
30977		2.995527	-6.615999	-61.996386
30978		2.900807	-6.596674	-62.534166
30979		2.809855	-6.579252	-63.059274
30980		2.723675	-6.562980	-63.576740
30981		2.649266	-6.552162	-64.082970
30982		2.591529	-6.550134	-64.578011
30983		2.559017	-6.554864	-65.063055
30984		2.555044	-6.563457	-65.538918
30985		2.572823	-6.572372	-66.006569
30986		2.608677	-6.585567	-66.468168
30987		2.651258	-6.600074	-66.922937
30988		2.696717	-6.618928	-67.370299
30989		2.739932	-6.636110	-67.803447
30990		2.784668	-6.652572	-68.226816
30991		2.831632	-6.668669	-68.639778
30992		2.889696	-6.690631	-69.037564
30993		2.959721	-6.710512	-69.420587
30994		3.053077	-6.735308	-69.793303
30995		3.170456	-6.759042	-70.154131
30996		3.299138	-6.787208	-70.503341
30997		3.412022	-6.799972	-70.842987
30998		3.496284	-6.802641	-71.172647
30999		3.562722	-6.799410	-71.487413
31000		3.616314	-6.795195	-71.784396
31001		3.658621	-6.786144	-72.066751
31002		3.688831	-6.777266	-72.330988
31003		3.708272	-6.763329	-72.587292
31004		3.715230	-6.749284	-72.829386
31005		3.712206	-6.729726	-73.057203
31006		3.703190	-6.708177	-73.272275
31007		3.682214	-6.681098	-73.474618
31008		3.643774	-6.651167	-73.662987
31009		3.591132	-6.615747	-73.838809
31010		3.532554	-6.578382	-74.003353
31011		3.479552	-6.543583	-74.158146
31012		3.447834	-6.515518	-74.299005
31013		3.440830	-6.489002	-74.423286
31014		3.446698	-6.468300	-74.535003
31015		3.453633	-6.451880	-74.635361
31016		3.458412	-6.437855	-74.723617
31017		3.474618	-6.429624	-74.795722
31018		3.505777	-6.426148	-74.849907
31019		3.553482	-6.426587	-74.879906
31020		3.610594	-6.428958	-74.889378
31021		3.673994	-6.428204	-74.883147
31022		3.729860	-6.422772	-74.867336
31023		3.772613	-6.413326	-74.839246
31024		3.802230	-6.399511	-74.801016
31025		3.833561	-6.383561	-74.751235
31026		3.850616	-6.362288	-74.690391
31027		3.850775	-6.335708	-74.618932
31028		3.839980	-6.309383	-74.536745
31029		3.830936	-6.283680	-74.441757
31030		3.823056	-6.256655	-74.327595
31031		3.824537	-6.227032	-74.196260
31032		3.829993	-6.198179	-74.047730
31033		3.830314	-6.169599	-73.880839
31034		3.815362	-6.138876	-73.698267
31035		3.798006	-6.107448	-73.494564
31036		3.784757	-6.084285	-73.271998
31037		3.779758	-6.061979	-73.027326
31038		3.770553	-6.043877	-72.765670
31039		3.771696	-6.037392	-72.490555
31040		3.786861	-6.032496	-72.200304
31041		3.818914	-6.023987	-71.901201
31042		3.852311	-6.007018	-71.595487
31043		3.867595	-5.982485	-71.283545
31044		3.859750	-5.951979	-70.968313
31045		3.815586	-5.917998	-70.645715
31046		3.732758	-5.878345	-70.317192
31047		3.638777	-5.835140	-69.976868
31048		3.528057	-5.788700	-69.624940
31049		3.423254	-5.743365	-69.268337
31050		3.336641	-5.698056	-68.907121
31051		3.279596	-5.646961	-68.545286
31052		3.238525	-5.597629	-68.184995
31053		3.214937	-5.543219	-67.823405
31054		3.200549	-5.490805	-67.457221
31055		3.194625	-5.440059	-67.084010
31056		3.187984	-5.398189	-66.693688
31057		3.184429	-5.363337	-66.281305
31058		3.176282	-5.337757	-65.839535
31059		3.179241	-5.318849	-65.370459
31060		3.192971	-5.304077	-64.865400
31061		3.229245	-5.297141	-64.323723
31062		3.261748	-5.293898	-63.745908
31063		3.302018	-5.297598	-63.132495
31064		3.345409	-5.311698	-62.485000
31065		3.399052	-5.330095	-61.803111
31066		3.451368	-5.348363	-61.091236
31067		3.506715	-5.364219	-60.349926
31068		3.566526	-5.382228	-59.580140
31069		3.635579	-5.400861	-58.783152
31070		3.700886	-5.420939	-57.960805
31071		3.764690	-5.435338	-57.118265
31072		3.808114	-5.445104	-56.258420
31073		3.858600	-5.455770	-55.386312
31074		3.920267	-5.461084	-54.501032
31075		4.000214	-5.464688	-53.601796
31076		4.071321	-5.459898	-52.696265
31077		4.126363	-5.447481	-51.784729
31078		4.137967	-5.433887	-50.875092
31079		4.128618	-5.423125	-49.964328
31080		4.090310	-5.417082	-49.055341
31081		4.045201	-5.413134	-48.142832
31082		4.009284	-5.407519	-47.221764
31083		4.023662	-5.403976	-46.289388
31084		4.040047	-5.401639	-45.351556
31085		4.049425	-5.400079	-44.413919
31086		4.051624	-5.398860	-43.477568
31087		4.058843	-5.406512	-42.542353
31088		4.057372	-5.415920	-41.607417
31089		4.053618	-5.427542	-40.670796
31090		4.028495	-5.439962	-39.731543
31091		3.994182	-5.451442	-38.790940
31092		3.973351	-5.476503	-37.847741
31093		3.998157	-5.507724	-36.900598
31094		4.066438	-5.548644	-35.944707
31095		4.177507	-5.607662	-34.977884
31096		4.296636	-5.673265	-33.998454
31097		4.408038	-5.747605	-33.011622
31098		4.476305	-5.822934	-32.020295
31099		4.514370	-5.897773	-31.024550
31100		4.520855	-5.970853	-30.023834
31101		4.519774	-6.047095	-29.015224
31102		4.514704	-6.114167	-28.003016
31103		4.513194	-6.180688	-26.986707
31104		4.500579	-6.245673	-25.966719
31105		4.493368	-6.313366	-24.948530
31106		4.491260	-6.376546	-23.936427
31107		4.519848	-6.442963	-22.931445
31108		4.569788	-6.504709	-21.930244
31109		4.629480	-6.556352	-20.940689
31110		4.659919	-6.593803	-19.958245
31111		4.655420	-6.617540	-18.991367
31112		4.605567	-6.636589	-18.034778
31113		4.528754	-6.649145	-17.085265
31114		4.429752	-6.649686	-16.147104
31115		4.352133	-6.653679	-15.219760
31116		4.295184	-6.661391	-14.301887
31117		4.255513	-6.664134	-13.394478
31118		4.198404	-6.660494	-12.495126
31119		4.134053	-6.650151	-11.602369
31120		4.053179	-6.628900	-10.713656
31121		3.964351	-6.609064	-9.829359
31122		3.862185	-6.586479	-8.952619
31123		3.760326	-6.564878	-8.081977
31124		3.648766	-6.544558	-7.220195
31125		3.545357	-6.529973	-6.368918
31126		3.442272	-6.512860	-5.525243
31127		3.342328	-6.498611	-4.688777
31128		3.233180	-6.480651	-3.860747
31129		3.116553	-6.462802	-3.042138
31130		2.969441	-6.440603	-2.232358
31131		2.822440	-6.427257	-1.441881
31132		2.693672	-6.422358	-0.661278
31133		2.603691	-6.422087	0.110272
31134		2.534364	-6.432580	0.870816
31135		2.486512	-6.451010	1.624811
31136		2.432323	-6.465400	2.368431
31137		2.351803	-6.473062	3.103383
31138		2.246151	-6.470296	3.821713
31139		2.149151	-6.470013	4.525718
31140		2.068440	-6.469251	5.215769
31141		2.000214	-6.466270	5.896263
31142		1.933311	-6.459443	6.559554
31143		1.881673	-6.459093	7.205522
31144		1.845721	-6.459256	7.835956
31145		1.825683	-6.461960	8.448133
31146		1.808072	-6.463830	9.045766
31147		1.799007	-6.459171	9.627287
31148		1.791227	-6.448440	10.196113
31149		1.797201	-6.440751	10.750155
31150		1.791812	-6.432489	11.283756
31151		1.763526	-6.426393	11.801220
31152		1.713000	-6.422394	12.300711
31153		1.654456	-6.425712	12.783328
31154		1.589724	-6.429665	13.252838
31155		1.525422	-6.438027	13.712829
31156		1.444164	-6.452956	14.165884
31157		1.352771	-6.474392	14.605372
31158		1.268542	-6.504109	15.036437
31159		1.202331	-6.542163	15.455103
31160		1.160169	-6.590850	15.859576
31161		1.145875	-6.650511	16.250291
31162		1.155190	-6.716468	16.622593
31163		1.169336	-6.787950	16.974297
31164		1.178533	-6.860417	17.298725
31165		1.173265	-6.935294	17.593634
31166		1.154888	-7.000628	17.868036
31167		1.119937	-7.062950	18.122352
31168		1.069204	-7.119184	18.354785
31169		1.017657	-7.176224	18.567445
31170		0.973078	-7.234733	18.763506
31171		0.942198	-7.289922	18.943276
31172		0.916966	-7.343834	19.103215
31173		0.892922	-7.391848	19.251171
31174		0.862793	-7.435635	19.380819
31175		0.830148	-7.477720	19.494763
31176		0.796475	-7.517715	19.593393
31177		0.761670	-7.558241	19.679007
31178		0.736668	-7.599267	19.749193
31179		0.736174	-7.639935	19.811646
31180		0.752483	-7.674470	19.867317
31181		0.776162	-7.700293	19.916369
31182		0.792139	-7.723554	19.958759
31183		0.798687	-7.747355	19.993123
31184		0.795018	-7.769611	20.017640
31185		0.782156	-7.787591	20.036991
31186		0.765805	-7.804020	20.051346
31187		0.761915	-7.821439	20.065906
31188		0.777696	-7.840605	20.081255
31189		0.801467	-7.859422	20.097310
31190		0.825041	-7.877291	20.117047
31191		0.838708	-7.888459	20.133333
31192		0.838730	-7.894087	20.145033
31193		0.830398	-7.900386	20.150927
31194		0.813912	-7.903974	20.150884
31195		0.787059	-7.902499	20.139334
31196		0.763660	-7.901589	20.118828
31197		0.749018	-7.901025	20.096180
31198		0.737217	-7.899145	20.062666
31199		0.734773	-7.897583	20.022121
31200		0.744066	-7.894924	19.974265
31201		0.767986	-7.891410	19.920018
31202		0.806265	-7.886215	19.858033
31203		0.838183	-7.878267	19.788822
31204		0.850762	-7.866851	19.712014
31205		0.838325	-7.850003	19.621089
31206		0.806140	-7.831802	19.518632
31207		0.765862	-7.809418	19.406865
31208		0.737107	-7.791106	19.287584
31209		0.733200	-7.780801	19.165779
31210		0.767675	-7.776195	19.037842
31211		0.827904	-7.769074	18.898352
31212		0.884117	-7.753607	18.744600
31213		0.910565	-7.728875	18.573994
31214		0.918067	-7.705636	18.383437
31215		0.914443	-7.680036	18.185122
31216		0.907172	-7.655649	17.977434
31217		0.904161	-7.635911	17.762968
31218		0.918053	-7.617309	17.543749
31219		0.937506	-7.599514	17.315567
31220		0.950028	-7.581641	17.082798
31221		0.964203	-7.565989	16.844051
31222		0.993773	-7.558936	16.596269
31223		1.019191	-7.556436	16.345175
31224		1.049845	-7.560645	16.082899
31225		1.071310	-7.564201	15.808993
31226		1.084369	-7.565097	15.519016
31227		1.092678	-7.563682	15.217272
31228		1.107441	-7.562556	14.908846
31229		1.129692	-7.564030	14.591762
31230		1.166732	-7.571869	14.266892
31231		1.212881	-7.585341	13.932900
31232		1.263281	-7.597347	13.582577
31233		1.303186	-7.598203	13.213154
31234		1.336544	-7.585223	12.821794
31235		1.355013	-7.556431	12.413084
31236		1.359192	-7.524412	11.987143
31237		1.352163	-7.493432	11.553644
31238		1.340356	-7.466017	11.114919
31239		1.323263	-7.443654	10.669823
31240		1.312103	-7.427982	10.224226
31241		1.322324	-7.410726	9.777099
31242		1.373725	-7.402924	9.328215
31243		1.454111	-7.395687	8.879452
31244		1.532529	-7.392301	8.424562
31245		1.581723	-7.384207	7.961243
31246		1.600647	-7.371674	7.480331
31247		1.586537	-7.350128	6.977816
31248		1.561879	-7.321961	6.457262
31249		1.530020	-7.285327	5.918373
31250		1.504937	-7.247960	5.366063
31251		1.469450	-7.209403	4.804167
31252		1.443985	-7.177024	4.235964
31253		1.440263	-7.154010	3.661764
31254		1.473160	-7.140340	3.089636
31255		1.533125	-7.135164	2.516525
31256		1.620135	-7.138644	1.939948
31257		1.713978	-7.140718	1.359324
31258		1.798308	-7.146053	0.767520
31259		1.861187	-7.145976	0.163706
31260		1.908988	-7.147785	-0.448480
31261		1.942976	-7.140807	-1.069909
31262		1.975453	-7.133653	-1.703130
31263		2.008496	-7.114947	-2.345595
31264		2.054548	-7.093159	-2.996821
31265		2.106190	-7.068723	-3.652643
31266		2.168324	-7.047843	-4.314308
31267		2.237481	-7.027577	-4.979886
31268		2.322297	-7.012505	-5.643292
31269		2.418234	-6.994249	-6.311390
31270		2.533916	-6.975295	-6.982292
31271		2.646773	-6.955251	-7.657102
31272		2.765232	-6.939160	-8.335501
31273		2.889535	-6.921697	-9.013871
31274		3.017414	-6.908833	-9.691374
31275		3.130964	-6.891125	-10.368623
31276		3.240295	-6.873888	-11.041092
31277		3.340760	-6.851697	-11.717940
31278		3.447786	-6.832782	-12.392523
31279		3.561633	-6.812880	-13.069170
31280		3.693842	-6.793738	-13.749928
31281		3.839020	-6.766272	-14.434940
31282		3.997760	-6.731649	-15.127029
31283		4.149114	-6.686722	-15.827027
31284		4.291561	-6.638569	-16.537570
31285		4.398515	-6.584328	-17.252798
31286		4.463598	-6.527610	-17.976106
31287		4.493755	-6.473225	-18.701088
31288		4.518768	-6.425900	-19.420344
31289		4.544605	-6.383575	-20.129034
31290		4.583862	-6.349354	-20.826560
31291		4.632575	-6.313106	-21.512565
31292		4.701599	-6.282506	-22.189776
31293		4.764836	-6.252537	-22.858714
31294		4.825388	-6.232915	-23.522127
31295		4.862264	-6.220049	-24.181703
31296		4.875961	-6.221338	-24.836707
31297		4.867513	-6.230742	-25.483162
31298		4.858853	-6.249658	-26.123233
31299		4.865453	-6.267144	-26.763517
31300		4.896126	-6.286294	-27.406589
31301		4.940546	-6.310907	-28.055451
31302		4.996510	-6.337017	-28.711962
31303		5.048047	-6.361162	-29.380978
31304		5.098320	-6.387048	-30.059681
31305		5.135996	-6.409269	-30.749164
31306		5.168242	-6.428346	-31.450982
31307		5.198698	-6.442717	-32.156232
31308		5.244683	-6.463227	-32.868503
31309		5.295653	-6.486651	-33.576150
31310		5.342682	-6.508834	-34.285330
31311		5.371279	-6.532377	-34.994466
31312		5.387236	-6.559764	-35.703888
31313		5.399924	-6.594577	-36.414590
31314		5.430631	-6.641236	-37.125683
31315		5.483320	-6.693277	-37.836888
31316		5.573124	-6.754343	-38.549206
31317		5.673090	-6.805545	-39.263177
31318		5.773445	-6.845798	-39.974960
31319		5.856447	-6.881409	-40.689409
31320		5.931682	-6.920890	-41.405309
31321		5.994024	-6.958484	-42.115284
31322		6.059628	-7.000454	-42.820874
31323		6.132936	-7.044926	-43.513483
31324		6.215591	-7.093426	-44.191380
31325		6.300124	-7.136904	-44.854012
31326		6.389878	-7.186323	-45.509007
31327		6.474804	-7.235461	-46.151791
31328		6.555047	-7.281137	-46.788587
31329		6.608493	-7.317743	-47.421035
31330		6.623442	-7.350891	-48.052172
31331		6.594919	-7.372467	-48.680221
31332		6.548212	-7.388317	-49.305044
31333		6.494453	-7.399957	-49.920615
31334		6.468403	-7.416895	-50.523647
31335		6.478542	-7.437852	-51.117517
31336		6.526552	-7.463159	-51.702005
31337		6.594137	-7.485953	-52.284238
31338		6.676507	-7.508816	-52.870496
31339		6.768453	-7.535224	-53.460090
31340		6.878666	-7.563409	-54.056723
31341		7.005748	-7.600889	-54.655249
31342		7.168135	-7.643122	-55.254204
31343		7.357665	-7.686594	-55.848903
31344		7.576699	-7.739001	-56.437805
31345		7.803262	-7.791068	-57.018394
31346		8.025942	-7.844936	-57.596138
31347		8.230952	-7.900088	-58.169581
31348		8.413038	-7.957401	-58.743220
31349		8.550913	-8.008787	-59.315957
31350		8.639613	-8.069388	-59.895005
31351		8.666976	-8.128715	-60.475951
31352		8.637916	-8.180208	-61.058982
31353		8.564513	-8.221993	-61.643527
31354		8.457122	-8.256192	-62.225064
31355		8.310656	-8.270233	-62.805983
31356		8.124705	-8.269800	-63.381305
31357		7.896716	-8.256720	-63.953247
31358		7.605890	-8.230906	-64.520703
31359		7.262154	-8.192524	-65.083616
31360		6.888172	-8.152425	-65.639775
31361		6.514886	-8.116700	-66.180885
31362		6.184315	-8.084201	-66.699025
31363		5.949848	-8.056634	-67.194309
31364		5.841637	-8.032675	-67.658613
31365		5.838048	-8.021160	-68.098586
31366		5.877766	-8.012329	-68.520276
31367		5.900478	-7.999803	-68.931714
31368		5.899386	-7.990986	-69.336056
31369		5.858818	-7.979510	-69.728583
31370		5.782060	-7.964536	-70.108204
31371		5.687936	-7.942848	-70.474722
31372		5.615730	-7.920625	-70.828964
31373		5.577257	-7.898651	-71.165524
31374		5.578509	-7.875922	-71.487990
31375		5.588683	-7.849001	-71.797634
31376		5.611166	-7.819906	-72.101558
31377		5.635204	-7.782377	-72.394746
31378		5.646338	-7.736240	-72.680899
31379		5.647993	-7.683861	-72.964513
31380		5.658014	-7.631832	-73.237217
31381		5.676819	-7.575175	-73.498444
31382		5.707257	-7.518787	-73.745608
31383		5.777690	-7.465471	-73.976840
31384		5.888177	-7.416181	-74.185450
31385		6.034249	-7.363111	-74.375373
31386		6.196486	-7.312288	-74.547758
31387		6.368108	-7.265939	-74.706680
31388		6.518987	-7.213803	-74.845493
31389		6.627454	-7.154067	-74.969399
31390		6.690167	-7.090730	-75.081167
31391		6.708942	-7.023675	-75.176804
31392		6.708114	-6.954718	-75.255081
31393		6.714718	-6.887858	-75.314253
31394		6.730614	-6.826753	-75.356239
31395		6.762441	-6.769979	-75.382324
31396		6.807537	-6.719214	-75.394019
31397		6.870604	-6.672959	-75.394093
31398		6.934483	-6.630513	-75.382865
31399		6.997248	-6.589543	-75.364244
31400		7.068406	-6.550933	-75.339058
31401		7.149846	-6.513588	-75.304884
31402		7.230598	-6.475456	-75.261380
31403		7.310281	-6.444733	-75.211535
31404		7.396239	-6.417883	-75.148301
31405		7.491487	-6.398562	-75.071730
31406		7.579582	-6.377006	-74.981806
31407		7.642057	-6.359354	-74.884165
31408		7.669927	-6.340592	-74.779458
31409		7.673669	-6.321208	-74.668967
31410		7.672604	-6.302004	-74.546524
31411		7.676899	-6.287877	-74.415578
31412		7.677457	-6.270605	-74.270015
31413		7.685705	-6.249213	-74.116282
31414		7.700465	-6.224958	-73.951306
31415		7.717684	-6.199633	-73.777942
31416		7.715579	-6.175362	-73.595639
31417		7.699060	-6.153178	-73.403754
31418		7.673081	-6.130423	-73.198251
31419		7.628959	-6.110843	-72.979200
31420		7.561834	-6.087662	-72.749475
31421		7.480110	-6.061803	-72.501793
31422		7.402360	-6.041214	-72.238389
31423		7.333265	-6.023284	-71.961358
31424		7.267175	-6.002306	-71.668991
31425		7.200835	-5.984720	-71.365124
31426		7.126275	-5.966899	-71.051109
31427		7.046975	-5.947243	-70.727490
31428		6.966983	-5.923563	-70.390937
31429		6.895893	-5.901096	-70.037074
31430		6.838650	-5.878010	-69.664110
31431		6.808061	-5.858459	-69.265442
31432		6.783522	-5.836829	-68.839196
31433		6.757301	-5.819018	-68.389333
31434		6.708148	-5.797305	-67.915122
31435		6.654964	-5.775699	-67.416295
31436		6.581420	-5.760704	-66.890315
31437		6.497491	-5.750095	-66.337200
31438		6.401699	-5.745594	-65.758992
31439		6.324975	-5.747185	-65.157921
31440		6.258891	-5.751788	-64.534296
31441		6.201318	-5.755248	-63.892834
31442		6.137980	-5.753051	-63.240121
31443		6.075689	-5.749213	-62.581333
31444		6.004569	-5.745857	-61.916467
31445		5.919747	-5.736775	-61.246230
31446		5.814529	-5.729185	-60.566957
31447		5.716092	-5.722221	-59.879872
31448		5.615246	-5.713151	-59.183469
31449		5.535481	-5.710624	-58.476931
31450		5.471131	-5.714479	-57.758780
31451		5.438590	-5.724281	-57.028075
31452		5.412073	-5.731402	-56.289097
31453		5.394383	-5.741151	-55.544832
31454		5.366977	-5.759256	-54.794912
31455		5.329453	-5.778668	-54.039837
31456		5.271239	-5.792948	-53.281349
31457		5.218050	-5.810060	-52.520741
31458		5.175811	-5.823740	-51.758028
31459		5.170679	-5.840950	-50.995138
31460		5.185769	-5.859492	-50.229395
31461		5.228148	-5.882240	-49.458380
31462		5.283139	-5.905937	-48.684263
31463		5.336871	-5.936282	-47.909694
31464		5.369770	-5.970535	-47.135355
31465		5.385417	-6.010185	-46.360076
31466		5.386947	-6.051075	-45.582620
31467		5.409487	-6.100847	-44.800236
31468		5.452734	-6.156661	-44.010357
31469		5.525235	-6.216212	-43.213434
31470		5.605190	-6.279234	-42.410924
31471		5.690312	-6.347905	-41.603225
31472		5.767896	-6.416749	-40.787883
31473		5.833506	-6.491259	-39.969891
31474		5.875262	-6.564115	-39.144380
31475		5.925443	-6.643695	-38.307239
31476		5.991115	-6.712622	-37.455157
31477		6.074887	-6.778565	-36.593249
31478		6.132824	-6.847004	-35.730040
31479		6.184799	-6.919014	-34.870665
31480		6.216365	-6.985768	-34.014118
31481		6.221828	-7.045314	-33.164260
31482		6.188036	-7.094913	-32.318768
31483		6.127885	-7.131847	-31.477183
31484		6.039196	-7.165742	-30.635986
31485		5.945660	-7.197348	-29.793634
31486		5.856552	-7.231503	-28.945666
31487		5.793131	-7.274664	-28.090445
31488		5.749147	-7.320604	-27.229383
31489		5.744070	-7.374076	-26.362259
31490		5.757134	-7.425844	-25.490707
31491		5.768478	-7.481692	-24.616781
31492		5.758125	-7.538630	-23.740303
31493		5.735336	-7.588400	-22.871426
31494		5.687325	-7.639847	-22.003959
31495		5.635895	-7.693759	-21.135521
31496		5.584040	-7.746065	-20.265779
31497		5.541596	-7.802562	-19.396120
31498		5.495283	-7.864979	-18.523774
31499		5.451264	-7.930222	-17.658428
31500		5.408336	-8.003637	-16.795181
31501		5.376627	-8.076959	-15.940089
31502		5.342860	-8.141458	-15.094259
31503		5.303429	-8.207225	-14.256212
31504		5.241445	-8.269141	-13.424767
31505		5.175736	-8.326086	-12.604168
31506		5.099429	-8.377868	-11.794218
31507		5.031127	-8.431530	-10.996988
31508		4.969527	-8.478604	-10.204643
31509		4.913138	-8.525052	-9.425663
31510		4.846039	-8.567165	-8.650815
31511		4.763888	-8.609130	-7.888208
31512		4.653289	-8.653681	-7.137012
31513		4.548256	-8.711636	-6.395344
31514		4.437792	-8.784073	-5.663386
31515		4.320483	-8.862108	-4.935811
31516		4.186738	-8.942863	-4.211878
31517		4.038841	-9.022813	-3.494181
31518		3.864585	-9.106517	-2.784692
31519		3.696138	-9.197526	-2.079054
31520		3.560463	-9.300580	-1.375629
31521		3.471651	-9.410188	-0.674364
31522		3.411011	-9.526215	0.022151
31523		3.416149	-9.628511	0.712761
31524		3.455554	-9.736391	1.399254
31525		3.513014	-9.842454	2.072683
31526		3.527929	-9.948229	2.734501
31527		3.493770	-10.055641	3.378268
31528		3.393066	-10.164517	4.001710
31529		3.257144	-10.273092	4.607061
31530		3.110313	-10.382323	5.208235
31531		2.989491	-10.481894	5.800922
31532		2.895637	-10.564411	6.387381
31533		2.811320	-10.619194	6.968450
31534		2.717373	-10.646898	7.543606
31535		2.595502	-10.664706	8.098851
31536		2.425066	-10.682514	8.636337
31537		2.226493	-10.706746	9.157552
31538		2.007538	-10.738695	9.667033
31539		1.804723	-10.767471	10.155601
31540		1.618638	-10.794159	10.632012
31541		1.438519	-10.807753	11.092860
31542		1.258822	-10.810682	11.532770
31543		1.066140	-10.808922	11.962107
31544		0.856080	-10.809299	12.376941
31545		0.634151	-10.813214	12.779193
31546		0.426917	-10.818220	13.169858
31547		0.247273	-10.834003	13.555218
31548		0.092871	-10.848075	13.931096
31549		-0.027737	-10.860372	14.294916
31550		-0.102104	-10.877448	14.645348
31551		-0.136194	-10.887485	14.977255
31552		-0.184937	-10.885587	15.290407
31553		-0.290150	-10.862817	15.574779
31554		-0.462475	-10.832191	15.830561
31555		-0.654042	-10.798413	16.063618
31556		-0.830356	-10.772035	16.272524
31557		-0.950267	-10.751108	16.466340
31558		-1.020842	-10.731962	16.650249
31559		-1.063443	-10.708466	16.816753
31560		-1.101023	-10.682155	16.966059
31561		-1.147221	-10.651895	17.099868
31562		-1.210983	-10.619925	17.218363
31563		-1.283577	-10.587476	17.321630
31564		-1.371090	-10.555740	17.414426
31565		-1.455102	-10.517383	17.495169
31566		-1.528927	-10.477856	17.566738
31567		-1.575989	-10.441170	17.631067
31568		-1.594678	-10.409855	17.688178
31569		-1.605759	-10.376224	17.738171
31570		-1.627696	-10.340243	17.775509
31571		-1.662910	-10.303856	17.805387
31572		-1.704618	-10.266117	17.831364
31573		-1.743438	-10.231768	17.851319
31574		-1.775762	-10.203163	17.873880
31575		-1.801343	-10.178237	17.895724
31576		-1.821334	-10.153130	17.914434
31577		-1.837982	-10.125688	17.932239
31578		-1.850980	-10.101065	17.944236
31579		-1.861672	-10.078071	17.955476
31580		-1.868800	-10.058688	17.961524
31581		-1.862260	-10.044162	17.962303
31582		-1.841958	-10.033225	17.960833
31583		-1.807346	-10.020665	17.958563
31584		-1.769526	-10.005830	17.953944
31585		-1.745296	-9.988361	17.944338
31586		-1.737904	-9.963887	17.930701
31587		-1.757211	-9.932945	17.915097
31588		-1.791226	-9.906322	17.891306
31589		-1.822761	-9.878952	17.864944
31590		-1.840502	-9.858734	17.836591
31591		-1.849855	-9.836159	17.804927
31592		-1.843315	-9.817010	17.773355
31593		-1.839561	-9.799713	17.741356
31594		-1.839729	-9.786048	17.712132
31595		-1.843641	-9.773217	17.679660
31596		-1.850065	-9.763444	17.653018
31597		-1.858465	-9.759338	17.626959
31598		-1.862431	-9.758780	17.600071
31599		-1.853827	-9.762098	17.570867
31600		-1.839181	-9.765354	17.539981
31601		-1.829036	-9.767075	17.507508
31602		-1.827204	-9.767502	17.472348
31603		-1.825787	-9.766996	17.431554
31604		-1.812442	-9.773337	17.391546
31605		-1.764952	-9.788042	17.350378
31606		-1.690504	-9.803385	17.307626
31607		-1.604080	-9.815033	17.262709
31608		-1.522850	-9.821677	17.212161
31609		-1.461759	-9.820257	17.153920
31610		-1.432475	-9.810281	17.084133
31611		-1.436997	-9.789964	17.003765
31612		-1.452378	-9.766359	16.903447
31613		-1.459104	-9.742304	16.791006
31614		-1.446594	-9.721686	16.665093
31615		-1.410901	-9.702766	16.526510
31616		-1.355056	-9.685451	16.376115
31617		-1.293897	-9.663769	16.208819
31618		-1.240602	-9.636010	16.021903
31619		-1.191216	-9.602660	15.814611
31620		-1.155510	-9.566168	15.583823
31621		-1.134159	-9.527561	15.339239
31622		-1.110085	-9.488432	15.081370
31623		-1.081608	-9.456977	14.811258
31624		-1.042198	-9.431218	14.525342
31625		-1.000993	-9.409209	14.225237
31626		-0.954064	-9.392157	13.908089
31627		-0.916331	-9.378994	13.578638
31628		-0.877829	-9.367342	13.234221
31629		-0.853878	-9.356134	12.879653
31630		-0.835775	-9.346097	12.510927
31631		-0.832657	-9.337336	12.129597
31632		-0.826480	-9.330748	11.733015
31633		-0.829961	-9.321551	11.321021
31634		-0.839914	-9.311423	10.891755
31635		-0.853716	-9.294599	10.448701
31636		-0.861821	-9.275612	9.984875
31637		-0.869015	-9.257675	9.505531
31638		-0.857291	-9.244530	9.011064
31639		-0.829366	-9.232423	8.502821
31640		-0.778643	-9.227273	7.986603
31641		-0.724971	-9.219904	7.461084
31642		-0.658442	-9.209184	6.926670
31643		-0.591717	-9.186311	6.380405
31644		-0.538082	-9.155582	5.825268
31645		-0.507592	-9.117318	5.251714
31646		-0.493477	-9.072039	4.665638
31647		-0.494746	-9.022908	4.064765
31648		-0.490753	-8.975803	3.447361
31649		-0.477099	-8.926847	2.817184
31650		-0.438241	-8.873976	2.171312
31651		-0.380228	-8.818867	1.512454
31652		-0.291606	-8.762117	0.839813
31653		-0.203674	-8.700195	0.156673
31654		-0.117522	-8.636837	-0.537840
31655		-0.046616	-8.574546	-1.243225
31656		0.024585	-8.518883	-1.961605
31657		0.107196	-8.455615	-2.689151
31658		0.211167	-8.391605	-3.430828
31659		0.321482	-8.325389	-4.180908
31660		0.431098	-8.259434	-4.939686
31661		0.530893	-8.192572	-5.705558
31662		0.624752	-8.129043	-6.476537
31663		0.718732	-8.071200	-7.252337
31664		0.841121	-8.024171	-8.031433
31665		0.982837	-7.981768	-8.812268
31666		1.154096	-7.944784	-9.599035
31667		1.336351	-7.905397	-10.387041
31668		1.525386	-7.863344	-11.178807
31669		1.692989	-7.818214	-11.975870
31670		1.844839	-7.767921	-12.775407
31671		1.958888	-7.713618	-13.581557
31672		2.051168	-7.655036	-14.394810
31673		2.131444	-7.594912	-15.209744
31674		2.223084	-7.533834	-16.029034
31675		2.310866	-7.468152	-16.846475
31676		2.394248	-7.395639	-17.667710
31677		2.464717	-7.310122	-18.491563
31678		2.504867	-7.214002	-19.321299
31679		2.502229	-7.102375	-20.154227
31680		2.466286	-6.979935	-20.990634
31681		2.380222	-6.835766	-21.826917
31682		2.258891	-6.673816	-22.665915
31683		2.095717	-6.495287	-23.510884
31684		1.912222	-6.304415	-24.360690
31685		1.739441	-6.111386	-25.218050
31686		1.629252	-5.930194	-26.081480
31687		1.591758	-5.759116	-26.946773
31688		1.625908	-5.599001	-27.819872
31689		1.709078	-5.434684	-28.703714
31690		1.834110	-5.272932	-29.594735
31691		1.985957	-5.106949	-30.494482
31692		2.183638	-4.947432	-31.391847
31693		2.388748	-4.791175	-32.290710
31694		2.597063	-4.648621	-33.186799
31695		2.797755	-4.511695	-34.081947
31696		3.003870	-4.385912	-34.973970
31697		3.191029	-4.271261	-35.863845
31698		3.354283	-4.155865	-36.752701
31699		3.467829	-4.039053	-37.640457
31700		3.552331	-3.932333	-38.528466
31701		3.600040	-3.825520	-39.416558
31702		3.635002	-3.734303	-40.300999
31703		3.678881	-3.656964	-41.178049
31704		3.763969	-3.601798	-42.044023
31705		3.871691	-3.559786	-42.896431
31706		3.984553	-3.520559	-43.738709
31707		4.067985	-3.474730	-44.576549
31708		4.118510	-3.438306	-45.411823
31709		4.128396	-3.399288	-46.247094
31710		4.130687	-3.374386	-47.076717
31711		4.138256	-3.359950	-47.899771
31712		4.176892	-3.355315	-48.710678
31713		4.233315	-3.351577	-49.513676
31714		4.310466	-3.355841	-50.313686
31715		4.397750	-3.363932	-51.109302
31716		4.489456	-3.375918	-51.903155
31717		4.576345	-3.383915	-52.697897
31718		4.654253	-3.386742	-53.489876
31719		4.730433	-3.379500	-54.278526
31720		4.807197	-3.351623	-55.061893
31721		4.838690	-3.294204	-55.841728
31722		4.816288	-3.213709	-56.625610
31723		4.770353	-3.120860	-57.405866
31724		4.724671	-3.028213	-58.183787
31725		4.705900	-2.946409	-58.949058
31726		4.710475	-2.871169	-59.697496
31727		4.729118	-2.790853	-60.430626
31728		4.767966	-2.708529	-61.154143
31729		4.835325	-2.615803	-61.861834
31730		4.918984	-2.502128	-62.548245
31731		4.969622	-2.373338	-63.222583
31732		4.964643	-2.255208	-63.887212
31733		4.895572	-2.138535	-64.544535
31734		4.813648	-2.034296	-65.190198
31735		4.775451	-1.948560	-65.820362
31736		4.814613	-1.881423	-66.427516
31737		4.912804	-1.816655	-67.015062
31738		5.053081	-1.754753	-67.586697
31739		5.184222	-1.684465	-68.143519
31740		5.259049	-1.594016	-68.687375
31741		5.251734	-1.495170	-69.227526
31742		5.208816	-1.410236	-69.754032
31743		5.165739	-1.335322	-70.256505
31744		5.141664	-1.276732	-70.735199
31745		5.164325	-1.234810	-71.184782
31746		5.230023	-1.201954	-71.602741
31747		5.321712	-1.166269	-71.992752
31748		5.396262	-1.130459	-72.362838
31749		5.435676	-1.085235	-72.714674
31750		5.448627	-1.044349	-73.048990
31751		5.444889	-1.016893	-73.365378
31752		5.424377	-0.985994	-73.657364
31753		5.397139	-0.942671	-73.926251
31754		5.371376	-0.898487	-74.170691
31755		5.353757	-0.855100	-74.390931
31756		5.339261	-0.823269	-74.584212
31757		5.349222	-0.802906	-74.753458
31758		5.371304	-0.789828	-74.899494
31759		5.386452	-0.775178	-75.028652
31760		5.369380	-0.755909	-75.139269
31761		5.319775	-0.728320	-75.237645
31762		5.253697	-0.699241	-75.322874
31763		5.184512	-0.668285	-75.394384
31764		5.121781	-0.647292	-75.452693
31765		5.084009	-0.628743	-75.498010
31766		5.061609	-0.615311	-75.533093
31767		5.063574	-0.595377	-75.557616
31768		5.069825	-0.570643	-75.572042
31769		5.073513	-0.539753	-75.577638
31770		5.073439	-0.507424	-75.574156
31771		5.082535	-0.473522	-75.556788
31772		5.105719	-0.448970	-75.527414
31773		5.126781	-0.425338	-75.484554
31774		5.141372	-0.404421	-75.428000
31775		5.147388	-0.388644	-75.362523
31776		5.140957	-0.374841	-75.286337
31777		5.124377	-0.358990	-75.202999
31778		5.103397	-0.345153	-75.113463
31779		5.079029	-0.323387	-75.017289
31780		5.057734	-0.297094	-74.910297
31781		5.056544	-0.271325	-74.796920
31782		5.060516	-0.244380	-74.671995
31783		5.086737	-0.216205	-74.539474
31784		5.130261	-0.193930	-74.395815
31785		5.187164	-0.177399	-74.239791
31786		5.247701	-0.163252	-74.066343
31787		5.302808	-0.146855	-73.875666
31788		5.339337	-0.120345	-73.663842
31789		5.330148	-0.101462	-73.429599
31790		5.260024	-0.087376	-73.168626
31791		5.156708	-0.075314	-72.874005
31792		5.067050	-0.076051	-72.543874
31793		5.023657	-0.087379	-72.173201
31794		5.014070	-0.102561	-71.764416
31795		5.050564	-0.120516	-71.316033
31796		5.118956	-0.145714	-70.833893
31797		5.221438	-0.171695	-70.323702
31798		5.347728	-0.197470	-69.785539
31799		5.483462	-0.223412	-69.221204
31800		5.601825	-0.256609	-68.633256
31801		5.692610	-0.292202	-68.021642
31802		5.738626	-0.331187	-67.385908
31803		5.756352	-0.377278	-66.727276
31804		5.744557	-0.430434	-66.044226
31805		5.731435	-0.494816	-65.328804
31806		5.730962	-0.567998	-64.584837
31807		5.773538	-0.653411	-63.810547
31808		5.848676	-0.743971	-63.013157
31809		5.944066	-0.842036	-62.200797
31810		6.019327	-0.946437	-61.381899
31811		6.090030	-1.057739	-60.556394
31812		6.128106	-1.177850	-59.727418
31813		6.151765	-1.294677	-58.893891
31814		6.171966	-1.411365	-58.054539
31815		6.239676	-1.525739	-57.210652
31816		6.348314	-1.639820	-56.354848
31817		6.514778	-1.753903	-55.490394
31818		6.711718	-1.868822	-54.614827
31819		6.923559	-1.987302	-53.729180
31820		7.103081	-2.091266	-52.833261
31821		7.240169	-2.185295	-51.930746
31822		7.319441	-2.267369	-51.018669
31823		7.355448	-2.344967	-50.100323
31824		7.333514	-2.416642	-49.176762
31825		7.300675	-2.496486	-48.253305
31826		7.275139	-2.581980	-47.321116
31827		7.325037	-2.673368	-46.374621
31828		7.434060	-2.769600	-45.414176
31829		7.567301	-2.871724	-44.438818
31830		7.660680	-2.968938	-43.455315
31831		7.693185	-3.065729	-42.467586
31832		7.664216	-3.162166	-41.474437
31833		7.606817	-3.261600	-40.475558
31834		7.544362	-3.362980	-39.472751
31835		7.522638	-3.471787	-38.464781
31836		7.516792	-3.581143	-37.459309
31837		7.521948	-3.686732	-36.463243
31838		7.516477	-3.790388	-35.475403
31839		7.506694	-3.889024	-34.495469
31840		7.471634	-3.972198	-33.522897
31841		7.419964	-4.048304	-32.558754
31842		7.327545	-4.122039	-31.605882
31843		7.205281	-4.192008	-30.667605
31844		7.058015	-4.264891	-29.737676
31845		6.912220	-4.335398	-28.821975
31846		6.785448	-4.409697	-27.915171
31847		6.712854	-4.495102	-27.010783
31848		6.672075	-4.582526	-26.107007
31849		6.658982	-4.670675	-25.208404
31850		6.646785	-4.747671	-24.311372
31851		6.656336	-4.828865	-23.423589
31852		6.667930	-4.912047	-22.535088
31853		6.660384	-4.983682	-21.655533
31854		6.603702	-5.046241	-20.786303
31855		6.502289	-5.105007	-19.930017
31856		6.367179	-5.158196	-19.083160
31857		6.252962	-5.218343	-18.244147
31858		6.175222	-5.281104	-17.408207
31859		6.132679	-5.349653	-16.575729
31860		6.096775	-5.413417	-15.748087
31861		6.055634	-5.464152	-14.933970
31862		5.974224	-5.501880	-14.131757
31863		5.859672	-5.531016	-13.341085
31864		5.703424	-5.549710	-12.559509
31865		5.557801	-5.572824	-11.787495
31866		5.447607	-5.601560	-11.018442
31867		5.389607	-5.636560	-10.257026
31868		5.347975	-5.669463	-9.493956
31869		5.306342	-5.705165	-8.741365
31870		5.244202	-5.737320	-8.000561
31871		5.163383	-5.768661	-7.269433
31872		5.070691	-5.798319	-6.547194
31873		4.993800	-5.829779	-5.836736
31874		4.941109	-5.867886	-5.135801
31875		4.914202	-5.902077	-4.451469
31876		4.883834	-5.934081	-3.780154
31877		4.854916	-5.957855	-3.129680
31878		4.795696	-5.979957	-2.496176
31879		4.716155	-6.002888	-1.876948
31880		4.611674	-6.027331	-1.269138
31881		4.495318	-6.047928	-0.669088
31882		4.362567	-6.058334	-0.078125
31883		4.206956	-6.059699	0.502189
31884		4.021083	-6.055463	1.075344
31885		3.820771	-6.052645	1.639484
31886		3.610562	-6.061995	2.199337
31887		3.411483	-6.084647	2.754047
31888		3.223488	-6.116632	3.306270
31889		3.040774	-6.158072	3.859287
31890		2.847562	-6.204265	4.413667
31891		2.653212	-6.263917	4.962397
31892		2.452253	-6.342743	5.512807
31893		2.281781	-6.443111	6.056957
31894		2.153331	-6.557000	6.603744
31895		2.074003	-6.682437	7.150093
31896		2.039165	-6.810599	7.696646
31897		2.031814	-6.937876	8.238452
31898		2.016897	-7.059227	8.772984
31899		1.959822	-7.188502	9.294951
31900		1.860052	-7.322934	9.799331
31901		1.741349	-7.463448	10.292216
31902		1.633925	-7.601469	10.775654
31903		1.566884	-7.732083	11.249502
31904		1.547359	-7.849270	11.717053
31905		1.576894	-7.955814	12.172508
31906		1.615400	-8.052177	12.612930
31907		1.630803	-8.137824	13.036492
31908		1.576990	-8.216701	13.444534
31909		1.442633	-8.287305	13.829033
31910		1.236169	-8.353849	14.201171
31911		1.017455	-8.411457	14.559469
31912		0.812721	-8.459308	14.915019
31913		0.638811	-8.499885	15.264238
31914		0.507720	-8.542155	15.607841
31915		0.412219	-8.586171	15.938687
31916		0.322491	-8.628658	16.260828
31917		0.209484	-8.668690	16.574864
31918		0.068185	-8.709780	16.875019
31919		-0.062141	-8.755665	17.164648
31920		-0.167976	-8.802920	17.448977
31921		-0.254657	-8.850252	17.722049
31922		-0.316529	-8.890142	17.985984
31923		-0.339026	-8.921536	18.234331
31924		-0.328740	-8.943536	18.471555
31925		-0.300180	-8.965313	18.684192
31926		-0.275129	-8.986372	18.872514
31927		-0.258844	-9.011279	19.035902
31928		-0.256144	-9.035572	19.173520
31929		-0.271933	-9.053709	19.287515
31930		-0.300801	-9.067676	19.376951
31931		-0.340954	-9.069815	19.443400
31932		-0.393113	-9.059873	19.487007
31933		-0.455338	-9.043810	19.510610
31934		-0.513196	-9.028164	19.516092
31935		-0.556343	-9.013199	19.504916
31936		-0.584710	-8.996719	19.479513
31937		-0.602770	-8.976254	19.443365
31938		-0.613980	-8.953511	19.397376
31939		-0.616238	-8.928216	19.345352
31940		-0.611995	-8.900959	19.286240
31941		-0.617066	-8.871605	19.220970
31942		-0.624077	-8.844417	19.148833
31943		-0.630060	-8.817813	19.073194
31944		-0.629556	-8.795206	18.999682
31945		-0.628239	-8.777106	18.932844
31946		-0.622058	-8.762596	18.872318
31947		-0.621701	-8.751032	18.820230
31948		-0.626994	-8.739720	18.769717
31949		-0.646073	-8.723193	18.720107
31950		-0.687213	-8.700351	18.670748
31951		-0.748028	-8.671683	18.619679
31952		-0.816235	-8.646942	18.571007
31953		-0.867510	-8.627126	18.527440
31954		-0.905500	-8.614343	18.488437
31955		-0.929635	-8.607147	18.452105
31956		-0.940480	-8.606065	18.414077
31957		-0.935192	-8.610027	18.376850
31958		-0.925675	-8.612847	18.340119
31959		-0.933028	-8.611348	18.305972
31960		-0.960601	-8.608257	18.271688
31961		-1.014300	-8.604767	18.239431
31962		-1.078647	-8.606792	18.207757
31963		-1.131999	-8.614309	18.175671
31964		-1.160557	-8.620808	18.140890
31965		-1.153453	-8.632407	18.107217
31966		-1.120863	-8.644773	18.072815
31967		-1.071677	-8.658285	18.036162
31968		-1.014791	-8.668826	17.997604
31969		-0.967403	-8.673185	17.954675
31970		-0.945814	-8.670799	17.902390
31971		-0.945348	-8.658753	17.838751
31972		-0.945224	-8.645396	17.765879
31973		-0.928835	-8.632481	17.688717
31974		-0.883928	-8.622982	17.612083
31975		-0.808635	-8.612220	17.531169
31976		-0.705192	-8.605644	17.448432
31977		-0.584592	-8.592896	17.357984
31978		-0.464426	-8.573942	17.256552
31979		-0.358371	-8.544282	17.133889
31980		-0.279304	-8.503972	16.989214
31981		-0.225209	-8.452713	16.822438
31982		-0.182503	-8.395203	16.640821
31983		-0.148311	-8.332501	16.443495
31984		-0.117679	-8.262941	16.226941
31985		-0.097099	-8.178800	15.991359
31986		-0.094175	-8.081751	15.733770
31987		-0.100874	-7.973642	15.450859
31988		-0.108756	-7.867511	15.148903
31989		-0.124404	-7.761444	14.841879
31990		-0.144167	-7.666694	14.525789
31991		-0.173600	-7.583356	14.199327
31992		-0.193913	-7.509550	13.865863
31993		-0.212035	-7.443177	13.530103
31994		-0.198140	-7.389482	13.187587
31995		-0.161594	-7.336370	12.840465
31996		-0.102415	-7.291567	12.485460
31997		-0.031890	-7.245938	12.112478
31998		0.031671	-7.202692	11.725729
31999		0.079100	-7.154479	11.318044
32000		0.113649	-7.108352	10.890690
32001		0.149212	-7.064301	10.449455
32002		0.209478	-7.026379	9.997993
32003		0.289733	-6.988340	9.533841
32004		0.384937	-6.946551	9.058899
32005		0.465368	-6.891941	8.567350
32006		0.527493	-6.835167	8.060660
32007		0.576836	-6.775255	7.535203
32008		0.619907	-6.717625	6.991836
32009		0.655878	-6.658622	6.432030
32010		0.693280	-6.602436	5.855263
32011		0.743868	-6.544262	5.264365
32012		0.814439	-6.489300	4.664119
32013		0.891531	-6.432652	4.054180
32014		0.985891	-6.377579	3.434506
32015		1.079064	-6.322992	2.802989
32016		1.176298	-6.271104	2.159982
32017		1.252748	-6.222655	1.506974
32018		1.311929	-6.186028	0.841826
32019		1.360001	-6.148799	0.164120
32020		1.421356	-6.117751	-0.520713
32021		1.484204	-6.083765	-1.207381
32022		1.578056	-6.052675	-1.896012
32023		1.693332	-6.022474	-2.587660
32024		1.832645	-5.992869	-3.286787
32025		1.975366	-5.957879	-3.998408
32026		2.117117	-5.910909	-4.731039
32027		2.220035	-5.858770	-5.478134
32028		2.300510	-5.800412	-6.248048
32029		2.365304	-5.738186	-7.023944
32030		2.435098	-5.682849	-7.807244
32031		2.511196	-5.627780	-8.585369
32032		2.599990	-5.576276	-9.358412
32033		2.698745	-5.528171	-10.126600
32034		2.829726	-5.489788	-10.895177
32035		2.985012	-5.453853	-11.666480
32036		3.156574	-5.423478	-12.445640
32037		3.333338	-5.394741	-13.229726
32038		3.511923	-5.368813	-14.026056
32039		3.654720	-5.335002	-14.829412
32040		3.762121	-5.292955	-15.641776
32041		3.828542	-5.240273	-16.460096
32042		3.876518	-5.184758	-17.273048
32043		3.914203	-5.124041	-18.077008
32044		3.966315	-5.062289	-18.877977
32045		4.030861	-4.998006	-19.670114
32046		4.110594	-4.933422	-20.463310
32047		4.186221	-4.868314	-21.260492
32048		4.262432	-4.808496	-22.067982
32049		4.332387	-4.748685	-22.886639
32050		4.411773	-4.695099	-23.713011
32051		4.483245	-4.642579	-24.543984
32052		4.554016	-4.601439	-25.382247
32053		4.618499	-4.566456	-26.215972
32054		4.688355	-4.535223	-27.042811
32055		4.761507	-4.507867	-27.859889
32056		4.837175	-4.485829	-28.665326
32057		4.900735	-4.462684	-29.463971
32058		4.958185	-4.441649	-30.264045
32059		4.984611	-4.422970	-31.061340
32060		4.977833	-4.401407	-31.859798
32061		4.915642	-4.372499	-32.657284
32062		4.805732	-4.342005	-33.450354
32063		4.641675	-4.309422	-34.235979
32064		4.442286	-4.277044	-35.015267
32065		4.209717	-4.242324	-35.790309
32066		3.976056	-4.211441	-36.566538
32067		3.754155	-4.175725	-37.344953
32068		3.561204	-4.148519	-38.127996
32069		3.359009	-4.114980	-38.921843
32070		3.129859	-4.085618	-39.726084
32071		2.857844	-4.055622	-40.543766
32072		2.574225	-4.034208	-41.362319
32073		2.301969	-4.014384	-42.171532
32074		2.072012	-4.010785	-42.969078
32075		1.885087	-4.027221	-43.754230
32076		1.748049	-4.059627	-44.525373
32077		1.635725	-4.101366	-45.287143
32078		1.541816	-4.150394	-46.045826
32079		1.455005	-4.205255	-46.804302
32080		1.371056	-4.265145	-47.563336
32081		1.283410	-4.323934	-48.323975
32082		1.222463	-4.388637	-49.077576
32083		1.189343	-4.458572	-49.822918
32084		1.190628	-4.533267	-50.555234
32085		1.224632	-4.615600	-51.269554
32086		1.294094	-4.706276	-51.970505
32087		1.385677	-4.799830	-52.663644
32088		1.488870	-4.895662	-53.351545
32089		1.594806	-4.989321	-54.036945
32090		1.691940	-5.077287	-54.718426
32091		1.747422	-5.146549	-55.402426
32092		1.768556	-5.212435	-56.094382
32093		1.762947	-5.274771	-56.789039
32094		1.753641	-5.331636	-57.479298
32095		1.745721	-5.389519	-58.163507
32096		1.748438	-5.448409	-58.840515
32097		1.762512	-5.498142	-59.504752
32098		1.770260	-5.535758	-60.157950
32099		1.755863	-5.564569	-60.802317
32100		1.743511	-5.598467	-61.436495
32101		1.753460	-5.642171	-62.058256
32102		1.806074	-5.691794	-62.667311
32103		1.897421	-5.741127	-63.258824
32104		2.021348	-5.793341	-63.833854
32105		2.140405	-5.835403	-64.388541
32106		2.222005	-5.865357	-64.924419
32107		2.262657	-5.887658	-65.438491
32108		2.288973	-5.912392	-65.925332
32109		2.326406	-5.937499	-66.377949
32110		2.386087	-5.969139	-66.803796
32111		2.464758	-6.000060	-67.197872
32112		2.545076	-6.027276	-67.565465
32113		2.614511	-6.046906	-67.915729
32114		2.682780	-6.063269	-68.246448
32115		2.761628	-6.074195	-68.558319
32116		2.845729	-6.084826	-68.851576
32117		2.926901	-6.088532	-69.123962
32118		3.006628	-6.088242	-69.377633
32119		3.079035	-6.081053	-69.608298
32120		3.127919	-6.066647	-69.821746
32121		3.161394	-6.048785	-70.017438
32122		3.189253	-6.037325	-70.192466
32123		3.216087	-6.027610	-70.348967
32124		3.253792	-6.028907	-70.490379
32125		3.295906	-6.033544	-70.615771
32126		3.346032	-6.040588	-70.728330
32127		3.392009	-6.040903	-70.829144
32128		3.416046	-6.031750	-70.918447
32129		3.408627	-6.013210	-70.995745
32130		3.374681	-5.993546	-71.063182
32131		3.317825	-5.970125	-71.119325
32132		3.244957	-5.938453	-71.167262
32133		3.191748	-5.906832	-71.205876
32134		3.164472	-5.875806	-71.231259
32135		3.170039	-5.842089	-71.239184
32136		3.192545	-5.810221	-71.229569
32137		3.212596	-5.778707	-71.204302
32138		3.207650	-5.748716	-71.160581
32139		3.194013	-5.719294	-71.103938
32140		3.176066	-5.693147	-71.029042
32141		3.169173	-5.665081	-70.933674
32142		3.186702	-5.640910	-70.820354
32143		3.228629	-5.610755	-70.688115
32144		3.277593	-5.569795	-70.539497
32145		3.306405	-5.518026	-70.379434
32146		3.296691	-5.455988	-70.210121
32147		3.263904	-5.387821	-70.029778
32148		3.222969	-5.322856	-69.830439
32149		3.185854	-5.256120	-69.610229
32150		3.157703	-5.188853	-69.369347
32151		3.152394	-5.129578	-69.099084
32152		3.152142	-5.074644	-68.800986
32153		3.156361	-5.022357	-68.482050
32154		3.156509	-4.967358	-68.140270
32155		3.156034	-4.915331	-67.775874
32156		3.133546	-4.856733	-67.386274
32157		3.094151	-4.800478	-66.976815
32158		3.033864	-4.746003	-66.540195
32159		2.975791	-4.701010	-66.076198
32160		2.918401	-4.668376	-65.583531
32161		2.884903	-4.650096	-65.062106
32162		2.877311	-4.643815	-64.514951
32163		2.906037	-4.646657	-63.949269
32164		2.956730	-4.650856	-63.370189
32165		3.025016	-4.655722	-62.774966
32166		3.079297	-4.666623	-62.170045
32167		3.107250	-4.682510	-61.555341
32168		3.092217	-4.703660	-60.929658
32169		3.067347	-4.721593	-60.289646
32170		3.059646	-4.744866	-59.636467
32171		3.111110	-4.773216	-58.966079
32172		3.209187	-4.797697	-58.278524
32173		3.351914	-4.822584	-57.572929
32174		3.498228	-4.848992	-56.860902
32175		3.632864	-4.874869	-56.143041
32176		3.737029	-4.898391	-55.424699
32177		3.825741	-4.925751	-54.700187
32178		3.910527	-4.951450	-53.966715
32179		4.026248	-4.982291	-53.223318
32180		4.170744	-5.011325	-52.459474
32181		4.338428	-5.045216	-51.678083
32182		4.509304	-5.075936	-50.881548
32183		4.679074	-5.106603	-50.072138
32184		4.821432	-5.131780	-49.253031
32185		4.951906	-5.155106	-48.425820
32186		5.070290	-5.171996	-47.587704
32187		5.202140	-5.182441	-46.734942
32188		5.333118	-5.183004	-45.861997
32189		5.464831	-5.168550	-44.970495
32190		5.585180	-5.143824	-44.065080
32191		5.707791	-5.115461	-43.142606
32192		5.815126	-5.079022	-42.207581
32193		5.927180	-5.037165	-41.260285
32194		6.024322	-4.989505	-40.303272
32195		6.100591	-4.936229	-39.339239
32196		6.129130	-4.873045	-38.367923
32197		6.109844	-4.799013	-37.395903
32198		6.011661	-4.709198	-36.415419
32199		5.833112	-4.618550	-35.436533
32200		5.588567	-4.524073	-34.456186
32201		5.335756	-4.446379	-33.471603
32202		5.097156	-4.382567	-32.477378
32203		4.908823	-4.338948	-31.471270
32204		4.766740	-4.300953	-30.460178
32205		4.673282	-4.273118	-29.443778
32206		4.603266	-4.255346	-28.423475
32207		4.552347	-4.249874	-27.400321
32208		4.462807	-4.242779	-26.378926
32209		4.317597	-4.235909	-25.366250
32210		4.122007	-4.233975	-24.366479
32211		3.928398	-4.252649	-23.379805
32212		3.750040	-4.281543	-22.394856
32213		3.638880	-4.318740	-21.420189
32214		3.596875	-4.371793	-20.450799
32215		3.634996	-4.437992	-19.489424
32216		3.708898	-4.502059	-18.537462
32217		3.762983	-4.565070	-17.601534
32218		3.745324	-4.621578	-16.689394
32219		3.677355	-4.682623	-15.795333
32220		3.578681	-4.747568	-14.918696
32221		3.488438	-4.812733	-14.050109
32222		3.437049	-4.880122	-13.194531
32223		3.451651	-4.956179	-12.347452
32224		3.513586	-5.035211	-11.512936
32225		3.597994	-5.108768	-10.695590
32226		3.667663	-5.176617	-9.896176
32227		3.708822	-5.235377	-9.119201
32228		3.690332	-5.279691	-8.357240
32229		3.622952	-5.318318	-7.611208
32230		3.521449	-5.351629	-6.880394
32231		3.419884	-5.389075	-6.163814
32232		3.330929	-5.430047	-5.461383
32233		3.291735	-5.478019	-4.772925
32234		3.308718	-5.529650	-4.095104
32235		3.368477	-5.581883	-3.429308
32236		3.418439	-5.628147	-2.779211
32237		3.420680	-5.665790	-2.145879
32238		3.354874	-5.701076	-1.531834
32239		3.253464	-5.736812	-0.932506
32240		3.153634	-5.777954	-0.341372
32241		3.091118	-5.828566	0.250141
32242		3.066774	-5.880336	0.846948
32243		3.070988	-5.927817	1.443523
32244		3.067858	-5.971027	2.042409
32245		3.047653	-6.020276	2.630061
32246		3.013732	-6.070936	3.203263
32247		2.981982	-6.126405	3.768885
32248		2.958796	-6.185201	4.331840
32249		2.949544	-6.245728	4.890402
32250		2.932864	-6.304001	5.445949
32251		2.902886	-6.364088	6.000936
32252		2.849893	-6.421971	6.550901
32253		2.793992	-6.474182	7.096396
32254		2.721175	-6.518015	7.637668
32255		2.639445	-6.553029	8.173730
32256		2.531464	-6.576810	8.709665
32257		2.390988	-6.589829	9.243034
32258		2.212066	-6.587306	9.773391
32259		2.007879	-6.574984	10.294708
32260		1.782475	-6.552044	10.807624
32261		1.549946	-6.520763	11.303942
32262		1.299804	-6.477037	11.784257
32263		1.055279	-6.437219	12.238870
32264		0.832243	-6.405971	12.674367
32265		0.630371	-6.378437	13.089929
32266		0.420249	-6.361543	13.483055
32267		0.217530	-6.344683	13.854339
32268		0.011880	-6.332077	14.213462
32269		-0.163496	-6.324416	14.567967
32270		-0.306689	-6.329478	14.926905
32271		-0.376572	-6.353193	15.286670
32272		-0.367897	-6.393642	15.653291
32273		-0.309208	-6.435642	16.019575
32274		-0.249654	-6.473060	16.380485
32275		-0.217883	-6.508030	16.731476
32276		-0.248483	-6.527828	17.071192
32277		-0.341878	-6.527519	17.388708
32278		-0.478370	-6.519555	17.691790
32279		-0.620222	-6.520654	17.976933
32280		-0.724457	-6.534979	18.249649
32281		-0.780592	-6.556425	18.511120
32282		-0.783566	-6.564843	18.761626
32283		-0.756661	-6.564913	19.002065
32284		-0.731597	-6.558575	19.225262
32285		-0.739067	-6.545732	19.432634
32286		-0.781046	-6.526974	19.619384
32287		-0.851919	-6.504962	19.786197
32288		-0.929869	-6.485420	19.939359
32289		-0.993163	-6.470184	20.082821
32290		-1.026380	-6.460801	20.219070
32291		-1.034059	-6.453239	20.344311
32292		-1.031886	-6.449691	20.459719
32293		-1.031615	-6.440675	20.555653
32294		-1.043120	-6.428679	20.636599
32295		-1.072904	-6.410010	20.701412
32296		-1.113199	-6.388583	20.753433
32297		-1.156588	-6.371255	20.792803
32298		-1.184515	-6.359070	20.822154
32299		-1.182697	-6.352933	20.847137
32300		-1.149005	-6.352038	20.865949
32301		-1.101355	-6.350840	20.882082
32302		-1.063712	-6.343031	20.892790
32303		-1.049873	-6.329222	20.900118
32304		-1.068994	-6.319047	20.906405
32305		-1.102631	-6.312372	20.913667
32306		-1.135483	-6.312826	20.921771
32307		-1.154455	-6.312905	20.927214
32308		-1.163127	-6.309285	20.926336
32309		-1.170173	-6.292922	20.915550
32310		-1.183696	-6.264119	20.894572
32311		-1.206858	-6.231272	20.862428
32312		-1.237316	-6.200930	20.823613
32313		-1.260597	-6.171181	20.779247
32314		-1.261255	-6.147901	20.732529
32315		-1.237139	-6.124581	20.685761
32316		-1.190824	-6.098965	20.636642
32317		-1.140404	-6.069259	20.588378
32318		-1.100092	-6.034682	20.540069
32319		-1.078485	-5.997869	20.492067
32320		-1.074021	-5.961549	20.442089
32321		-1.084808	-5.924832	20.391904
32322		-1.093894	-5.890539	20.334625
32323		-1.096898	-5.855910	20.273158
32324		-1.081128	-5.824699	20.209926
32325		-1.045988	-5.798688	20.148439
32326		-0.984182	-5.778730	20.092169
32327		-0.906220	-5.762755	20.040189
32328		-0.817547	-5.750752	19.991804
32329		-0.741795	-5.735190	19.945826
32330		-0.693207	-5.714790	19.900731
32331		-0.664760	-5.685799	19.850682
32332		-0.663177	-5.653404	19.805651
32333		-0.685716	-5.618057	19.761021
32334		-0.711867	-5.589288	19.713954
32335		-0.709035	-5.569867	19.665812
32336		-0.662158	-5.560897	19.613913
32337		-0.575505	-5.557016	19.555496
32338		-0.461771	-5.552898	19.488753
32339		-0.343526	-5.543618	19.411730
32340		-0.236645	-5.529790	19.323146
32341		-0.160079	-5.509333	19.216376
32342		-0.105693	-5.492650	19.101714
32343		-0.054996	-5.476630	18.974662
32344		0.003971	-5.464824	18.840164
32345		0.086189	-5.458597	18.701409
32346		0.181062	-5.451702	18.556057
32347		0.282227	-5.438121	18.402229
32348		0.385779	-5.416921	18.222886
32349		0.468266	-5.384943	18.019764
32350		0.539701	-5.344212	17.786119
32351		0.591734	-5.302593	17.523566
32352		0.636628	-5.262496	17.234625
32353		0.672528	-5.226171	16.922969
32354		0.720523	-5.192440	16.590224
32355		0.788516	-5.161665	16.245012
32356		0.886805	-5.133079	15.881202
32357		0.996971	-5.102422	15.502994
32358		1.099915	-5.067624	15.107519
32359		1.183708	-5.027319	14.688049
32360		1.253899	-4.982586	14.243943
32361		1.297749	-4.934010	13.773932
32362		1.337350	-4.885151	13.274415
32363		1.379901	-4.842465	12.748519
32364		1.452500	-4.804363	12.202350
32365		1.560983	-4.768328	11.635643
32366		1.715534	-4.727143	11.055467
32367		1.894438	-4.680468	10.458382
32368		2.078165	-4.624936	9.845593
32369		2.230581	-4.560996	9.218055
32370		2.363361	-4.492857	8.572858
32371		2.474840	-4.423218	7.906893
32372		2.580662	-4.353546	7.221600
32373		2.683137	-4.288835	6.524339
32374		2.805417	-4.221177	5.815716
32375		2.940238	-4.143896	5.096257
32376		3.092401	-4.053698	4.361725
32377		3.248174	-3.949020	3.609673
32378		3.400902	-3.833070	2.842061
32379		3.524994	-3.711026	2.054102
32380		3.615575	-3.584004	1.249023
32381		3.674306	-3.458327	0.421509
32382		3.728072	-3.333446	-0.423950
32383		3.775177	-3.216833	-1.284006
32384		3.814311	-3.111370	-2.163041
32385		3.817404	-3.008028	-3.055640
32386		3.797956	-2.903011	-3.960135
32387		3.741286	-2.799191	-4.871455
32388		3.680175	-2.689710	-5.784468
32389		3.639469	-2.574532	-6.692999
32390		3.658081	-2.466856	-7.597513
32391		3.712067	-2.368369	-8.498472
32392		3.787361	-2.280187	-9.395249
32393		3.840515	-2.204195	-10.287237
32394		3.882214	-2.134716	-11.178970
32395		3.900376	-2.068370	-12.064583
32396		3.905681	-2.005866	-12.949382
32397		3.885097	-1.948095	-13.828314
32398		3.867382	-1.902659	-14.706363
32399		3.857716	-1.872432	-15.574944
32400		3.877166	-1.862752	-16.436745
32401		3.930308	-1.866784	-17.288413
32402		4.017693	-1.884536	-18.129855
32403		4.106595	-1.903451	-18.960568
32404		4.202439	-1.933288	-19.787754
32405		4.286136	-1.968718	-20.614739
32406		4.351224	-2.011827	-21.444623
32407		4.380170	-2.060946	-22.275670
32408		4.397296	-2.118305	-23.100161
32409		4.398757	-2.180860	-23.922217
32410		4.413365	-2.250608	-24.743433
32411		4.466121	-2.324726	-25.550020
32412		4.549156	-2.397842	-26.350529
32413		4.620391	-2.473737	-27.147683
32414		4.675177	-2.541842	-27.947429
32415		4.700815	-2.603883	-28.753974
32416		4.690397	-2.663778	-29.570006
32417		4.644401	-2.710083	-30.399152
32418		4.575243	-2.747643	-31.240293
32419		4.491723	-2.772851	-32.097815
32420		4.413605	-2.805290	-32.962821
32421		4.329601	-2.829438	-33.830633
32422		4.286062	-2.862081	-34.698508
32423		4.265888	-2.895458	-35.568611
32424		4.252587	-2.923148	-36.436243
32425		4.210070	-2.939245	-37.304750
32426		4.137665	-2.945093	-38.174123
32427		4.030181	-2.943539	-39.040867
32428		3.894680	-2.940206	-39.908945
32429		3.739094	-2.932331	-40.763304
32430		3.574793	-2.921450	-41.607513
32431		3.399444	-2.903738	-42.436478
32432		3.223346	-2.879644	-43.251343
32433		3.048054	-2.852397	-44.053006
32434		2.898550	-2.831616	-44.841539
32435		2.772787	-2.813646	-45.617253
32436		2.679636	-2.805424	-46.382584
32437		2.605239	-2.789953	-47.138869
32438		2.549377	-2.767632	-47.889249
32439		2.502873	-2.741374	-48.635615
32440		2.465264	-2.714829	-49.379839
32441		2.424010	-2.684128	-50.123167
32442		2.399829	-2.651098	-50.864868
32443		2.369667	-2.614300	-51.602625
32444		2.339614	-2.581551	-52.338277
32445		2.311729	-2.535635	-53.072597
32446		2.297391	-2.480630	-53.802298
32447		2.258349	-2.410596	-54.531323
32448		2.196082	-2.333722	-55.266380
32449		2.120970	-2.246689	-56.001021
32450		2.076091	-2.155272	-56.730220
32451		2.066845	-2.059673	-57.444446
32452		2.129108	-1.969184	-58.150374
32453		2.244414	-1.884378	-58.838912
32454		2.380422	-1.804031	-59.510696
32455		2.504324	-1.723902	-60.171278
32456		2.612838	-1.644165	-60.822497
32457		2.684845	-1.559407	-61.466755
32458		2.741764	-1.480849	-62.100432
32459		2.800569	-1.412120	-62.722214
32460		2.886916	-1.352573	-63.327390
32461		2.998588	-1.294965	-63.914148
32462		3.118100	-1.233817	-64.489211
32463		3.234824	-1.174955	-65.052010
32464		3.359788	-1.122810	-65.602274
32465		3.482415	-1.072891	-66.134452
32466		3.599106	-1.025525	-66.647186
32467		3.690251	-0.971430	-67.137182
32468		3.754778	-0.915596	-67.610640
32469		3.781382	-0.857034	-68.068831
32470		3.791461	-0.802073	-68.507997
32471		3.803940	-0.755292	-68.927483
32472		3.840815	-0.714613	-69.324215
32473		3.915533	-0.680934	-69.695009
32474		4.027410	-0.660596	-70.042387
32475		4.161216	-0.655888	-70.367145
32476		4.293544	-0.658161	-70.667278
32477		4.414808	-0.664109	-70.942469
32478		4.538340	-0.675248	-71.192905
32479		4.655670	-0.683633	-71.421183
32480		4.765010	-0.688181	-71.629129
32481		4.864319	-0.681729	-71.820182
32482		4.940745	-0.669319	-71.997277
32483		4.995129	-0.656021	-72.163385
