// General information: 
//  MT Manager version: 2022.2.0 
//  XDA version: 2022.2.0 build 7381 rev 124627 built on 2023-07-19
// Device information: 
//  DeviceId: 00B44876
//  ProductCode: MTW2-3A7G6
//  Firmware Version: 4.3.5
//  Hardware Version: 2.0.0
// Device settings: 
//  Filter Profile: human(46.1)
//  Option Flags: Orientation Smoother Disabled, Position/Velocity Smoother Disabled, Continuous Zero Rotation Update Disabled, AHS Disabled, ICC Disabled
// Coordinate system: ENU
PacketCounter	SampleTimeFine	Roll	Pitch	Yaw
37461		76.884318	-2.489101	-11.320614
37462		76.847671	-2.485341	-11.307081
37463		76.816508	-2.479399	-11.297148
37464		76.790852	-2.473812	-11.290666
37465		76.772470	-2.471983	-11.283645
37466		76.760783	-2.469006	-11.276901
37467		76.754490	-2.468169	-11.274207
37468		76.748698	-2.465373	-11.279744
37469		76.740656	-2.463915	-11.282771
37470		76.731344	-2.462858	-11.283802
37471		76.723700	-2.461393	-11.281942
37472		76.718321	-2.461138	-11.279212
37473		76.717428	-2.463605	-11.274876
37474		76.722246	-2.461622	-11.270620
37475		76.730569	-2.458046	-11.272208
37476		76.734788	-2.454420	-11.275867
37477		76.738133	-2.448923	-11.281145
37478		76.736481	-2.447797	-11.286853
37479		76.729826	-2.448806	-11.292332
37480		76.721324	-2.450298	-11.298341
37481		76.711964	-2.446854	-11.304066
37482		76.703425	-2.443969	-11.310090
37483		76.695131	-2.443941	-11.315502
37484		76.673280	-2.445800	-11.321039
37485		76.646704	-2.449848	-11.328034
37486		76.605705	-2.462863	-11.329734
37487		76.561933	-2.476353	-11.329695
37488		76.518550	-2.486109	-11.325407
37489		76.480509	-2.498072	-11.322486
37490		76.444401	-2.509081	-11.316774
37491		76.407768	-2.523515	-11.316173
37492		76.369960	-2.542172	-11.310832
37493		76.335233	-2.559305	-11.306996
37494		76.300760	-2.577533	-11.302202
37495		76.269143	-2.593007	-11.298440
37496		76.245241	-2.607308	-11.296411
37497		76.228121	-2.621485	-11.295030
37498		76.217194	-2.636433	-11.299936
37499		76.210455	-2.652020	-11.300836
37500		76.203235	-2.665172	-11.303437
37501		76.190483	-2.679704	-11.306126
37502		76.171844	-2.689409	-11.304594
37503		76.152529	-2.696834	-11.301126
37504		76.136265	-2.708019	-11.301980
37505		76.126131	-2.735338	-11.305766
37506		76.105348	-2.766410	-11.312372
37507		76.085729	-2.764631	-11.310684
37508		76.080129	-2.760481	-11.311195
37509		76.084664	-2.783471	-11.327181
37510		76.087226	-2.809122	-11.341409
37511		76.082538	-2.845870	-11.347163
37512		76.064891	-2.858053	-11.343741
37513		76.048766	-2.857923	-11.335953
37514		76.045094	-2.856061	-11.327394
37515		76.048941	-2.860629	-11.325717
37516		76.047219	-2.871384	-11.330938
37517		76.042785	-2.876446	-11.333200
37518		76.035140	-2.886120	-11.333308
37519		76.025865	-2.902261	-11.330131
37520		76.013567	-2.920786	-11.327123
37521		75.993500	-2.936428	-11.318979
37522		75.969538	-2.950586	-11.307899
37523		75.943084	-2.975896	-11.300052
37524		75.905821	-3.017079	-11.291383
37525		75.852823	-3.060728	-11.279186
37526		75.778153	-3.110314	-11.267970
37527		75.672815	-3.175796	-11.263110
37528		75.534425	-3.274328	-11.268712
37529		75.371680	-3.406070	-11.277127
37530		75.186706	-3.555136	-11.272364
37531		74.994718	-3.708606	-11.250202
37532		74.796916	-3.872611	-11.209080
37533		74.604269	-4.065808	-11.164598
37534		74.422234	-4.286971	-11.128660
37535		74.273510	-4.526081	-11.106098
37536		74.166976	-4.771528	-11.088658
37537		74.108613	-5.021010	-11.065313
37538		74.083826	-5.280772	-11.026767
37539		74.078692	-5.566677	-10.962032
37540		74.069753	-5.887329	-10.875275
37541		74.050067	-6.245186	-10.775382
37542		74.024213	-6.631019	-10.668068
37543		73.986596	-7.014435	-10.571749
37544		73.949471	-7.367094	-10.504176
37545		73.937558	-7.665102	-10.475779
37546		73.964125	-7.901582	-10.488996
37547		74.048675	-8.087398	-10.540155
37548		74.176073	-8.245332	-10.610588
37549		74.332120	-8.402455	-10.692403
37550		74.507131	-8.578635	-10.780771
37551		74.702667	-8.772124	-10.867767
37552		74.923693	-8.987259	-10.950854
37553		75.165441	-9.210831	-11.015502
37554		75.418220	-9.452451	-11.059257
37555		75.680371	-9.718631	-11.078418
37556		75.933146	-10.005057	-11.062946
37557		76.168622	-10.320928	-11.017920
37558		76.368451	-10.702879	-10.940613
37559		76.514136	-11.153372	-10.837922
37560		76.595328	-11.659822	-10.688910
37561		76.625120	-12.216625	-10.509087
37562		76.610385	-12.826055	-10.326618
37563		76.581416	-13.489129	-10.175534
37564		76.550645	-14.187043	-10.053896
37565		76.542608	-14.887249	-9.963014
37566		76.587360	-15.563847	-9.905270
37567		76.715318	-16.208567	-9.891215
37568		76.946416	-16.828621	-9.921363
37569		77.293934	-17.423768	-9.994449
37570		77.743845	-18.000471	-10.088006
37571		78.269483	-18.570110	-10.176067
37572		78.822292	-19.138799	-10.243622
37573		79.374582	-19.730888	-10.296261
37574		79.919336	-20.349974	-10.342840
37575		80.460221	-20.999260	-10.399226
37576		80.999946	-21.668547	-10.470285
37577		81.537437	-22.332249	-10.545951
37578		82.061008	-22.981538	-10.615612
37579		82.560253	-23.620322	-10.666027
37580		83.028486	-24.240724	-10.694316
37581		83.450106	-24.859109	-10.698622
37582		83.808082	-25.489175	-10.686129
37583		84.099953	-26.138140	-10.665678
37584		84.330480	-26.807807	-10.641850
37585		84.498163	-27.485316	-10.606670
37586		84.610406	-28.165239	-10.568751
37587		84.700161	-28.851117	-10.554551
37588		84.772416	-29.553822	-10.556207
37589		84.847832	-30.268881	-10.581882
37590		84.924394	-30.998210	-10.619808
37591		84.991106	-31.748238	-10.658682
37592		85.015848	-32.524885	-10.675109
37593		84.972925	-33.332669	-10.658603
37594		84.864904	-34.192248	-10.624361
37595		84.720674	-35.098031	-10.589902
37596		84.569550	-36.047119	-10.597924
37597		84.457038	-37.020636	-10.639152
37598		84.377196	-37.992384	-10.697684
37599		84.345147	-38.958679	-10.739866
37600		84.352275	-39.913234	-10.766058
37601		84.377101	-40.852424	-10.731073
37602		84.382006	-41.786671	-10.676001
37603		84.385195	-42.738172	-10.593997
37604		84.433966	-43.729279	-10.550996
37605		84.534691	-44.743488	-10.540080
37606		84.701483	-45.771562	-10.580946
37607		84.908049	-46.782657	-10.629068
37608		85.117401	-47.783518	-10.697254
37609		85.324079	-48.775248	-10.763004
37610		85.560696	-49.790414	-10.886386
37611		85.888752	-50.847374	-11.063261
37612		86.326549	-51.944992	-11.353564
37613		86.851621	-53.054271	-11.702450
37614		87.414988	-54.162614	-12.108420
37615		87.999782	-55.287280	-12.525123
37616		88.611127	-56.464240	-12.976330
37617		89.269249	-57.682218	-13.437179
37618		90.030717	-58.926855	-13.975634
37619		90.968508	-60.171277	-14.577873
37620		92.062725	-61.383421	-15.236883
37621		93.216435	-62.526246	-15.845468
37622		94.310196	-63.602451	-16.353524
37623		95.265400	-64.616699	-16.703236
37624		96.065669	-65.607374	-16.959981
37625		96.773468	-66.597680	-17.187809
37626		97.467462	-67.591836	-17.505764
37627		98.214734	-68.587001	-17.948509
37628		99.054958	-69.579805	-18.569455
37629		100.027743	-70.562224	-19.349846
37630		101.045723	-71.528499	-20.215760
37631		102.029355	-72.488302	-21.098776
37632		103.067138	-73.460490	-22.139163
37633		104.404904	-74.435695	-23.532232
37634		106.202736	-75.381288	-25.419866
37635		108.558699	-76.240450	-27.845838
37636		111.502616	-76.980275	-30.804817
37637		114.932515	-77.565501	-34.109686
37638		118.530626	-77.992347	-37.446655
37639		121.997289	-78.301615	-40.550952
37640		125.289051	-78.566911	-43.441469
37641		128.415361	-78.832686	-46.173551
37642		131.411391	-79.101105	-48.872975
37643		134.347951	-79.344556	-51.626967
37644		137.342001	-79.551099	-54.551178
37645		140.360706	-79.695348	-57.574117
37646		143.354372	-79.770710	-60.636730
37647		146.292442	-79.784825	-63.646421
37648		149.123239	-79.746709	-66.514171
37649		151.701371	-79.690786	-69.036349
37650		153.920513	-79.633954	-71.127153
37651		155.794464	-79.576510	-72.801495
37652		157.388986	-79.525610	-74.180102
37653		158.721981	-79.482009	-75.317846
37654		159.945069	-79.442077	-76.427857
37655		161.143703	-79.398524	-77.585339
37656		162.358569	-79.338890	-78.830959
37657		163.563424	-79.243005	-80.100135
37658		164.729732	-79.114870	-81.353370
37659		165.774093	-78.965458	-82.476858
37660		166.728945	-78.817042	-83.488528
37661		167.530575	-78.669938	-84.311837
37662		168.244211	-78.527900	-85.029800
37663		168.783666	-78.381383	-85.561824
37664		169.153920	-78.227399	-85.935286
37665		169.390849	-78.065707	-86.164522
37666		169.487527	-77.910017	-86.269544
37667		169.495993	-77.763355	-86.286168
37668		169.438239	-77.638644	-86.253366
37669		169.267957	-77.545405	-86.119832
37670		169.005072	-77.490731	-85.924832
37671		168.647636	-77.476799	-85.636277
37672		168.239155	-77.503333	-85.301142
37673		167.850183	-77.539756	-84.960847
37674		167.540590	-77.563328	-84.688058
37675		167.360845	-77.545083	-84.518260
37676		167.347547	-77.478590	-84.500673
37677		167.434345	-77.373009	-84.561194
37678		167.565205	-77.243696	-84.656333
37679		167.685381	-77.129424	-84.723435
37680		167.770507	-77.043893	-84.759941
37681		167.849896	-76.979124	-84.772812
37682		167.941487	-76.922575	-84.792307
37683		168.041301	-76.861157	-84.807480
37684		168.177262	-76.783005	-84.867288
37685		168.372509	-76.690568	-84.987652
37686		168.600840	-76.599996	-85.168068
37687		168.833139	-76.508441	-85.376706
37688		169.026601	-76.423817	-85.586310
37689		169.185882	-76.346392	-85.770419
37690		169.312724	-76.275459	-85.932496
37691		169.391109	-76.215632	-86.033649
37692		169.443886	-76.170130	-86.112237
37693		169.514403	-76.140211	-86.201572
37694		169.651205	-76.124454	-86.376536
37695		169.861702	-76.114714	-86.630818
37696		170.141478	-76.100164	-86.968617
37697		170.472468	-76.064902	-87.349037
37698		170.829116	-76.005779	-87.762080
37699		171.188728	-75.937196	-88.161879
37700		171.540053	-75.874682	-88.557665
37701		171.894136	-75.826249	-88.937677
37702		172.243253	-75.799564	-89.319614
37703		172.580745	-75.779837	-89.691986
37704		172.917037	-75.755944	-90.081341
37705		173.247913	-75.725974	-90.454850
37706		173.573149	-75.692982	-90.819281
37707		173.906879	-75.655089	-91.168761
37708		174.237682	-75.627723	-91.511063
37709		174.584369	-75.597792	-91.844831
37710		174.903487	-75.565824	-92.144384
37711		175.214677	-75.529248	-92.412362
37712		175.529270	-75.492927	-92.674122
37713		175.845639	-75.460089	-92.914081
37714		176.123115	-75.439146	-93.121877
37715		176.381742	-75.423583	-93.307807
37716		176.654571	-75.404110	-93.526701
37717		176.953473	-75.383293	-93.765797
37718		177.278599	-75.361341	-94.039888
37719		177.594457	-75.339938	-94.294116
37720		177.890450	-75.324239	-94.531869
37721		178.183132	-75.303771	-94.761360
37722		178.508838	-75.287674	-95.051093
37723		178.852730	-75.274530	-95.369157
37724		179.224356	-75.253314	-95.721679
37725		179.629198	-75.238684	-96.088909
37726		-179.949901	-75.240725	-96.482602
37727		-179.491907	-75.241085	-96.909719
37728		-179.016647	-75.241179	-97.364737
37729		-178.560496	-75.232432	-97.789079
37730		-178.143618	-75.225468	-98.177273
37731		-177.779835	-75.223776	-98.490655
37732		-177.473540	-75.235102	-98.737885
37733		-177.222341	-75.241188	-98.901644
37734		-177.036603	-75.240010	-98.996126
37735		-176.903846	-75.235332	-99.031839
37736		-176.825117	-75.238278	-99.025462
37737		-176.755806	-75.248524	-99.007025
37738		-176.727724	-75.262791	-98.966051
37739		-176.728322	-75.270446	-98.903281
37740		-176.733219	-75.259204	-98.851785
37741		-176.717917	-75.210571	-98.817846
37742		-176.714932	-75.135519	-98.796579
37743		-176.725215	-75.040343	-98.765536
37744		-176.722940	-74.943261	-98.760784
37745		-176.692276	-74.851555	-98.778895
37746		-176.629651	-74.776949	-98.833050
37747		-176.527652	-74.709284	-98.917306
37748		-176.380008	-74.649059	-99.051699
37749		-176.223515	-74.582893	-99.176877
37750		-176.045205	-74.521072	-99.314887
37751		-175.866014	-74.466454	-99.430122
37752		-175.683710	-74.421682	-99.545227
37753		-175.506329	-74.378782	-99.646968
37754		-175.310456	-74.339834	-99.779164
37755		-175.045261	-74.304809	-99.975238
37756		-174.690871	-74.289819	-100.278613
37757		-174.295645	-74.295042	-100.627740
37758		-173.895777	-74.325260	-101.004076
37759		-173.505256	-74.372277	-101.366827
37760		-173.145167	-74.423658	-101.709548
37761		-172.851204	-74.460039	-101.986173
37762		-172.628740	-74.471046	-102.201532
37763		-172.413576	-74.455234	-102.402340
37764		-172.169094	-74.414430	-102.641385
37765		-171.903339	-74.364968	-102.901722
37766		-171.617372	-74.313917	-103.203420
37767		-171.328041	-74.270984	-103.503468
37768		-171.057578	-74.238326	-103.778906
37769		-170.830171	-74.214379	-103.977534
37770		-170.658821	-74.185375	-104.093394
37771		-170.582619	-74.136464	-104.085120
37772		-170.558291	-74.061203	-104.012015
37773		-170.546411	-73.962118	-103.910213
37774		-170.499084	-73.859545	-103.855459
37775		-170.387380	-73.777168	-103.877737
37776		-170.204791	-73.731810	-104.012593
37777		-170.033352	-73.711779	-104.162155
37778		-169.907453	-73.704730	-104.277910
37779		-169.847444	-73.686242	-104.290294
37780		-169.872803	-73.656721	-104.180243
37781		-169.917008	-73.620567	-104.016594
37782		-169.949753	-73.591134	-103.878672
37783		-169.915381	-73.569221	-103.832352
37784		-169.797964	-73.555550	-103.909102
37785		-169.614171	-73.549541	-104.077553
37786		-169.414185	-73.552976	-104.285328
37787		-169.196594	-73.566110	-104.499616
37788		-168.994899	-73.596619	-104.695219
37789		-168.792392	-73.643380	-104.866760
37790		-168.580785	-73.704302	-105.036503
37791		-168.367838	-73.779802	-105.202905
37792		-168.130755	-73.871608	-105.410728
37793		-167.882182	-73.971849	-105.645641
37794		-167.644044	-74.073949	-105.911504
37795		-167.409545	-74.167383	-106.201601
37796		-167.209106	-74.261901	-106.492441
37797		-167.087973	-74.346578	-106.715420
37798		-167.049093	-74.413401	-106.869292
37799		-167.066197	-74.468051	-106.953537
37800		-167.100619	-74.523858	-107.016889
37801		-167.155150	-74.581332	-107.041240
37802		-167.217947	-74.641115	-107.053444
37803		-167.303700	-74.702965	-107.035235
37804		-167.415398	-74.757529	-107.005170
37805		-167.568330	-74.803903	-106.935283
37806		-167.734122	-74.848846	-106.859763
37807		-167.878116	-74.895806	-106.797051
37808		-168.014717	-74.954229	-106.745328
37809		-168.196863	-75.024494	-106.650781
37810		-168.435961	-75.107835	-106.488995
37811		-168.785694	-75.193858	-106.189446
37812		-169.283643	-75.283989	-105.716271
37813		-169.916020	-75.379758	-105.070287
37814		-170.739704	-75.502783	-104.221333
37815		-171.837693	-75.650228	-103.083662
37816		-173.287712	-75.819491	-101.600921
37817		-175.072320	-76.006510	-99.771714
37818		-177.191113	-76.209795	-97.603741
37819		-179.683143	-76.424875	-95.071938
37820		177.415597	-76.628242	-92.174448
37821		174.125444	-76.797681	-88.918505
37822		170.461751	-76.915972	-85.343305
37823		166.520487	-76.956654	-81.521572
37824		162.330358	-76.927120	-77.500042
37825		157.896756	-76.821860	-73.287179
37826		153.360488	-76.634200	-69.039858
37827		148.958950	-76.363553	-64.947380
37828		144.835507	-76.015704	-61.135418
37829		141.095257	-75.600589	-57.664323
37830		137.674725	-75.121014	-54.482589
37831		134.484126	-74.581095	-51.495255
37832		131.469722	-73.983566	-48.684712
37833		128.745156	-73.346695	-46.145993
37834		126.335043	-72.678621	-43.911098
37835		124.182555	-71.995864	-41.905887
37836		122.210907	-71.304375	-40.073085
37837		120.361727	-70.608966	-38.335268
37838		118.595740	-69.907674	-36.699845
37839		117.000382	-69.217465	-35.250704
37840		115.607991	-68.534785	-34.027511
37841		114.398533	-67.849106	-32.990421
37842		113.328530	-67.146819	-32.095815
37843		112.368574	-66.436637	-31.275246
37844		111.444796	-65.709054	-30.474500
37845		110.506484	-64.962643	-29.652096
37846		109.524028	-64.206145	-28.814239
37847		108.508480	-63.442061	-27.966484
37848		107.513315	-62.677040	-27.182171
37849		106.593631	-61.912290	-26.483600
37850		105.757412	-61.132683	-25.880561
37851		104.995543	-60.338956	-25.321504
37852		104.254786	-59.523713	-24.774643
37853		103.493342	-58.682433	-24.183683
37854		102.659865	-57.802554	-23.523663
37855		101.783465	-56.898243	-22.805474
37856		100.907035	-55.989773	-22.086206
37857		100.082676	-55.093114	-21.391889
37858		99.315959	-54.210226	-20.752009
37859		98.604545	-53.347062	-20.158262
37860		97.936355	-52.504023	-19.621131
37861		97.284906	-51.665267	-19.109344
37862		96.624883	-50.807532	-18.628749
37863		95.985109	-49.936226	-18.154931
37864		95.377832	-49.057551	-17.687449
37865		94.832862	-48.181821	-17.222354
37866		94.342021	-47.298649	-16.770203
37867		93.882782	-46.405283	-16.312271
37868		93.424298	-45.499495	-15.859543
37869		92.919494	-44.570595	-15.382688
37870		92.350016	-43.640367	-14.921081
37871		91.721941	-42.739822	-14.476447
37872		91.051488	-41.876467	-14.087383
37873		90.374720	-41.070326	-13.757610
37874		89.712473	-40.312908	-13.496770
37875		89.069917	-39.575693	-13.273807
37876		88.446272	-38.833402	-13.071893
37877		87.812986	-38.068017	-12.844491
37878		87.175782	-37.297407	-12.619606
37879		86.562129	-36.553800	-12.400944
37880		85.974933	-35.832042	-12.213563
37881		85.420507	-35.132133	-12.051093
37882		84.890057	-34.436079	-11.915127
37883		84.386106	-33.741934	-11.784738
37884		83.911287	-33.064823	-11.671190
37885		83.462093	-32.402068	-11.551545
37886		83.031617	-31.748366	-11.433215
37887		82.620450	-31.102839	-11.302685
37888		82.210840	-30.449654	-11.152620
37889		81.806909	-29.801081	-10.994446
37890		81.402085	-29.161488	-10.828629
37891		80.986398	-28.551251	-10.664035
37892		80.566710	-27.986551	-10.523422
37893		80.141147	-27.460477	-10.409669
37894		79.708905	-26.964302	-10.340309
37895		79.294574	-26.491610	-10.310920
37896		78.921142	-26.039045	-10.319438
37897		78.587440	-25.587037	-10.342601
37898		78.282101	-25.107793	-10.355424
37899		78.003113	-24.617889	-10.355038
37900		77.757371	-24.140837	-10.358261
37901		77.536564	-23.667148	-10.369557
37902		77.331737	-23.192901	-10.391314
37903		77.153164	-22.719594	-10.428790
37904		77.009132	-22.239206	-10.472682
37905		76.898360	-21.745433	-10.515850
37906		76.813560	-21.246915	-10.556649
37907		76.727454	-20.744031	-10.578468
37908		76.632246	-20.242521	-10.590126
37909		76.518612	-19.747664	-10.587402
37910		76.383552	-19.267659	-10.579370
37911		76.235130	-18.807058	-10.576664
37912		76.082283	-18.365244	-10.579895
37913		75.930018	-17.936523	-10.592889
37914		75.785734	-17.519787	-10.619590
37915		75.644493	-17.103707	-10.650569
37916		75.497612	-16.673125	-10.677475
37917		75.345646	-16.231185	-10.683779
37918		75.196747	-15.781510	-10.668035
37919		75.053938	-15.341199	-10.641410
37920		74.926975	-14.926084	-10.616285
37921		74.811216	-14.532347	-10.602304
37922		74.694014	-14.141049	-10.617799
37923		74.571238	-13.751234	-10.663164
37924		74.444794	-13.372407	-10.728959
37925		74.328378	-13.009918	-10.809850
37926		74.224379	-12.655855	-10.892915
37927		74.137025	-12.315014	-10.980432
37928		74.076169	-12.001083	-11.080617
37929		74.038163	-11.734769	-11.214753
37930		74.009412	-11.519103	-11.386811
37931		73.991350	-11.353667	-11.578088
37932		73.976685	-11.224187	-11.775416
37933		73.958895	-11.099443	-11.973782
37934		73.932830	-10.951433	-12.164402
37935		73.908406	-10.761248	-12.335674
37936		73.891725	-10.531630	-12.467037
37937		73.864262	-10.270556	-12.546151
37938		73.823861	-9.996135	-12.575093
37939		73.786505	-9.716517	-12.552629
37940		73.756470	-9.441683	-12.480512
37941		73.721726	-9.180547	-12.369000
37942		73.672675	-8.935292	-12.237832
37943		73.595601	-8.704479	-12.105257
37944		73.493531	-8.483827	-11.983863
37945		73.376966	-8.264369	-11.877736
37946		73.254132	-8.032894	-11.790863
37947		73.124676	-7.794872	-11.721644
37948		73.013676	-7.604860	-11.680324
37949		72.982979	-7.510191	-11.664893
37950		72.980604	-7.443012	-11.654424
37951		72.982363	-7.357082	-11.646393
37952		72.986186	-7.237057	-11.634148
37953		73.006430	-7.089855	-11.622120
37954		73.053925	-6.930952	-11.620000
37955		73.133422	-6.772483	-11.627496
37956		73.237475	-6.632285	-11.650329
37957		73.358047	-6.501864	-11.694331
37958		73.473250	-6.375135	-11.754167
37959		73.562427	-6.233344	-11.825250
37960		73.623793	-6.091247	-11.896847
37961		73.690280	-6.051591	-11.971578
37962		73.722692	-6.123641	-12.059001
37963		73.670153	-6.255482	-12.148416
37964		73.536033	-6.394915	-12.220794
37965		73.355092	-6.541140	-12.258608
37966		73.167572	-6.694205	-12.263994
37967		73.002350	-6.845948	-12.254460
37968		72.863551	-6.981051	-12.240823
37969		72.753335	-7.095996	-12.238575
37970		72.679221	-7.200800	-12.257704
37971		72.658755	-7.310352	-12.318135
37972		72.700754	-7.437298	-12.439560
37973		72.798331	-7.561671	-12.610456
37974		72.958433	-7.681312	-12.816039
37975		73.159135	-7.789013	-13.027916
37976		73.370062	-7.893764	-13.221459
37977		73.541085	-8.009735	-13.386856
37978		73.648672	-8.167984	-13.529773
37979		73.619004	-8.416201	-13.648432
37980		73.519260	-8.688242	-13.748690
37981		73.390013	-8.946350	-13.815035
37982		73.265426	-9.185941	-13.853877
37983		73.162442	-9.405230	-13.882004
37984		73.102520	-9.620197	-13.904371
37985		73.092387	-9.838927	-13.946874
37986		73.148263	-10.074470	-14.027858
37987		73.267683	-10.300212	-14.133323
37988		73.424496	-10.492677	-14.245463
37989		73.595732	-10.631906	-14.344011
37990		73.772143	-10.718934	-14.417339
37991		73.930933	-10.769824	-14.460828
37992		74.067973	-10.799872	-14.478691
37993		74.195809	-10.819500	-14.482398
37994		74.307928	-10.839058	-14.480418
37995		74.413047	-10.855587	-14.479389
37996		74.526603	-10.880926	-14.480701
37997		74.645202	-10.906773	-14.486270
37998		74.775095	-10.933285	-14.494706
37999		74.909220	-10.943542	-14.501381
38000		75.024775	-10.925481	-14.506203
38001		75.102204	-10.869849	-14.490478
38002		75.132610	-10.794458	-14.461302
38003		75.121173	-10.711473	-14.426301
38004		75.076305	-10.616318	-14.387850
38005		75.022120	-10.492983	-14.337890
38006		74.975714	-10.341111	-14.270406
38007		74.947606	-10.167553	-14.194026
38008		74.949852	-9.987032	-14.115116
38009		74.980652	-9.813020	-14.044223
38010		75.039650	-9.664185	-13.991261
38011		75.124357	-9.553682	-13.970816
38012		75.225465	-9.477104	-13.981962
38013		75.313378	-9.399773	-14.004453
38014		75.377495	-9.319940	-14.017819
38015		75.411176	-9.241970	-14.021342
38016		75.417038	-9.180219	-14.012858
38017		75.396650	-9.148017	-14.007122
38018		75.346715	-9.143689	-14.003126
38019		75.266000	-9.147936	-14.003888
38020		75.164956	-9.167550	-14.007782
38021		75.050772	-9.186202	-14.004352
38022		74.932594	-9.213837	-13.989765
38023		74.803860	-9.243456	-13.962333
38024		74.657838	-9.270474	-13.931571
38025		74.510945	-9.313843	-13.900693
38026		74.380236	-9.363394	-13.862757
38027		74.271183	-9.403549	-13.829591
38028		74.195742	-9.441276	-13.812998
38029		74.152813	-9.461070	-13.823803
38030		74.142377	-9.456796	-13.855671
38031		74.154024	-9.440268	-13.894989
38032		74.180029	-9.428226	-13.930701
38033		74.207577	-9.432145	-13.957907
38034		74.229631	-9.457311	-13.975221
38035		74.242849	-9.489480	-13.985380
38036		74.246524	-9.529413	-13.994252
38037		74.225407	-9.571776	-14.005221
38038		74.178676	-9.620654	-14.017528
38039		74.114512	-9.670390	-14.024967
38040		74.044911	-9.718647	-14.028989
38041		73.982668	-9.763137	-14.027340
38042		73.936968	-9.806539	-14.016713
38043		73.908192	-9.844405	-13.997156
38044		73.905909	-9.886059	-13.974691
38045		73.922506	-9.922219	-13.954202
38046		73.966416	-9.967618	-13.928577
38047		74.031391	-10.010898	-13.895816
38048		74.116627	-10.051907	-13.860057
38049		74.218073	-10.088961	-13.839017
38050		74.329677	-10.109615	-13.837071
38051		74.441984	-10.118722	-13.845991
38052		74.547498	-10.129982	-13.855173
38053		74.630241	-10.142861	-13.861990
38054		74.697719	-10.164018	-13.858464
38055		74.737458	-10.192067	-13.821294
38056		74.738355	-10.214945	-13.760911
38057		74.679672	-10.245398	-13.706107
38058		74.562363	-10.282846	-13.662355
38059		74.397700	-10.318134	-13.617684
38060		74.201124	-10.350743	-13.568106
38061		73.989911	-10.371467	-13.514127
38062		73.789213	-10.386564	-13.443675
38063		73.609078	-10.396466	-13.356015
38064		73.457681	-10.404176	-13.271096
38065		73.371702	-10.417941	-13.204976
38066		73.382685	-10.424571	-13.156981
38067		73.480174	-10.425292	-13.120457
38068		73.645045	-10.422816	-13.082771
38069		73.840582	-10.416684	-13.034702
38070		74.046928	-10.392030	-12.974221
38071		74.261174	-10.346200	-12.911611
38072		74.487662	-10.304130	-12.855596
38073		74.726487	-10.268684	-12.816453
38074		74.989992	-10.227459	-12.797825
38075		75.262934	-10.163744	-12.799291
38076		75.530898	-10.082794	-12.830683
38077		75.774417	-9.998149	-12.892759
38078		76.000469	-9.926279	-12.971471
38079		76.205970	-9.861708	-13.046458
38080		76.386641	-9.809389	-13.108192
38081		76.533123	-9.755580	-13.146868
38082		76.647704	-9.703526	-13.157226
38083		76.733488	-9.655223	-13.144977
38084		76.797449	-9.619234	-13.122946
38085		76.854840	-9.585052	-13.097810
38086		76.913769	-9.554474	-13.072145
38087		76.979419	-9.517372	-13.036713
38088		77.039545	-9.476197	-12.994612
38089		77.083555	-9.409648	-12.962059
38090		77.118268	-9.329698	-12.935887
38091		77.150045	-9.255739	-12.920020
38092		77.178471	-9.200458	-12.913915
38093		77.185386	-9.153225	-12.921640
38094		77.166540	-9.117849	-12.935402
38095		77.135060	-9.098238	-12.931447
38096		77.094437	-9.101942	-12.901488
38097		77.048514	-9.134182	-12.857009
38098		76.988530	-9.154964	-12.800515
38099		76.914588	-9.175577	-12.734178
38100		76.815389	-9.195719	-12.670493
38101		76.713531	-9.213778	-12.611677
38102		76.623525	-9.248107	-12.563395
38103		76.550674	-9.279076	-12.515386
38104		76.486832	-9.303320	-12.468168
38105		76.441430	-9.317299	-12.426685
38106		76.428245	-9.318683	-12.396305
38107		76.449002	-9.302432	-12.382387
38108		76.494511	-9.272796	-12.377124
38109		76.553475	-9.233313	-12.383773
38110		76.620642	-9.197676	-12.405012
38111		76.691885	-9.172742	-12.433526
38112		76.768879	-9.168164	-12.459653
38113		76.823040	-9.165596	-12.477499
38114		76.854529	-9.180630	-12.490464
38115		76.850505	-9.190381	-12.495685
38116		76.802944	-9.197444	-12.484282
38117		76.710901	-9.194718	-12.457291
38118		76.586456	-9.198443	-12.415333
38119		76.443315	-9.215768	-12.370857
38120		76.294871	-9.251189	-12.328695
38121		76.148413	-9.299317	-12.291605
38122		76.011078	-9.353007	-12.261316
38123		75.881958	-9.404445	-12.237158
38124		75.760619	-9.454791	-12.219519
38125		75.640603	-9.511024	-12.201507
38126		75.528953	-9.577064	-12.176483
38127		75.417220	-9.636468	-12.143227
38128		75.310366	-9.684443	-12.099992
38129		75.212514	-9.719116	-12.050760
38130		75.136042	-9.747534	-12.003383
38131		75.085857	-9.765925	-11.970917
38132		75.071007	-9.782025	-11.954340
38133		75.085685	-9.790950	-11.957711
38134		75.115435	-9.792227	-11.974723
38135		75.140099	-9.773549	-11.990387
38136		75.153029	-9.742535	-11.997858
38137		75.148662	-9.709765	-11.999472
38138		75.123513	-9.684911	-12.001047
38139		75.075750	-9.668081	-12.000337
38140		75.013515	-9.658252	-11.994094
38141		74.937660	-9.645086	-11.989301
38142		74.856259	-9.625549	-11.987445
38143		74.769249	-9.594359	-11.986051
38144		74.684957	-9.557827	-11.983532
38145		74.599886	-9.522469	-11.982300
38146		74.520421	-9.496542	-11.980705
38147		74.449428	-9.485805	-11.980328
38148		74.388155	-9.491907	-11.982587
38149		74.342142	-9.516529	-11.993468
38150		74.310962	-9.562426	-12.014768
38151		74.296745	-9.635366	-12.048462
38152		74.294366	-9.741003	-12.101094
38153		74.285219	-9.884905	-12.163624
38154		74.253675	-10.049238	-12.220996
38155		74.196147	-10.205962	-12.254113
38156		74.145817	-10.325307	-12.254708
38157		74.135715	-10.399595	-12.235568
38158		74.165317	-10.454922	-12.203435
38159		74.207155	-10.533277	-12.184024
38160		74.196251	-10.676937	-12.182002
38161		74.082987	-10.886258	-12.158289
38162		73.874333	-11.181646	-12.088261
38163		73.535821	-11.580774	-11.970272
38164		73.157845	-12.025147	-11.798502
38165		72.811123	-12.507051	-11.596073
38166		72.563802	-13.039229	-11.391451
38167		72.429851	-13.630408	-11.199483
38168		72.447820	-14.288635	-11.024815
38169		72.622384	-15.008791	-10.889552
38170		72.931005	-15.770326	-10.806196
38171		73.347323	-16.562493	-10.767804
38172		73.819898	-17.396478	-10.769258
38173		74.302657	-18.293338	-10.798948
38174		74.753762	-19.262403	-10.846803
38175		75.165766	-20.296540	-10.901664
38176		75.559495	-21.402638	-10.946682
38177		75.961456	-22.546252	-10.977241
38178		76.390147	-23.706264	-10.987257
38179		76.839292	-24.854460	-10.956138
38180		77.298844	-25.999478	-10.879585
38181		77.757723	-27.150224	-10.769085
38182		78.207643	-28.316257	-10.638874
38183		78.655449	-29.490218	-10.531975
38184		79.124822	-30.678734	-10.483850
38185		79.632577	-31.854528	-10.499607
38186		80.195158	-33.003788	-10.568059
38187		80.803414	-34.096390	-10.657370
38188		81.448166	-35.132948	-10.741791
38189		82.118137	-36.110904	-10.820634
38190		82.802040	-37.055969	-10.897985
38191		83.512145	-37.985818	-10.987491
38192		84.245008	-38.915078	-11.100894
38193		84.997818	-39.834461	-11.257248
38194		85.755430	-40.747085	-11.461738
38195		86.487729	-41.643996	-11.699880
38196		87.186234	-42.551793	-11.967332
38197		87.861263	-43.489815	-12.239187
38198		88.520174	-44.467811	-12.540312
38199		89.172950	-45.461733	-12.850244
38200		89.826326	-46.459913	-13.193087
38201		90.478089	-47.438449	-13.530657
38202		91.100622	-48.390506	-13.871663
38203		91.697905	-49.315740	-14.189451
38204		92.285749	-50.215119	-14.529249
38205		92.885790	-51.084740	-14.888042
38206		93.516543	-51.926704	-15.299882
38207		94.198220	-52.734988	-15.749391
38208		94.940671	-53.512252	-16.253061
38209		95.746494	-54.260744	-16.794106
38210		96.637428	-55.009425	-17.401576
38211		97.605521	-55.748655	-18.056765
38212		98.626014	-56.470654	-18.757292
38213		99.616981	-57.132719	-19.420018
38214		100.542555	-57.744053	-20.042370
38215		101.465762	-58.340416	-20.636392
38216		102.425538	-58.937783	-21.257705
38217		103.419170	-59.524748	-21.901943
38218		104.375396	-60.087553	-22.548204
38219		105.308517	-60.642465	-23.208464
38220		106.312241	-61.254218	-23.970361
38221		107.388548	-61.908801	-24.823116
38222		108.504183	-62.586924	-25.774309
38223		109.588608	-63.255096	-26.730106
38224		110.646366	-63.917308	-27.691253
38225		111.757156	-64.593462	-28.690808
38226		112.871715	-65.256601	-29.702447
38227		113.934193	-65.895555	-30.667252
38228		115.018651	-66.529291	-31.661906
38229		116.126090	-67.150872	-32.677864
38230		117.287411	-67.767293	-33.781959
38231		118.545569	-68.381265	-34.990162
38232		119.828643	-68.976301	-36.244326
38233		121.092263	-69.560203	-37.461984
38234		122.330134	-70.142496	-38.638885
38235		123.517628	-70.709333	-39.746256
38236		124.713322	-71.258580	-40.889288
38237		125.973965	-71.798059	-42.112959
38238		127.312297	-72.330436	-43.448972
38239		128.648646	-72.845722	-44.816834
38240		130.012409	-73.356542	-46.238795
38241		131.364271	-73.867967	-47.635400
38242		132.747696	-74.373458	-49.069966
38243		134.207144	-74.861651	-50.550508
38244		135.752122	-75.331633	-52.107575
38245		137.457507	-75.768634	-53.797255
38246		139.323908	-76.170520	-55.633841
38247		141.287890	-76.521433	-57.557238
38248		143.476720	-76.832417	-59.679393
38249		145.837318	-77.095584	-61.910504
38250		148.268481	-77.305837	-64.158157
38251		150.716495	-77.474935	-66.326936
38252		153.114074	-77.627233	-68.380606
38253		155.545637	-77.765606	-70.432545
38254		158.109941	-77.887406	-72.634319
38255		160.716648	-77.979339	-74.940046
38256		163.354025	-78.037844	-77.360266
38257		165.956442	-78.070773	-79.820113
38258		168.497300	-78.075015	-82.296393
38259		170.925926	-78.058297	-84.699117
38260		173.260572	-78.024206	-87.020287
38261		175.551959	-77.971080	-89.263358
38262		177.770458	-77.900045	-91.401225
38263		179.862940	-77.814123	-93.370427
38264		-178.082768	-77.724814	-95.267059
38265		-176.112370	-77.635722	-97.034864
38266		-174.232494	-77.552776	-98.722949
38267		-172.424101	-77.467950	-100.366283
38268		-170.707778	-77.357963	-101.978273
38269		-169.063554	-77.212029	-103.547780
38270		-167.487560	-77.050383	-105.088569
38271		-166.000000	-76.888844	-106.559428
38272		-164.569805	-76.738609	-107.966471
38273		-163.228868	-76.601964	-109.266013
38274		-161.935169	-76.460301	-110.509674
38275		-160.614690	-76.307947	-111.745174
38276		-159.289668	-76.153944	-112.973479
38277		-158.038654	-75.994899	-114.115007
38278		-156.858381	-75.840414	-115.177872
38279		-155.799625	-75.695667	-116.105082
38280		-154.848308	-75.545747	-116.921753
38281		-154.026153	-75.392749	-117.599736
38282		-153.358342	-75.246114	-118.139328
38283		-152.827263	-75.105506	-118.558624
38284		-152.424650	-74.971641	-118.868499
38285		-152.137584	-74.855434	-119.065064
38286		-151.921413	-74.774434	-119.209134
38287		-151.768780	-74.722033	-119.299150
38288		-151.663723	-74.693232	-119.372135
38289		-151.609842	-74.679804	-119.420666
38290		-151.588937	-74.673366	-119.466174
38291		-151.601042	-74.669583	-119.479218
38292		-151.649213	-74.660254	-119.468401
38293		-151.735577	-74.636109	-119.433313
38294		-151.844188	-74.592799	-119.408695
38295		-151.955289	-74.537945	-119.390904
38296		-152.059622	-74.479778	-119.396429
38297		-152.155371	-74.427549	-119.391642
38298		-152.240854	-74.399718	-119.375548
38299		-152.326548	-74.394366	-119.329166
38300		-152.427217	-74.416552	-119.267230
38301		-152.501453	-74.445550	-119.231268
38302		-152.534468	-74.464945	-119.251348
38303		-152.545341	-74.467744	-119.293557
38304		-152.567818	-74.453610	-119.343967
38305		-152.614891	-74.424702	-119.374309
38306		-152.714344	-74.387721	-119.371647
38307		-152.845855	-74.352930	-119.340084
38308		-152.987764	-74.325773	-119.306366
38309		-153.106543	-74.320106	-119.276746
38310		-153.178170	-74.338964	-119.286372
38311		-153.259200	-74.365773	-119.253816
38312		-153.372366	-74.394175	-119.169029
38313		-153.513704	-74.412185	-119.031547
38314		-153.662622	-74.420855	-118.879738
38315		-153.802250	-74.424031	-118.738312
38316		-153.922052	-74.422140	-118.639233
38317		-154.019159	-74.423499	-118.574323
38318		-154.100948	-74.430788	-118.536929
38319		-154.156847	-74.446558	-118.519352
38320		-154.197239	-74.460313	-118.512180
38321		-154.235521	-74.473912	-118.485647
38322		-154.260030	-74.493951	-118.459526
38323		-154.277760	-74.518043	-118.421257
38324		-154.290769	-74.548741	-118.389535
38325		-154.323336	-74.577163	-118.352717
38326		-154.383538	-74.598274	-118.314899
38327		-154.445606	-74.609996	-118.277752
38328		-154.518086	-74.620021	-118.239160
38329		-154.597258	-74.631494	-118.186108
38330		-154.689960	-74.648675	-118.111796
38331		-154.782678	-74.670559	-118.020305
38332		-154.842544	-74.693654	-117.948519
38333		-154.887441	-74.723312	-117.883997
38334		-154.952218	-74.755206	-117.812234
38335		-155.040632	-74.784422	-117.725433
38336		-155.146948	-74.810164	-117.633508
38337		-155.293424	-74.825782	-117.496995
38338		-155.483922	-74.833377	-117.316309
38339		-155.711805	-74.835117	-117.069669
38340		-155.995491	-74.847065	-116.753224
38341		-156.296046	-74.869454	-116.399933
38342		-156.604865	-74.898224	-116.036907
38343		-156.910254	-74.931139	-115.671940
38344		-157.219542	-74.965761	-115.325321
38345		-157.510892	-74.997776	-115.006361
38346		-157.799111	-75.026201	-114.713939
38347		-158.066157	-75.059992	-114.442423
38348		-158.320457	-75.101332	-114.194919
38349		-158.561673	-75.141719	-113.952482
38350		-158.800217	-75.180272	-113.727403
38351		-159.052117	-75.209313	-113.491367
38352		-159.329606	-75.229456	-113.237690
38353		-159.653315	-75.247450	-112.928489
38354		-160.009252	-75.270916	-112.574922
38355		-160.367599	-75.309579	-112.175841
38356		-160.750134	-75.373109	-111.729619
38357		-161.167402	-75.450436	-111.235149
38358		-161.591641	-75.520616	-110.747882
38359		-162.019453	-75.571974	-110.269807
38360		-162.457294	-75.609602	-109.799376
38361		-162.899093	-75.634090	-109.323266
38362		-163.366888	-75.650351	-108.821566
38363		-163.888528	-75.661299	-108.251587
38364		-164.460777	-75.679551	-107.626602
38365		-165.094135	-75.725585	-106.941689
38366		-165.760382	-75.801655	-106.235394
38367		-166.472434	-75.895543	-105.486730
38368		-167.226607	-75.990863	-104.711988
38369		-168.006895	-76.078826	-103.915129
38370		-168.791757	-76.158249	-103.134695
38371		-169.572173	-76.232465	-102.359985
38372		-170.327005	-76.313094	-101.622061
38373		-171.105540	-76.416744	-100.871464
38374		-171.966580	-76.547027	-100.074145
38375		-172.907484	-76.694889	-99.236694
38376		-173.915294	-76.851499	-98.371741
38377		-174.982825	-77.007619	-97.461919
38378		-176.070681	-77.143725	-96.537460
38379		-177.175429	-77.245444	-95.577650
38380		-178.305550	-77.318511	-94.570410
38381		-179.512492	-77.381067	-93.456800
38382		179.110699	-77.445101	-92.174680
38383		177.610928	-77.515395	-90.762403
38384		176.007455	-77.582667	-89.252333
38385		174.292397	-77.637382	-87.628828
38386		172.466453	-77.672358	-85.910544
38387		170.551901	-77.683575	-84.112846
38388		168.508179	-77.674197	-82.216193
38389		166.398854	-77.639948	-80.268804
38390		164.231773	-77.576510	-78.285214
38391		162.033911	-77.483673	-76.282159
38392		159.806979	-77.361800	-74.261065
38393		157.575085	-77.221536	-72.225616
38394		155.304305	-77.080694	-70.150728
38395		153.012673	-76.946714	-68.030884
38396		150.678393	-76.806281	-65.867387
38397		148.354612	-76.641184	-63.704939
38398		146.096931	-76.448539	-61.612799
38399		143.927491	-76.229858	-59.599787
38400		141.808909	-75.989391	-57.643948
38401		139.711483	-75.738879	-55.713064
38402		137.587436	-75.479682	-53.800570
38403		135.492440	-75.216804	-51.950023
38404		133.516613	-74.956045	-50.239698
38405		131.658862	-74.693580	-48.645401
38406		129.871424	-74.411901	-47.123997
38407		128.176553	-74.107942	-45.670115
38408		126.554931	-73.760752	-44.264722
38409		125.029072	-73.365691	-42.901196
38410		123.625052	-72.920508	-41.606747
38411		122.270251	-72.427673	-40.299616
38412		120.923870	-71.886657	-38.966366
38413		119.644346	-71.317783	-37.664759
38414		118.463310	-70.727374	-36.456029
38415		117.402528	-70.125094	-35.368760
38416		116.431695	-69.505330	-34.394031
38417		115.515881	-68.871080	-33.489843
38418		114.600303	-68.219973	-32.611078
38419		113.693104	-67.568482	-31.730444
38420		112.749984	-66.913794	-30.822873
38421		111.822356	-66.256710	-29.941658
38422		110.954741	-65.603253	-29.156646
38423		110.160868	-64.962663	-28.458921
38424		109.428680	-64.329194	-27.860399
38425		108.762879	-63.702390	-27.350439
38426		108.132200	-63.070958	-26.903274
38427		107.477569	-62.428193	-26.450582
38428		106.773136	-61.768524	-25.991473
38429		106.065205	-61.114686	-25.538636
38430		105.353073	-60.468999	-25.101619
38431		104.629172	-59.826744	-24.677316
38432		103.928486	-59.195070	-24.298748
38433		103.256177	-58.570933	-23.950366
38434		102.586365	-57.938026	-23.631680
38435		101.919848	-57.303939	-23.326323
38436		101.221674	-56.659021	-23.011714
38437		100.465141	-55.989513	-22.645439
38438		99.705499	-55.316596	-22.262178
38439		98.989728	-54.663445	-21.868018
38440		98.320863	-54.002546	-21.490016
38441		97.665484	-53.314370	-21.086551
38442		96.964913	-52.569737	-20.632405
38443		96.254770	-51.794414	-20.144153
38444		95.618520	-51.027321	-19.703566
38445		95.095518	-50.297293	-19.344290
38446		94.675377	-49.589691	-19.084485
38447		94.342784	-48.889903	-18.895035
38448		94.069298	-48.173844	-18.748967
38449		93.810741	-47.418363	-18.581124
38450		93.522207	-46.618096	-18.358406
38451		93.199218	-45.802945	-18.058323
38452		92.851424	-44.989398	-17.705720
38453		92.476575	-44.191777	-17.312826
38454		92.098191	-43.420653	-16.938354
38455		91.746359	-42.693479	-16.609117
38456		91.414523	-41.998627	-16.346340
38457		91.070378	-41.316722	-16.122836
38458		90.699519	-40.644022	-15.930287
38459		90.298607	-39.991195	-15.724280
38460		89.891576	-39.369551	-15.524317
38461		89.479062	-38.776496	-15.315733
38462		89.066951	-38.186918	-15.128466
38463		88.655589	-37.591424	-14.944104
38464		88.232212	-36.977461	-14.744132
38465		87.785106	-36.357244	-14.491029
38466		87.315701	-35.764357	-14.204049
38467		86.818409	-35.220544	-13.904752
38468		86.291478	-34.734608	-13.630443
38469		85.746491	-34.306418	-13.403782
38470		85.221185	-33.930541	-13.236064
38471		84.724948	-33.597686	-13.097045
38472		84.273676	-33.276565	-12.971948
38473		83.870279	-32.941726	-12.843146
38474		83.526293	-32.582086	-12.709140
38475		83.229159	-32.207149	-12.565120
38476		82.965589	-31.821490	-12.423755
38477		82.703283	-31.424775	-12.285716
38478		82.419477	-31.034528	-12.159389
38479		82.120254	-30.676243	-12.061848
38480		81.826897	-30.352874	-11.997596
38481		81.555052	-30.042045	-11.951973
38482		81.331906	-29.734382	-11.916342
38483		81.162769	-29.423203	-11.884991
38484		81.036173	-29.088786	-11.849083
38485		80.925955	-28.722391	-11.807233
38486		80.820967	-28.333178	-11.763235
38487		80.699226	-27.928576	-11.714464
38488		80.553865	-27.505775	-11.664833
38489		80.395453	-27.076419	-11.613772
38490		80.247254	-26.642296	-11.567492
38491		80.112162	-26.205416	-11.525733
38492		80.002224	-25.768157	-11.490875
38493		79.923687	-25.337015	-11.455434
38494		79.891759	-24.915793	-11.429780
38495		79.888799	-24.492808	-11.410754
38496		79.898800	-24.054963	-11.409548
38497		79.900295	-23.597048	-11.422977
38498		79.898212	-23.133963	-11.449634
38499		79.885035	-22.669140	-11.473775
38500		79.850205	-22.196688	-11.491562
38501		79.790794	-21.736590	-11.500958
38502		79.722432	-21.318144	-11.504214
38503		79.644513	-20.942465	-11.504621
38504		79.543700	-20.588779	-11.504364
38505		79.394759	-20.241382	-11.494227
38506		79.196376	-19.909176	-11.470752
38507		78.960329	-19.611072	-11.435187
38508		78.697314	-19.341661	-11.391894
38509		78.424364	-19.094081	-11.340714
38510		78.155202	-18.857231	-11.283602
38511		77.910681	-18.627599	-11.220193
38512		77.699453	-18.399109	-11.154657
38513		77.502043	-18.157088	-11.091296
38514		77.301796	-17.895745	-11.029828
38515		77.089301	-17.629714	-10.971644
38516		76.874924	-17.361133	-10.920491
38517		76.659155	-17.089040	-10.868826
38518		76.454338	-16.814067	-10.816238
38519		76.256430	-16.531614	-10.759797
38520		76.080733	-16.248976	-10.706003
38521		75.926897	-15.953639	-10.654651
38522		75.801920	-15.626685	-10.609341
38523		75.735887	-15.251263	-10.565998
38524		75.737376	-14.814163	-10.517074
38525		75.786478	-14.327912	-10.459213
38526		75.863324	-13.818101	-10.403741
38527		75.928380	-13.310904	-10.344732
38528		75.949228	-12.838187	-10.289232
38529		75.896236	-12.416699	-10.246228
38530		75.766924	-12.055557	-10.217325
38531		75.561716	-11.754570	-10.184518
38532		75.294146	-11.496760	-10.140402
38533		74.976761	-11.258197	-10.075991
38534		74.634546	-11.037673	-9.996134
38535		74.283658	-10.841465	-9.901275
38536		73.944382	-10.670075	-9.808620
38537		73.621605	-10.522815	-9.730298
38538		73.332058	-10.400043	-9.672152
38539		73.092097	-10.292718	-9.632455
38540		72.908514	-10.189955	-9.606424
38541		72.792837	-10.066550	-9.598949
38542		72.734007	-9.924792	-9.600190
38543		72.722115	-9.764530	-9.605841
38544		72.737740	-9.598321	-9.609564
38545		72.753958	-9.430536	-9.614369
38546		72.758447	-9.281150	-9.626429
38547		72.741568	-9.160935	-9.649660
38548		72.713478	-9.071805	-9.680851
38549		72.670047	-8.996243	-9.708394
38550		72.633549	-8.925297	-9.749429
38551		72.605391	-8.845650	-9.783984
38552		72.600212	-8.762548	-9.813947
38553		72.601372	-8.676869	-9.843399
38554		72.599886	-8.600384	-9.874425
38555		72.583774	-8.537045	-9.902915
38556		72.552230	-8.488300	-9.929988
38557		72.498559	-8.448304	-9.956839
38558		72.434573	-8.414718	-9.984229
38559		72.367287	-8.384166	-10.009848
38560		72.304506	-8.351023	-10.031434
38561		72.250298	-8.314509	-10.041986
38562		72.218372	-8.275362	-10.045249
38563		72.212503	-8.237578	-10.041306
38564		72.219034	-8.208788	-10.042275
38565		72.215896	-8.180641	-10.051638
38566		72.186459	-8.147388	-10.063324
38567		72.139700	-8.104848	-10.073278
38568		72.088321	-8.062379	-10.080494
38569		72.038992	-8.024791	-10.081701
38570		71.990312	-7.991695	-10.074302
38571		71.935875	-7.952479	-10.055167
38572		71.875358	-7.906357	-10.024955
38573		71.806662	-7.850504	-9.985496
38574		71.731306	-7.788858	-9.954228
38575		71.659255	-7.721032	-9.931604
38576		71.598185	-7.648923	-9.916703
38577		71.536884	-7.562755	-9.905168
38578		71.476450	-7.474979	-9.894801
38579		71.394871	-7.396372	-9.887311
38580		71.302791	-7.320575	-9.880255
38581		71.225860	-7.248907	-9.865882
38582		71.181351	-7.186071	-9.845505
38583		71.160261	-7.132734	-9.829011
38584		71.170984	-7.100968	-9.831888
38585		71.194323	-7.102461	-9.852429
38586		71.207414	-7.128600	-9.877956
38587		71.196940	-7.167005	-9.896139
38588		71.165499	-7.208656	-9.899869
38589		71.117811	-7.246224	-9.890892
38590		71.048812	-7.268358	-9.870588
38591		70.952843	-7.266114	-9.843194
38592		70.838171	-7.240922	-9.808810
38593		70.739988	-7.208211	-9.766195
38594		70.664359	-7.177968	-9.721168
38595		70.596698	-7.139603	-9.679615
38596		70.537658	-7.101688	-9.640447
38597		70.473890	-7.061244	-9.600352
38598		70.415735	-7.024461	-9.573498
38599		70.382176	-6.988675	-9.558854
38600		70.380678	-6.952861	-9.564614
38601		70.412036	-6.910533	-9.578534
38602		70.446857	-6.859861	-9.601013
38603		70.480607	-6.804075	-9.620621
38604		70.506764	-6.735484	-9.636201
38605		70.525761	-6.663023	-9.640835
38606		70.537593	-6.587629	-9.638683
38607		70.558639	-6.525505	-9.636754
38608		70.582744	-6.471876	-9.639135
38609		70.603097	-6.420915	-9.645262
38610		70.617559	-6.370587	-9.646519
38611		70.623352	-6.316275	-9.639161
38612		70.621556	-6.263305	-9.622653
38613		70.614443	-6.208322	-9.597984
38614		70.596525	-6.153013	-9.562291
38615		70.578646	-6.095385	-9.514175
38616		70.567218	-6.045327	-9.461514
38617		70.564069	-6.017849	-9.413677
38618		70.565515	-6.013402	-9.377150
38619		70.562576	-6.024910	-9.362182
38620		70.554888	-6.043851	-9.352029
38621		70.537288	-6.071416	-9.342089
38622		70.512380	-6.096065	-9.331550
38623		70.481798	-6.111615	-9.318748
38624		70.448685	-6.111527	-9.311612
38625		70.414552	-6.101675	-9.309605
38626		70.391575	-6.090304	-9.315588
38627		70.380889	-6.083193	-9.326852
38628		70.389978	-6.081663	-9.343696
38629		70.412772	-6.081005	-9.363388
38630		70.442733	-6.097852	-9.393802
38631		70.471861	-6.132608	-9.433833
38632		70.502325	-6.174712	-9.478697
38633		70.527450	-6.212222	-9.517036
38634		70.534807	-6.248187	-9.544481
38635		70.519829	-6.293594	-9.557228
38636		70.477447	-6.379453	-9.561822
38637		70.396200	-6.501653	-9.564362
38638		70.289480	-6.642688	-9.568371
38639		70.179435	-6.800574	-9.566628
38640		70.077001	-6.994373	-9.565786
38641		69.983357	-7.223588	-9.568122
38642		69.910386	-7.480026	-9.576273
38643		69.872398	-7.765089	-9.595920
38644		69.896001	-8.079766	-9.621530
38645		69.978428	-8.416185	-9.654425
38646		70.120731	-8.768030	-9.694663
38647		70.318700	-9.125301	-9.738322
38648		70.563011	-9.483939	-9.780157
38649		70.839971	-9.850788	-9.820788
38650		71.138119	-10.230399	-9.860484
38651		71.442574	-10.628208	-9.903817
38652		71.749437	-11.040064	-9.950736
38653		72.045366	-11.459623	-9.993315
38654		72.325634	-11.889836	-10.027178
38655		72.594867	-12.331678	-10.049065
38656		72.854776	-12.785407	-10.060119
38657		73.097609	-13.249396	-10.062053
38658		73.318979	-13.718468	-10.061579
38659		73.518348	-14.191231	-10.063524
38660		73.713553	-14.665488	-10.064005
38661		73.904054	-15.123636	-10.052678
38662		74.102070	-15.568807	-10.033353
38663		74.307012	-15.994210	-10.006794
38664		74.521213	-16.411893	-9.984688
38665		74.747943	-16.826244	-9.972879
38666		74.982769	-17.236297	-9.973389
38667		75.214062	-17.629429	-9.986266
38668		75.438041	-18.008310	-9.997674
38669		75.655642	-18.374211	-10.004668
38670		75.863841	-18.734491	-10.005590
38671		76.070643	-19.093663	-10.003419
38672		76.283640	-19.447530	-9.999580
38673		76.499905	-19.791952	-9.994065
38674		76.718282	-20.132871	-9.989248
38675		76.924145	-20.464071	-9.972726
38676		77.114548	-20.823359	-9.943594
38677		77.311946	-21.231272	-9.925959
38678		77.515052	-21.661848	-9.936031
38679		77.707059	-22.096072	-9.961122
38680		77.883696	-22.525875	-9.995441
38681		78.048498	-22.934991	-10.030812
38682		78.224178	-23.313718	-10.075326
38683		78.424239	-23.656998	-10.129140
38684		78.665298	-23.974832	-10.190224
38685		78.934734	-24.261630	-10.238657
38686		79.236626	-24.544955	-10.274470
38687		79.554323	-24.851854	-10.290796
38688		79.873033	-25.198973	-10.298652
38689		80.168084	-25.585077	-10.302931
38690		80.421973	-25.996953	-10.305196
38691		80.632943	-26.431476	-10.307698
38692		80.808611	-26.885832	-10.309572
38693		80.939450	-27.343650	-10.308075
38694		81.036237	-27.816733	-10.311202
38695		81.106570	-28.317323	-10.314120
38696		81.170141	-28.843525	-10.325664
38697		81.233354	-29.388053	-10.353889
38698		81.312951	-29.938887	-10.405216
38699		81.416150	-30.473802	-10.474547
38700		81.550590	-30.978163	-10.550612
38701		81.721080	-31.452831	-10.626052
38702		81.937263	-31.900189	-10.706546
38703		82.175749	-32.313004	-10.787474
38704		82.429236	-32.702941	-10.878729
38705		82.698820	-33.081447	-10.983338
38706		82.993667	-33.446721	-11.101328
38707		83.310058	-33.802262	-11.216606
38708		83.648795	-34.145023	-11.343880
38709		83.999921	-34.470060	-11.458399
38710		84.377284	-34.786404	-11.563413
38711		84.781839	-35.096538	-11.664592
38712		85.216004	-35.397780	-11.771340
38713		85.666005	-35.693196	-11.884744
38714		86.132616	-35.983959	-12.008275
38715		86.607891	-36.265643	-12.133603
38716		87.087871	-36.551186	-12.278880
38717		87.576460	-36.842924	-12.423413
38718		88.054731	-37.143261	-12.571361
38719		88.526937	-37.449362	-12.703804
38720		89.005409	-37.759349	-12.833549
38721		89.494023	-38.069911	-12.943460
38722		89.996877	-38.385655	-13.057296
38723		90.500426	-38.714740	-13.152130
38724		90.994750	-39.063103	-13.260260
38725		91.464878	-39.430729	-13.373624
38726		91.903969	-39.813741	-13.506493
38727		92.315610	-40.203425	-13.646446
38728		92.707258	-40.602712	-13.802691
38729		93.073702	-40.992300	-13.945697
38730		93.424818	-41.376501	-14.092869
38731		93.769313	-41.769116	-14.219953
38732		94.105242	-42.153601	-14.341112
38733		94.420516	-42.531193	-14.436054
38734		94.724038	-42.914016	-14.530290
38735		95.026567	-43.311779	-14.624167
38736		95.316648	-43.721398	-14.733984
38737		95.573583	-44.133898	-14.832361
38738		95.791422	-44.546001	-14.931746
38739		95.976954	-44.961404	-15.012067
38740		96.143985	-45.377791	-15.100597
38741		96.281532	-45.788187	-15.169420
38742		96.397894	-46.185911	-15.247989
38743		96.486555	-46.565425	-15.315396
38744		96.570962	-46.932732	-15.397233
38745		96.669292	-47.289300	-15.480530
38746		96.795549	-47.634341	-15.589876
38747		96.959893	-47.972094	-15.715602
38748		97.161011	-48.305565	-15.859253
38749		97.365393	-48.614802	-15.976574
38750		97.575325	-48.913909	-16.093692
38751		97.805905	-49.219927	-16.211303
38752		98.054432	-49.527711	-16.351574
38753		98.308301	-49.832224	-16.502085
38754		98.560723	-50.133798	-16.671133
38755		98.816815	-50.430611	-16.851316
38756		99.099195	-50.731244	-17.071964
38757		99.410504	-51.026966	-17.309211
38758		99.741250	-51.314209	-17.560033
38759		100.090997	-51.596186	-17.808567
38760		100.454167	-51.871321	-18.058013
38761		100.830251	-52.147143	-18.291199
38762		101.207944	-52.418326	-18.520167
38763		101.571212	-52.688389	-18.720012
38764		101.905412	-52.966163	-18.893709
38765		102.193241	-53.250150	-19.021399
38766		102.453623	-53.553492	-19.134823
38767		102.691710	-53.874007	-19.235943
38768		102.933470	-54.222675	-19.367727
38769		103.175465	-54.589999	-19.517243
38770		103.417482	-54.958248	-19.702822
38771		103.672216	-55.323644	-19.910837
38772		103.937954	-55.680555	-20.140352
38773		104.192917	-56.020123	-20.353385
38774		104.447163	-56.351932	-20.567809
38775		104.694884	-56.677194	-20.752644
38776		104.939552	-57.007616	-20.928282
38777		105.171978	-57.347077	-21.076456
38778		105.389086	-57.693318	-21.214501
38779		105.596501	-58.040344	-21.346393
38780		105.828631	-58.391807	-21.518697
38781		106.062611	-58.742678	-21.703595
38782		106.305406	-59.090014	-21.921910
38783		106.553572	-59.444282	-22.159559
38784		106.821700	-59.811527	-22.434091
38785		107.098900	-60.183137	-22.716661
38786		107.377268	-60.549216	-22.997887
38787		107.653163	-60.909269	-23.254318
38788		107.967073	-61.271234	-23.535235
38789		108.330359	-61.634620	-23.838157
38790		108.730761	-61.993615	-24.179143
38791		109.153749	-62.349035	-24.527175
38792		109.568655	-62.697433	-24.863087
38793		109.943805	-63.029048	-25.146689
38794		110.319823	-63.361658	-25.431221
38795		110.726957	-63.699383	-25.735929
38796		111.150533	-64.029467	-26.060540
38797		111.582615	-64.359083	-26.399359
38798		112.056101	-64.699980	-26.796578
38799		112.547545	-65.042946	-27.226864
38800		113.023206	-65.382569	-27.674308
38801		113.464336	-65.721599	-28.093011
38802		113.845323	-66.058563	-28.459085
38803		114.184007	-66.397271	-28.771300
38804		114.466326	-66.729975	-29.034777
38805		114.753558	-67.066292	-29.301427
38806		115.109170	-67.408269	-29.645937
38807		115.523514	-67.740296	-30.049632
38808		115.978000	-68.054531	-30.504301
38809		116.418870	-68.349774	-30.938560
38810		116.816949	-68.636201	-31.325381
38811		117.153110	-68.916695	-31.632606
38812		117.464668	-69.195266	-31.904989
38813		117.765754	-69.476138	-32.161185
38814		118.085867	-69.757756	-32.457386
38815		118.449300	-70.033871	-32.808883
38816		118.851656	-70.305122	-33.222393
38817		119.315730	-70.565555	-33.699340
38818		119.849321	-70.808639	-34.253369
38819		120.432465	-71.037245	-34.859379
38820		121.057952	-71.254755	-35.530610
38821		121.671174	-71.467470	-36.207315
38822		122.278850	-71.685768	-36.901609
38823		122.881342	-71.918438	-37.595427
38824		123.494190	-72.168135	-38.312036
38825		124.144833	-72.430024	-39.063289
38826		124.832936	-72.692901	-39.854291
38827		125.568789	-72.946908	-40.684344
38828		126.398702	-73.202162	-41.595594
38829		127.285329	-73.454671	-42.542246
38830		128.225407	-73.710457	-43.545381
38831		129.228620	-73.969245	-44.610467
38832		130.286191	-74.226874	-45.758661
38833		131.464541	-74.480622	-47.037363
38834		132.776257	-74.728412	-48.449456
38835		134.167392	-74.957393	-49.926330
38836		135.608975	-75.161130	-51.440611
38837		136.986378	-75.343404	-52.869642
38838		138.321187	-75.518653	-54.253380
38839		139.655676	-75.691179	-55.625802
38840		141.006654	-75.855547	-57.036620
38841		142.430133	-76.016114	-58.536518
38842		143.935760	-76.169403	-60.138037
38843		145.459321	-76.312014	-61.761419
38844		147.038994	-76.447978	-63.437837
38845		148.589946	-76.575228	-65.064935
38846		150.119939	-76.696606	-66.656016
38847		151.611427	-76.802028	-68.182242
38848		153.066370	-76.885795	-69.658087
38849		154.466355	-76.951304	-71.059399
38850		155.815780	-77.003603	-72.405685
38851		157.112852	-77.049227	-73.696804
38852		158.321122	-77.092930	-74.918726
38853		159.453762	-77.139332	-76.079332
38854		160.600237	-77.184765	-77.277257
38855		161.782019	-77.232065	-78.516173
38856		162.968923	-77.275295	-79.775292
38857		164.162315	-77.308939	-81.032425
38858		165.349669	-77.331339	-82.281581
38859		166.487080	-77.342614	-83.476114
38860		167.612304	-77.354385	-84.660480
38861		168.710059	-77.377255	-85.832317
38862		169.856890	-77.397549	-87.078711
38863		171.053311	-77.413537	-88.384984
38864		172.261407	-77.415045	-89.724202
38865		173.492521	-77.400680	-91.079599
38866		174.696567	-77.378073	-92.400656
38867		175.817746	-77.349543	-93.614520
38868		176.856515	-77.324143	-94.740404
38869		177.815021	-77.291123	-95.775468
38870		178.750303	-77.239956	-96.791029
38871		179.673184	-77.163820	-97.781101
38872		-179.419342	-77.065551	-98.746386
38873		-178.575031	-76.949811	-99.622066
38874		-177.821694	-76.832453	-100.383089
38875		-177.117615	-76.734401	-101.068210
38876		-176.461679	-76.665301	-101.733798
38877		-175.784831	-76.609929	-102.445062
38878		-175.050358	-76.560093	-103.253160
38879		-174.287166	-76.498436	-104.117846
38880		-173.517962	-76.415891	-105.012410
38881		-172.820758	-76.314608	-105.843092
38882		-172.201644	-76.206775	-106.586231
38883		-171.661175	-76.111084	-107.219010
38884		-171.207268	-76.037377	-107.753203
38885		-170.821156	-75.978032	-108.214882
38886		-170.446458	-75.915811	-108.657197
38887		-170.090370	-75.844752	-109.064987
38888		-169.762740	-75.768545	-109.439866
38889		-169.485646	-75.689673	-109.753345
38890		-169.274534	-75.612293	-110.007970
38891		-169.120134	-75.543890	-110.204367
38892		-169.021599	-75.482385	-110.352396
38893		-168.935176	-75.431928	-110.489737
38894		-168.852321	-75.393432	-110.630583
38895		-168.745584	-75.364388	-110.786101
38896		-168.656310	-75.354766	-110.932506
38897		-168.571830	-75.357705	-111.069445
38898		-168.464979	-75.361813	-111.226788
38899		-168.354033	-75.371635	-111.369645
38900		-168.272918	-75.379411	-111.479803
38901		-168.208894	-75.395610	-111.563807
38902		-168.185580	-75.425161	-111.627249
38903		-168.192258	-75.466760	-111.672953
38904		-168.197245	-75.509892	-111.725262
38905		-168.179723	-75.537769	-111.794329
38906		-168.125610	-75.540783	-111.892557
38907		-168.056900	-75.515872	-111.985506
38908		-167.964607	-75.477350	-112.092374
38909		-167.851861	-75.438080	-112.199623
38910		-167.731346	-75.400714	-112.317229
38911		-167.661442	-75.358693	-112.381776
38912		-167.640891	-75.311603	-112.402314
38913		-167.658599	-75.263853	-112.373628
38914		-167.721794	-75.221164	-112.304095
38915		-167.782292	-75.185939	-112.234319
38916		-167.824944	-75.153821	-112.180926
38917		-167.849068	-75.131061	-112.137482
38918		-167.867575	-75.118062	-112.107991
38919		-167.895251	-75.107563	-112.070345
38920		-167.952704	-75.098794	-112.011755
38921		-168.043915	-75.101529	-111.920968
38922		-168.144976	-75.108378	-111.830043
38923		-168.271900	-75.117833	-111.720743
38924		-168.429352	-75.122060	-111.592524
38925		-168.595633	-75.128902	-111.457604
38926		-168.776892	-75.141059	-111.314929
38927		-168.982515	-75.163907	-111.141952
38928		-169.209769	-75.191333	-110.960823
38929		-169.456133	-75.221942	-110.771332
38930		-169.733145	-75.246964	-110.570063
38931		-170.022571	-75.266344	-110.356509
38932		-170.324213	-75.273357	-110.123193
38933		-170.656303	-75.272490	-109.841067
38934		-171.016835	-75.262794	-109.517128
38935		-171.426809	-75.257231	-109.136998
38936		-171.887291	-75.249525	-108.718564
38937		-172.371359	-75.245327	-108.276749
38938		-172.893209	-75.240423	-107.807566
38939		-173.440536	-75.230370	-107.306325
38940		-174.026544	-75.207944	-106.754367
38941		-174.639769	-75.179368	-106.163629
38942		-175.302792	-75.146212	-105.517389
38943		-175.999027	-75.122331	-104.823979
38944		-176.750863	-75.111612	-104.080374
38945		-177.539665	-75.118982	-103.297989
38946		-178.363338	-75.139166	-102.493332
38947		-179.217751	-75.164137	-101.660695
38948		179.890736	-75.184877	-100.803432
38949		178.936367	-75.206395	-99.894008
38950		177.941870	-75.225611	-98.961582
38951		176.904633	-75.247837	-97.992282
38952		175.808654	-75.267806	-96.973049
38953		174.681865	-75.285398	-95.898794
38954		173.487080	-75.298206	-94.726355
38955		172.220504	-75.305740	-93.428481
38956		170.868795	-75.305395	-91.998449
38957		169.417263	-75.301792	-90.433529
38958		167.856484	-75.288939	-88.747562
38959		166.230909	-75.260027	-86.982466
38960		164.525280	-75.205865	-85.133174
38961		162.774815	-75.123397	-83.225544
38962		160.972404	-75.015262	-81.252880
38963		159.085045	-74.900907	-79.190521
38964		157.134307	-74.797101	-77.107658
38965		155.234659	-74.702082	-75.145902
38966		153.398755	-74.613370	-73.371721
38967		151.690973	-74.523373	-71.850711
38968		150.184455	-74.423600	-70.632679
38969		148.868055	-74.299553	-69.652557
38970		147.655230	-74.145038	-68.780818
38971		146.485416	-73.959723	-67.899620
38972		145.269249	-73.748735	-66.905959
38973		143.980502	-73.523480	-65.766764
38974		142.627812	-73.295267	-64.514869
38975		141.245910	-73.061153	-63.190661
38976		139.871420	-72.808367	-61.845225
38977		138.525872	-72.525610	-60.491165
38978		137.216119	-72.201854	-59.141118
38979		135.948527	-71.841046	-57.777344
38980		134.693093	-71.443704	-56.383948
38981		133.416020	-71.025617	-54.942148
38982		132.039426	-70.592257	-53.421341
38983		130.612935	-70.172010	-51.885668
38984		129.178686	-69.767952	-50.408463
38985		127.797546	-69.373978	-49.052727
38986		126.530065	-68.986100	-47.873405
38987		125.407737	-68.594530	-46.874108
38988		124.383659	-68.190726	-46.008507
38989		123.415054	-67.768289	-45.225138
38990		122.442582	-67.321550	-44.463622
38991		121.431678	-66.865465	-43.668710
38992		120.351951	-66.406474	-42.806373
38993		119.243635	-65.954292	-41.893359
38994		118.163847	-65.502825	-40.987465
38995		117.147567	-65.049861	-40.113858
38996		116.186103	-64.582471	-39.278394
38997		115.275600	-64.103833	-38.463167
38998		114.378529	-63.613230	-37.662907
38999		113.489922	-63.108175	-36.874837
39000		112.576736	-62.584149	-36.081487
39001		111.674643	-62.052204	-35.302651
39002		110.811630	-61.522367	-34.556617
39003		109.965056	-60.997787	-33.811101
39004		109.116434	-60.472804	-33.063512
39005		108.266723	-59.955056	-32.311648
39006		107.391666	-59.436337	-31.562277
39007		106.523356	-58.923155	-30.853500
39008		105.679662	-58.411788	-30.217933
39009		104.866839	-57.902356	-29.637067
39010		104.082371	-57.388727	-29.103364
39011		103.328887	-56.870003	-28.584894
39012		102.593042	-56.330394	-28.062372
39013		101.867407	-55.765186	-27.514369
39014		101.111614	-55.170731	-26.917137
39015		100.356296	-54.570993	-26.302838
39016		99.611419	-53.983696	-25.709440
39017		98.878700	-53.412400	-25.152887
39018		98.174560	-52.853463	-24.655044
39019		97.506251	-52.310872	-24.195841
39020		96.851205	-51.757374	-23.755783
39021		96.207503	-51.180010	-23.308765
39022		95.550012	-50.569457	-22.836036
39023		94.888704	-49.925385	-22.327754
39024		94.261240	-49.268833	-21.821471
39025		93.694520	-48.609898	-21.325225
39026		93.192800	-47.935185	-20.863975
39027		92.766923	-47.248601	-20.439282
39028		92.369275	-46.533638	-20.030699
39029		91.960287	-45.790035	-19.609742
39030		91.543363	-45.033986	-19.181594
39031		91.108123	-44.270836	-18.732713
39032		90.634257	-43.498673	-18.263075
39033		90.104479	-42.730548	-17.765162
39034		89.539558	-41.995420	-17.282117
39035		88.954298	-41.309761	-16.828275
39036		88.345721	-40.680981	-16.438077
39037		87.711004	-40.102372	-16.097922
39038		87.049723	-39.564047	-15.801984
39039		86.384778	-39.061416	-15.527922
39040		85.723422	-38.579729	-15.263817
39041		85.056527	-38.086258	-14.977396
39042		84.400058	-37.569758	-14.676925
39043		83.787773	-37.051517	-14.366026
39044		83.233098	-36.534599	-14.064384
39045		82.738009	-36.027359	-13.778945
39046		82.296527	-35.502518	-13.522298
39047		81.937612	-34.952015	-13.287843
39048		81.728235	-34.367869	-13.088390
39049		81.668258	-33.738769	-12.918064
39050		81.729279	-33.057505	-12.778544
39051		81.856038	-32.332295	-12.656594
39052		81.994645	-31.580297	-12.528787
39053		82.103873	-30.825303	-12.390297
39054		82.170972	-30.091987	-12.257817
39055		82.195725	-29.417170	-12.151402
39056		82.174836	-28.808709	-12.079946
39057		82.103402	-28.267428	-12.042307
39058		81.991138	-27.772668	-12.032697
39059		81.843294	-27.305542	-12.028469
39060		81.688986	-26.846271	-12.019482
39061		81.562919	-26.368548	-11.999861
39062		81.502652	-25.847298	-11.971093
39063		81.513871	-25.275727	-11.944462
39064		81.586438	-24.678170	-11.936477
39065		81.693898	-24.078431	-11.946189
39066		81.800874	-23.487845	-11.955094
39067		81.877264	-22.920261	-11.950521
39068		81.909102	-22.395184	-11.931119
39069		81.889771	-21.919143	-11.911216
39070		81.812952	-21.498979	-11.905584
39071		81.672903	-21.143572	-11.907814
39072		81.462700	-20.835306	-11.908271
39073		81.183952	-20.560273	-11.899783
39074		80.866176	-20.302198	-11.882104
39075		80.562337	-20.043287	-11.859561
39076		80.313160	-19.768218	-11.833822
39077		80.125285	-19.477966	-11.808108
39078		79.983905	-19.177016	-11.787703
39079		79.874232	-18.872829	-11.787908
39080		79.784576	-18.566506	-11.807831
39081		79.698326	-18.256263	-11.843240
39082		79.613367	-17.948798	-11.892878
39083		79.524445	-17.651040	-11.946559
39084		79.422812	-17.353564	-12.000674
39085		79.295041	-17.062177	-12.039102
39086		79.133450	-16.769351	-12.058213
39087		78.931406	-16.486883	-12.058004
39088		78.708579	-16.225591	-12.050808
39089		78.483975	-15.965597	-12.048179
39090		78.288640	-15.686036	-12.054087
39091		78.128920	-15.372730	-12.063665
39092		78.012198	-15.037589	-12.073278
39093		77.919152	-14.683236	-12.073422
39094		77.821636	-14.323359	-12.060342
39095		77.709709	-13.976370	-12.032163
39096		77.565780	-13.649174	-11.991976
39097		77.384347	-13.337452	-11.953265
39098		77.182972	-13.035818	-11.931411
39099		76.971900	-12.736579	-11.925796
39100		76.770706	-12.436638	-11.938954
39101		76.581097	-12.136480	-11.959266
39102		76.421829	-11.823062	-11.986503
39103		76.298534	-11.510466	-12.018666
39104		76.211899	-11.207418	-12.057688
39105		76.144154	-10.912079	-12.101255
39106		76.073419	-10.622889	-12.156482
39107		75.982305	-10.358382	-12.215849
39108		75.859044	-10.119222	-12.279393
39109		75.703528	-9.907425	-12.337222
39110		75.523962	-9.713270	-12.387763
39111		75.334736	-9.524548	-12.433628
39112		75.163385	-9.335125	-12.482319
39113		75.022292	-9.143607	-12.536267
39114		74.914641	-8.952038	-12.601030
39115		74.829186	-8.764043	-12.666385
39116		74.762432	-8.576840	-12.725202
39117		74.693217	-8.393333	-12.764438
39118		74.613646	-8.216378	-12.785268
39119		74.506208	-8.050627	-12.788883
39120		74.374179	-7.886982	-12.778521
39121		74.233325	-7.716561	-12.761543
39122		74.122488	-7.544055	-12.747061
39123		74.065232	-7.364337	-12.744814
39124		74.066093	-7.167587	-12.764446
39125		74.099991	-6.959050	-12.788304
39126		74.143324	-6.743926	-12.806429
39127		74.170515	-6.537762	-12.810848
39128		74.159383	-6.344610	-12.813722
39129		74.098139	-6.175362	-12.820544
39130		74.007473	-6.050179	-12.835645
39131		73.897959	-5.963221	-12.855543
39132		73.788581	-5.900697	-12.877984
39133		73.691232	-5.838088	-12.895794
39134		73.611570	-5.769913	-12.909509
39135		73.557570	-5.690327	-12.920945
39136		73.531905	-5.600303	-12.939773
39137		73.522170	-5.497159	-12.964761
39138		73.527669	-5.386907	-12.998837
39139		73.539337	-5.271191	-13.034939
39140		73.561656	-5.144123	-13.073318
39141		73.581528	-5.016799	-13.106723
39142		73.600027	-4.896838	-13.136082
39143		73.597361	-4.793283	-13.161133
39144		73.573174	-4.701322	-13.181102
39145		73.522815	-4.620572	-13.197148
39146		73.457350	-4.548959	-13.210169
39147		73.370505	-4.478571	-13.220607
39148		73.266509	-4.407340	-13.220571
39149		73.145874	-4.326770	-13.205202
39150		73.098664	-4.234048	-13.164147
39151		73.079617	-4.145320	-13.097003
39152		73.086675	-4.096789	-13.022685
39153		73.116809	-4.149682	-12.936685
39154		73.125293	-4.271941	-12.859725
39155		73.102737	-4.430989	-12.787976
39156		73.059245	-4.595219	-12.718702
39157		72.993390	-4.706491	-12.668443
39158		72.922091	-4.746076	-12.641287
39159		72.870860	-4.741580	-12.631812
39160		72.839166	-4.706532	-12.637100
39161		72.841054	-4.656944	-12.648715
39162		72.868531	-4.604505	-12.664803
39163		72.905216	-4.564269	-12.691519
39164		72.959641	-4.528660	-12.730804
39165		73.033511	-4.496037	-12.773114
39166		73.120667	-4.463878	-12.815115
39167		73.188370	-4.432590	-12.855746
39168		73.223315	-4.407410	-12.893228
39169		73.218421	-4.392530	-12.923173
39170		73.187219	-4.390801	-12.939344
39171		73.136914	-4.396340	-12.942027
39172		73.068335	-4.408760	-12.933926
39173		72.990193	-4.430978	-12.914180
39174		72.910569	-4.467948	-12.893253
39175		72.830242	-4.513252	-12.872503
39176		72.754183	-4.560281	-12.856557
39177		72.675999	-4.604599	-12.842043
39178		72.602478	-4.637169	-12.824072
39179		72.540344	-4.652672	-12.802047
39180		72.488176	-4.658771	-12.781454
39181		72.449439	-4.671756	-12.762269
39182		72.416998	-4.703619	-12.742713
39183		72.358294	-4.749400	-12.714005
39184		72.260648	-4.819353	-12.675273
39185		72.119056	-4.940787	-12.624088
39186		71.938674	-5.138302	-12.565633
39187		71.711850	-5.418423	-12.504618
39188		71.441512	-5.758123	-12.460879
39189		71.156819	-6.150739	-12.430130
39190		70.895148	-6.577453	-12.403082
39191		70.692778	-7.009255	-12.380798
39192		70.567899	-7.425768	-12.361783
39193		70.522476	-7.817002	-12.342721
39194		70.561933	-8.189567	-12.327650
39195		70.671822	-8.548580	-12.319262
39196		70.837263	-8.895766	-12.321144
39197		71.039757	-9.246221	-12.330534
39198		71.268478	-9.604163	-12.347751
39199		71.508320	-9.971070	-12.371009
39200		71.748821	-10.339663	-12.397206
39201		71.975324	-10.710256	-12.410627
39202		72.180681	-11.091114	-12.412433
39203		72.362774	-11.493607	-12.395957
39204		72.534362	-11.918101	-12.369960
39205		72.699667	-12.360351	-12.337521
39206		72.871214	-12.820834	-12.301414
39207		73.056635	-13.278656	-12.261750
39208		73.270941	-13.724838	-12.217006
39209		73.511400	-14.151522	-12.160531
39210		73.785410	-14.547796	-12.092846
39211		74.073770	-14.938690	-12.006046
39212		74.365573	-15.334947	-11.927232
39213		74.650889	-15.747338	-11.867251
39214		74.939131	-16.176778	-11.828623
39215		75.231390	-16.622729	-11.803948
39216		75.540126	-17.083632	-11.791965
39217		75.866931	-17.543447	-11.786654
39218		76.213457	-18.002822	-11.784053
39219		76.570354	-18.463038	-11.773488
39220		76.926834	-18.931368	-11.760632
39221		77.267432	-19.406030	-11.750416
39222		77.589650	-19.894096	-11.743662
39223		77.899208	-20.391631	-11.746192
39224		78.212756	-20.897521	-11.758611
39225		78.530964	-21.401781	-11.778792
39226		78.866015	-21.900086	-11.805460
39227		79.211594	-22.381488	-11.827304
39228		79.569997	-22.846369	-11.842862
39229		79.932532	-23.311217	-11.855071
39230		80.307835	-23.782852	-11.875779
39231		80.695018	-24.268998	-11.909316
39232		81.096350	-24.770388	-11.961598
39233		81.491931	-25.276514	-12.023664
39234		81.877066	-25.782091	-12.084910
39235		82.245035	-26.294306	-12.134554
39236		82.605877	-26.811174	-12.171362
39237		82.954788	-27.329226	-12.193694
39238		83.311464	-27.850119	-12.221375
39239		83.678657	-28.377429	-12.253528
39240		84.062775	-28.909175	-12.298884
39241		84.456401	-29.437794	-12.351167
39242		84.858606	-29.961692	-12.408470
39243		85.254188	-30.474521	-12.458384
39244		85.647278	-30.977825	-12.504257
39245		86.039887	-31.467379	-12.538492
39246		86.428544	-31.943145	-12.579174
39247		86.826650	-32.415478	-12.625364
39248		87.236823	-32.897243	-12.680380
39249		87.656134	-33.390206	-12.740403
39250		88.090170	-33.902153	-12.822185
39251		88.526590	-34.418426	-12.902933
39252		88.956532	-34.943079	-12.993300
39253		89.382079	-35.480480	-13.079019
39254		89.807163	-36.024357	-13.184611
39255		90.230463	-36.578110	-13.296811
39256		90.663816	-37.141728	-13.439951
39257		91.098090	-37.710386	-13.595293
39258		91.523785	-38.283533	-13.767572
39259		91.928121	-38.842509	-13.932226
39260		92.304057	-39.388712	-14.094215
39261		92.666112	-39.923074	-14.250212
39262		93.062876	-40.479300	-14.434890
39263		93.496087	-41.050353	-14.639767
39264		93.964971	-41.627338	-14.874100
39265		94.456193	-42.205003	-15.104855
39266		94.955491	-42.776919	-15.332106
39267		95.464647	-43.346452	-15.551903
39268		95.970617	-43.908653	-15.772495
39269		96.461041	-44.449495	-15.981996
39270		96.944308	-44.984586	-16.199557
39271		97.418517	-45.497771	-16.407624
39272		97.901171	-46.000830	-16.628643
39273		98.409329	-46.501235	-16.857478
39274		98.960439	-47.019877	-17.116708
39275		99.552516	-47.567621	-17.400413
39276		100.148536	-48.127452	-17.698289
39277		100.713903	-48.682451	-17.977003
39278		101.247797	-49.237130	-18.246273
39279		101.750552	-49.789913	-18.491869
39280		102.224360	-50.332305	-18.732836
39281		102.680859	-50.859933	-18.972298
39282		103.152295	-51.385264	-19.245705
39283		103.626303	-51.898085	-19.537488
39284		104.096318	-52.382119	-19.854983
39285		104.576952	-52.868885	-20.181054
39286		105.075201	-53.372702	-20.529195
39287		105.563983	-53.872144	-20.867429
39288		106.061825	-54.369731	-21.220695
39289		106.557764	-54.861616	-21.571154
39290		107.035623	-55.331320	-21.920887
39291		107.512505	-55.790069	-22.272468
39292		107.994020	-56.255611	-22.633030
39293		108.446362	-56.709170	-22.961926
39294		108.868109	-57.158327	-23.272719
39295		109.254837	-57.608663	-23.552701
39296		109.640321	-58.061071	-23.839876
39297		110.041390	-58.515988	-24.133935
39298		110.469915	-58.965108	-24.459709
39299		110.923662	-59.403016	-24.801508
39300		111.398313	-59.821279	-25.166271
39301		111.918582	-60.241575	-25.558803
39302		112.486939	-60.663998	-25.992431
39303		113.066481	-61.080722	-26.427743
39304		113.623841	-61.490059	-26.845226
39305		114.146906	-61.897812	-27.217348
39306		114.680686	-62.323636	-27.598368
39307		115.243574	-62.773664	-28.012852
39308		115.820815	-63.233512	-28.477131
39309		116.422547	-63.700276	-28.991667
39310		117.035342	-64.172447	-29.562306
39311		117.649459	-64.647231	-30.162833
39312		118.290432	-65.140772	-30.813049
39313		118.945764	-65.647807	-31.491713
39314		119.615559	-66.160473	-32.212149
39315		120.287840	-66.676790	-32.949585
39316		120.963369	-67.191279	-33.697975
39317		121.650539	-67.694263	-34.408761
39318		122.372017	-68.185794	-35.079427
39319		123.186167	-68.662525	-35.749620
39320		124.080221	-69.121023	-36.440881
39321		124.998748	-69.554681	-37.127172
39322		125.911281	-69.973128	-37.816538
39323		126.810206	-70.389890	-38.513264
39324		127.741598	-70.827755	-39.282687
39325		128.636503	-71.271496	-40.068224
39326		129.521615	-71.703355	-40.916822
39327		130.444691	-72.119398	-41.851957
39328		131.399270	-72.509397	-42.851524
39329		132.439937	-72.876114	-43.931520
39330		133.563045	-73.224205	-45.078830
39331		134.704808	-73.548925	-46.228559
39332		135.901760	-73.863383	-47.422487
39333		137.062933	-74.171502	-48.582798
39334		138.213488	-74.465369	-49.744566
39335		139.416569	-74.752279	-50.959476
39336		140.663181	-75.015559	-52.237293
39337		142.003351	-75.246523	-53.611859
39338		143.462843	-75.441713	-55.103246
39339		144.987415	-75.606537	-56.645904
39340		146.589569	-75.751912	-58.253936
39341		148.179160	-75.887682	-59.842026
39342		149.683531	-76.014329	-61.354866
39343		151.095205	-76.131807	-62.776782
39344		152.440159	-76.244992	-64.137423
39345		153.730498	-76.346428	-65.445229
39346		155.039207	-76.426185	-66.780367
39347		156.333610	-76.488741	-68.096651
39348		157.639464	-76.534463	-69.424126
39349		158.958205	-76.574524	-70.749102
39350		160.218087	-76.619776	-72.014505
39351		161.491849	-76.671315	-73.285796
39352		162.819816	-76.731681	-74.606051
39353		164.083889	-76.793130	-75.867523
39354		165.339111	-76.840828	-77.133429
39355		166.636863	-76.870857	-78.437976
39356		167.923033	-76.881885	-79.740514
39357		169.214675	-76.870928	-81.039374
39358		170.463487	-76.853171	-82.293556
39359		171.671468	-76.829531	-83.506540
39360		172.929893	-76.797240	-84.762994
39361		174.212402	-76.765436	-86.032949
39362		175.509697	-76.731365	-87.314505
39363		176.818275	-76.684738	-88.594111
39364		178.062510	-76.622086	-89.822090
39365		179.222290	-76.543182	-90.968821
39366		-179.632602	-76.452506	-92.096751
39367		-178.482206	-76.355169	-93.218123
39368		-177.293607	-76.250524	-94.368560
39369		-176.155979	-76.155539	-95.466557
39370		-175.147050	-76.070437	-96.455993
39371		-174.182134	-76.005797	-97.382940
39372		-173.209379	-75.957372	-98.328705
39373		-172.296084	-75.909694	-99.228257
39374		-171.426970	-75.857254	-100.102997
39375		-170.647620	-75.800612	-100.903084
39376		-169.929925	-75.739016	-101.663287
39377		-169.231449	-75.680889	-102.388534
39378		-168.595360	-75.630330	-103.031019
39379		-168.002789	-75.588580	-103.586772
39380		-167.474839	-75.556706	-104.043124
39381		-167.030708	-75.537330	-104.391652
39382		-166.666087	-75.519708	-104.658009
39383		-166.356343	-75.497795	-104.862391
39384		-166.129674	-75.464048	-105.013605
39385		-165.960958	-75.416783	-105.131756
39386		-165.817379	-75.368904	-105.261696
39387		-165.672726	-75.335262	-105.428384
39388		-165.435319	-75.306333	-105.727692
39389		-165.097342	-75.276643	-106.146935
39390		-164.715898	-75.254892	-106.636863
39391		-164.288501	-75.230696	-107.157618
39392		-163.862909	-75.200863	-107.649990
39393		-163.518536	-75.175528	-108.023625
39394		-163.244628	-75.149171	-108.287064
39395		-163.038472	-75.123791	-108.437183
39396		-162.905024	-75.107114	-108.491424
39397		-162.809494	-75.092467	-108.492853
39398		-162.767583	-75.087733	-108.459022
39399		-162.733333	-75.084308	-108.447837
39400		-162.655832	-75.065683	-108.523259
39401		-162.528515	-75.031937	-108.675082
39402		-162.394694	-74.994033	-108.859011
39403		-162.287316	-74.956522	-109.018711
39404		-162.204319	-74.921398	-109.143703
39405		-162.187096	-74.901616	-109.178418
39406		-162.223773	-74.901610	-109.140871
39407		-162.286838	-74.924505	-109.058933
39408		-162.363313	-74.959213	-108.969524
39409		-162.429485	-74.991013	-108.896089
39410		-162.489912	-75.009238	-108.839742
39411		-162.540285	-75.015786	-108.796914
39412		-162.589497	-75.011709	-108.750761
39413		-162.626361	-75.008063	-108.707549
39414		-162.648208	-75.013109	-108.673019
39415		-162.645040	-75.031682	-108.657793
39416		-162.623580	-75.051303	-108.670252
39417		-162.582416	-75.062605	-108.711932
39418		-162.528021	-75.060378	-108.777898
39419		-162.461601	-75.049999	-108.849748
39420		-162.407164	-75.037372	-108.914979
39421		-162.385177	-75.025094	-108.945892
39422		-162.420611	-75.012357	-108.927948
39423		-162.512160	-75.009535	-108.859549
39424		-162.622352	-75.013919	-108.779394
39425		-162.728493	-75.023414	-108.703524
39426		-162.832305	-75.029567	-108.637723
39427		-162.914555	-75.031500	-108.596160
39428		-163.020106	-75.024989	-108.543360
39429		-163.151855	-75.012665	-108.463864
39430		-163.309809	-74.998459	-108.349942
39431		-163.476598	-74.994501	-108.205381
39432		-163.660420	-74.999440	-108.033504
39433		-163.838163	-75.012516	-107.864929
39434		-164.008860	-75.027621	-107.727018
39435		-164.154718	-75.041464	-107.637976
39436		-164.302338	-75.046587	-107.573237
39437		-164.475288	-75.046034	-107.492533
39438		-164.673671	-75.041018	-107.379804
39439		-164.900846	-75.035924	-107.214913
39440		-165.157482	-75.034011	-107.007667
39441		-165.428436	-75.038012	-106.767981
39442		-165.728339	-75.050511	-106.502702
39443		-166.044200	-75.065511	-106.226593
39444		-166.377265	-75.086431	-105.953221
39445		-166.742346	-75.106937	-105.655320
39446		-167.119977	-75.124156	-105.356812
39447		-167.497035	-75.138211	-105.045421
39448		-167.895086	-75.149415	-104.695767
39449		-168.319268	-75.164377	-104.285014
39450		-168.787631	-75.187254	-103.800328
39451		-169.280644	-75.219076	-103.256276
39452		-169.853381	-75.265161	-102.623938
39453		-170.470286	-75.331816	-101.937852
39454		-171.167452	-75.418100	-101.177293
39455		-171.906285	-75.511239	-100.378054
39456		-172.736282	-75.605578	-99.501746
39457		-173.643986	-75.708255	-98.554770
39458		-174.657391	-75.809461	-97.526800
39459		-175.696809	-75.903715	-96.494219
39460		-176.757068	-75.997069	-95.473638
39461		-177.824510	-76.090635	-94.478280
39462		-178.879104	-76.177453	-93.535432
39463		-179.920608	-76.262825	-92.633691
39464		179.039250	-76.340147	-91.758780
39465		178.007282	-76.404714	-90.889023
39466		176.950707	-76.455128	-89.986013
39467		175.852910	-76.498625	-89.008121
39468		174.700589	-76.535910	-87.954123
39469		173.528909	-76.566230	-86.857969
39470		172.338441	-76.592227	-85.735789
39471		171.166005	-76.610440	-84.631236
39472		170.058163	-76.613344	-83.606404
39473		169.041054	-76.594187	-82.673891
39474		168.067146	-76.553034	-81.789025
39475		167.126558	-76.508228	-80.922383
39476		166.163234	-76.456339	-80.027542
39477		165.193675	-76.410127	-79.115683
39478		164.151952	-76.366050	-78.141055
39479		163.131976	-76.320574	-77.196930
39480		162.196138	-76.266341	-76.343607
39481		161.325266	-76.205360	-75.555236
39482		160.497723	-76.131957	-74.808928
39483		159.697590	-76.054199	-74.072653
39484		158.914267	-75.971353	-73.337282
39485		158.093810	-75.883509	-72.547941
39486		157.200966	-75.794965	-71.691376
39487		156.256888	-75.709977	-70.788360
39488		155.322623	-75.620722	-69.906795
39489		154.418204	-75.518070	-69.055827
39490		153.525016	-75.402035	-68.215042
39491		152.627864	-75.275754	-67.354717
39492		151.702523	-75.131991	-66.453710
39493		150.743996	-74.977053	-65.505170
39494		149.722517	-74.807927	-64.494849
39495		148.608985	-74.636710	-63.391886
39496		147.393920	-74.467766	-62.192972
39497		146.165619	-74.308107	-60.973428
39498		144.950137	-74.150575	-59.765192
39499		143.757468	-73.990791	-58.567740
39500		142.594697	-73.825162	-57.408216
39501		141.454905	-73.650219	-56.272850
39502		140.324493	-73.458101	-55.155262
39503		139.188924	-73.249114	-54.038345
39504		138.038769	-73.018988	-52.922145
39505		136.835116	-72.779311	-51.763857
39506		135.596849	-72.541258	-50.590635
39507		134.353386	-72.310752	-49.421622
39508		133.123635	-72.082635	-48.275204
39509		131.943533	-71.856581	-47.171659
39510		130.829117	-71.622091	-46.135910
39511		129.783290	-71.377778	-45.160191
39512		128.766164	-71.122756	-44.221273
39513		127.703705	-70.861202	-43.248493
39514		126.596602	-70.591764	-42.256598
39515		125.509455	-70.330102	-41.294949
39516		124.474499	-70.060577	-40.400632
39517		123.490429	-69.778792	-39.553832
39518		122.552736	-69.476648	-38.736612
39519		121.614111	-69.158453	-37.890647
39520		120.659018	-68.819838	-37.011773
39521		119.644417	-68.469600	-36.060789
39522		118.590449	-68.113326	-35.088026
39523		117.600702	-67.775948	-34.180892
39524		116.690719	-67.452434	-33.380480
39525		115.889890	-67.131136	-32.708323
39526		115.183602	-66.805591	-32.146967
39527		114.554402	-66.470503	-31.662392
39528		113.954352	-66.125142	-31.196625
39529		113.363279	-65.774610	-30.710947
39530		112.737329	-65.415574	-30.161836
39531		112.050517	-65.056493	-29.531547
39532		111.337793	-64.713179	-28.871043
39533		110.661528	-64.401491	-28.239492
39534		110.048953	-64.112369	-27.685498
39535		109.501945	-63.833074	-27.206631
39536		109.017425	-63.545374	-26.799106
39537		108.577682	-63.248079	-26.423492
39538		108.118230	-62.931998	-26.030139
39539		107.634886	-62.608832	-25.610372
39540		107.149114	-62.287949	-25.192753
39541		106.658883	-61.975127	-24.771633
39542		106.163852	-61.667395	-24.357747
39543		105.685131	-61.370014	-23.962687
39544		105.227320	-61.074433	-23.604145
39545		104.779509	-60.774188	-23.268858
39546		104.310400	-60.452592	-22.926314
39547		103.814059	-60.111387	-22.555964
39548		103.344885	-59.769125	-22.190680
39549		102.910422	-59.422266	-21.828494
39550		102.497123	-59.056665	-21.466708
39551		102.090796	-58.684494	-21.091954
39552		101.701736	-58.313095	-20.724531
39553		101.306317	-57.939269	-20.349621
39554		100.899334	-57.559562	-19.981824
39555		100.486096	-57.185970	-19.615751
39556		100.065989	-56.796911	-19.267364
39557		99.638146	-56.401036	-18.917856
39558		99.209988	-55.997230	-18.573219
39559		98.771492	-55.584585	-18.216136
39560		98.337056	-55.169827	-17.865192
39561		97.910809	-54.764497	-17.518562
39562		97.482879	-54.359427	-17.187290
39563		97.053752	-53.953603	-16.868751
39564		96.640271	-53.539895	-16.576333
39565		96.229847	-53.113678	-16.292916
39566		95.802279	-52.669524	-16.012326
39567		95.368379	-52.218569	-15.730394
39568		94.938340	-51.771079	-15.454523
39569		94.523926	-51.336283	-15.182757
39570		94.119469	-50.913479	-14.927854
39571		93.711621	-50.506104	-14.665879
39572		93.296316	-50.096458	-14.403379
39573		92.857951	-49.684329	-14.119544
39574		92.385530	-49.254603	-13.815524
39575		91.904564	-48.824793	-13.510786
39576		91.434986	-48.397840	-13.229100
39577		90.969630	-47.968975	-12.953928
39578		90.515126	-47.537746	-12.693251
39579		90.071905	-47.119486	-12.435692
39580		89.651239	-46.718197	-12.188192
39581		89.238546	-46.335861	-11.946003
39582		88.815910	-45.956482	-11.696953
39583		88.365022	-45.563895	-11.416124
39584		87.917328	-45.162738	-11.131579
39585		87.505237	-44.765432	-10.859330
39586		87.147425	-44.371566	-10.626926
39587		86.837536	-43.972229	-10.428217
39588		86.555181	-43.554607	-10.255976
39589		86.278125	-43.133656	-10.089166
39590		86.016593	-42.723184	-9.940469
39591		85.767399	-42.323168	-9.804075
39592		85.529830	-41.912907	-9.682181
39593		85.300051	-41.488317	-9.562366
39594		85.100279	-41.045224	-9.461423
39595		84.911802	-40.580981	-9.352846
39596		84.730750	-40.106459	-9.241777
39597		84.539848	-39.639008	-9.116852
39598		84.324856	-39.188242	-9.006497
39599		84.099170	-38.769798	-8.917031
39600		83.851272	-38.368496	-8.854485
39601		83.587669	-37.983073	-8.806097
39602		83.335828	-37.619271	-8.780931
39603		83.100673	-37.258471	-8.760341
39604		82.892411	-36.884341	-8.756026
39605		82.711682	-36.494292	-8.748201
39606		82.539972	-36.079906	-8.745032
39607		82.358432	-35.642156	-8.733601
39608		82.151147	-35.182916	-8.730809
39609		81.909043	-34.720586	-8.730655
39610		81.658283	-34.275230	-8.757738
39611		81.422229	-33.864934	-8.797707
39612		81.213367	-33.486299	-8.841161
39613		81.032410	-33.123142	-8.876536
39614		80.842851	-32.750588	-8.884064
39615		80.626356	-32.369090	-8.856336
39616		80.388731	-32.000910	-8.805840
39617		80.135271	-31.662410	-8.748884
39618		79.867517	-31.344304	-8.701454
39619		79.584466	-31.037840	-8.664041
39620		79.297330	-30.732151	-8.638579
39621		79.000301	-30.418259	-8.607503
39622		78.712517	-30.096203	-8.565732
39623		78.432813	-29.770084	-8.510948
39624		78.169276	-29.446612	-8.456439
39625		77.923713	-29.135803	-8.408579
39626		77.689533	-28.831026	-8.369409
39627		77.468063	-28.517489	-8.342532
39628		77.262925	-28.196415	-8.322291
39629		77.072642	-27.853406	-8.298931
39630		76.902884	-27.493752	-8.271652
39631		76.753912	-27.139166	-8.237567
39632		76.623536	-26.792690	-8.211550
39633		76.500157	-26.458848	-8.199061
39634		76.378097	-26.135577	-8.195886
39635		76.245899	-25.812646	-8.187966
39636		76.102925	-25.487830	-8.177489
39637		75.952125	-25.160984	-8.161550
39638		75.799402	-24.822093	-8.147096
39639		75.647606	-24.471470	-8.132328
39640		75.501076	-24.110208	-8.118385
39641		75.357680	-23.750091	-8.099443
39642		75.229772	-23.399929	-8.082074
39643		75.106395	-23.053649	-8.065285
39644		74.983748	-22.701877	-8.052150
39645		74.859994	-22.345872	-8.037239
39646		74.738744	-21.984964	-8.024514
39647		74.612059	-21.612472	-8.009365
39648		74.478738	-21.226735	-7.988059
39649		74.329287	-20.845799	-7.959197
39650		74.174613	-20.485301	-7.924900
39651		74.011793	-20.150526	-7.888731
39652		73.841323	-19.834161	-7.856920
39653		73.665096	-19.527243	-7.829094
39654		73.494373	-19.224446	-7.801040
39655		73.323213	-18.909451	-7.764325
39656		73.147864	-18.585272	-7.723327
39657		72.962928	-18.265397	-7.677204
39658		72.774813	-17.964759	-7.637660
39659		72.580964	-17.686786	-7.613133
39660		72.382714	-17.429270	-7.601691
39661		72.187316	-17.182733	-7.591734
39662		72.010705	-16.940893	-7.579598
39663		71.858436	-16.691815	-7.560556
39664		71.752210	-16.419215	-7.539917
39665		71.699672	-16.111237	-7.521033
39666		71.700475	-15.770514	-7.509979
39667		71.729742	-15.406929	-7.504845
39668		71.765670	-15.035098	-7.516499
39669		71.784968	-14.669977	-7.541801
39670		71.784189	-14.332427	-7.577884
39671		71.753565	-14.015606	-7.618313
39672		71.707842	-13.709727	-7.653166
39673		71.653246	-13.403546	-7.673052
39674		71.595518	-13.091212	-7.678751
39675		71.529546	-12.796360	-7.669035
39676		71.436665	-12.527972	-7.647131
39677		71.286858	-12.289557	-7.625827
39678		71.078529	-12.083350	-7.612856
39679		70.832761	-11.910215	-7.609980
39680		70.580519	-11.763559	-7.612668
39681		70.335297	-11.616629	-7.622771
39682		70.118107	-11.458266	-7.641422
39683		69.933375	-11.287404	-7.662333
39684		69.800747	-11.116381	-7.691953
39685		69.721437	-10.963858	-7.725173
39686		69.679285	-10.816817	-7.765664
39687		69.656386	-10.664247	-7.816592
39688		69.648088	-10.508793	-7.872559
39689		69.644771	-10.347377	-7.927250
39690		69.641678	-10.177435	-7.976468
39691		69.628484	-9.989907	-8.020032
39692		69.614144	-9.797794	-8.057602
39693		69.595308	-9.612837	-8.096254
39694		69.582304	-9.428002	-8.144646
39695		69.569116	-9.242514	-8.203188
39696		69.557599	-9.056050	-8.267029
39697		69.544815	-8.877226	-8.329463
39698		69.538321	-8.712541	-8.385037
39699		69.516647	-8.545843	-8.427851
39700		69.476473	-8.367919	-8.460056
39701		69.418324	-8.189212	-8.476920
39702		69.345603	-8.018685	-8.483077
39703		69.250730	-7.862146	-8.481087
39704		69.129617	-7.718902	-8.478003
39705		68.991041	-7.592569	-8.472114
39706		68.844596	-7.475873	-8.469615
39707		68.709596	-7.357891	-8.467746
39708		68.600756	-7.229197	-8.466829
39709		68.511993	-7.079553	-8.471605
39710		68.454159	-6.926923	-8.484192
39711		68.421689	-6.764983	-8.499752
39712		68.404959	-6.602173	-8.518759
39713		68.396240	-6.453781	-8.543720
39714		68.391000	-6.326882	-8.576614
39715		68.371144	-6.223075	-8.609405
39716		68.342807	-6.138735	-8.641679
39717		68.303895	-6.060606	-8.673755
39718		68.273361	-5.990480	-8.702977
39719		68.260922	-5.927729	-8.725889
39720		68.264990	-5.862437	-8.748789
39721		68.277951	-5.787634	-8.772849
39722		68.303725	-5.707605	-8.795983
39723		68.330463	-5.622877	-8.823659
39724		68.358935	-5.522902	-8.858252
39725		68.362195	-5.417175	-8.896759
39726		68.386703	-5.311830	-8.936145
39727		68.421968	-5.226756	-8.971811
39728		68.455620	-5.172051	-9.014022
39729		68.473767	-5.141788	-9.048703
39730		68.476981	-5.145092	-9.068959
39731		68.457295	-5.183225	-9.072277
39732		68.417993	-5.232020	-9.052870
39733		68.373110	-5.266255	-9.014761
39734		68.314893	-5.283352	-8.970749
39735		68.234470	-5.299338	-8.933395
39736		68.136638	-5.312501	-8.903716
39737		68.032010	-5.298032	-8.870159
39738		67.934896	-5.281738	-8.835537
39739		67.866589	-5.294977	-8.806809
39740		67.831966	-5.332730	-8.791109
39741		67.827309	-5.356916	-8.790688
39742		67.860541	-5.361729	-8.794542
39743		67.923398	-5.357569	-8.805644
39744		68.002508	-5.353444	-8.814873
39745		68.066296	-5.354198	-8.825806
39746		68.111961	-5.368872	-8.838765
39747		68.140868	-5.402438	-8.851342
39748		68.167182	-5.448568	-8.869062
39749		68.200308	-5.507581	-8.892261
39750		68.250366	-5.580105	-8.922009
39751		68.314250	-5.665181	-8.953968
39752		68.394990	-5.762296	-8.992355
39753		68.485347	-5.867351	-9.031343
39754		68.582183	-5.985168	-9.070648
39755		68.677167	-6.119148	-9.101369
39756		68.764889	-6.271384	-9.121463
39757		68.845262	-6.448164	-9.141389
39758		68.919246	-6.648490	-9.159380
39759		68.988536	-6.868644	-9.182450
39760		69.060907	-7.105076	-9.209805
39761		69.136418	-7.354978	-9.238694
39762		69.214004	-7.608247	-9.264580
39763		69.291691	-7.858212	-9.284783
39764		69.382715	-8.102014	-9.289139
39765		69.486718	-8.331630	-9.265757
39766		69.596618	-8.551142	-9.212067
39767		69.707923	-8.758356	-9.131895
39768		69.825993	-8.961198	-9.038892
39769		69.959426	-9.174293	-8.949443
39770		70.122611	-9.385200	-8.881338
39771		70.300346	-9.579710	-8.838456
39772		70.502073	-9.759328	-8.811420
39773		70.712650	-9.935628	-8.794184
39774		70.920684	-10.112446	-8.772523
39775		71.109482	-10.303500	-8.742552
39776		71.267606	-10.504988	-8.702903
39777		71.386492	-10.716580	-8.652379
39778		71.483796	-10.939990	-8.599274
39779		71.569835	-11.179831	-8.549005
39780		71.644247	-11.430680	-8.505748
39781		71.712673	-11.689809	-8.473868
39782		71.781529	-11.952579	-8.450102
39783		71.846463	-12.220961	-8.423641
39784		71.911864	-12.499555	-8.394207
39785		71.975771	-12.782698	-8.357141
39786		72.031371	-13.070506	-8.311899
39787		72.077446	-13.371570	-8.263306
39788		72.116403	-13.686615	-8.215154
39789		72.137464	-14.009409	-8.171206
39790		72.156704	-14.340542	-8.138817
39791		72.177396	-14.678312	-8.119128
39792		72.209256	-15.015235	-8.110754
39793		72.252130	-15.345914	-8.108889
39794		72.310116	-15.674733	-8.108823
39795		72.379590	-15.999959	-8.105237
39796		72.453384	-16.330886	-8.102414
39797		72.538088	-16.680929	-8.099567
39798		72.630075	-17.034551	-8.101480
39799		72.721133	-17.389506	-8.109878
39800		72.815974	-17.752499	-8.122242
39801		72.913707	-18.111888	-8.136848
39802		73.021335	-18.475475	-8.150429
39803		73.140076	-18.836963	-8.160260
39804		73.274058	-19.188722	-8.159348
39805		73.420346	-19.524640	-8.148659
39806		73.590979	-19.853192	-8.138326
39807		73.778628	-20.165570	-8.129813
39808		73.980598	-20.468605	-8.125272
39809		74.178397	-20.768136	-8.116514
39810		74.368073	-21.066428	-8.105313
39811		74.547953	-21.373258	-8.091495
39812		74.725675	-21.685227	-8.075430
39813		74.894999	-21.990015	-8.057209
39814		75.062240	-22.302398	-8.041933
39815		75.220899	-22.624315	-8.028083
39816		75.369926	-22.956887	-8.023696
39817		75.511508	-23.299278	-8.028359
39818		75.663274	-23.641235	-8.039049
39819		75.843995	-23.987469	-8.051930
39820		76.067172	-24.336115	-8.065140
39821		76.324040	-24.677276	-8.075559
39822		76.600985	-25.013762	-8.086246
39823		76.875815	-25.356223	-8.087967
39824		77.137859	-25.711782	-8.080123
39825		77.392466	-26.093070	-8.073918
39826		77.642386	-26.497730	-8.078365
39827		77.885167	-26.918331	-8.094433
39828		78.124250	-27.351959	-8.126964
39829		78.359361	-27.796922	-8.162612
39830		78.607802	-28.246209	-8.203184
39831		78.874315	-28.698873	-8.246746
39832		79.167396	-29.158853	-8.298606
39833		79.480207	-29.625583	-8.355509
39834		79.802658	-30.101764	-8.417427
39835		80.122570	-30.592525	-8.477970
39836		80.438959	-31.097306	-8.544860
39837		80.748662	-31.609248	-8.605542
39838		81.059238	-32.126547	-8.678600
39839		81.372981	-32.645482	-8.746462
39840		81.690873	-33.158490	-8.811211
39841		82.004286	-33.663512	-8.861154
39842		82.311835	-34.161499	-8.913701
39843		82.612293	-34.646168	-8.950183
39844		82.927381	-35.128298	-8.981284
39845		83.266718	-35.609878	-8.995620
39846		83.642062	-36.074172	-9.002874
39847		84.054602	-36.519232	-8.998681
39848		84.505864	-36.949378	-8.998083
39849		84.978711	-37.371359	-8.994626
39850		85.456561	-37.804373	-9.001736
39851		85.918277	-38.248569	-9.001850
39852		86.350171	-38.699500	-9.009048
39853		86.753782	-39.148854	-9.007711
39854		87.134143	-39.591842	-9.007428
39855		87.499353	-40.036385	-9.004397
39856		87.863548	-40.497298	-9.019117
39857		88.227408	-40.970137	-9.047514
39858		88.594880	-41.448605	-9.104283
39859		88.974371	-41.935383	-9.180654
39860		89.360490	-42.436972	-9.286611
39861		89.744306	-42.941890	-9.402836
39862		90.127696	-43.449051	-9.542391
39863		90.496497	-43.940275	-9.666440
39864		90.858195	-44.409755	-9.771596
39865		91.226451	-44.860449	-9.856504
39866		91.618988	-45.302829	-9.950058
39867		92.037037	-45.736255	-10.055885
39868		92.472401	-46.163985	-10.193176
39869		92.913003	-46.585505	-10.353678
39870		93.359239	-47.000493	-10.542261
39871		93.798258	-47.405720	-10.738470
39872		94.215201	-47.786674	-10.930493
39873		94.618791	-48.137404	-11.098213
39874		95.021677	-48.476615	-11.254161
39875		95.437690	-48.822729	-11.393679
39876		95.882932	-49.206745	-11.558534
39877		96.336928	-49.626522	-11.743668
39878		96.779803	-50.054497	-11.950392
39879		97.191491	-50.486269	-12.147299
39880		97.573644	-50.918305	-12.331194
39881		97.935748	-51.341852	-12.499314
39882		98.300874	-51.768575	-12.675872
39883		98.692180	-52.195740	-12.863117
39884		99.124625	-52.620590	-13.082708
39885		99.586108	-53.040290	-13.318027
39886		100.055666	-53.447086	-13.558032
39887		100.521228	-53.848983	-13.793333
39888		100.982320	-54.251210	-14.030992
39889		101.435000	-54.649970	-14.273373
39890		101.903400	-55.065895	-14.555735
39891		102.363348	-55.482428	-14.851835
39892		102.804163	-55.896560	-15.164170
39893		103.221444	-56.314647	-15.475138
39894		103.605557	-56.725800	-15.771722
39895		103.966479	-57.132864	-16.058761
39896		104.345775	-57.557222	-16.374324
39897		104.732197	-57.976367	-16.702335
39898		105.133087	-58.390861	-17.060871
39899		105.543131	-58.799981	-17.422126
39900		105.930715	-59.193012	-17.768837
39901		106.314328	-59.588526	-18.095543
39902		106.669180	-59.987090	-18.390809
39903		107.003366	-60.383740	-18.662578
39904		107.352578	-60.796592	-18.954852
39905		107.701542	-61.211421	-19.253280
39906		108.075803	-61.642500	-19.593457
39907		108.492304	-62.097652	-19.988365
39908		108.911260	-62.572758	-20.412289
39909		109.300676	-63.058456	-20.833162
39910		109.727617	-63.565319	-21.309742
39911		110.148477	-64.071207	-21.791938
39912		110.575990	-64.571655	-22.289179
39913		111.035912	-65.072083	-22.808678
39914		111.517678	-65.566489	-23.341624
39915		112.007822	-66.057879	-23.878902
39916		112.536724	-66.559435	-24.450312
39917		113.059220	-67.060017	-25.020028
39918		113.620834	-67.565146	-25.644949
39919		114.275869	-68.083601	-26.356049
39920		115.019391	-68.593037	-27.157331
39921		115.815631	-69.078413	-28.006727
39922		116.634212	-69.539472	-28.881254
39923		117.448463	-69.976808	-29.744604
39924		118.296065	-70.407838	-30.634370
39925		119.217208	-70.827550	-31.571230
39926		120.125509	-71.218764	-32.506012
39927		121.071164	-71.590625	-33.472260
39928		122.083586	-71.953019	-34.493387
39929		123.144148	-72.292300	-35.550519
39930		124.279679	-72.607785	-36.671454
39931		125.475938	-72.899464	-37.828181
39932		126.688969	-73.168110	-38.996361
39933		127.898457	-73.413676	-40.155054
39934		129.083504	-73.648224	-41.296616
39935		130.255401	-73.872338	-42.431234
39936		131.502521	-74.098623	-43.648306
39937		132.810894	-74.319799	-44.932714
39938		134.165099	-74.529533	-46.289418
39939		135.599217	-74.732745	-47.735209
39940		137.114524	-74.923290	-49.265120
39941		138.772780	-75.104215	-50.929635
39942		140.576679	-75.265035	-52.729178
39943		142.364508	-75.382679	-54.520116
39944		144.177524	-75.460083	-56.343262
39945		146.028187	-75.517973	-58.201905
39946		147.871993	-75.569815	-60.076697
39947		149.778292	-75.625554	-62.015942
39948		151.738223	-75.683660	-64.006086
39949		153.707077	-75.737605	-65.989946
39950		155.690886	-75.785549	-67.964120
39951		157.524558	-75.833587	-69.778699
39952		159.196217	-75.878407	-71.445980
39953		160.923876	-75.917237	-73.179051
39954		162.698866	-75.935019	-75.004748
39955		164.452722	-75.923328	-76.864805
39956		166.213773	-75.885075	-78.776978
39957		167.879683	-75.841685	-80.613289
39958		169.436777	-75.798187	-82.353460
39959		170.928310	-75.771121	-84.002790
39960		172.358965	-75.751535	-85.567207
39961		173.767444	-75.722561	-87.070249
39962		175.116263	-75.676198	-88.480194
39963		176.343628	-75.608544	-89.734621
39964		177.469472	-75.530982	-90.846499
39965		178.478068	-75.448028	-91.812130
39966		179.355330	-75.360304	-92.641257
39967		-179.819225	-75.281870	-93.412038
39968		-179.048700	-75.225291	-94.154085
39969		-178.270210	-75.184057	-94.939496
39970		-177.474339	-75.165620	-95.787623
39971		-176.760693	-75.155042	-96.602926
39972		-176.086843	-75.144403	-97.405560
39973		-175.445220	-75.118903	-98.172471
39974		-174.877559	-75.077434	-98.846789
39975		-174.377893	-75.030986	-99.406319
39976		-173.977716	-74.998330	-99.828637
39977		-173.638597	-74.981543	-100.161596
39978		-173.319111	-74.956276	-100.441265
39979		-173.060037	-74.927812	-100.638204
39980		-172.879902	-74.891666	-100.763906
39981		-172.740169	-74.840526	-100.839072
39982		-172.610615	-74.776477	-100.931785
39983		-172.520369	-74.704718	-101.003785
39984		-172.490328	-74.635800	-101.051887
39985		-172.492117	-74.577804	-101.096420
39986		-172.498251	-74.525678	-101.170306
39987		-172.479701	-74.478865	-101.280830
39988		-172.456604	-74.438717	-101.400072
39989		-172.442155	-74.406408	-101.496204
39990		-172.423252	-74.384548	-101.579119
39991		-172.412397	-74.366517	-101.638296
39992		-172.384525	-74.345415	-101.700437
39993		-172.341960	-74.321618	-101.764040
39994		-172.280912	-74.296890	-101.845984
39995		-172.221182	-74.272090	-101.925896
39996		-172.173227	-74.250278	-102.003470
39997		-172.137626	-74.229828	-102.064748
39998		-172.100129	-74.211877	-102.117759
39999		-172.069132	-74.199932	-102.149465
40000		-172.048537	-74.189609	-102.173247
40001		-172.021406	-74.178166	-102.200147
40002		-171.996951	-74.163357	-102.236583
40003		-171.963203	-74.144250	-102.289716
40004		-171.928056	-74.116925	-102.354676
40005		-171.888614	-74.094730	-102.423995
40006		-171.875256	-74.080844	-102.465733
40007		-171.876976	-74.079403	-102.483733
40008		-171.888197	-74.090296	-102.487063
40009		-171.905325	-74.114631	-102.473583
40010		-171.924301	-74.142190	-102.461083
40011		-171.940274	-74.161205	-102.449964
40012		-171.953826	-74.163234	-102.445447
40013		-171.971352	-74.161022	-102.435244
40014		-172.003487	-74.149991	-102.418207
40015		-172.038223	-74.133253	-102.402830
40016		-172.075863	-74.113340	-102.402230
40017		-172.123049	-74.095671	-102.400225
40018		-172.166961	-74.083030	-102.411654
40019		-172.198578	-74.074237	-102.435847
40020		-172.250496	-74.070841	-102.445187
40021		-172.320027	-74.075402	-102.430126
40022		-172.430216	-74.074401	-102.361017
40023		-172.572733	-74.068158	-102.239942
40024		-172.768036	-74.055070	-102.059909
40025		-172.990141	-74.045544	-101.847491
40026		-173.227600	-74.049621	-101.636524
40027		-173.463438	-74.068927	-101.449667
40028		-173.708808	-74.097779	-101.288379
40029		-173.972932	-74.131168	-101.127082
40030		-174.279132	-74.165622	-100.930296
40031		-174.631011	-74.197566	-100.675385
40032		-175.035490	-74.229585	-100.357334
40033		-175.512291	-74.267346	-99.960242
40034		-176.042042	-74.310057	-99.515818
40035		-176.594324	-74.360716	-99.054415
40036		-177.182540	-74.405812	-98.575476
40037		-177.771574	-74.445993	-98.109550
40038		-178.360062	-74.474126	-97.663609
40039		-178.931653	-74.492966	-97.239156
40040		-179.490737	-74.507919	-96.830904
40041		179.946532	-74.519458	-96.414848
40042		179.393286	-74.521980	-96.003869
40043		178.838734	-74.519804	-95.577149
40044		178.260312	-74.508061	-95.122722
40045		177.655549	-74.491825	-94.612106
40046		176.999296	-74.472382	-94.030762
40047		176.295617	-74.452792	-93.375357
40048		175.550131	-74.438804	-92.666216
40049		174.783132	-74.430070	-91.929906
40050		173.997212	-74.425320	-91.183224
40051		173.209081	-74.418643	-90.443496
40052		172.412512	-74.409846	-89.706712
40053		171.619753	-74.395684	-88.966971
40054		170.792828	-74.384718	-88.196293
40055		169.913671	-74.379399	-87.374473
40056		168.953522	-74.381872	-86.486260
40057		167.926663	-74.396388	-85.548864
40058		166.840773	-74.416349	-84.583645
40059		165.783333	-74.433721	-83.667379
40060		164.750793	-74.448340	-82.791287
40061		163.754916	-74.462081	-81.951290
40062		162.776825	-74.472742	-81.123227
40063		161.825708	-74.481306	-80.299863
40064		160.853245	-74.487636	-79.444250
40065		159.863726	-74.490282	-78.559453
40066		158.836297	-74.490335	-77.631340
40067		157.765479	-74.486896	-76.658734
40068		156.707024	-74.476880	-75.696067
40069		155.667040	-74.464586	-74.751486
40070		154.594503	-74.448247	-73.783372
40071		153.500463	-74.435730	-72.794380
40072		152.377525	-74.431624	-71.775908
40073		151.213832	-74.440338	-70.710093
40074		150.056435	-74.452868	-69.635010
40075		148.935444	-74.469639	-68.569365
40076		147.850222	-74.475579	-67.528434
40077		146.799656	-74.464994	-66.523893
40078		145.802096	-74.431719	-65.575766
40079		144.873617	-74.377793	-64.690349
40080		143.967298	-74.299612	-63.821382
40081		143.042355	-74.196072	-62.909962
40082		142.051334	-74.072651	-61.901612
40083		140.938170	-73.928882	-60.739369
40084		139.707608	-73.777419	-59.431623
40085		138.419607	-73.622732	-58.029862
40086		137.091614	-73.470734	-56.583298
40087		135.764476	-73.329654	-55.146373
40088		134.449618	-73.198506	-53.753830
40089		133.177907	-73.068876	-52.440455
40090		131.959503	-72.930234	-51.221187
40091		130.795491	-72.780473	-50.087402
40092		129.633810	-72.612821	-48.986020
40093		128.426232	-72.435061	-47.861738
40094		127.217281	-72.244220	-46.750818
40095		126.030262	-72.044510	-45.659190
40096		124.839159	-71.826669	-44.559103
40097		123.643587	-71.592391	-43.440192
40098		122.475715	-71.339829	-42.337136
40099		121.280709	-71.072977	-41.205332
40100		120.083871	-70.800095	-40.088125
40101		118.972075	-70.535760	-39.062153
40102		117.952275	-70.269669	-38.141976
40103		117.009815	-70.001459	-37.307961
40104		116.146718	-69.725420	-36.558511
40105		115.355903	-69.439371	-35.864468
40106		114.611434	-69.134145	-35.198125
40107		113.891183	-68.811984	-34.522757
40108		113.137435	-68.472218	-33.799982
40109		112.419114	-68.129654	-33.092102
40110		111.770152	-67.796108	-32.442467
40111		111.179442	-67.463024	-31.856644
40112		110.654250	-67.131273	-31.346311
40113		110.163747	-66.805727	-30.861292
40114		109.648323	-66.472542	-30.360603
40115		109.147565	-66.154913	-29.873754
40116		108.681510	-65.846145	-29.415015
40117		108.247637	-65.533914	-28.983852
40118		107.855262	-65.223222	-28.588745
40119		107.514662	-64.916017	-28.224277
40120		107.223734	-64.603232	-27.898895
40121		106.983754	-64.287359	-27.603655
40122		106.763026	-63.967419	-27.305078
40123		106.532047	-63.643174	-26.973385
40124		106.271884	-63.323445	-26.610222
40125		105.978777	-63.006477	-26.214989
40126		105.672633	-62.705043	-25.821470
40127		105.371647	-62.429575	-25.452830
40128		105.085555	-62.177472	-25.132877
40129		104.794165	-61.951036	-24.843087
40130		104.481870	-61.740818	-24.581121
40131		104.128907	-61.541626	-24.322726
40132		103.706794	-61.343947	-24.039018
40133		103.220699	-61.135055	-23.719885
40134		102.675692	-60.904173	-23.353746
40135		102.093065	-60.654970	-22.939223
40136		101.488687	-60.384572	-22.491219
40137		100.852790	-60.092034	-21.999646
40138		100.198208	-59.794256	-21.489415
40139		99.529037	-59.506254	-20.972818
40140		98.850623	-59.214801	-20.473326
40141		98.172474	-58.915341	-19.998144
40142		97.495762	-58.598430	-19.548103
40143		96.834347	-58.254832	-19.115039
40144		96.221713	-57.885323	-18.722963
40145		95.659803	-57.503675	-18.356742
40146		95.112061	-57.103349	-17.997448
40147		94.559894	-56.678783	-17.640765
40148		94.000942	-56.232352	-17.285895
40149		93.433579	-55.773288	-16.927902
40150		92.884234	-55.306867	-16.601008
40151		92.356979	-54.841278	-16.302520
40152		91.847738	-54.367510	-16.023321
40153		91.358237	-53.888402	-15.753309
40154		90.895032	-53.403939	-15.490963
40155		90.459926	-52.910351	-15.241499
40156		90.031846	-52.407032	-14.994824
40157		89.575244	-51.882058	-14.729143
40158		89.085857	-51.331512	-14.451890
40159		88.580727	-50.771038	-14.169632
40160		88.082081	-50.200009	-13.903439
40161		87.604011	-49.614651	-13.656402
40162		87.136148	-49.005511	-13.417093
40163		86.676628	-48.383836	-13.171568
40164		86.238419	-47.753089	-12.934788
40165		85.822912	-47.113355	-12.699941
40166		85.416826	-46.446990	-12.469962
40167		85.029261	-45.763270	-12.244892
40168		84.648949	-45.056702	-12.029171
40169		84.273217	-44.332615	-11.821433
40170		83.914056	-43.607272	-11.634124
40171		83.578235	-42.888236	-11.462177
40172		83.251769	-42.163465	-11.303526
40173		82.913789	-41.445549	-11.141251
40174		82.542892	-40.726925	-10.966178
40175		82.132157	-40.025140	-10.776519
40176		81.713471	-39.353419	-10.597954
40177		81.305725	-38.704631	-10.445669
40178		80.921135	-38.065140	-10.328663
40179		80.559574	-37.434975	-10.230349
40180		80.222854	-36.805936	-10.142676
40181		79.898656	-36.176404	-10.046993
40182		79.577844	-35.545244	-9.949742
40183		79.242661	-34.909269	-9.838230
40184		78.909884	-34.292677	-9.742949
40185		78.588715	-33.700555	-9.663388
40186		78.279185	-33.120202	-9.605048
40187		77.989034	-32.549864	-9.560805
40188		77.721086	-31.981142	-9.525850
40189		77.485610	-31.417364	-9.487164
40190		77.287731	-30.864607	-9.453526
40191		77.106434	-30.316172	-9.419400
40192		76.940340	-29.780821	-9.392362
40193		76.779346	-29.261404	-9.369481
40194		76.618033	-28.748562	-9.349990
40195		76.451709	-28.250450	-9.325837
40196		76.273182	-27.768098	-9.291553
40197		76.063602	-27.294225	-9.244144
40198		75.825805	-26.839491	-9.194234
40199		75.571011	-26.412218	-9.151390
40200		75.319221	-26.006614	-9.126144
40201		75.077257	-25.613282	-9.111727
40202		74.848824	-25.215898	-9.100434
40203		74.614056	-24.800975	-9.072325
40204		74.375696	-24.387855	-9.026790
40205		74.130005	-23.998318	-8.964208
40206		73.877784	-23.631706	-8.901180
40207		73.611814	-23.291146	-8.844980
40208		73.337730	-22.969276	-8.802504
40209		73.061282	-22.657521	-8.772942
40210		72.789381	-22.340710	-8.743624
40211		72.515961	-22.012749	-8.704753
40212		72.260740	-21.694052	-8.659855
40213		72.016476	-21.384988	-8.615097
40214		71.783496	-21.081320	-8.582861
40215		71.559237	-20.791697	-8.564297
40216		71.344578	-20.514213	-8.562483
40217		71.141052	-20.238401	-8.578907
40218		70.952354	-19.961932	-8.603784
40219		70.774563	-19.675263	-8.622643
40220		70.610057	-19.372528	-8.635206
40221		70.461967	-19.061309	-8.641133
40222		70.346109	-18.739957	-8.652460
40223		70.263699	-18.414183	-8.674063
40224		70.215139	-18.085496	-8.709416
40225		70.187444	-17.752158	-8.753960
40226		70.173834	-17.416772	-8.809518
40227		70.168167	-17.077595	-8.871575
40228		70.164412	-16.742366	-8.936454
40229		70.159466	-16.420809	-9.007595
40230		70.156056	-16.110041	-9.083719
40231		70.145987	-15.804322	-9.153754
40232		70.132644	-15.506703	-9.214524
40233		70.104826	-15.209310	-9.258800
40234		70.062087	-14.921229	-9.294128
40235		70.011613	-14.654375	-9.335114
40236		69.954960	-14.407440	-9.381481
40237		69.895343	-14.168386	-9.438689
40238		69.837599	-13.932049	-9.500114
40239		69.785261	-13.688558	-9.558269
40240		69.737775	-13.433276	-9.613921
40241		69.691979	-13.160343	-9.661286
40242		69.655296	-12.872867	-9.699647
40243		69.640075	-12.578486	-9.739829
40244		69.657731	-12.272349	-9.783709
40245		69.703867	-11.952062	-9.838618
40246		69.766737	-11.621421	-9.903814
40247		69.829232	-11.282101	-9.969703
40248		69.885042	-10.948008	-10.030645
40249		69.924422	-10.638913	-10.077456
40250		69.931019	-10.359642	-10.112988
40251		69.892582	-10.107877	-10.144158
40252		69.811473	-9.889875	-10.173106
40253		69.688010	-9.702106	-10.193301
40254		69.535328	-9.532911	-10.206072
40255		69.361300	-9.377520	-10.212259
40256		69.186133	-9.223936	-10.224208
40257		69.014296	-9.065335	-10.246544
40258		68.856893	-8.890068	-10.275075
40259		68.714584	-8.701502	-10.300759
40260		68.594732	-8.503941	-10.328145
40261		68.489817	-8.285137	-10.359517
40262		68.407570	-8.052453	-10.394263
40263		68.338250	-7.801726	-10.437276
40264		68.270209	-7.521373	-10.488369
40265		68.191520	-7.207008	-10.541118
40266		68.101168	-6.867382	-10.587100
40267		67.996881	-6.510702	-10.623046
40268		67.875194	-6.141047	-10.660060
40269		67.727787	-5.764008	-10.701116
40270		67.557994	-5.386108	-10.748154
40271		67.423821	-5.158978	-10.757918
40272		67.108156	-5.028767	-10.780102
40273		66.763802	-5.043177	-10.825756
40274		66.747706	-5.261475	-10.814085
40275		66.913509	-5.460078	-10.806297
40276		66.948880	-5.567466	-10.820661
40277		66.889791	-5.619249	-10.779549
40278		66.873094	-5.682181	-10.720750
40279		66.893190	-5.678392	-10.685192
40280		66.932045	-5.597301	-10.683106
40281		66.965888	-5.523930	-10.675121
40282		66.953627	-5.488227	-10.660452
40283		66.877981	-5.480909	-10.649809
40284		66.804999	-5.497690	-10.648349
40285		66.771142	-5.511265	-10.649121
40286		66.798802	-5.506983	-10.651838
40287		66.865813	-5.482668	-10.663132
40288		66.941467	-5.439827	-10.681086
40289		67.009756	-5.379918	-10.697561
40290		67.076199	-5.311288	-10.717514
40291		67.134121	-5.244269	-10.737014
40292		67.184037	-5.183295	-10.756989
40293		67.222756	-5.128914	-10.769858
40294		67.258164	-5.092306	-10.782293
40295		67.287724	-5.075324	-10.790546
40296		67.312852	-5.074340	-10.793938
40297		67.325821	-5.086676	-10.791710
40298		67.323002	-5.103639	-10.785024
40299		67.296883	-5.123415	-10.764579
40300		67.256442	-5.141018	-10.741857
40301		67.193549	-5.155503	-10.715337
40302		67.126942	-5.164658	-10.692647
40303		67.058206	-5.168352	-10.671210
40304		66.995607	-5.168893	-10.652754
40305		66.943685	-5.174373	-10.638687
40306		66.902090	-5.188732	-10.633259
40307		66.865341	-5.205952	-10.631395
40308		66.839441	-5.220032	-10.630363
40309		66.825018	-5.235898	-10.626164
40310		66.824300	-5.242851	-10.618152
40311		66.834169	-5.237131	-10.617637
40312		66.857478	-5.229929	-10.621506
40313		66.891745	-5.220826	-10.630328
40314		66.935247	-5.213631	-10.639039
40315		66.986510	-5.206330	-10.651139
40316		67.035109	-5.201592	-10.659620
40317		67.071717	-5.201843	-10.662817
40318		67.097738	-5.196825	-10.663134
40319		67.113863	-5.188560	-10.659735
40320		67.123417	-5.174802	-10.653256
40321		67.129328	-5.156731	-10.644483
40322		67.132247	-5.144066	-10.644745
40323		67.122139	-5.140550	-10.646908
40324		67.096837	-5.141763	-10.642615
40325		67.057565	-5.150588	-10.630193
40326		67.015954	-5.170493	-10.600027
40327		66.994736	-5.201949	-10.558612
40328		66.998890	-5.266909	-10.517348
40329		67.021987	-5.386865	-10.500100
40330		67.048781	-5.567675	-10.523505
40331		67.076715	-5.788554	-10.585259
40332		67.135036	-6.010067	-10.664296
40333		67.252233	-6.235236	-10.729466
40334		67.412341	-6.462995	-10.780689
40335		67.590552	-6.691809	-10.818327
40336		67.771317	-6.938444	-10.845236
40337		67.934550	-7.209625	-10.874989
40338		68.089034	-7.519400	-10.903819
40339		68.244286	-7.864081	-10.937630
40340		68.420499	-8.239295	-10.980114
40341		68.627867	-8.639696	-11.036792
40342		68.871565	-9.049436	-11.106617
40343		69.142632	-9.464004	-11.177585
40344		69.431293	-9.872166	-11.249318
40345		69.726440	-10.274835	-11.315136
40346		70.026220	-10.678379	-11.376768
40347		70.324412	-11.082550	-11.434034
40348		70.631260	-11.481370	-11.495380
40349		70.951395	-11.886011	-11.554520
40350		71.301407	-12.283672	-11.613652
40351		71.674947	-12.658159	-11.667152
40352		72.075947	-13.014628	-11.713796
40353		72.496879	-13.362809	-11.754096
40354		72.931331	-13.704995	-11.789298
40355		73.363443	-14.044011	-11.818164
40356		73.755686	-14.391133	-11.835600
40357		74.069924	-14.761843	-11.833491
40358		74.303623	-15.176493	-11.819421
40359		74.464440	-15.636980	-11.788060
40360		74.570342	-16.132448	-11.768304
40361		74.647893	-16.638753	-11.736220
40362		74.721392	-17.135436	-11.712271
40363		74.808629	-17.612521	-11.668485
40364		74.906633	-18.068764	-11.612424
40365		75.016340	-18.516181	-11.543329
40366		75.137358	-18.944707	-11.463111
40367		75.286315	-19.358575	-11.375286
40368		75.480131	-19.761345	-11.313430
40369		75.719392	-20.146650	-11.275577
40370		76.000993	-20.520720	-11.264940
40371		76.296445	-20.885976	-11.264406
40372		76.573983	-21.246616	-11.259709
40373		76.804434	-21.611958	-11.235473
40374		76.992402	-21.998945	-11.205876
40375		77.143150	-22.429048	-11.177699
40376		77.277219	-22.904868	-11.163821
40377		77.408316	-23.408370	-11.172763
40378		77.553042	-23.924656	-11.202581
40379		77.712313	-24.435864	-11.242468
40380		77.897241	-24.936912	-11.281648
40381		78.091286	-25.424859	-11.305061
40382		78.293149	-25.916301	-11.324070
40383		78.505337	-26.414927	-11.354156
40384		78.728803	-26.915547	-11.397182
40385		78.969988	-27.408130	-11.451932
40386		79.239925	-27.897155	-11.513643
40387		79.542294	-28.374834	-11.576738
40388		79.871683	-28.841237	-11.639002
40389		80.223616	-29.296110	-11.704897
40390		80.599491	-29.748464	-11.775637
40391		80.989493	-30.206132	-11.859527
40392		81.399333	-30.676075	-11.966311
40393		81.821167	-31.150979	-12.099606
40394		82.246892	-31.622168	-12.252532
40395		82.663218	-32.082919	-12.411242
40396		83.051259	-32.525931	-12.540276
40397		83.465273	-32.985945	-12.695663
40398		83.863381	-33.473073	-12.823799
40399		84.257256	-33.977365	-12.953215
40400		84.640751	-34.497348	-13.098811
40401		85.006627	-35.013448	-13.258788
40402		85.361566	-35.533441	-13.432271
40403		85.692292	-36.044754	-13.598172
40404		85.988373	-36.534687	-13.747302
40405		86.253582	-37.000090	-13.870814
40406		86.512985	-37.443094	-13.983323
40407		86.754956	-37.851543	-14.065914
40408		86.972537	-38.217918	-14.122907
40409		87.183090	-38.563866	-14.150848
40410		87.417122	-38.907878	-14.185108
40411		87.679074	-39.243236	-14.227217
40412		87.965050	-39.566949	-14.285407
40413		88.247505	-39.871693	-14.340597
40414		88.500517	-40.154788	-14.394405
40415		88.752980	-40.450888	-14.449102
40416		89.030230	-40.776857	-14.525936
40417		89.327146	-41.118348	-14.619352
40418		89.636762	-41.458538	-14.731128
40419		89.951696	-41.794118	-14.852668
40420		90.289512	-42.141337	-15.004234
40421		90.649957	-42.499837	-15.176583
40422		91.036370	-42.870443	-15.380381
40423		91.432448	-43.241653	-15.601132
40424		91.818864	-43.601115	-15.830618
40425		92.209971	-43.964262	-16.074866
40426		92.623180	-44.349155	-16.352219
40427		93.075107	-44.764147	-16.659957
40428		93.574587	-45.215197	-17.009935
40429		94.089798	-45.676457	-17.375372
40430		94.603169	-46.136531	-17.746695
40431		95.090576	-46.590322	-18.093548
40432		95.564745	-47.055578	-18.434417
40433		96.039946	-47.535617	-18.764329
40434		96.522477	-48.019788	-19.102800
40435		97.016763	-48.507437	-19.451074
40436		97.522066	-48.985510	-19.815790
40437		98.040408	-49.461676	-20.184404
40438		98.586363	-49.958148	-20.571396
40439		99.151097	-50.469280	-20.954222
40440		99.689763	-50.982318	-21.309611
40441		100.192539	-51.501413	-21.627683
40442		100.680168	-52.038824	-21.938664
40443		101.161130	-52.580304	-22.260270
40444		101.678897	-53.130741	-22.640488
40445		102.257866	-53.687787	-23.088625
40446		102.876196	-54.231119	-23.589907
40447		103.521455	-54.756765	-24.117842
40448		104.182724	-55.267285	-24.661796
40449		104.821244	-55.764625	-25.184151
40450		105.466546	-56.269640	-25.709513
40451		106.093461	-56.775515	-26.222294
40452		106.725271	-57.273196	-26.760441
40453		107.382926	-57.761641	-27.328697
40454		108.099059	-58.238889	-27.963504
40455		108.882092	-58.701621	-28.661270
40456		109.728237	-59.157243	-29.422200
40457		110.566621	-59.600905	-30.174562
40458		111.332026	-60.034118	-30.854124
40459		112.036776	-60.483655	-31.455925
40460		112.700721	-60.961991	-32.019448
40461		113.348867	-61.455111	-32.574202
40462		114.046800	-61.959676	-33.197449
40463		114.818428	-62.472042	-33.905392
40464		115.660400	-62.971634	-34.709283
40465		116.589946	-63.454525	-35.602730
40466		117.567364	-63.904716	-36.538908
40467		118.578995	-64.324171	-37.494949
40468		119.627281	-64.731141	-38.478993
40469		120.637833	-65.119441	-39.438947
40470		121.635942	-65.521708	-40.427617
40471		122.664863	-65.949262	-41.480186
40472		123.800352	-66.402742	-42.667056
40473		125.047170	-66.864115	-43.980287
40474		126.403150	-67.316931	-45.417562
40475		127.863160	-67.748905	-46.957722
40476		129.388219	-68.156158	-48.551090
40477		130.913953	-68.534243	-50.130855
40478		132.479980	-68.888575	-51.726893
40479		134.069243	-69.222016	-53.307468
40480		135.669294	-69.523995	-54.866710
40481		137.297449	-69.804155	-56.415743
40482		138.888945	-70.069923	-57.915269
40483		140.473349	-70.323880	-59.411480
40484		142.091406	-70.568365	-60.949685
40485		143.688964	-70.795991	-62.499471
40486		145.322398	-71.003198	-64.121972
40487		146.982364	-71.183286	-65.789983
40488		148.607283	-71.327954	-67.438901
40489		150.156049	-71.438695	-69.005357
40490		151.641501	-71.527913	-70.492534
40491		153.083137	-71.596327	-71.917212
40492		154.620371	-71.637112	-73.405870
40493		156.243808	-71.644953	-74.945473
40494		157.866736	-71.617452	-76.467932
40495		159.455380	-71.566691	-77.930753
40496		160.944304	-71.509612	-79.279780
