// General information: 
//  MT Manager version: 2022.2.0 
//  XDA version: 2022.2.0 build 7381 rev 124627 built on 2023-07-19
// Device information: 
//  DeviceId: 00B44856
//  ProductCode: MTW2-3A7G6
//  Firmware Version: 4.3.5
//  Hardware Version: 2.0.0
// Device settings: 
//  Filter Profile: human(46.1)
//  Option Flags: Orientation Smoother Disabled, Position/Velocity Smoother Disabled, Continuous Zero Rotation Update Disabled, AHS Disabled, ICC Disabled
// Coordinate system: ENU
PacketCounter	SampleTimeFine	Roll	Pitch	Yaw
37461		60.080265	39.570564	27.581472
37462		60.089872	39.569604	27.584458
37463		60.094523	39.567289	27.587391
37464		60.100662	39.566747	27.588037
37465		60.103118	39.567628	27.583048
37466		60.105909	39.570115	27.579728
37467		60.109819	39.574528	27.583264
37468		60.109119	39.576562	27.584041
37469		60.108339	39.572106	27.586806
37470		60.109736	39.570854	27.589515
37471		60.112316	39.568580	27.594628
37472		60.117961	39.567273	27.599386
37473		60.124253	39.563989	27.598889
37474		60.128952	39.562289	27.587156
37475		60.132218	39.562581	27.573185
37476		60.134528	39.563493	27.563477
37477		60.135613	39.564960	27.559182
37478		60.139326	39.565415	27.554449
37479		60.147205	39.566764	27.551931
37480		60.156427	39.572722	27.552130
37481		60.158839	39.579762	27.547795
37482		60.152627	39.587933	27.540200
37483		60.135334	39.594195	27.531329
37484		60.117170	39.604379	27.531772
37485		60.092729	39.614504	27.528315
37486		60.069845	39.622703	27.523962
37487		60.049541	39.631628	27.517682
37488		60.034967	39.640806	27.512294
37489		60.028785	39.648728	27.504088
37490		60.032585	39.661491	27.501008
37491		60.027989	39.674600	27.490015
37492		60.022541	39.688385	27.483143
37493		60.009931	39.703505	27.475048
37494		60.002971	39.715009	27.472968
37495		59.995318	39.726328	27.470665
37496		59.986368	39.733874	27.467506
37497		59.976884	39.742620	27.467683
37498		59.964750	39.751621	27.469006
37499		59.955442	39.762239	27.472423
37500		59.945867	39.770308	27.469638
37501		59.948174	39.777370	27.474356
37502		59.949954	39.782909	27.474381
37503		59.952232	39.780239	27.468472
37504		59.964303	39.777939	27.473690
37505		59.980883	39.781415	27.485853
37506		59.987927	39.802210	27.500848
37507		59.960221	39.812345	27.482908
37508		59.940486	39.790652	27.453382
37509		59.965476	39.777975	27.475465
37510		59.981068	39.783397	27.514328
37511		59.978160	39.799919	27.532751
37512		59.956727	39.820000	27.534993
37513		59.940105	39.820958	27.508628
37514		59.940283	39.814311	27.487966
37515		59.966996	39.807896	27.496726
37516		59.997928	39.810983	27.528116
37517		60.014651	39.820807	27.546498
37518		60.006657	39.826923	27.531594
37519		60.000433	39.834615	27.508839
37520		60.018382	39.843052	27.499065
37521		60.051267	39.848816	27.502671
37522		60.077518	39.851214	27.506918
37523		60.101494	39.854906	27.513941
37524		60.115468	39.873100	27.519622
37525		60.119314	39.898001	27.507651
37526		60.113986	39.920398	27.465407
37527		60.111357	39.938633	27.424631
37528		60.110969	39.958475	27.401650
37529		60.106899	39.978651	27.383614
37530		60.100476	40.000366	27.355324
37531		60.078489	40.022628	27.305806
37532		60.043727	40.048322	27.254222
37533		59.984151	40.082772	27.221991
37534		59.894873	40.112251	27.202293
37535		59.772913	40.129215	27.179361
37536		59.650832	40.132617	27.152443
37537		59.533906	40.120658	27.121901
37538		59.440128	40.105729	27.108176
37539		59.352710	40.095864	27.103518
37540		59.264512	40.081977	27.101165
37541		59.186187	40.066355	27.094945
37542		59.134661	40.044930	27.096602
37543		59.136629	40.016890	27.114262
37544		59.187362	39.994997	27.153662
37545		59.251459	39.983039	27.208199
37546		59.320586	39.995000	27.274642
37547		59.383436	40.019701	27.328145
37548		59.417899	40.054879	27.354486
37549		59.434354	40.091713	27.381469
37550		59.461884	40.123101	27.433426
37551		59.493645	40.151360	27.504214
37552		59.515519	40.176673	27.573610
37553		59.507007	40.194208	27.633602
37554		59.474340	40.199732	27.689656
37555		59.421217	40.191446	27.740135
37556		59.320278	40.173829	27.772807
37557		59.165558	40.146865	27.785045
37558		58.975229	40.123589	27.788354
37559		58.763893	40.093853	27.761818
37560		58.515871	40.040772	27.714790
37561		58.257762	39.977549	27.679868
37562		58.110126	39.904564	27.681360
37563		58.006954	39.819137	27.692273
37564		57.890895	39.721635	27.690971
37565		57.775585	39.613191	27.673021
37566		57.689956	39.503177	27.665236
37567		57.640980	39.383470	27.665663
37568		57.630635	39.261857	27.681659
37569		57.614289	39.148820	27.693913
37570		57.577410	39.053658	27.693537
37571		57.525860	38.962190	27.675981
37572		57.495464	38.857082	27.649180
37573		57.471823	38.741178	27.632291
37574		57.424611	38.616663	27.626470
37575		57.347104	38.493526	27.622761
37576		57.257762	38.373662	27.615297
37577		57.161315	38.257723	27.600345
37578		57.059328	38.149002	27.589578
37579		56.954963	38.050933	27.583786
37580		56.843366	37.958795	27.574139
37581		56.755455	37.869894	27.561129
37582		56.680593	37.791424	27.556647
37583		56.610862	37.725573	27.562135
37584		56.554288	37.660474	27.566145
37585		56.512932	37.598678	27.562768
37586		56.476765	37.548888	27.573805
37587		56.457826	37.513020	27.599972
37588		56.424525	37.479600	27.623327
37589		56.402457	37.442591	27.645901
37590		56.404511	37.414617	27.680050
37591		56.422808	37.395316	27.731549
37592		56.464666	37.380496	27.792432
37593		56.496936	37.365497	27.863364
37594		56.512392	37.347357	27.939372
37595		56.503026	37.327815	28.009319
37596		56.462768	37.307200	28.077114
37597		56.409161	37.288229	28.142138
37598		56.344865	37.271288	28.197292
37599		56.277887	37.258322	28.242601
37600		56.239668	37.245139	28.285233
37601		56.181116	37.218380	28.304118
37602		56.112926	37.190797	28.319158
37603		56.038458	37.167082	28.338131
37604		55.951041	37.161616	28.362797
37605		55.861611	37.168851	28.391451
37606		55.782298	37.192421	28.418440
37607		55.735027	37.206189	28.421850
37608		55.702700	37.224656	28.419379
37609		55.702080	37.259827	28.440745
37610		55.676681	37.311131	28.476668
37611		55.631084	37.381733	28.523190
37612		55.568301	37.460994	28.570658
37613		55.514491	37.562495	28.628329
37614		55.500378	37.677208	28.705622
37615		55.414639	37.771183	28.759700
37616		55.272915	37.840699	28.788382
37617		55.105852	37.878929	28.791412
37618		54.884699	37.902948	28.782781
37619		54.612183	37.931354	28.785783
37620		54.317053	37.957083	28.799826
37621		54.015170	37.975615	28.811573
37622		53.697134	37.983433	28.819453
37623		53.415564	37.990100	28.815933
37624		53.149415	37.984446	28.800784
37625		52.866600	37.980549	28.819547
37626		52.567273	37.976312	28.852411
37627		52.224782	37.981277	28.873953
37628		51.916975	37.991132	28.899280
37629		51.618485	38.014663	28.918495
37630		51.386143	38.034573	28.925631
37631		51.198632	38.039430	28.891269
37632		50.984592	38.025429	28.830159
37633		50.681524	38.013198	28.772252
37634		50.344641	38.007301	28.736817
37635		49.997701	37.984643	28.693591
37636		49.642152	37.959440	28.665429
37637		49.289131	37.943163	28.653613
37638		48.997014	37.930300	28.640469
37639		48.718906	37.892854	28.596667
37640		48.401736	37.847671	28.561237
37641		48.072808	37.805461	28.532088
37642		47.783003	37.760939	28.491773
37643		47.527028	37.715376	28.449217
37644		47.317876	37.665470	28.395837
37645		47.159571	37.626847	28.342955
37646		47.051867	37.606157	28.295693
37647		46.934600	37.580303	28.235016
37648		46.790272	37.563927	28.183930
37649		46.650602	37.556659	28.162353
37650		46.527322	37.537148	28.140568
37651		46.410269	37.523129	28.133203
37652		46.339140	37.513291	28.132451
37653		46.316204	37.500590	28.113523
37654		46.290604	37.474093	28.083046
37655		46.233301	37.453480	28.051605
37656		46.176670	37.439666	28.014075
37657		46.134966	37.429539	27.968193
37658		46.126917	37.420062	27.918167
37659		46.121103	37.391981	27.859336
37660		46.114985	37.379154	27.816476
37661		46.114905	37.356460	27.775244
37662		46.108290	37.334847	27.736959
37663		46.103762	37.321813	27.717966
37664		46.109996	37.317046	27.703126
37665		46.150401	37.325102	27.693005
37666		46.205788	37.342070	27.687143
37667		46.253903	37.361093	27.687021
37668		46.309002	37.386813	27.697428
37669		46.384345	37.415582	27.711040
37670		46.482555	37.449444	27.730454
37671		46.588514	37.485533	27.745963
37672		46.700165	37.514272	27.757335
37673		46.802788	37.540761	27.780005
37674		46.901637	37.560491	27.817059
37675		46.985293	37.569152	27.859373
37676		47.035457	37.581242	27.900069
37677		47.068163	37.598522	27.946111
37678		47.099699	37.615263	27.989981
37679		47.144847	37.613238	28.031763
37680		47.188114	37.591113	28.078034
37681		47.220723	37.558540	28.130925
37682		47.251495	37.520078	28.189304
37683		47.290514	37.471860	28.251509
37684		47.327147	37.413774	28.309298
37685		47.374475	37.356957	28.370653
37686		47.432963	37.295538	28.431384
37687		47.500906	37.236646	28.495526
37688		47.585766	37.177100	28.556654
37689		47.667130	37.113889	28.613656
37690		47.741715	37.052123	28.672488
37691		47.825469	36.987448	28.727647
37692		47.912513	36.913157	28.775525
37693		47.988358	36.827409	28.806708
37694		48.052180	36.736835	28.820392
37695		48.097840	36.650007	28.818518
37696		48.123413	36.558807	28.816100
37697		48.144105	36.455192	28.814871
37698		48.155854	36.346486	28.813552
37699		48.168257	36.245557	28.820960
37700		48.179898	36.139567	28.819156
37701		48.180762	36.036967	28.816333
37702		48.184319	35.939355	28.811822
37703		48.178643	35.835651	28.800584
37704		48.172663	35.737336	28.803344
37705		48.177796	35.638389	28.815974
37706		48.197123	35.539204	28.828740
37707		48.222171	35.450118	28.847337
37708		48.246165	35.355296	28.855036
37709		48.251106	35.269440	28.860996
37710		48.232451	35.190313	28.865586
37711		48.203760	35.113052	28.870933
37712		48.171972	35.032996	28.881089
37713		48.153860	34.958351	28.907045
37714		48.156128	34.884045	28.939558
37715		48.160049	34.813341	28.985815
37716		48.166758	34.743921	29.030093
37717		48.176970	34.674412	29.070806
37718		48.186683	34.601165	29.113934
37719		48.180876	34.515402	29.151617
37720		48.158287	34.421968	29.187248
37721		48.114284	34.329228	29.212877
37722		47.995346	34.263575	29.220375
37723		47.952353	34.155869	29.242026
37724		47.934456	34.053299	29.277937
37725		47.896050	33.918432	29.277849
37726		47.854529	33.786221	29.279960
37727		47.778746	33.690112	29.265260
37728		47.677920	33.593821	29.235006
37729		47.575451	33.503633	29.205414
37730		47.469474	33.421018	29.159015
37731		47.381715	33.356136	29.127734
37732		47.306199	33.306679	29.104373
37733		47.232997	33.269847	29.089908
37734		47.180046	33.243994	29.095763
37735		47.145221	33.230932	29.118658
37736		47.125468	33.223139	29.156945
37737		47.128802	33.217097	29.204251
37738		47.161907	33.202534	29.255076
37739		47.215390	33.185686	29.309531
37740		47.265366	33.170194	29.372327
37741		47.310993	33.155693	29.442050
37742		47.364454	33.146443	29.521767
37743		47.415524	33.138108	29.598343
37744		47.457751	33.123881	29.664257
37745		47.486044	33.104979	29.718632
37746		47.509777	33.074401	29.769630
37747		47.520539	33.028753	29.820305
37748		47.530926	32.968707	29.876245
37749		47.539254	32.898149	29.936282
37750		47.548800	32.822719	29.987748
37751		47.555117	32.746187	30.031088
37752		47.548449	32.680839	30.069763
37753		47.536498	32.636648	30.103312
37754		47.516705	32.597963	30.117187
37755		47.481025	32.553026	30.108997
37756		47.438307	32.498544	30.090983
37757		47.397553	32.425168	30.069342
37758		47.362794	32.345563	30.058268
37759		47.321439	32.269893	30.056223
37760		47.264300	32.206748	30.048496
37761		47.181136	32.167661	30.023694
37762		47.073532	32.135689	29.973248
37763		46.967513	32.100280	29.911425
37764		46.894358	32.064927	29.865143
37765		46.874732	32.017581	29.843212
37766		46.911093	31.959820	29.855583
37767		46.995295	31.901100	29.911260
37768		47.103265	31.847777	29.990290
37769		47.212034	31.802137	30.081973
37770		47.310540	31.772074	30.190195
37771		47.406227	31.752744	30.314850
37772		47.509679	31.727842	30.452153
37773		47.604195	31.701454	30.601413
37774		47.680202	31.669935	30.745021
37775		47.742753	31.631205	30.878070
37776		47.779681	31.589359	30.989959
37777		47.787745	31.555317	31.082891
37778		47.775679	31.530765	31.166748
37779		47.758362	31.518493	31.252137
37780		47.751160	31.512317	31.338409
37781		47.759305	31.505513	31.422085
37782		47.796803	31.493973	31.500671
37783		47.842286	31.480242	31.564496
37784		47.878726	31.467668	31.609016
37785		47.894362	31.449747	31.632054
37786		47.879937	31.429008	31.634406
37787		47.836007	31.406956	31.626241
37788		47.769287	31.388114	31.608138
37789		47.682990	31.375468	31.583138
37790		47.596553	31.371536	31.540424
37791		47.516088	31.371406	31.472112
37792		47.443980	31.379755	31.382038
37793		47.371285	31.399407	31.270320
37794		47.302448	31.427575	31.137381
37795		47.242164	31.453210	30.986108
37796		47.200538	31.482887	30.838001
37797		47.174154	31.513312	30.698799
37798		47.155508	31.551918	30.566858
37799		47.143621	31.594561	30.434949
37800		47.137931	31.633929	30.296962
37801		47.128721	31.674429	30.157853
37802		47.112912	31.720584	30.020722
37803		47.097321	31.767446	29.883683
37804		47.083210	31.815886	29.746181
37805		47.066261	31.870401	29.607107
37806		47.041416	31.932886	29.460724
37807		47.006121	32.010104	29.305368
37808		46.963768	32.101278	29.143251
37809		46.910753	32.201035	28.973432
37810		46.847381	32.306494	28.800408
37811		46.766740	32.409566	28.623520
37812		46.672391	32.499164	28.454305
37813		46.574609	32.573747	28.296298
37814		46.492037	32.645635	28.157186
37815		46.442698	32.717561	28.037140
37816		46.416500	32.795303	27.934799
37817		46.416605	32.869638	27.845986
37818		46.481116	32.943627	27.782643
37819		46.628453	32.995729	27.760618
37820		46.852653	33.026147	27.755852
37821		47.110097	33.052987	27.762347
37822		47.411070	33.076758	27.777093
37823		47.779247	33.108415	27.790463
37824		48.272532	33.170372	27.833980
37825		48.883621	33.227577	27.873516
37826		49.494613	33.279489	27.886055
37827		50.001245	33.335029	27.890831
37828		50.392889	33.384126	27.889338
37829		50.699637	33.416091	27.876571
37830		50.978149	33.431149	27.850335
37831		51.292612	33.433569	27.823975
37832		51.628763	33.422150	27.779301
37833		51.897538	33.407383	27.729906
37834		52.087339	33.406085	27.705866
37835		52.227108	33.403584	27.682149
37836		52.334838	33.389574	27.633229
37837		52.479606	33.382329	27.578430
37838		52.675753	33.371392	27.510175
37839		52.858822	33.364778	27.430807
37840		53.003690	33.364111	27.360773
37841		53.106572	33.359879	27.292508
37842		53.170953	33.346759	27.217658
37843		53.215707	33.319413	27.138380
37844		53.267929	33.287679	27.064274
37845		53.350448	33.267164	27.004097
37846		53.483964	33.261396	26.950423
37847		53.647475	33.257116	26.888760
37848		53.788966	33.255177	26.826791
37849		53.862925	33.255038	26.776746
37850		53.869753	33.253704	26.733656
37851		53.847651	33.252475	26.686612
37852		53.834066	33.244435	26.626631
37853		53.872974	33.239696	26.546039
37854		54.011049	33.244608	26.462812
37855		54.217230	33.255559	26.380308
37856		54.402341	33.263459	26.310212
37857		54.501181	33.266772	26.248213
37858		54.543427	33.261326	26.179480
37859		54.566924	33.250240	26.100277
37860		54.586529	33.238410	26.014216
37861		54.620363	33.221104	25.929874
37862		54.682023	33.202338	25.856410
37863		54.736583	33.180739	25.805234
37864		54.754731	33.150435	25.776383
37865		54.718134	33.113646	25.756744
37866		54.641059	33.064749	25.724461
37867		54.555726	33.007758	25.679210
37868		54.509234	32.949555	25.615280
37869		54.542614	32.900449	25.545810
37870		54.655672	32.870103	25.503760
37871		54.750941	32.860560	25.488952
37872		54.798551	32.858243	25.499469
37873		54.813161	32.855441	25.516119
37874		54.797999	32.843199	25.520829
37875		54.777797	32.818331	25.504313
37876		54.804910	32.796249	25.492133
37877		54.871078	32.780749	25.496739
37878		54.948654	32.768134	25.524120
37879		54.991573	32.761804	25.574195
37880		54.993185	32.756220	25.624158
37881		54.979964	32.752506	25.656751
37882		54.963962	32.746312	25.667503
37883		54.967736	32.737620	25.666414
37884		55.002474	32.733735	25.674352
37885		55.043205	32.733731	25.701346
37886		55.088452	32.733379	25.738757
37887		55.141856	32.727650	25.770678
37888		55.203275	32.724566	25.801981
37889		55.270065	32.730846	25.839958
37890		55.331483	32.745842	25.881102
37891		55.374655	32.769201	25.918449
37892		55.402143	32.795244	25.949122
37893		55.415620	32.819784	25.971679
37894		55.424887	32.845686	25.987521
37895		55.435357	32.856994	25.999560
37896		55.456140	32.860630	26.012260
37897		55.483904	32.856657	26.029432
37898		55.514416	32.836698	26.037633
37899		55.550929	32.803575	26.050870
37900		55.602016	32.774584	26.084206
37901		55.653811	32.753909	26.117144
37902		55.707709	32.738375	26.136364
37903		55.765306	32.726383	26.153323
37904		55.817018	32.718372	26.167072
37905		55.858932	32.709942	26.174715
37906		55.902106	32.703169	26.185532
37907		55.942275	32.700853	26.197374
37908		55.981723	32.695358	26.207831
37909		56.021571	32.690845	26.209615
37910		56.060701	32.686690	26.212961
37911		56.100259	32.688231	26.217462
37912		56.136622	32.690383	26.220657
37913		56.162976	32.689526	26.221445
37914		56.192050	32.690175	26.226325
37915		56.227883	32.692505	26.231181
37916		56.260937	32.692542	26.227420
37917		56.302595	32.692247	26.221552
37918		56.352972	32.696115	26.218070
37919		56.406150	32.704324	26.220220
37920		56.462708	32.715875	26.229043
37921		56.523205	32.726809	26.238369
37922		56.591727	32.734282	26.248109
37923		56.663185	32.737967	26.263632
37924		56.720249	32.749085	26.280560
37925		56.773545	32.759723	26.298255
37926		56.828956	32.766787	26.314451
37927		56.888711	32.773253	26.333611
37928		56.951189	32.781238	26.354611
37929		57.003423	32.786373	26.370395
37930		57.050953	32.789704	26.381823
37931		57.096591	32.791559	26.390533
37932		57.150782	32.795888	26.404033
37933		57.203211	32.802603	26.417600
37934		57.245165	32.810629	26.426069
37935		57.268023	32.807515	26.425991
37936		57.287550	32.802235	26.420213
37937		57.301277	32.807839	26.412891
37938		57.319564	32.822748	26.402792
37939		57.339983	32.840833	26.390277
37940		57.356335	32.856855	26.370529
37941		57.372148	32.869413	26.341258
37942		57.396902	32.883521	26.312720
37943		57.428414	32.893598	26.288783
37944		57.464981	32.902446	26.265117
37945		57.504244	32.908483	26.238550
37946		57.544156	32.911963	26.208002
37947		57.579193	32.912822	26.179706
37948		57.612222	32.918586	26.156236
37949		57.638948	32.927515	26.133885
37950		57.668857	32.942870	26.119272
37951		57.696398	32.959879	26.109067
37952		57.716673	32.968037	26.098677
37953		57.729411	32.965254	26.088005
37954		57.728383	32.960224	26.080054
37955		57.719115	32.959856	26.075839
37956		57.734189	32.967569	26.084096
37957		57.779746	32.986031	26.100558
37958		57.833732	33.011623	26.118747
37959		57.878073	33.032283	26.133700
37960		57.900951	33.047014	26.143130
37961		57.903263	33.056306	26.153527
37962		57.887780	33.064210	26.164365
37963		57.875553	33.073250	26.182221
37964		57.872836	33.085333	26.192946
37965		57.872237	33.098804	26.195673
37966		57.860939	33.105090	26.191368
37967		57.829108	33.102936	26.186537
37968		57.776994	33.092132	26.178362
37969		57.716700	33.080835	26.175667
37970		57.670395	33.073415	26.183431
37971		57.654165	33.069487	26.201613
37972		57.662498	33.068304	26.226056
37973		57.684256	33.056305	26.254872
37974		57.713947	33.045621	26.293280
37975		57.730710	33.040063	26.334513
37976		57.725885	33.045237	26.377446
37977		57.709857	33.056955	26.422216
37978		57.703060	33.070211	26.470037
37979		57.716129	33.076513	26.515408
37980		57.750139	33.075777	26.562780
37981		57.786550	33.067901	26.607680
37982		57.815261	33.058999	26.649960
37983		57.815009	33.042984	26.680589
37984		57.789724	33.025847	26.698107
37985		57.752742	33.012957	26.715709
37986		57.717586	33.005414	26.733670
37987		57.679567	32.996940	26.746669
37988		57.642206	32.987096	26.751610
37989		57.602297	32.967336	26.757784
37990		57.564018	32.946059	26.770469
37991		57.516972	32.924150	26.792424
37992		57.468581	32.904995	26.821507
37993		57.429832	32.889706	26.852583
37994		57.406199	32.876722	26.879474
37995		57.392054	32.860115	26.894191
37996		57.398409	32.844092	26.909008
37997		57.409987	32.826981	26.920866
37998		57.432835	32.814138	26.937531
37999		57.462805	32.810896	26.959126
38000		57.474428	32.807473	26.969865
38001		57.456814	32.780209	26.954679
38002		57.403920	32.748375	26.934026
38003		57.296640	32.707367	26.903002
38004		57.148453	32.653760	26.862152
38005		56.992573	32.602791	26.822934
38006		56.845086	32.532269	26.765068
38007		56.715638	32.444715	26.699814
38008		56.608303	32.355412	26.651942
38009		56.510930	32.276430	26.623924
38010		56.395548	32.214789	26.606722
38011		56.256464	32.169164	26.584949
38012		56.094099	32.128653	26.553691
38013		55.935699	32.082361	26.506927
38014		55.765338	32.035098	26.470512
38015		55.620537	31.984942	26.457846
38016		55.513172	31.932984	26.463964
38017		55.355999	31.903520	26.477490
38018		55.199094	31.856920	26.481167
38019		55.070066	31.805072	26.466035
38020		54.928611	31.770941	26.452176
38021		54.775813	31.739589	26.430424
38022		54.615229	31.719782	26.413680
38023		54.435164	31.696348	26.388144
38024		54.254452	31.668426	26.349845
38025		54.099366	31.640063	26.309041
38026		53.954070	31.607192	26.262368
38027		53.836754	31.573100	26.216889
38028		53.735188	31.544347	26.187984
38029		53.633853	31.519190	26.163342
38030		53.542431	31.492464	26.141919
38031		53.475638	31.460130	26.131739
38032		53.425092	31.428131	26.136467
38033		53.382022	31.400643	26.149299
38034		53.360136	31.384455	26.166085
38035		53.353105	31.377326	26.186500
38036		53.392190	31.374163	26.222580
38037		53.439624	31.366202	26.268221
38038		53.410660	31.358135	26.328118
38039		53.330311	31.348891	26.393938
38040		53.278092	31.330333	26.439240
38041		53.229640	31.301859	26.454805
38042		53.197768	31.270797	26.472592
38043		53.178570	31.252964	26.498603
38044		53.175062	31.260432	26.541807
38045		53.151155	31.274567	26.570471
38046		53.163608	31.281037	26.585173
38047		53.148621	31.294640	26.595753
38048		53.116151	31.306259	26.631525
38049		53.081240	31.322395	26.703841
38050		53.133709	31.331087	26.792258
38051		53.250420	31.310658	26.886880
38052		53.375734	31.276903	26.983659
38053		53.522051	31.242154	27.085468
38054		53.665909	31.211340	27.188289
38055		53.750661	31.185590	27.305645
38056		53.750561	31.179548	27.458466
38057		53.757397	31.152961	27.590185
38058		53.770363	31.081272	27.659666
38059		53.754105	30.996633	27.701532
38060		53.700985	30.910036	27.725902
38061		53.624349	30.830238	27.731875
38062		53.546923	30.757345	27.716606
38063		53.476039	30.699527	27.684263
38064		53.401757	30.657326	27.640279
38065		53.341239	30.625818	27.584923
38066		53.311725	30.613586	27.534063
38067		53.290137	30.624694	27.482328
38068		53.227951	30.659815	27.432057
38069		53.099487	30.723023	27.386385
38070		52.925047	30.803427	27.350176
38071		52.771852	30.869723	27.307411
38072		52.668094	30.915952	27.265673
38073		52.584555	30.947606	27.227809
38074		52.552640	30.975761	27.208516
38075		52.597210	30.990221	27.209544
38076		52.713452	31.001019	27.216223
38077		52.855876	31.015107	27.224003
38078		52.993905	31.038781	27.221829
38079		53.095562	31.071622	27.210365
38080		53.107692	31.109917	27.206288
38081		53.100234	31.138314	27.208630
38082		53.110880	31.138604	27.195661
38083		53.109086	31.124573	27.164785
38084		53.076326	31.120916	27.129582
38085		53.029206	31.129466	27.086835
38086		52.990537	31.145991	27.023323
38087		52.969885	31.164756	26.941786
38088		52.930432	31.180765	26.879902
38089		52.868500	31.207401	26.877988
38090		52.905350	31.214325	26.887658
38091		52.975612	31.197071	26.888774
38092		53.018929	31.193809	26.891946
38093		53.025330	31.193911	26.897020
38094		53.016867	31.185100	26.898487
38095		53.013467	31.170368	26.895634
38096		53.006555	31.159477	26.889947
38097		52.980740	31.155307	26.895659
38098		52.976424	31.155594	26.917591
38099		53.008120	31.145266	26.924289
38100		53.029469	31.133950	26.915752
38101		53.015807	31.122337	26.898474
38102		52.985506	31.114747	26.877112
38103		52.965477	31.104288	26.851955
38104		52.957332	31.091688	26.828068
38105		52.969704	31.078762	26.812005
38106		53.017627	31.073691	26.806779
38107		53.051966	31.071351	26.809650
38108		53.105854	31.067194	26.812475
38109		53.172671	31.060960	26.815475
38110		53.221055	31.071674	26.811490
38111		53.191935	31.086690	26.812141
38112		53.178924	31.107642	26.824939
38113		53.176222	31.117180	26.832510
38114		53.159311	31.119496	26.857959
38115		53.165624	31.112535	26.898271
38116		53.196790	31.088413	26.940890
38117		53.238722	31.050202	26.981632
38118		53.299524	31.008686	27.014220
38119		53.352572	30.974589	27.049272
38120		53.394638	30.955975	27.092552
38121		53.411089	30.956011	27.143358
38122		53.443480	30.954089	27.182265
38123		53.476445	30.944763	27.210515
38124		53.513946	30.932103	27.250549
38125		53.601788	30.925472	27.302827
38126		53.658821	30.926708	27.346126
38127		53.665491	30.939932	27.386706
38128		53.667632	30.935492	27.401824
38129		53.681679	30.913448	27.404976
38130		53.734003	30.893763	27.412588
38131		53.800809	30.880459	27.422653
38132		53.877650	30.881405	27.431815
38133		53.934696	30.896575	27.440037
38134		53.934015	30.920465	27.453454
38135		53.891434	30.957963	27.473785
38136		53.839007	30.989976	27.473930
38137		53.760980	31.016100	27.459544
38138		53.664924	31.040156	27.448718
38139		53.568798	31.045983	27.435692
38140		53.516889	31.034909	27.412257
38141		53.529305	31.013288	27.397526
38142		53.579984	30.988954	27.388905
38143		53.671499	30.961314	27.387621
38144		53.776215	30.932451	27.379239
38145		53.845597	30.913707	27.366916
38146		53.864404	30.907816	27.348261
38147		53.838978	30.908932	27.315707
38148		53.813293	30.919150	27.279887
38149		53.809464	30.943843	27.242675
38150		53.845403	30.979247	27.193886
38151		53.915283	31.030835	27.132760
38152		54.015348	31.099162	27.063295
38153		54.159632	31.183973	26.980932
38154		54.322536	31.291049	26.883366
38155		54.474636	31.407405	26.750192
38156		54.675512	31.530860	26.603655
38157		54.919006	31.648883	26.492980
38158		55.199054	31.757575	26.420132
38159		55.482195	31.862629	26.358392
38160		55.714662	31.965222	26.287408
38161		55.899609	32.066635	26.214280
38162		56.055349	32.165952	26.156842
38163		56.166865	32.252669	26.115614
38164		56.226075	32.328182	26.075735
38165		56.207394	32.401153	26.041351
38166		56.135999	32.489746	26.013985
38167		56.036041	32.586883	25.982666
38168		55.965939	32.683933	25.939789
38169		55.936390	32.771239	25.881213
38170		55.934483	32.840813	25.815693
38171		55.917582	32.887988	25.750154
38172		55.855837	32.916748	25.678605
38173		55.762841	32.934749	25.602617
38174		55.646266	32.950913	25.523153
38175		55.508117	32.964583	25.441988
38176		55.391915	32.970931	25.356698
38177		55.290678	32.965610	25.262370
38178		55.177742	32.947434	25.154608
38179		55.043812	32.918826	25.036499
38180		54.906342	32.885491	24.924641
38181		54.774915	32.857296	24.827583
38182		54.641217	32.839276	24.730579
38183		54.510491	32.833915	24.643661
38184		54.395522	32.833933	24.557584
38185		54.261379	32.836193	24.468812
38186		54.130730	32.844750	24.398086
38187		54.021049	32.859099	24.346286
38188		53.930812	32.866292	24.301065
38189		53.825919	32.865913	24.248963
38190		53.716552	32.870781	24.203076
38191		53.612006	32.886252	24.168217
38192		53.515579	32.915706	24.145867
38193		53.429463	32.945494	24.121717
38194		53.337419	32.972240	24.085309
38195		53.249915	32.994139	24.044160
38196		53.189184	33.007575	24.003768
38197		53.129855	33.023945	23.964430
38198		53.079313	33.045185	23.931492
38199		53.045701	33.064158	23.912008
38200		53.003024	33.070999	23.888950
38201		52.940475	33.065940	23.862571
38202		52.885434	33.051634	23.842839
38203		52.836131	33.033774	23.834560
38204		52.778361	33.011796	23.826673
38205		52.715871	32.985681	23.812359
38206		52.637625	32.954998	23.793435
38207		52.565802	32.939014	23.793708
38208		52.536259	32.931330	23.805111
38209		52.521545	32.931870	23.822230
38210		52.506445	32.941343	23.855111
38211		52.476097	32.942837	23.882618
38212		52.430306	32.947764	23.907032
38213		52.406505	32.947876	23.929473
38214		52.408398	32.941583	23.956381
38215		52.402957	32.937294	23.998065
38216		52.403867	32.934996	24.050571
38217		52.408140	32.938722	24.091606
38218		52.425334	32.946166	24.121889
38219		52.435297	32.949149	24.141207
38220		52.384999	32.966377	24.160930
38221		52.323506	32.977313	24.176438
38222		52.275299	32.988406	24.194492
38223		52.259589	32.995180	24.217627
38224		52.249742	32.989642	24.242930
38225		52.212528	32.991190	24.284263
38226		52.204831	32.992018	24.342153
38227		52.177012	32.974132	24.379986
38228		52.105781	32.961747	24.410019
38229		52.055680	32.940446	24.433945
38230		51.981916	32.906680	24.432261
38231		51.884759	32.877079	24.441779
38232		51.820918	32.844135	24.458778
38233		51.775174	32.798225	24.456910
38234		51.785837	32.733464	24.448122
38235		51.824157	32.659687	24.453672
38236		51.808832	32.598895	24.470810
38237		51.740460	32.565806	24.473032
38238		51.660800	32.550918	24.461914
38239		51.614746	32.536139	24.424908
38240		51.586860	32.531674	24.399845
38241		51.572363	32.525289	24.408577
38242		51.548383	32.515562	24.425822
38243		51.515247	32.509490	24.447211
38244		51.496836	32.494771	24.449351
38245		51.440390	32.475608	24.431141
38246		51.397030	32.456370	24.413570
38247		51.348158	32.410671	24.374218
38248		51.235871	32.369854	24.352199
38249		51.104809	32.335098	24.349834
38250		50.952004	32.277946	24.330377
38251		50.813013	32.198441	24.317684
38252		50.711604	32.065224	24.275881
38253		50.591010	31.908382	24.225963
38254		50.451633	31.781068	24.210479
38255		50.312909	31.672503	24.195691
38256		50.158564	31.588887	24.184980
38257		50.031430	31.513035	24.168412
38258		49.931358	31.451405	24.152192
38259		49.885594	31.419913	24.163025
38260		49.853484	31.384023	24.151786
38261		49.793671	31.351721	24.138759
38262		49.730399	31.329334	24.126519
38263		49.656148	31.285072	24.093798
38264		49.559164	31.253286	24.084366
38265		49.464467	31.233846	24.090633
38266		49.372000	31.205386	24.084903
38267		49.286181	31.175431	24.075061
38268		49.172510	31.142770	24.065420
38269		49.031984	31.127111	24.071411
38270		48.908678	31.111060	24.070135
38271		48.812562	31.098247	24.068795
38272		48.752120	31.108317	24.073474
38273		48.724854	31.095926	24.058000
38274		48.686676	31.071386	24.037280
38275		48.608893	31.067255	24.027991
38276		48.505432	31.056955	24.004919
38277		48.396255	31.032120	23.971465
38278		48.296437	31.024721	23.953477
38279		48.210327	31.010647	23.931170
38280		48.099823	30.996684	23.908992
38281		47.977985	30.999917	23.891460
38282		47.869272	31.007675	23.868553
38283		47.778963	31.003796	23.840687
38284		47.700361	31.007465	23.824236
38285		47.637640	31.028952	23.829073
38286		47.611045	31.051757	23.827764
38287		47.618926	31.069608	23.824727
38288		47.665986	31.098166	23.827753
38289		47.738848	31.108283	23.819414
38290		47.818458	31.113933	23.803304
38291		47.897138	31.123029	23.789646
38292		47.969106	31.127547	23.778782
38293		48.026986	31.129790	23.776820
38294		48.061856	31.141795	23.783242
38295		48.071963	31.150960	23.783413
38296		48.076187	31.156415	23.781265
38297		48.081085	31.160790	23.778610
38298		48.088616	31.169985	23.774622
38299		48.114934	31.181556	23.773671
38300		48.173291	31.185156	23.764333
38301		48.230015	31.179185	23.754689
38302		48.264876	31.178402	23.756651
38303		48.276043	31.183432	23.756659
38304		48.267584	31.187134	23.747116
38305		48.251309	31.200036	23.742326
38306		48.244579	31.210218	23.740164
38307		48.238731	31.221840	23.733183
38308		48.244415	31.239290	23.732709
38309		48.250734	31.255308	23.732122
38310		48.265702	31.278483	23.739198
38311		48.287596	31.302193	23.744027
38312		48.323708	31.326248	23.743681
38313		48.365195	31.354208	23.748998
38314		48.406706	31.388690	23.756694
38315		48.437077	31.408121	23.755442
38316		48.447852	31.430817	23.754282
38317		48.442691	31.451282	23.757812
38318		48.433261	31.468894	23.761230
38319		48.428108	31.477591	23.761111
38320		48.418824	31.485348	23.757743
38321		48.408009	31.499409	23.752933
38322		48.397315	31.515817	23.745768
38323		48.384198	31.531922	23.734693
38324		48.385264	31.552117	23.726638
38325		48.397653	31.560218	23.708830
38326		48.414373	31.571281	23.699217
38327		48.419422	31.589882	23.696176
38328		48.418334	31.610296	23.687770
38329		48.414555	31.627808	23.677271
38330		48.407226	31.647199	23.672084
38331		48.399948	31.671229	23.669540
38332		48.400720	31.688263	23.661771
38333		48.411089	31.703245	23.649577
38334		48.422657	31.722168	23.639544
38335		48.432236	31.738145	23.623846
38336		48.445706	31.751639	23.600272
38337		48.462514	31.766471	23.577665
38338		48.473813	31.790383	23.560369
38339		48.484367	31.826703	23.547569
38340		48.507907	31.868802	23.539584
38341		48.537531	31.915171	23.533167
38342		48.566889	31.964534	23.532552
38343		48.597995	32.015934	23.527806
38344		48.627860	32.060000	23.515381
38345		48.644631	32.098374	23.497766
38346		48.651561	32.138962	23.480979
38347		48.652975	32.178303	23.460323
38348		48.655625	32.216089	23.436438
38349		48.658826	32.252210	23.413151
38350		48.669354	32.287699	23.389060
38351		48.683426	32.319979	23.361848
38352		48.696515	32.356497	23.338776
38353		48.704820	32.390278	23.316108
38354		48.712839	32.422538	23.294676
38355		48.725308	32.459434	23.287830
38356		48.760445	32.501668	23.292679
38357		48.801647	32.537862	23.292914
38358		48.839584	32.578193	23.300464
38359		48.868138	32.615808	23.305077
38360		48.888552	32.650904	23.310283
38361		48.903989	32.685431	23.321319
38362		48.910796	32.717052	23.337308
38363		48.899201	32.748375	23.354258
38364		48.895600	32.782215	23.373295
38365		48.924844	32.809030	23.400692
38366		48.966926	32.831645	23.432388
38367		49.002634	32.851520	23.466293
38368		49.022168	32.869078	23.493192
38369		49.031083	32.883338	23.513498
38370		49.030293	32.890902	23.526213
38371		49.019778	32.896075	23.535441
38372		49.007510	32.900214	23.546945
38373		49.036068	32.911603	23.565762
38374		49.124003	32.918100	23.568954
38375		49.220201	32.923538	23.565795
38376		49.295880	32.941072	23.569315
38377		49.351197	32.961590	23.573496
38378		49.389999	32.980235	23.561952
38379		49.421022	32.993917	23.545710
38380		49.446132	33.006945	23.536503
38381		49.454725	33.024480	23.540608
38382		49.492959	33.042706	23.549884
38383		49.554080	33.049056	23.550155
38384		49.611565	33.062701	23.553197
38385		49.660041	33.079738	23.565741
38386		49.701677	33.093932	23.572695
38387		49.758134	33.115417	23.577554
38388		49.859551	33.137363	23.582226
38389		49.977806	33.155123	23.575511
38390		50.098254	33.180345	23.576421
38391		50.217730	33.208340	23.578447
38392		50.338242	33.243101	23.567965
38393		50.466948	33.290299	23.558647
38394		50.608640	33.331953	23.542502
38395		50.739492	33.368350	23.523171
38396		50.850197	33.403589	23.507704
38397		50.924879	33.424341	23.480995
38398		50.964760	33.437516	23.436611
38399		50.984045	33.440394	23.382003
38400		51.010892	33.436061	23.328832
38401		51.091384	33.437199	23.284389
38402		51.250980	33.452223	23.238823
38403		51.445916	33.466306	23.177656
38404		51.604810	33.488197	23.124493
38405		51.710744	33.512125	23.080692
38406		51.770593	33.528014	23.034369
38407		51.807148	33.531336	22.975754
38408		51.845699	33.518303	22.896787
38409		51.900007	33.486169	22.804080
38410		51.952871	33.451036	22.724300
38411		52.008936	33.419847	22.661578
38412		52.097194	33.399374	22.621056
38413		52.192255	33.386863	22.579636
38414		52.274711	33.378539	22.544090
38415		52.324542	33.368182	22.501275
38416		52.345355	33.356395	22.451435
38417		52.346513	33.337651	22.399010
38418		52.345150	33.308287	22.342078
38419		52.372614	33.289080	22.298161
38420		52.453631	33.270057	22.256570
38421		52.565427	33.248866	22.222779
38422		52.648237	33.227451	22.209940
38423		52.697191	33.197146	22.205621
38424		52.712836	33.163461	22.191000
38425		52.702998	33.129918	22.163685
38426		52.689821	33.103147	22.131266
38427		52.705299	33.082552	22.102094
38428		52.764262	33.069679	22.074894
38429		52.841082	33.072698	22.063443
38430		52.899631	33.087601	22.067845
38431		52.948329	33.107557	22.081519
38432		52.972283	33.132815	22.092456
38433		52.968862	33.159130	22.099395
38434		52.951804	33.181985	22.099639
38435		52.926542	33.204092	22.087167
38436		52.926887	33.223456	22.059404
38437		52.978933	33.246935	22.025627
38438		53.040683	33.279246	22.008062
38439		53.056439	33.314847	22.009042
38440		53.039743	33.339501	22.006507
38441		53.023160	33.353660	21.983522
38442		53.042426	33.365514	21.940571
38443		53.121754	33.386727	21.904475
38444		53.219242	33.419882	21.889879
38445		53.301274	33.454751	21.889791
38446		53.345563	33.490315	21.893367
38447		53.347602	33.517991	21.893192
38448		53.328485	33.538613	21.888119
38449		53.320265	33.546572	21.878749
38450		53.342853	33.544623	21.870072
38451		53.404827	33.539059	21.881623
38452		53.468838	33.541413	21.918113
38453		53.518797	33.544886	21.970385
38454		53.537431	33.549944	22.010634
38455		53.533575	33.555552	22.036832
38456		53.524347	33.560519	22.052398
38457		53.524996	33.572149	22.071023
38458		53.550224	33.601582	22.104910
38459		53.588244	33.638836	22.150457
38460		53.628982	33.682409	22.201631
38461		53.647336	33.719093	22.249139
38462		53.651634	33.737660	22.292485
38463		53.649073	33.733949	22.322768
38464		53.635180	33.709394	22.345442
38465		53.626415	33.676785	22.385508
38466		53.634499	33.651469	22.460147
38467		53.631701	33.630761	22.558985
38468		53.603030	33.609136	22.649359
38469		53.561164	33.583459	22.723242
38470		53.522388	33.556697	22.781734
38471		53.485382	33.523612	22.829874
38472		53.455063	33.486465	22.883652
38473		53.426450	33.446041	22.949699
38474		53.400742	33.404894	23.017430
38475		53.370037	33.358143	23.076211
38476		53.342563	33.315451	23.124641
38477		53.338076	33.273471	23.171426
38478		53.343091	33.229410	23.210214
38479		53.352302	33.190196	23.255007
38480		53.363356	33.156760	23.309182
38481		53.357391	33.130636	23.358944
38482		53.333973	33.117923	23.398278
38483		53.300272	33.112223	23.426655
38484		53.263236	33.109880	23.441809
38485		53.232806	33.106912	23.444550
38486		53.219151	33.105788	23.447603
38487		53.225681	33.109527	23.461248
38488		53.251044	33.116391	23.484203
38489		53.287257	33.120118	23.509781
38490		53.328518	33.117417	23.532322
38491		53.365459	33.112510	23.550733
38492		53.398219	33.102660	23.563646
38493		53.421348	33.096661	23.576559
38494		53.441428	33.096522	23.590682
38495		53.459971	33.105001	23.609187
38496		53.485353	33.116980	23.625759
38497		53.512695	33.126977	23.641099
38498		53.543285	33.131460	23.659999
38499		53.585782	33.130132	23.683576
38500		53.627406	33.123612	23.708685
38501		53.665950	33.120358	23.738955
38502		53.709673	33.121122	23.770120
38503		53.751754	33.126364	23.795538
38504		53.795312	33.133983	23.812493
38505		53.838505	33.139343	23.826108
38506		53.871677	33.142609	23.838530
38507		53.895460	33.145146	23.852103
38508		53.907734	33.147380	23.860589
38509		53.913048	33.150253	23.866149
38510		53.921384	33.153613	23.868763
38511		53.931295	33.161353	23.870851
38512		53.950165	33.171561	23.872125
38513		53.970713	33.181683	23.873319
38514		53.985123	33.188919	23.875651
38515		54.000871	33.193185	23.879263
38516		54.015561	33.189552	23.891022
38517		54.022597	33.180329	23.908833
38518		54.032446	33.169140	23.930443
38519		54.047996	33.152057	23.955651
38520		54.068132	33.128663	23.984367
38521		54.097607	33.103917	24.013785
38522		54.133580	33.083831	24.052840
38523		54.176815	33.071054	24.099071
38524		54.220428	33.060505	24.148607
38525		54.261096	33.054341	24.201441
38526		54.303747	33.063668	24.258777
38527		54.338951	33.084245	24.317485
38528		54.369254	33.115027	24.370738
38529		54.396810	33.152070	24.422898
38530		54.418058	33.187214	24.466591
38531		54.421481	33.214220	24.494003
38532		54.410282	33.223440	24.514236
38533		54.394163	33.216697	24.536333
38534		54.380824	33.200913	24.564406
38535		54.364499	33.182322	24.592314
38536		54.346764	33.165358	24.620467
38537		54.334885	33.153572	24.650450
38538		54.335911	33.149439	24.678973
38539		54.343321	33.145614	24.702133
38540		54.351175	33.138329	24.715054
38541		54.354789	33.120193	24.727248
38542		54.350729	33.094251	24.741118
38543		54.336672	33.060484	24.755756
38544		54.320995	33.024222	24.768324
38545		54.318390	32.992146	24.784755
38546		54.337474	32.971647	24.801409
38547		54.370730	32.965171	24.812073
38548		54.409955	32.967382	24.819339
38549		54.453596	32.974279	24.814430
38550		54.500690	32.975099	24.808015
38551		54.540956	32.972069	24.801658
38552		54.572773	32.966805	24.797871
38553		54.591664	32.967288	24.795499
38554		54.597514	32.975781	24.791764
38555		54.605055	32.988908	24.786571
38556		54.615342	33.000516	24.776653
38557		54.629230	33.002693	24.761415
38558		54.644744	33.000357	24.749804
38559		54.648932	32.995426	24.740888
38560		54.639921	32.990613	24.739118
38561		54.621433	32.985611	24.737604
38562		54.606939	32.984615	24.741414
38563		54.605613	32.989411	24.748580
38564		54.611508	32.992708	24.749139
38565		54.621672	32.997393	24.747417
38566		54.630971	32.998532	24.740243
38567		54.642128	32.999538	24.739844
38568		54.650014	32.995417	24.743329
38569		54.641338	32.987096	24.744156
38570		54.623730	32.978231	24.745809
38571		54.604781	32.973064	24.752831
38572		54.588657	32.966982	24.759788
38573		54.576309	32.958786	24.766816
38574		54.566047	32.938680	24.767792
38575		54.565281	32.912996	24.765634
38576		54.568729	32.888077	24.764808
38577		54.581290	32.872971	24.771513
38578		54.598510	32.871084	24.780803
38579		54.617720	32.875391	24.788677
38580		54.643873	32.884732	24.794472
38581		54.669710	32.888832	24.790711
38582		54.689414	32.891276	24.785939
38583		54.700418	32.891822	24.783698
38584		54.698517	32.887608	24.779120
38585		54.687462	32.884097	24.778528
38586		54.680363	32.883534	24.787160
38587		54.674757	32.881409	24.797461
38588		54.659659	32.882706	24.798220
38589		54.639050	32.882910	24.799736
38590		54.609836	32.888775	24.803423
38591		54.577788	32.891336	24.805567
38592		54.551932	32.893237	24.811497
38593		54.532056	32.895208	24.823011
38594		54.523569	32.897812	24.836976
38595		54.526481	32.898055	24.851200
38596		54.538884	32.907297	24.865931
38597		54.555493	32.917218	24.882037
38598		54.573170	32.922857	24.891298
38599		54.579301	32.921595	24.893810
38600		54.572026	32.915670	24.899212
38601		54.552074	32.908478	24.910032
38602		54.527075	32.904772	24.922029
38603		54.509839	32.899431	24.932875
38604		54.501622	32.892822	24.938333
38605		54.507262	32.879827	24.941368
38606		54.522926	32.863956	24.945567
38607		54.539086	32.846470	24.954357
38608		54.551186	32.828619	24.966409
38609		54.548689	32.813012	24.975980
38610		54.538555	32.800166	24.982703
38611		54.531368	32.790671	24.986269
38612		54.530024	32.778780	24.990551
38613		54.535372	32.764278	24.993268
38614		54.546737	32.753181	24.995180
38615		54.562128	32.742055	24.996205
38616		54.586523	32.732714	24.995587
38617		54.619454	32.722333	24.996034
38618		54.653201	32.716265	24.999520
38619		54.667802	32.722550	25.001592
38620		54.658454	32.730556	24.994716
38621		54.650045	32.738221	24.989650
38622		54.645690	32.747699	24.986097
38623		54.642437	32.752328	24.985054
38624		54.635854	32.756526	24.986644
38625		54.627360	32.757335	24.990797
38626		54.621059	32.756868	24.996101
38627		54.614966	32.753985	24.997529
38628		54.617896	32.757857	25.002789
38629		54.625129	32.770736	25.008796
38630		54.633653	32.786657	25.011205
38631		54.637208	32.808300	25.004080
38632		54.643944	32.832354	24.993670
38633		54.663183	32.858010	24.983594
38634		54.695830	32.890622	24.980936
38635		54.728481	32.926831	24.979876
38636		54.759826	32.966194	24.979165
38637		54.787818	32.999279	24.974065
38638		54.807719	33.034303	24.971863
38639		54.832897	33.075532	24.977180
38640		54.859693	33.119709	24.977909
38641		54.877330	33.160143	24.976355
38642		54.889457	33.193794	24.974522
38643		54.905116	33.223099	24.974104
38644		54.918596	33.249437	24.969397
38645		54.925849	33.273963	24.960285
38646		54.938111	33.291227	24.949024
38647		54.946660	33.301351	24.939392
38648		54.943941	33.302209	24.930748
38649		54.928090	33.295597	24.925875
38650		54.898857	33.286102	24.924223
38651		54.856118	33.275239	24.923210
38652		54.818809	33.259977	24.925431
38653		54.786996	33.243735	24.923267
38654		54.754683	33.225466	24.922718
38655		54.722636	33.208838	24.916139
38656		54.696965	33.198020	24.906875
38657		54.685230	33.188082	24.899767
38658		54.686618	33.176488	24.896085
38659		54.692682	33.162541	24.894689
38660		54.707733	33.145258	24.895725
38661		54.722885	33.124505	24.894218
38662		54.738698	33.103832	24.890603
38663		54.749685	33.086463	24.888792
38664		54.747789	33.077668	24.889537
38665		54.739303	33.072061	24.883881
38666		54.731907	33.069624	24.871865
38667		54.733077	33.065440	24.862458
38668		54.739547	33.057720	24.850999
38669		54.763951	33.043376	24.852581
38670		54.797776	33.033612	24.856935
38671		54.830197	33.022028	24.867636
38672		54.856229	33.008043	24.871054
38673		54.856694	32.987057	24.861158
38674		54.832977	32.965588	24.845912
38675		54.792589	32.937820	24.818359
38676		54.757284	32.910696	24.798475
38677		54.740556	32.900217	24.786782
38678		54.769395	32.892613	24.773335
38679		54.780101	32.872631	24.754593
38680		54.777582	32.841836	24.740371
38681		54.773085	32.805243	24.735438
38682		54.774402	32.775250	24.753481
38683		54.770605	32.761147	24.788005
38684		54.750995	32.758267	24.818331
38685		54.713455	32.758307	24.836938
38686		54.675136	32.770862	24.843579
38687		54.632014	32.792851	24.838839
38688		54.575754	32.813291	24.815734
38689		54.521700	32.828508	24.784174
38690		54.459260	32.835063	24.749892
38691		54.387685	32.836122	24.720924
38692		54.326670	32.834940	24.694796
38693		54.267142	32.827943	24.664462
38694		54.201338	32.826736	24.630727
38695		54.136798	32.824319	24.591526
38696		54.076300	32.821197	24.542310
38697		54.025463	32.822584	24.489354
38698		53.977910	32.831033	24.434245
38699		53.932227	32.840253	24.375905
38700		53.877857	32.849184	24.304264
38701		53.826378	32.858345	24.238706
38702		53.793234	32.868650	24.179669
38703		53.780094	32.881473	24.127858
38704		53.774371	32.893494	24.072518
38705		53.764332	32.906663	24.017120
38706		53.738316	32.916986	23.956167
38707		53.700374	32.925465	23.895971
38708		53.666770	32.932235	23.839062
38709		53.637160	32.936915	23.786048
38710		53.607531	32.939628	23.730723
38711		53.593267	32.945791	23.678578
38712		53.592523	32.950795	23.622148
38713		53.597339	32.949203	23.561595
38714		53.601061	32.946259	23.500572
38715		53.595661	32.938568	23.448155
38716		53.577975	32.936316	23.399903
38717		53.562120	32.936344	23.352572
38718		53.552622	32.938363	23.299106
38719		53.552429	32.942544	23.248850
38720		53.556986	32.950172	23.194435
38721		53.554471	32.960168	23.141211
38722		53.555603	32.972772	23.091484
38723		53.560698	32.988769	23.048529
38724		53.558396	33.000154	22.998244
38725		53.541897	33.005785	22.951746
38726		53.519676	33.006469	22.910709
38727		53.485554	32.998644	22.876428
38728		53.440716	32.992978	22.852470
38729		53.394834	32.988139	22.833341
38730		53.363885	32.986571	22.821559
38731		53.345260	32.995098	22.822161
38732		53.344301	33.008092	22.816900
38733		53.349893	33.027136	22.802777
38734		53.346761	33.049492	22.784851
38735		53.326713	33.077762	22.767649
38736		53.303536	33.104994	22.739667
38737		53.295181	33.124062	22.710662
38738		53.299237	33.139213	22.691930
38739		53.295031	33.150043	22.685629
38740		53.279416	33.150278	22.682222
38741		53.263338	33.141433	22.672970
38742		53.240106	33.138763	22.663014
38743		53.218486	33.140463	22.652514
38744		53.196122	33.147516	22.641450
38745		53.167755	33.157286	22.629063
38746		53.146544	33.164986	22.612039
38747		53.126275	33.165608	22.599099
38748		53.117776	33.172003	22.593255
38749		53.129630	33.178267	22.590475
38750		53.140239	33.184955	22.599920
38751		53.135507	33.185471	22.603049
38752		53.127217	33.178353	22.591723
38753		53.120808	33.171020	22.578764
38754		53.123627	33.164407	22.563416
38755		53.132864	33.150568	22.549331
38756		53.147395	33.139745	22.547647
38757		53.176507	33.140630	22.566479
38758		53.201870	33.141782	22.594239
38759		53.202367	33.146817	22.617108
38760		53.185191	33.149468	22.629912
38761		53.161617	33.150517	22.637712
38762		53.136940	33.148240	22.642893
38763		53.116122	33.142585	22.644270
38764		53.125428	33.137888	22.654744
38765		53.159966	33.133927	22.667144
38766		53.185592	33.128918	22.683036
38767		53.203050	33.121833	22.698214
38768		53.195507	33.119521	22.712827
38769		53.168070	33.124784	22.729028
38770		53.140616	33.127938	22.739066
38771		53.105628	33.132261	22.745852
38772		53.089001	33.142117	22.763639
38773		53.101266	33.155066	22.792808
38774		53.119496	33.167415	22.814935
38775		53.144544	33.177138	22.836043
38776		53.158550	33.189522	22.855447
38777		53.161360	33.203610	22.879420
38778		53.157602	33.210224	22.891649
38779		53.153650	33.211274	22.890755
38780		53.160576	33.213062	22.890246
38781		53.182002	33.217581	22.896108
38782		53.199863	33.226883	22.909057
38783		53.195607	33.232827	22.925146
38784		53.170332	33.233421	22.941225
38785		53.139000	33.233884	22.957604
38786		53.148125	33.231127	22.973879
38787		53.170522	33.233291	22.997600
38788		53.164422	33.236833	23.026530
38789		53.119962	33.232367	23.054827
38790		53.054637	33.219331	23.073868
38791		52.985362	33.206449	23.086272
38792		52.948394	33.197138	23.104432
38793		52.952471	33.180653	23.119700
38794		52.950484	33.166124	23.136679
38795		52.924441	33.160480	23.174815
38796		52.901469	33.165661	23.210765
38797		52.874709	33.164955	23.224629
38798		52.820208	33.166583	23.227942
38799		52.750933	33.172177	23.244269
38800		52.660969	33.174930	23.252939
38801		52.573714	33.170134	23.251998
38802		52.515184	33.158879	23.252619
38803		52.490921	33.158586	23.266316
38804		52.521454	33.164326	23.285926
38805		52.517190	33.158795	23.281435
38806		52.473837	33.160861	23.285668
38807		52.404940	33.162082	23.281801
38808		52.324753	33.155527	23.259260
38809		52.265229	33.147510	23.245668
38810		52.233588	33.139687	23.246283
38811		52.203800	33.126062	23.250040
38812		52.175933	33.114735	23.260399
38813		52.142954	33.105396	23.266758
38814		52.077588	33.093498	23.266236
38815		52.001550	33.082935	23.265449
38816		51.924319	33.070919	23.261327
38817		51.862562	33.065556	23.259984
38818		51.830300	33.061486	23.261858
38819		51.815433	33.053052	23.259204
38820		51.808711	33.056558	23.264914
38821		51.810107	33.073558	23.278722
38822		51.803283	33.092280	23.282785
38823		51.767990	33.114279	23.284759
38824		51.723239	33.137310	23.283441
38825		51.659816	33.158633	23.272749
38826		51.616151	33.177734	23.258363
38827		51.593778	33.185626	23.237599
38828		51.539008	33.189357	23.217584
38829		51.483166	33.188708	23.203542
38830		51.404792	33.173571	23.176047
38831		51.333595	33.160629	23.158113
38832		51.268984	33.144823	23.140861
38833		51.159148	33.130313	23.128092
38834		51.027825	33.119323	23.117813
38835		50.891849	33.103935	23.099178
38836		50.768297	33.087659	23.083676
38837		50.700613	33.077066	23.083613
38838		50.672532	33.054665	23.073577
38839		50.666122	33.038508	23.070905
38840		50.668093	33.022933	23.066933
38841		50.626933	33.011587	23.061633
38842		50.569375	33.007071	23.059068
38843		50.504716	32.992107	23.046210
38844		50.436509	32.975979	23.033928
38845		50.382707	32.962447	23.034670
38846		50.332612	32.940354	23.023408
38847		50.271209	32.920048	23.009793
38848		50.200084	32.908215	23.000559
38849		50.116152	32.894958	22.984552
38850		50.033108	32.882569	22.968033
38851		49.975899	32.873723	22.957756
38852		49.947845	32.871302	22.953877
38853		49.934392	32.875075	22.959518
38854		49.917772	32.882075	22.956472
38855		49.896171	32.895998	22.955820
38856		49.874017	32.903957	22.943157
38857		49.824115	32.909318	22.925725
38858		49.763896	32.914161	22.905755
38859		49.699025	32.908665	22.882456
38860		49.657988	32.906184	22.868153
38861		49.639408	32.891398	22.835972
38862		49.605701	32.877052	22.803981
38863		49.562614	32.874279	22.788623
38864		49.491342	32.864472	22.760491
38865		49.397256	32.852437	22.726821
38866		49.304789	32.845266	22.701362
38867		49.226222	32.840105	22.684483
38868		49.179578	32.843023	22.662528
38869		49.147282	32.840787	22.634670
38870		49.119271	32.842125	22.605639
38871		49.081561	32.844920	22.584311
38872		49.016644	32.850144	22.567538
38873		48.931690	32.854544	22.554209
38874		48.842279	32.859306	22.552395
38875		48.771528	32.860649	22.558673
38876		48.714461	32.851187	22.550875
38877		48.652747	32.836162	22.533638
38878		48.593335	32.832361	22.520040
38879		48.533509	32.825833	22.501585
38880		48.463398	32.819416	22.481656
38881		48.384265	32.813173	22.467632
38882		48.317828	32.807527	22.459160
38883		48.267778	32.801610	22.451303
38884		48.247758	32.799599	22.443900
38885		48.242726	32.788000	22.425275
38886		48.233568	32.787347	22.408590
38887		48.219313	32.799083	22.402998
38888		48.192600	32.807600	22.394576
38889		48.151036	32.819030	22.389289
38890		48.110277	32.826618	22.383881
38891		48.074679	32.824291	22.373842
38892		48.046856	32.824548	22.360229
38893		48.028947	32.821898	22.342053
38894		48.015220	32.822069	22.324571
38895		48.018086	32.832837	22.323636
38896		48.043498	32.848577	22.330140
38897		48.059431	32.863229	22.333687
38898		48.059435	32.882200	22.338125
38899		48.056589	32.902156	22.343247
38900		48.054055	32.915144	22.339722
38901		48.064228	32.933248	22.344377
38902		48.092850	32.944985	22.342395
38903		48.117648	32.946399	22.328818
38904		48.142141	32.957797	22.326130
38905		48.158823	32.961896	22.317463
38906		48.168265	32.966967	22.307783
38907		48.166682	32.972956	22.308152
38908		48.153107	32.982842	22.314371
38909		48.139177	32.983061	22.317935
38910		48.122448	32.981151	22.321165
38911		48.096810	32.981568	22.323515
38912		48.075267	32.979907	22.320419
38913		48.063811	32.975781	22.319634
38914		48.081265	32.973959	22.320227
38915		48.106435	32.968202	22.325846
38916		48.119623	32.969895	22.333592
38917		48.123189	32.973050	22.335445
38918		48.119922	32.975288	22.330711
38919		48.111519	32.977964	22.324299
38920		48.110459	32.988913	22.326221
38921		48.123666	32.995836	22.319856
38922		48.134100	33.005080	22.314523
38923		48.140998	33.016623	22.313595
38924		48.146348	33.029040	22.313932
38925		48.155379	33.038013	22.317436
38926		48.177550	33.052917	22.320522
38927		48.220389	33.063806	22.322620
38928		48.271184	33.072285	22.314721
38929		48.325923	33.079696	22.309143
38930		48.376525	33.086708	22.301908
38931		48.417393	33.096420	22.291513
38932		48.447989	33.111153	22.283033
38933		48.469918	33.125624	22.272324
38934		48.496798	33.144328	22.269024
38935		48.536103	33.157956	22.268383
38936		48.586444	33.167217	22.266616
38937		48.639836	33.180033	22.268561
38938		48.692596	33.194325	22.267868
38939		48.745217	33.208088	22.263810
38940		48.795044	33.226413	22.257229
38941		48.841652	33.247719	22.253881
38942		48.890979	33.271250	22.254481
38943		48.942074	33.296383	22.251671
38944		49.000454	33.317540	22.245792
38945		49.063535	33.337871	22.243068
38946		49.126586	33.362972	22.240269
38947		49.188164	33.384341	22.232332
38948		49.250199	33.411290	22.222029
38949		49.323194	33.440225	22.218254
38950		49.399917	33.469919	22.207771
38951		49.495688	33.503615	22.203230
38952		49.599586	33.536489	22.189242
38953		49.691176	33.569327	22.174577
38954		49.770113	33.602706	22.164849
38955		49.829835	33.630973	22.158083
38956		49.869197	33.650853	22.147828
38957		49.916926	33.666570	22.139672
38958		49.986269	33.676003	22.129461
38959		50.064317	33.676658	22.120348
38960		50.136849	33.675478	22.124237
38961		50.185501	33.666305	22.130254
38962		50.234712	33.660894	22.144418
38963		50.343765	33.670335	22.179951
38964		50.533143	33.669106	22.197195
38965		50.721195	33.676630	22.198380
38966		50.898107	33.691385	22.188839
38967		51.043822	33.702890	22.145406
38968		51.158310	33.720593	22.088357
38969		51.254309	33.745919	22.033418
38970		51.332386	33.773379	21.981620
38971		51.395539	33.794100	21.939823
38972		51.462493	33.808599	21.906344
38973		51.556133	33.811866	21.878089
38974		51.659516	33.803747	21.841686
38975		51.731654	33.791997	21.803309
38976		51.759072	33.785705	21.775205
38977		51.742911	33.783907	21.748265
38978		51.709177	33.782042	21.718939
38979		51.664656	33.772587	21.685603
38980		51.625053	33.753540	21.654476
38981		51.626320	33.734428	21.627079
38982		51.709030	33.699522	21.587927
38983		51.857302	33.669154	21.539570
38984		52.009437	33.662441	21.513645
38985		52.135388	33.673544	21.510319
38986		52.212255	33.693637	21.504150
38987		52.256650	33.711728	21.480783
38988		52.281844	33.721157	21.442572
38989		52.296652	33.721633	21.388827
38990		52.317732	33.704380	21.326713
38991		52.385820	33.685864	21.275132
38992		52.529869	33.674123	21.243394
38993		52.695057	33.668491	21.225723
38994		52.814986	33.674975	21.220014
38995		52.874643	33.684711	21.212706
38996		52.881833	33.681426	21.170726
38997		52.868944	33.668380	21.105531
38998		52.864191	33.646111	21.031289
38999		52.894299	33.630521	20.966135
39000		52.968587	33.624759	20.918035
39001		53.059196	33.628355	20.894079
39002		53.125743	33.647926	20.901070
39003		53.169066	33.663929	20.913200
39004		53.199670	33.662677	20.901196
39005		53.205461	33.652548	20.866117
39006		53.214306	33.627612	20.812012
39007		53.233371	33.600992	20.749582
39008		53.237741	33.588005	20.703635
39009		53.230889	33.583430	20.677566
39010		53.215754	33.578209	20.661072
39011		53.194012	33.569511	20.646148
39012		53.181676	33.551277	20.637674
39013		53.215978	33.534824	20.633416
39014		53.309152	33.511086	20.625395
39015		53.416202	33.491934	20.622965
39016		53.479957	33.470764	20.629333
39017		53.499492	33.440520	20.633837
39018		53.471038	33.403210	20.633437
39019		53.415008	33.356485	20.631673
39020		53.362000	33.299000	20.627338
39021		53.338263	33.235305	20.639630
39022		53.344628	33.171867	20.657899
39023		53.374445	33.111711	20.682800
39024		53.407871	33.064728	20.730526
39025		53.409771	33.026058	20.793668
39026		53.382997	32.984202	20.848149
39027		53.326102	32.939587	20.882233
39028		53.259085	32.893601	20.896362
39029		53.215706	32.859995	20.909199
39030		53.189007	32.841622	20.933440
39031		53.167421	32.846291	20.980514
39032		53.159488	32.879565	21.043207
39033		53.170277	32.929512	21.101022
39034		53.183765	32.986298	21.152173
39035		53.172400	33.043202	21.193644
39036		53.135190	33.099258	21.228726
39037		53.079289	33.152348	21.265698
39038		53.018634	33.207124	21.295372
39039		52.971296	33.253339	21.323934
39040		52.938900	33.289313	21.348045
39041		52.919908	33.310645	21.376548
39042		52.920531	33.319200	21.412671
39043		52.912725	33.321748	21.468705
39044		52.889056	33.313367	21.530369
39045		52.862709	33.293946	21.584844
39046		52.835411	33.272475	21.618890
39047		52.805004	33.250095	21.643247
39048		52.768373	33.229792	21.676862
39049		52.710174	33.212326	21.717970
39050		52.637288	33.195721	21.759236
39051		52.568242	33.174858	21.800138
39052		52.508073	33.148296	21.840233
39053		52.454506	33.119062	21.875746
39054		52.396940	33.091209	21.913764
39055		52.332937	33.071278	21.954523
39056		52.273389	33.059787	21.991640
39057		52.227431	33.054317	22.021589
39058		52.199969	33.050643	22.040455
39059		52.199051	33.048840	22.058558
39060		52.218771	33.049345	22.079805
39061		52.246866	33.053979	22.107691
39062		52.278712	33.063643	22.136968
39063		52.308657	33.084426	22.174557
39064		52.332767	33.116750	22.214989
39065		52.342495	33.155534	22.255294
39066		52.321023	33.195659	22.291935
39067		52.281143	33.237891	22.333994
39068		52.235518	33.285479	22.382778
39069		52.192123	33.330037	22.425358
39070		52.150466	33.371474	22.463975
39071		52.127607	33.405196	22.496588
39072		52.132191	33.425904	22.524968
39073		52.156313	33.433782	22.555296
39074		52.193983	33.434906	22.595774
39075		52.236421	33.430282	22.643582
39076		52.277914	33.418332	22.696706
39077		52.326145	33.404570	22.748641
39078		52.387231	33.381105	22.798272
39079		52.465935	33.358711	22.847826
39080		52.551586	33.339091	22.896126
39081		52.617728	33.323570	22.940606
39082		52.660230	33.312410	22.984738
39083		52.679081	33.301436	23.024672
39084		52.685391	33.284622	23.064330
39085		52.680000	33.258376	23.099021
39086		52.669560	33.224937	23.130896
39087		52.654930	33.192218	23.157390
39088		52.647635	33.166436	23.184454
39089		52.651285	33.143302	23.206238
39090		52.668759	33.119366	23.219011
39091		52.703562	33.092721	23.230747
39092		52.750756	33.064150	23.242334
39093		52.801983	33.035359	23.256443
39094		52.842399	33.011197	23.270420
39095		52.878797	32.993553	23.289081
39096		52.904258	32.978404	23.302919
39097		52.929321	32.960551	23.314769
39098		52.961765	32.940383	23.325612
39099		52.996618	32.915333	23.327283
39100		53.033826	32.887970	23.323024
39101		53.077269	32.862442	23.317075
39102		53.115721	32.845725	23.311117
39103		53.138490	32.839489	23.304656
39104		53.152161	32.843026	23.299563
39105		53.152162	32.853134	23.293359
39106		53.148147	32.864076	23.283406
39107		53.151796	32.872456	23.273445
39108		53.157065	32.871374	23.258872
39109		53.167427	32.858979	23.239272
39110		53.187671	32.843298	23.221428
39111		53.220875	32.828296	23.209008
39112		53.262016	32.817761	23.202352
39113		53.305603	32.806549	23.200555
39114		53.338224	32.798539	23.195776
39115		53.355933	32.795214	23.190424
39116		53.366598	32.799280	23.185746
39117		53.372196	32.805012	23.174947
39118		53.380380	32.812490	23.161178
39119		53.400312	32.822388	23.151698
39120		53.430484	32.832594	23.143266
39121		53.455176	32.841536	23.143247
39122		53.467179	32.852964	23.155145
39123		53.469465	32.860491	23.175526
39124		53.467771	32.864290	23.197649
39125		53.463141	32.864063	23.219469
39126		53.466964	32.863115	23.240635
39127		53.480091	32.859191	23.260676
39128		53.498036	32.851842	23.276877
39129		53.510887	32.842463	23.286539
39130		53.520936	32.836740	23.290542
39131		53.528048	32.836618	23.288515
39132		53.537587	32.845424	23.280375
39133		53.558356	32.855275	23.270275
39134		53.592786	32.865389	23.253770
39135		53.633736	32.867421	23.234945
39136		53.687153	32.865979	23.219090
39137		53.743740	32.864761	23.212671
39138		53.791019	32.858590	23.207586
39139		53.831799	32.849110	23.206460
39140		53.853300	32.831983	23.204231
39141		53.855199	32.815835	23.202558
39142		53.849022	32.801543	23.199509
39143		53.844748	32.791462	23.195776
39144		53.850609	32.783429	23.189364
39145		53.861570	32.778036	23.183051
39146		53.884492	32.778733	23.181378
39147		53.909234	32.778530	23.178220
39148		53.942600	32.774965	23.181865
39149		53.980456	32.771162	23.188744
39150		54.003951	32.771669	23.200417
39151		54.002227	32.780187	23.205559
39152		53.982516	32.797529	23.204760
39153		53.958420	32.816447	23.197236
39154		53.931981	32.829968	23.176880
39155		53.891109	32.832498	23.145671
39156		53.856879	32.829296	23.118727
39157		53.830174	32.825108	23.095568
39158		53.818924	32.826904	23.074769
39159		53.824625	32.828725	23.056584
39160		53.847851	32.836033	23.047944
39161		53.887950	32.849507	23.055772
39162		53.944598	32.862050	23.068811
39163		53.996705	32.870752	23.071796
39164		54.041810	32.877354	23.074858
39165		54.070352	32.884521	23.076485
39166		54.076970	32.886863	23.075861
39167		54.071380	32.882944	23.075406
39168		54.070056	32.872336	23.080900
39169		54.071747	32.859044	23.090708
39170		54.062149	32.843131	23.093479
39171		54.048052	32.832145	23.089855
39172		54.040228	32.830984	23.090851
39173		54.038568	32.840076	23.092705
39174		54.040005	32.853477	23.099911
39175		54.036186	32.872868	23.105618
39176		54.026325	32.886324	23.100529
39177		54.018420	32.892442	23.091921
39178		54.017479	32.906574	23.090619
39179		54.023863	32.928807	23.100879
39180		54.040286	32.954438	23.123993
39181		54.042571	32.975814	23.139150
39182		54.029499	32.998088	23.151117
39183		54.003604	33.023897	23.163973
39184		53.968235	33.053561	23.168423
39185		53.923671	33.088645	23.161538
39186		53.875226	33.127689	23.138985
39187		53.834783	33.160311	23.111278
39188		53.804428	33.180215	23.081509
39189		53.794311	33.188843	23.054063
39190		53.797782	33.184487	23.032290
39191		53.802423	33.166998	23.009685
39192		53.810238	33.140701	22.991286
39193		53.814751	33.108259	22.975440
39194		53.815637	33.074889	22.967363
39195		53.799115	33.050270	22.960819
39196		53.765899	33.033147	22.956179
39197		53.726357	33.019156	22.952171
39198		53.683048	33.012157	22.946275
39199		53.640517	33.004022	22.940073
39200		53.610049	32.994569	22.939187
39201		53.571927	32.983433	22.942887
39202		53.516399	32.970712	22.945923
39203		53.460519	32.959311	22.941322
39204		53.412478	32.948639	22.931597
39205		53.364576	32.942044	22.913485
39206		53.322766	32.935841	22.882270
39207		53.280815	32.922428	22.847360
39208		53.233178	32.900786	22.808994
39209		53.185366	32.866768	22.771109
39210		53.129336	32.819070	22.732670
39211		53.065435	32.759928	22.694867
39212		53.003080	32.690400	22.663264
39213		52.928053	32.625130	22.636743
39214		52.848343	32.565192	22.611942
39215		52.766631	32.516152	22.586007
39216		52.693652	32.482104	22.560717
39217		52.636712	32.461632	22.537259
39218		52.591079	32.446825	22.514478
39219		52.570117	32.431290	22.488638
39220		52.562669	32.411215	22.459156
39221		52.573497	32.389607	22.436751
39222		52.595505	32.364198	22.414021
39223		52.603318	32.333567	22.393817
39224		52.602906	32.304108	22.372349
39225		52.590279	32.275215	22.353948
39226		52.570611	32.249973	22.337322
39227		52.538964	32.216593	22.320101
39228		52.493618	32.178073	22.309497
39229		52.458561	32.138079	22.311823
39230		52.431996	32.102012	22.320252
39231		52.407387	32.067501	22.325716
39232		52.383326	32.035145	22.322539
39233		52.348018	32.002944	22.312559
39234		52.308812	31.964278	22.291486
39235		52.270899	31.919558	22.268146
39236		52.244743	31.878362	22.248000
39237		52.231582	31.844343	22.232399
39238		52.235883	31.812205	22.207781
39239		52.239670	31.789503	22.181345
39240		52.242114	31.769061	22.149270
39241		52.251803	31.748096	22.117578
39242		52.267880	31.727384	22.084645
39243		52.286057	31.704864	22.059603
39244		52.309760	31.677595	22.036616
39245		52.338659	31.647276	22.016920
39246		52.362713	31.618987	21.996657
39247		52.377966	31.593040	21.978975
39248		52.378385	31.573964	21.957206
39249		52.372518	31.549803	21.934530
39250		52.370080	31.522872	21.903875
39251		52.369627	31.502055	21.871870
39252		52.373003	31.487230	21.842891
39253		52.387096	31.473695	21.817533
39254		52.397653	31.460585	21.784975
39255		52.401070	31.449271	21.751824
39256		52.399938	31.442982	21.721110
39257		52.404691	31.430507	21.695671
39258		52.419052	31.409434	21.668386
39259		52.440084	31.383299	21.643546
39260		52.467986	31.353035	21.619894
39261		52.487050	31.330508	21.604434
39262		52.489925	31.316197	21.601168
39263		52.478522	31.302510	21.584837
39264		52.457431	31.289780	21.556061
39265		52.443132	31.282916	21.535916
39266		52.445205	31.276261	21.533118
39267		52.444435	31.267812	21.546682
39268		52.449922	31.251692	21.558954
39269		52.463116	31.224622	21.571911
39270		52.474134	31.190588	21.576782
39271		52.500727	31.151589	21.585760
39272		52.531726	31.131174	21.607994
39273		52.554473	31.129296	21.647555
39274		52.556032	31.137049	21.686358
39275		52.517656	31.144366	21.711209
39276		52.469590	31.150737	21.723035
39277		52.427211	31.155910	21.732472
39278		52.397166	31.156391	21.751574
39279		52.389130	31.154818	21.784858
39280		52.397140	31.147282	21.826023
39281		52.398038	31.136984	21.864975
39282		52.373143	31.131267	21.900310
39283		52.346887	31.135354	21.935750
39284		52.356273	31.146108	21.969455
39285		52.366439	31.155179	22.008943
39286		52.353948	31.169027	22.046933
39287		52.333281	31.172369	22.075875
39288		52.301113	31.178647	22.102762
39289		52.273711	31.195168	22.133091
39290		52.269096	31.206438	22.156843
39291		52.256548	31.203847	22.168905
39292		52.233314	31.204641	22.182473
39293		52.218300	31.202155	22.201658
39294		52.211565	31.208356	22.220096
39295		52.214138	31.222645	22.242811
39296		52.213447	31.243730	22.260472
39297		52.201898	31.268165	22.270763
39298		52.195061	31.293553	22.268315
39299		52.200155	31.322135	22.269977
39300		52.231106	31.345729	22.279037
39301		52.230129	31.361817	22.295404
39302		52.201731	31.378357	22.319243
39303		52.163892	31.387035	22.335337
39304		52.148223	31.392618	22.351837
39305		52.147764	31.386693	22.374425
39306		52.114864	31.371748	22.395553
39307		52.046723	31.359355	22.418445
39308		51.970407	31.346767	22.432121
39309		51.886173	31.336044	22.435963
39310		51.827503	31.337648	22.452668
39311		51.775276	31.335572	22.479685
39312		51.713270	31.328145	22.508810
39313		51.661129	31.321518	22.539519
39314		51.601913	31.316070	22.560977
39315		51.544499	31.309358	22.572000
39316		51.487464	31.306910	22.574502
39317		51.439023	31.301683	22.585067
39318		51.397916	31.289552	22.593071
39319		51.317859	31.278749	22.599089
39320		51.224839	31.274442	22.606755
39321		51.132414	31.270097	22.611332
39322		51.078676	31.270668	22.617835
39323		51.027985	31.265142	22.623865
39324		50.941778	31.269785	22.640752
39325		50.872616	31.273739	22.662359
39326		50.784203	31.264469	22.653505
39327		50.683635	31.261188	22.642488
39328		50.603376	31.252521	22.637746
39329		50.502644	31.236449	22.621735
39330		50.438907	31.232449	22.616855
39331		50.395071	31.217203	22.604507
39332		50.346529	31.216349	22.597314
39333		50.346172	31.224310	22.593943
39334		50.322984	31.223190	22.577355
39335		50.271473	31.231478	22.573459
39336		50.233624	31.233854	22.566777
39337		50.164565	31.222726	22.545905
39338		50.087723	31.213928	22.532847
39339		50.007520	31.196417	22.516782
39340		49.915683	31.176879	22.497255
39341		49.841762	31.164596	22.485760
39342		49.789064	31.154474	22.476388
39343		49.733783	31.141058	22.473502
39344		49.695250	31.131315	22.475036
39345		49.652841	31.119567	22.469739
39346		49.585032	31.117085	22.463314
39347		49.526262	31.117711	22.462478
39348		49.474866	31.105336	22.450036
39349		49.431788	31.099170	22.440279
39350		49.424167	31.077773	22.419201
39351		49.398405	31.046613	22.385808
39352		49.368066	31.042845	22.375999
39353		49.364962	31.047838	22.369151
39354		49.338422	31.042626	22.344002
39355		49.282940	31.042244	22.328428
39356		49.218816	31.036545	22.311860
39357		49.141287	31.028815	22.290513
39358		49.099942	31.031700	22.282459
39359		49.071816	31.018780	22.267155
39360		49.018090	31.009686	22.263838
39361		48.978759	31.009133	22.270968
39362		48.941225	30.999123	22.261724
39363		48.898270	30.999676	22.260668
39364		48.876951	31.013149	22.276740
39365		48.832453	31.021837	22.294279
39366		48.772809	31.035282	22.311243
39367		48.698545	31.042128	22.315473
39368		48.604956	31.051690	22.310605
39369		48.528976	31.062051	22.306459
39370		48.462449	31.055128	22.284215
39371		48.375075	31.047965	22.262423
39372		48.291847	31.054759	22.258207
39373		48.216123	31.060468	22.252869
39374		48.152432	31.073041	22.242293
39375		48.129604	31.081613	22.227170
39376		48.114195	31.075622	22.194450
39377		48.094654	31.078710	22.173336
39378		48.072109	31.084846	22.151359
39379		48.025425	31.088444	22.121157
39380		47.990716	31.104657	22.094405
39381		47.974965	31.113110	22.074567
39382		47.954655	31.120538	22.061658
39383		47.928245	31.146744	22.069169
39384		47.908969	31.175330	22.076891
39385		47.890714	31.204728	22.089642
39386		47.907963	31.244299	22.106573
39387		47.952815	31.269505	22.098670
39388		47.985050	31.282219	22.078199
39389		47.997701	31.305886	22.066897
39390		47.993817	31.316066	22.041030
39391		47.966189	31.315583	22.001789
39392		47.937786	31.324251	21.977374
39393		47.914839	31.325418	21.954554
39394		47.879088	31.319787	21.926762
39395		47.829381	31.327049	21.915131
39396		47.779873	31.336821	21.900578
39397		47.735744	31.344690	21.887479
39398		47.722009	31.361088	21.883672
39399		47.730297	31.369872	21.877615
39400		47.745489	31.379257	21.872388
39401		47.750810	31.396019	21.870937
39402		47.749955	31.408206	21.859963
39403		47.732447	31.409616	21.841585
39404		47.704500	31.405988	21.828780
39405		47.685488	31.403344	21.825921
39406		47.692798	31.399661	21.821683
39407		47.721812	31.400314	21.827069
39408		47.761386	31.392973	21.829024
39409		47.779214	31.391114	21.828690
39410		47.782517	31.393236	21.825416
39411		47.771934	31.388294	21.814438
39412		47.755862	31.380972	21.810544
39413		47.736467	31.375278	21.807272
39414		47.731169	31.371421	21.803041
39415		47.728512	31.367596	21.795345
39416		47.720542	31.366611	21.781858
39417		47.706666	31.372531	21.768908
39418		47.693141	31.377882	21.754458
39419		47.677707	31.384573	21.747281
39420		47.675133	31.384275	21.753933
39421		47.667816	31.376684	21.764614
39422		47.671399	31.372684	21.785822
39423		47.684492	31.360490	21.805700
39424		47.696348	31.351820	21.822896
39425		47.702230	31.350134	21.837477
39426		47.704310	31.356178	21.842898
39427		47.715869	31.367069	21.846228
39428		47.732267	31.382815	21.851092
39429		47.740964	31.402091	21.855683
39430		47.749453	31.421983	21.863255
39431		47.763616	31.441546	21.872316
39432		47.784042	31.455854	21.875830
39433		47.805286	31.467978	21.872584
39434		47.825345	31.478921	21.865328
39435		47.841536	31.486312	21.845273
39436		47.849787	31.494060	21.826529
39437		47.855782	31.501666	21.808892
39438		47.864415	31.515226	21.799252
39439		47.878187	31.523689	21.793404
39440		47.893342	31.532546	21.789379
39441		47.911421	31.544415	21.787286
39442		47.937475	31.554620	21.779655
39443		47.963290	31.564137	21.765112
39444		47.988007	31.579742	21.746114
39445		48.020395	31.597529	21.731216
39446		48.053348	31.615451	21.710559
39447		48.078727	31.633733	21.697002
39448		48.092217	31.652687	21.688331
39449		48.092610	31.672664	21.679647
39450		48.079486	31.685738	21.667181
39451		48.053578	31.696586	21.656732
39452		48.021406	31.709839	21.647550
39453		48.005631	31.732969	21.642983
39454		47.998069	31.760638	21.634682
39455		47.999566	31.796003	21.631393
39456		48.019989	31.833433	21.633120
39457		48.072491	31.875902	21.651532
39458		48.150842	31.901924	21.665875
39459		48.231542	31.923502	21.675487
39460		48.311484	31.953146	21.683077
39461		48.390508	31.978144	21.681866
39462		48.457595	32.008814	21.667058
39463		48.531824	32.049143	21.651616
39464		48.617167	32.090073	21.631055
39465		48.686424	32.133188	21.609252
39466		48.742167	32.182488	21.596266
39467		48.792869	32.235334	21.592618
39468		48.846986	32.278298	21.590896
39469		48.908144	32.320410	21.592433
39470		48.977123	32.363848	21.598074
39471		49.046732	32.397218	21.596138
39472		49.104251	32.429296	21.591071
39473		49.142227	32.462519	21.587040
39474		49.161192	32.493342	21.580242
39475		49.176499	32.517153	21.572925
39476		49.205938	32.530727	21.566449
39477		49.260443	32.545673	21.566958
39478		49.359773	32.559133	21.570545
39479		49.466482	32.560063	21.560607
39480		49.547212	32.569350	21.555209
39481		49.608038	32.577216	21.549492
39482		49.646620	32.582103	21.536628
39483		49.668884	32.586532	21.521529
39484		49.679765	32.582132	21.512565
39485		49.689351	32.582445	21.515480
39486		49.728824	32.582876	21.526708
39487		49.793974	32.582531	21.536188
39488		49.863134	32.592741	21.549595
39489		49.923738	32.610610	21.564102
39490		49.974693	32.632981	21.573055
39491		50.024265	32.662235	21.587748
39492		50.067423	32.691966	21.601345
39493		50.099678	32.716562	21.610904
39494		50.126989	32.735191	21.608873
39495		50.196287	32.750310	21.606451
39496		50.333589	32.750013	21.587437
39497		50.479844	32.749276	21.569948
39498		50.593015	32.756829	21.577154
39499		50.668680	32.766106	21.590008
39500		50.706563	32.768476	21.590261
39501		50.724962	32.762572	21.580692
39502		50.728292	32.753447	21.565026
39503		50.720800	32.734715	21.551257
39504		50.725569	32.717690	21.545185
39505		50.772926	32.703563	21.557723
39506		50.874483	32.693264	21.569515
39507		50.996354	32.690133	21.584100
39508		51.098761	32.698760	21.606876
39509		51.151382	32.708861	21.627688
39510		51.171933	32.715323	21.632673
39511		51.170847	32.712639	21.619274
39512		51.165230	32.706787	21.592350
39513		51.194385	32.696707	21.568498
39514		51.278738	32.680142	21.541330
39515		51.370689	32.677244	21.525907
39516		51.424021	32.687402	21.534278
39517		51.429994	32.696093	21.549577
39518		51.404669	32.704858	21.546062
39519		51.379387	32.706152	21.526988
39520		51.395191	32.710111	21.505423
39521		51.475280	32.717673	21.482312
39522		51.612882	32.721887	21.452781
39523		51.737622	32.742864	21.442109
39524		51.821670	32.781376	21.449760
39525		51.868360	32.822603	21.450859
39526		51.886088	32.855135	21.430144
39527		51.894269	32.873642	21.388471
39528		51.899102	32.876385	21.336845
39529		51.907969	32.868268	21.291983
39530		51.960554	32.861651	21.261028
39531		52.066838	32.854793	21.242301
39532		52.174820	32.850973	21.226109
39533		52.234958	32.853751	21.221086
39534		52.255363	32.860585	21.214317
39535		52.238527	32.859481	21.188235
39536		52.200751	32.847745	21.146306
39537		52.163145	32.830484	21.097682
39538		52.146132	32.799950	21.044481
39539		52.156625	32.765260	21.000949
39540		52.174785	32.740974	20.982549
39541		52.189273	32.719648	20.974861
39542		52.190789	32.699543	20.960284
39543		52.165185	32.682511	20.930561
39544		52.125761	32.670258	20.895709
39545		52.083659	32.660238	20.859124
39546		52.057046	32.658612	20.823403
39547		52.077732	32.658664	20.787806
39548		52.114180	32.670531	20.759810
39549		52.127191	32.692751	20.758664
39550		52.124076	32.711039	20.755673
39551		52.101790	32.721867	20.736173
39552		52.072129	32.729039	20.700733
39553		52.039721	32.723149	20.652789
39554		52.008493	32.709946	20.599617
39555		51.981997	32.695502	20.557621
39556		51.963217	32.680887	20.525329
39557		51.966986	32.672453	20.510554
39558		51.994068	32.675879	20.513738
39559		52.030101	32.675947	20.523662
39560		52.042466	32.676296	20.537007
39561		52.020873	32.674532	20.552575
39562		51.966077	32.664605	20.550354
39563		51.898205	32.645870	20.535047
39564		51.835877	32.623729	20.522467
39565		51.812618	32.608351	20.520534
39566		51.833721	32.596350	20.536568
39567		51.865095	32.589870	20.568660
39568		51.872234	32.581526	20.618306
39569		51.856479	32.569594	20.671435
39570		51.821112	32.557993	20.717360
39571		51.768249	32.548096	20.748945
39572		51.716082	32.533103	20.768373
39573		51.683596	32.521787	20.776770
39574		51.703054	32.520810	20.791545
39575		51.748988	32.529956	20.815106
39576		51.779905	32.550414	20.857727
39577		51.782997	32.576508	20.901859
39578		51.785659	32.606225	20.945111
39579		51.773648	32.632631	20.985043
39580		51.755405	32.650510	21.014723
39581		51.729040	32.648131	21.025883
39582		51.719496	32.634710	21.027721
39583		51.746516	32.622356	21.029401
39584		51.787453	32.619898	21.046468
39585		51.811682	32.624441	21.080424
39586		51.820465	32.628507	21.110587
39587		51.824654	32.631634	21.127109
39588		51.825750	32.637486	21.133416
39589		51.843261	32.647605	21.141491
39590		51.872442	32.662763	21.155612
39591		51.892108	32.676831	21.169036
39592		51.904959	32.689698	21.173593
39593		51.920664	32.703006	21.176742
39594		51.934250	32.714681	21.180240
39595		51.946288	32.715365	21.188117
39596		51.953346	32.706215	21.191455
39597		51.946406	32.693124	21.191894
39598		51.926861	32.677445	21.188595
39599		51.908593	32.669072	21.188010
39600		51.892989	32.668331	21.188593
39601		51.886241	32.672111	21.191766
39602		51.880414	32.678768	21.193736
39603		51.869016	32.673092	21.193493
39604		51.852883	32.657407	21.184691
39605		51.834497	32.632172	21.178909
39606		51.824359	32.599862	21.175704
39607		51.828441	32.569782	21.178567
39608		51.836610	32.551062	21.184622
39609		51.826474	32.543264	21.186037
39610		51.805377	32.543204	21.185924
39611		51.784177	32.546771	21.184903
39612		51.775676	32.551641	21.183867
39613		51.770574	32.550224	21.184925
39614		51.760470	32.545066	21.188244
39615		51.755197	32.538507	21.198556
39616		51.754267	32.537275	21.218529
39617		51.746325	32.541054	21.242479
39618		51.733751	32.546124	21.262840
39619		51.716445	32.544851	21.272070
39620		51.698541	32.541195	21.275410
39621		51.676306	32.533562	21.279994
39622		51.664878	32.529621	21.285558
39623		51.657912	32.532393	21.292754
39624		51.654616	32.544101	21.298747
39625		51.656405	32.566859	21.306878
39626		51.666959	32.595024	21.316830
39627		51.672445	32.615529	21.324635
39628		51.683153	32.629551	21.334959
39629		51.694428	32.630779	21.345280
39630		51.697772	32.627973	21.354162
39631		51.693027	32.624977	21.366862
39632		51.683536	32.624909	21.380385
39633		51.668335	32.626617	21.388895
39634		51.658162	32.626503	21.390721
39635		51.656519	32.621320	21.391155
39636		51.660754	32.615336	21.397825
39637		51.670758	32.608944	21.411711
39638		51.687258	32.600450	21.430959
39639		51.711334	32.592703	21.456305
39640		51.735832	32.585844	21.482941
39641		51.760761	32.579037	21.513697
39642		51.780264	32.578562	21.542851
39643		51.796943	32.580413	21.572250
39644		51.805654	32.582866	21.596628
39645		51.812117	32.575596	21.619682
39646		51.818313	32.558498	21.639160
39647		51.829648	32.531482	21.661016
39648		51.853561	32.509888	21.695293
39649		51.882598	32.500165	21.738360
39650		51.915408	32.510447	21.785881
39651		51.938613	32.532833	21.820154
39652		51.953803	32.564769	21.843558
39653		51.953502	32.593276	21.853989
39654		51.943391	32.616225	21.854229
39655		51.923172	32.624504	21.844063
39656		51.903015	32.631070	21.839417
39657		51.886319	32.643160	21.848438
39658		51.885993	32.668592	21.866321
39659		51.895258	32.701635	21.882288
39660		51.906673	32.737106	21.889897
39661		51.913244	32.766787	21.890347
39662		51.914079	32.787422	21.889043
39663		51.902996	32.803309	21.890709
39664		51.885164	32.808859	21.892870
39665		51.862330	32.802411	21.891492
39666		51.843998	32.788937	21.889474
39667		51.834814	32.777548	21.892183
39668		51.841102	32.774287	21.904003
39669		51.851637	32.780622	21.918467
39670		51.866756	32.790389	21.927965
39671		51.878504	32.802835	21.931041
39672		51.884690	32.813469	21.929459
39673		51.889569	32.822773	21.925336
39674		51.894403	32.837099	21.921393
39675		51.904661	32.854775	21.921620
39676		51.914198	32.879153	21.914611
39677		51.928677	32.906851	21.908211
39678		51.965190	32.937774	21.906309
39679		52.011235	32.965611	21.901543
39680		52.055523	32.984699	21.893221
39681		52.090381	32.993763	21.885250
39682		52.114284	32.994188	21.880875
39683		52.126924	32.987629	21.882745
39684		52.137379	32.978322	21.887203
39685		52.137631	32.969969	21.884967
39686		52.142353	32.960725	21.883627
39687		52.148726	32.950453	21.883373
39688		52.165847	32.938528	21.883928
39689		52.185113	32.923364	21.885922
39690		52.206424	32.902973	21.888542
39691		52.220206	32.874801	21.892095
39692		52.237823	32.852926	21.904880
39693		52.254459	32.837842	21.918922
39694		52.272847	32.834804	21.937098
39695		52.295839	32.838275	21.954108
39696		52.326410	32.840679	21.966466
39697		52.359828	32.837927	21.974781
39698		52.397023	32.831075	21.983637
39699		52.433846	32.815283	21.993084
39700		52.464899	32.795249	21.999112
39701		52.487345	32.776209	22.010466
39702		52.512054	32.768049	22.026907
39703		52.552105	32.763190	22.051668
39704		52.609959	32.765301	22.079825
39705		52.666117	32.773768	22.105719
39706		52.714333	32.783261	22.126307
39707		52.761014	32.787262	22.141589
39708		52.807352	32.791242	22.160400
39709		52.839598	32.791502	22.175791
39710		52.867007	32.799033	22.197051
39711		52.885100	32.810929	22.212762
39712		52.895671	32.831683	22.224607
39713		52.917849	32.856716	22.235203
39714		52.935068	32.882486	22.240447
39715		52.940082	32.905650	22.238952
39716		52.936730	32.919490	22.232995
39717		52.931887	32.928398	22.230794
39718		52.931032	32.933861	22.235579
39719		52.928992	32.932212	22.244025
39720		52.932162	32.924655	22.251175
39721		52.942755	32.911952	22.259898
39722		52.959694	32.891150	22.266426
39723		52.975814	32.868374	22.273012
39724		52.988114	32.845319	22.283469
39725		53.002001	32.824623	22.299171
39726		53.018515	32.811322	22.321681
39727		53.041255	32.805261	22.353140
39728		53.064806	32.805867	22.385810
39729		53.065887	32.804875	22.407818
39730		53.067169	32.797531	22.428980
39731		53.084190	32.782098	22.457377
39732		53.097262	32.774008	22.483158
39733		53.093826	32.775311	22.508716
39734		53.090997	32.782796	22.528419
39735		53.108757	32.793025	22.551466
39736		53.141546	32.799059	22.569521
39737		53.175882	32.806186	22.589320
39738		53.208952	32.817402	22.613272
39739		53.229740	32.830049	22.630774
39740		53.236153	32.845121	22.644279
39741		53.229527	32.862726	22.655106
39742		53.228282	32.875565	22.662632
39743		53.238807	32.880260	22.671950
39744		53.259946	32.878019	22.686501
39745		53.278905	32.867664	22.704470
39746		53.292733	32.853454	22.722677
39747		53.306473	32.836794	22.738200
39748		53.321559	32.819460	22.749785
39749		53.337199	32.807913	22.757389
39750		53.352301	32.799393	22.762707
39751		53.364613	32.791231	22.764178
39752		53.377113	32.784770	22.763001
39753		53.390954	32.779695	22.756947
39754		53.407440	32.778073	22.752041
39755		53.418648	32.780841	22.748475
39756		53.426802	32.786335	22.745121
39757		53.434720	32.784688	22.742471
39758		53.434176	32.779414	22.737407
39759		53.423670	32.770318	22.730520
39760		53.406672	32.758598	22.720945
39761		53.388897	32.744920	22.708889
39762		53.372062	32.730518	22.694847
39763		53.346645	32.710219	22.678019
39764		53.321522	32.692810	22.657495
39765		53.289827	32.676670	22.628915
39766		53.250193	32.657895	22.592113
39767		53.236257	32.640598	22.561806
39768		53.243001	32.626435	22.533072
39769		53.264480	32.615600	22.500807
39770		53.300365	32.605309	22.461043
39771		53.359235	32.598769	22.430332
39772		53.436133	32.595815	22.409152
39773		53.510672	32.592188	22.395576
39774		53.573273	32.588089	22.386490
39775		53.604537	32.579501	22.374854
39776		53.614389	32.571798	22.361393
39777		53.608454	32.569589	22.354368
39778		53.591507	32.571746	22.341815
39779		53.558731	32.573374	22.328847
39780		53.510825	32.573879	22.314018
39781		53.467056	32.574032	22.307360
39782		53.416631	32.573117	22.294599
39783		53.356876	32.573400	22.277307
39784		53.293660	32.582043	22.256507
39785		53.236394	32.604729	22.238835
39786		53.190495	32.637993	22.220991
39787		53.161599	32.667760	22.192162
39788		53.132108	32.697041	22.159699
39789		53.091728	32.721864	22.129676
39790		53.061840	32.734312	22.101696
39791		53.034124	32.735185	22.075566
39792		53.004318	32.727520	22.049466
39793		52.970463	32.712321	22.024042
39794		52.929867	32.696881	21.998785
39795		52.893880	32.687930	21.974829
39796		52.859482	32.680618	21.947607
39797		52.832085	32.678811	21.924513
39798		52.807848	32.681654	21.896041
39799		52.780693	32.684054	21.860279
39800		52.760930	32.683023	21.820906
39801		52.731821	32.677416	21.774865
39802		52.694397	32.667747	21.724421
39803		52.656034	32.659604	21.674884
39804		52.616639	32.656788	21.622236
39805		52.587737	32.660385	21.569508
39806		52.591724	32.665236	21.515986
39807		52.622408	32.675610	21.467216
39808		52.664324	32.684739	21.422806
39809		52.707654	32.688770	21.378628
39810		52.739973	32.686574	21.329998
39811		52.759652	32.685323	21.285884
39812		52.770608	32.692950	21.245594
39813		52.768214	32.700631	21.201832
39814		52.763656	32.706495	21.158150
39815		52.759077	32.711674	21.119306
39816		52.763689	32.716907	21.084928
39817		52.782748	32.723784	21.055563
39818		52.812743	32.730895	21.024819
39819		52.851700	32.739811	20.995730
39820		52.900798	32.753437	20.969724
39821		52.950089	32.761767	20.947339
39822		52.998733	32.764741	20.922000
39823		53.031476	32.761684	20.898589
39824		53.051036	32.751642	20.877903
39825		53.067699	32.736529	20.860939
39826		53.070460	32.724272	20.847293
39827		53.061490	32.712018	20.831143
39828		53.044310	32.701863	20.814477
39829		53.016739	32.690078	20.796308
39830		52.980119	32.679955	20.773924
39831		52.941625	32.675414	20.753495
39832		52.904329	32.679901	20.730377
39833		52.868755	32.687047	20.705189
39834		52.848302	32.692980	20.672086
39835		52.840797	32.696199	20.640653
39836		52.829399	32.699614	20.609539
39837		52.807030	32.705203	20.570672
39838		52.774605	32.715913	20.534636
39839		52.738874	32.730774	20.502399
39840		52.702803	32.747769	20.472293
39841		52.655521	32.763094	20.446453
39842		52.613051	32.776215	20.424284
39843		52.577705	32.781591	20.408050
39844		52.541701	32.785329	20.390388
39845		52.497248	32.788147	20.365647
39846		52.454127	32.797154	20.339306
39847		52.418327	32.809213	20.319935
39848		52.389896	32.820862	20.307148
39849		52.362639	32.828246	20.303276
39850		52.320832	32.835677	20.298115
39851		52.269919	32.838044	20.295929
39852		52.223508	32.839944	20.295729
39853		52.185444	32.846792	20.296641
39854		52.166613	32.852818	20.292946
39855		52.151966	32.859014	20.297005
39856		52.130002	32.862810	20.301441
39857		52.104959	32.864909	20.304774
39858		52.091169	32.867971	20.301741
39859		52.079116	32.868955	20.300570
39860		52.054955	32.866368	20.289390
39861		52.026511	32.860993	20.285656
39862		51.996664	32.854770	20.284510
39863		51.980584	32.852315	20.290978
39864		51.985427	32.847972	20.303787
39865		51.982069	32.835594	20.321751
39866		51.964610	32.819956	20.346101
39867		51.929674	32.793259	20.364865
39868		51.888708	32.772278	20.378582
39869		51.849811	32.757070	20.400836
39870		51.825697	32.745252	20.416362
39871		51.820335	32.734567	20.429153
39872		51.826842	32.724006	20.441716
39873		51.852053	32.714263	20.468767
39874		51.888910	32.714188	20.503897
39875		51.918637	32.720016	20.543812
39876		51.913203	32.730229	20.574480
39877		51.885319	32.742728	20.593977
39878		51.857880	32.753356	20.598573
39879		51.830723	32.756686	20.600015
39880		51.828245	32.761470	20.610063
39881		51.837757	32.769461	20.632912
39882		51.828893	32.779103	20.666621
39883		51.798113	32.791732	20.703052
39884		51.768661	32.804312	20.731561
39885		51.728715	32.823157	20.755935
39886		51.700316	32.839346	20.774641
39887		51.680479	32.851501	20.797795
39888		51.677128	32.859670	20.829271
39889		51.678913	32.861406	20.861847
39890		51.662826	32.860516	20.891424
39891		51.648863	32.852900	20.910247
39892		51.640345	32.840196	20.923319
39893		51.632154	32.832279	20.937630
39894		51.667172	32.829818	20.967054
39895		51.715540	32.827944	20.998637
39896		51.742531	32.829055	21.031584
39897		51.757460	32.826456	21.063319
39898		51.746757	32.821090	21.087579
39899		51.727036	32.817919	21.105753
39900		51.731313	32.815691	21.123805
39901		51.738270	32.812034	21.144197
39902		51.765219	32.804912	21.168690
39903		51.798152	32.793060	21.199078
39904		51.810871	32.795102	21.242621
39905		51.844649	32.801069	21.291365
39906		51.854558	32.804438	21.322763
39907		51.805732	32.802478	21.342468
39908		51.750202	32.800152	21.356451
39909		51.688575	32.791833	21.361091
39910		51.612431	32.792921	21.369410
39911		51.579861	32.800846	21.392305
39912		51.556002	32.805312	21.417110
39913		51.496401	32.807182	21.441743
39914		51.441383	32.815970	21.476534
39915		51.381584	32.816378	21.500949
39916		51.315824	32.819819	21.512386
39917		51.286298	32.818411	21.517709
39918		51.229110	32.809077	21.520339
39919		51.126705	32.809060	21.531219
39920		51.024649	32.804975	21.544752
39921		50.915447	32.796700	21.550309
39922		50.835826	32.792866	21.570521
39923		50.769469	32.781050	21.590071
39924		50.680010	32.767417	21.602773
39925		50.589644	32.760179	21.613296
39926		50.534356	32.750789	21.615573
39927		50.466001	32.735343	21.602176
39928		50.390324	32.733335	21.605256
39929		50.317016	32.729641	21.608725
39930		50.234400	32.721097	21.594660
39931		50.158775	32.714821	21.581207
39932		50.112370	32.699962	21.557964
39933		50.071843	32.684171	21.535179
39934		50.048830	32.669192	21.521163
39935		50.021558	32.629438	21.495257
39936		49.954283	32.588888	21.466297
39937		49.894586	32.554343	21.450749
39938		49.836682	32.517092	21.427518
39939		49.794819	32.488108	21.413639
39940		49.791624	32.461035	21.399774
39941		49.767809	32.427232	21.378353
39942		49.724816	32.413057	21.367617
39943		49.680181	32.394866	21.344696
39944		49.592072	32.376487	21.310083
39945		49.523426	32.375734	21.293681
39946		49.464050	32.368377	21.272766
39947		49.344016	32.364260	21.265507
39948		49.188642	32.375148	21.266735
39949		49.007617	32.374783	21.255970
39950		48.834814	32.374943	21.234996
39951		48.740135	32.378607	21.232443
39952		48.669253	32.355458	21.218236
39953		48.552597	32.338310	21.208944
39954		48.427166	32.347912	21.209844
39955		48.298864	32.360814	21.204049
39956		48.172352	32.376752	21.189725
39957		48.091937	32.394388	21.185794
39958		48.047462	32.402811	21.183889
39959		48.028880	32.412673	21.188108
39960		47.998059	32.415531	21.183314
39961		47.903419	32.415966	21.173211
39962		47.781388	32.423206	21.162697
39963		47.647957	32.417574	21.141909
39964		47.524602	32.406925	21.124152
39965		47.438081	32.404157	21.126718
39966		47.368048	32.396058	21.131837
39967		47.306289	32.395710	21.146024
39968		47.275749	32.364089	21.135109
39969		47.231288	32.325167	21.116691
39970		47.207666	32.316369	21.116615
39971		47.198109	32.305505	21.099814
39972		47.168290	32.297467	21.073485
39973		47.126460	32.302698	21.062966
39974		47.078764	32.303031	21.061155
39975		47.046045	32.308765	21.067067
39976		47.073549	32.310250	21.077055
39977		47.096299	32.287452	21.071514
39978		47.077984	32.278394	21.080277
39979		47.032389	32.278473	21.091282
39980		46.981299	32.269712	21.085032
39981		46.928205	32.250030	21.074224
39982		46.876473	32.239661	21.078446
39983		46.846752	32.239293	21.090239
39984		46.864835	32.234748	21.095036
39985		46.919967	32.223411	21.095967
39986		46.977609	32.223406	21.105252
39987		47.024492	32.236038	21.116815
39988		47.065775	32.251125	21.110671
39989		47.094875	32.262665	21.102277
39990		47.125202	32.274648	21.103573
39991		47.145953	32.279302	21.102767
39992		47.159283	32.285182	21.102598
39993		47.155178	32.288283	21.099753
39994		47.135612	32.290466	21.093027
39995		47.118172	32.294296	21.086613
39996		47.101714	32.295535	21.072383
39997		47.089216	32.294992	21.067311
39998		47.081388	32.299419	21.066271
39999		47.077321	32.303664	21.066978
40000		47.074932	32.309481	21.067518
40001		47.078562	32.318497	21.072151
40002		47.080634	32.327321	21.072232
40003		47.075759	32.331643	21.073629
40004		47.056641	32.337874	21.074359
40005		47.029870	32.338897	21.073262
40006		47.013715	32.339870	21.075395
40007		47.005812	32.339823	21.078154
40008		47.009471	32.344799	21.081490
40009		47.025598	32.352017	21.086846
40010		47.048854	32.352944	21.084551
40011		47.061317	32.354437	21.080772
40012		47.055460	32.363387	21.071715
40013		47.041845	32.364729	21.059847
40014		47.034340	32.365200	21.046861
40015		47.025463	32.366846	21.037735
40016		47.014732	32.376034	21.030603
40017		47.015445	32.383741	21.021730
40018		47.020531	32.383514	21.010239
40019		47.022683	32.390111	21.001534
40020		47.030914	32.397516	20.994034
40021		47.038141	32.398985	20.979820
40022		47.040975	32.401618	20.971404
40023		47.031719	32.407553	20.966982
40024		47.022159	32.413499	20.963785
40025		47.018799	32.423403	20.966213
40026		47.025712	32.430891	20.957744
40027		47.032312	32.433400	20.942689
40028		47.039887	32.445500	20.923886
40029		47.049391	32.461372	20.900132
40030		47.065940	32.474168	20.876946
40031		47.092850	32.490783	20.861276
40032		47.134575	32.514846	20.858688
40033		47.188656	32.535507	20.860461
40034		47.248289	32.551411	20.864632
40035		47.309450	32.571773	20.870537
40036		47.370371	32.585891	20.861544
40037		47.428180	32.608214	20.857759
40038		47.492863	32.633209	20.856033
40039		47.551342	32.653947	20.851452
40040		47.615238	32.675256	20.850121
40041		47.685783	32.689561	20.843213
40042		47.745363	32.703469	20.831716
40043		47.792167	32.719186	20.822383
40044		47.829440	32.738107	20.813118
40045		47.863984	32.753190	20.808649
40046		47.903308	32.775078	20.815971
40047		47.953078	32.794437	20.832471
40048		48.017803	32.812969	20.849944
40049		48.079419	32.831166	20.869879
40050		48.135140	32.847573	20.886105
40051		48.179266	32.859423	20.897900
40052		48.213468	32.872129	20.908213
40053		48.237725	32.883983	20.913011
40054		48.249583	32.887518	20.914329
40055		48.273879	32.894842	20.922739
40056		48.338610	32.903572	20.940281
40057		48.451927	32.916552	20.963082
40058		48.597827	32.927391	20.980281
40059		48.722963	32.940961	20.994309
40060		48.822577	32.959469	21.010764
40061		48.909814	32.969979	21.013255
40062		48.986097	32.977053	21.009241
40063		49.056547	32.982390	21.008860
40064		49.121701	32.989657	21.018967
40065		49.182123	32.997030	21.040284
40066		49.263042	33.011243	21.072494
40067		49.361902	33.020857	21.094005
40068		49.433492	33.032923	21.115527
40069		49.478411	33.045404	21.144272
40070		49.503442	33.053704	21.162462
40071		49.531462	33.051399	21.165494
40072		49.612843	33.054258	21.176231
40073		49.750101	33.046887	21.185963
40074		49.879279	33.041888	21.195611
40075		49.974560	33.046959	21.214340
40076		50.038185	33.048113	21.226922
40077		50.076916	33.047245	21.233687
40078		50.091312	33.038888	21.234480
40079		50.081431	33.027576	21.235436
40080		50.050665	33.013331	21.243184
40081		50.002548	32.999405	21.259013
40082		49.960424	32.989291	21.286360
40083		49.960561	32.983011	21.329405
40084		50.010498	32.974512	21.369376
40085		50.077952	32.977864	21.412424
40086		50.150730	32.979046	21.452447
40087		50.209830	32.977547	21.479240
40088		50.249442	32.975960	21.496981
40089		50.275031	32.973767	21.502063
40090		50.285499	32.962252	21.485914
40091		50.293549	32.941886	21.462664
40092		50.324416	32.923709	21.447827
40093		50.387259	32.899056	21.441369
40094		50.453849	32.874852	21.437166
40095		50.496209	32.862423	21.448011
40096		50.529368	32.860682	21.469841
40097		50.558064	32.859390	21.483431
40098		50.595199	32.871498	21.497860
40099		50.685017	32.879695	21.507708
40100		50.808746	32.872855	21.493088
40101		50.903249	32.870931	21.484827
40102		50.968273	32.874497	21.492742
40103		51.005086	32.870570	21.495309
40104		51.027519	32.857675	21.488381
40105		51.048973	32.838750	21.483778
40106		51.076704	32.813159	21.487585
40107		51.123605	32.791713	21.510721
40108		51.227157	32.761801	21.546212
40109		51.339469	32.729054	21.575991
40110		51.400162	32.699314	21.620482
40111		51.416291	32.672022	21.674554
40112		51.401560	32.644616	21.719600
40113		51.398822	32.627759	21.759878
40114		51.462610	32.613259	21.794925
40115		51.566765	32.604424	21.825946
40116		51.661565	32.602995	21.874061
40117		51.750269	32.611957	21.947462
40118		51.823555	32.626494	22.018125
40119		51.885883	32.645783	22.086934
40120		51.940323	32.666220	22.150468
40121		51.977487	32.684027	22.211145
40122		52.004786	32.703897	22.278742
40123		52.032769	32.722742	22.353450
40124		52.063410	32.749408	22.434460
40125		52.092939	32.774219	22.525164
40126		52.124191	32.791131	22.612879
40127		52.140796	32.801403	22.693553
40128		52.145666	32.806091	22.767886
40129		52.136640	32.806934	22.828544
40130		52.119514	32.803275	22.880809
40131		52.102888	32.795998	22.926216
40132		52.093681	32.784997	22.968606
40133		52.096393	32.769684	22.999613
40134		52.120016	32.752924	23.024668
40135		52.145214	32.732919	23.039254
40136		52.177643	32.718562	23.055921
40137		52.236900	32.701195	23.069412
40138		52.293973	32.679342	23.061571
40139		52.315784	32.657652	23.044407
40140		52.313876	32.640768	23.020781
40141		52.285711	32.624338	22.989420
40142		52.254394	32.613592	22.955051
40143		52.245906	32.604491	22.917338
40144		52.257181	32.604006	22.892215
40145		52.275768	32.608785	22.882579
40146		52.318149	32.612857	22.881641
40147		52.370018	32.613169	22.877931
40148		52.420125	32.613390	22.875133
40149		52.470229	32.607703	22.865657
40150		52.513065	32.604957	22.845373
40151		52.540617	32.604529	22.832018
40152		52.567353	32.602451	22.822149
40153		52.593275	32.589792	22.810324
40154		52.611347	32.562736	22.797009
40155		52.616498	32.523264	22.784158
40156		52.628535	32.478772	22.772040
40157		52.646928	32.427068	22.757748
40158		52.691471	32.378833	22.751764
40159		52.733578	32.344802	22.763703
40160		52.783474	32.322738	22.794046
40161		52.834159	32.309896	22.838328
40162		52.867233	32.300196	22.879390
40163		52.876585	32.289919	22.905194
40164		52.869341	32.277864	22.919847
40165		52.846864	32.263401	22.922398
40166		52.827131	32.245718	22.915268
40167		52.830484	32.226947	22.905827
40168		52.874207	32.218978	22.909613
40169		52.957142	32.216305	22.933578
40170		53.047820	32.215480	22.971154
40171		53.110020	32.211917	23.018477
40172		53.143597	32.203762	23.058169
40173		53.166811	32.195386	23.093783
40174		53.197827	32.194226	23.126878
40175		53.243889	32.193905	23.164832
40176		53.295680	32.202255	23.216802
40177		53.328121	32.212335	23.280403
40178		53.339236	32.214741	23.335536
40179		53.336000	32.201538	23.372782
40180		53.336406	32.171908	23.390764
40181		53.355496	32.132542	23.410877
40182		53.411648	32.095239	23.447928
40183		53.494849	32.056173	23.504015
40184		53.574139	32.021786	23.570334
40185		53.627166	31.994462	23.640451
40186		53.654284	31.973191	23.702025
40187		53.671792	31.952453	23.751602
40188		53.693977	31.930824	23.794120
40189		53.714094	31.908504	23.831338
40190		53.736773	31.893524	23.875123
40191		53.757813	31.881265	23.921364
40192		53.771500	31.872710	23.958328
40193		53.773168	31.866350	23.988037
40194		53.770933	31.857244	24.010542
40195		53.770351	31.838831	24.032192
40196		53.784617	31.815500	24.056929
40197		53.800001	31.792137	24.082545
40198		53.819553	31.776856	24.117243
40199		53.837635	31.772609	24.156704
40200		53.847268	31.771057	24.189192
40201		53.851133	31.763482	24.218401
40202		53.853059	31.742774	24.236216
40203		53.864578	31.712533	24.258618
40204		53.880625	31.691902	24.293076
40205		53.891055	31.686209	24.331159
40206		53.903691	31.696208	24.368891
40207		53.926354	31.710775	24.397177
40208		53.960914	31.718821	24.411299
40209		53.995654	31.716779	24.417249
40210		54.026655	31.703030	24.423902
40211		54.054897	31.687978	24.438322
40212		54.074932	31.683680	24.459813
40213		54.092267	31.691995	24.485512
40214		54.104102	31.709579	24.505760
40215		54.115756	31.729503	24.513639
40216		54.131068	31.747134	24.512157
40217		54.146662	31.757577	24.513185
40218		54.167839	31.758137	24.516597
40219		54.181442	31.748636	24.518156
40220		54.190911	31.730078	24.522155
40221		54.203929	31.715833	24.531956
40222		54.229137	31.702982	24.544809
40223		54.261762	31.696306	24.557836
40224		54.299083	31.696865	24.566479
40225		54.333959	31.698889	24.572524
40226		54.365758	31.699055	24.574410
40227		54.394786	31.699611	24.575241
40228		54.426613	31.699818	24.577026
40229		54.453376	31.709250	24.581666
40230		54.478902	31.715021	24.587353
40231		54.498935	31.719882	24.591006
40232		54.520476	31.716996	24.585936
40233		54.546792	31.711708	24.581481
40234		54.579854	31.709742	24.582475
40235		54.613565	31.716120	24.582398
40236		54.645802	31.725054	24.581224
40237		54.683689	31.730685	24.576165
40238		54.724876	31.734388	24.571110
40239		54.760956	31.724716	24.565799
40240		54.786662	31.707555	24.561509
40241		54.807737	31.683552	24.561137
40242		54.830177	31.657166	24.565221
40243		54.849436	31.637289	24.571177
40244		54.882957	31.631919	24.582858
40245		54.923981	31.632771	24.594670
40246		54.970018	31.642018	24.600375
40247		55.018953	31.650189	24.602267
40248		55.061938	31.662353	24.603169
40249		55.091562	31.679845	24.606200
40250		55.106542	31.699952	24.609748
40251		55.112970	31.716358	24.609792
40252		55.123436	31.729881	24.605344
40253		55.137191	31.737578	24.599550
40254		55.162053	31.745718	24.596285
40255		55.199005	31.747729	24.596347
40256		55.255957	31.742310	24.600075
40257		55.321256	31.725739	24.608878
40258		55.387159	31.703158	24.619870
40259		55.445732	31.675291	24.627841
40260		55.507448	31.649938	24.642568
40261		55.571098	31.628502	24.662636
40262		55.636865	31.611266	24.686387
40263		55.694295	31.590925	24.703325
40264		55.751778	31.568428	24.718576
40265		55.800657	31.539104	24.731245
40266		55.839601	31.500748	24.741209
40267		55.877481	31.456797	24.755332
40268		55.922155	31.416650	24.773939
40269		55.979059	31.382522	24.801266
40270		56.041317	31.362685	24.830109
40271		56.100569	31.351662	24.853804
40272		56.157049	31.352541	24.878548
40273		56.201251	31.369861	24.909541
40274		56.178004	31.404240	24.922031
40275		56.060299	31.416330	24.902797
40276		55.902885	31.371616	24.871294
40277		55.812554	31.280916	24.861923
40278		55.767079	31.184790	24.866776
40279		55.785848	31.125574	24.908136
40280		55.839860	31.101109	24.962097
40281		55.872695	31.086710	24.982929
40282		55.892787	31.077718	24.994937
40283		55.922221	31.078776	25.025010
40284		55.930164	31.086416	25.047936
40285		55.883680	31.104886	25.045352
40286		55.809385	31.128862	25.023224
40287		55.752691	31.134893	25.000786
40288		55.741286	31.126391	24.985002
40289		55.771662	31.102745	24.978554
40290		55.834091	31.072885	24.984926
40291		55.906121	31.041392	24.998941
40292		55.960486	31.020799	25.016945
40293		55.978070	31.007322	25.033043
40294		55.946601	31.009198	25.038617
40295		55.879049	31.026769	25.040402
40296		55.802704	31.056990	25.038530
40297		55.743500	31.094197	25.033228
40298		55.718545	31.130522	25.021926
40299		55.726943	31.159452	25.011647
40300		55.759225	31.181274	25.008398
40301		55.795617	31.194579	25.008211
40302		55.820422	31.197471	25.018119
40303		55.815660	31.190137	25.032140
40304		55.787408	31.172778	25.049146
40305		55.731879	31.152449	25.058649
40306		55.676489	31.137506	25.070420
40307		55.628777	31.121283	25.076184
40308		55.613703	31.105618	25.082767
40309		55.631178	31.080842	25.081134
40310		55.679404	31.054881	25.079212
40311		55.740948	31.030991	25.075067
40312		55.796267	31.014082	25.071638
40313		55.835645	31.005419	25.071686
40314		55.867603	30.998877	25.073601
40315		55.899825	30.998986	25.077050
40316		55.931929	31.006383	25.075450
40317		55.956443	31.019040	25.078738
40318		55.967851	31.027865	25.072314
40319		55.973565	31.036214	25.067925
40320		55.980118	31.043648	25.069256
40321		55.988653	31.048377	25.073332
40322		55.992284	31.053056	25.084541
40323		55.989505	31.054286	25.099249
40324		55.989660	31.047255	25.104315
40325		56.015205	31.034352	25.097218
40326		56.076939	31.033957	25.096280
40327		56.183406	31.058351	25.121839
40328		56.325479	31.126104	25.188531
40329		56.417933	31.211329	25.235316
40330		56.451320	31.300534	25.253140
40331		56.474626	31.371162	25.256732
40332		56.474940	31.420534	25.244589
40333		56.470349	31.457749	25.225311
40334		56.448057	31.489321	25.205372
40335		56.406926	31.513181	25.185695
40336		56.356225	31.522377	25.162286
40337		56.301528	31.519365	25.131076
40338		56.258401	31.511438	25.098601
40339		56.220435	31.500932	25.061867
40340		56.194437	31.492941	25.022734
40341		56.175796	31.482434	24.982019
40342		56.156603	31.464707	24.937944
40343		56.135933	31.445144	24.894685
40344		56.113637	31.424765	24.854497
40345		56.096114	31.404378	24.811969
40346		56.082558	31.390384	24.765054
40347		56.074326	31.389146	24.713259
40348		56.082241	31.401015	24.660638
40349		56.104923	31.421925	24.611264
40350		56.128175	31.450553	24.544485
40351		56.141192	31.482279	24.475466
40352		56.165521	31.520544	24.415883
40353		56.201120	31.560670	24.366070
40354		56.245102	31.592874	24.316072
40355		56.292018	31.614554	24.267944
40356		56.334615	31.620955	24.223683
40357		56.361053	31.618587	24.187353
40358		56.387347	31.605031	24.156544
40359		56.411459	31.584895	24.131645
40360		56.425795	31.563102	24.102675
40361		56.431752	31.535747	24.074489
40362		56.433511	31.502420	24.047698
40363		56.425267	31.458848	24.027139
40364		56.417512	31.415427	24.019321
40365		56.421602	31.377611	24.026249
40366		56.428559	31.345636	24.030363
40367		56.435364	31.323095	24.023750
40368		56.443289	31.311633	24.023175
40369		56.438146	31.303225	24.022288
40370		56.422681	31.293000	24.021716
40371		56.398556	31.279186	24.025338
40372		56.356235	31.260727	24.027241
40373		56.312482	31.236255	24.025661
40374		56.274578	31.220574	24.024337
40375		56.243362	31.212847	24.018147
40376		56.227874	31.208117	24.006548
40377		56.222839	31.203800	23.992306
40378		56.224690	31.200273	23.980984
40379		56.219771	31.186548	23.969766
40380		56.204796	31.168394	23.959362
40381		56.182646	31.147368	23.944360
40382		56.169721	31.126873	23.935438
40383		56.163433	31.101668	23.930623
40384		56.153730	31.070145	23.924008
40385		56.127964	31.027538	23.914322
40386		56.091835	30.978329	23.906606
40387		56.040952	30.924173	23.899476
40388		55.977760	30.867418	23.887124
40389		55.911430	30.813946	23.880372
40390		55.841769	30.766256	23.872627
40391		55.776917	30.714770	23.865231
40392		55.730667	30.667057	23.857268
40393		55.695879	30.620888	23.852451
40394		55.669833	30.574543	23.845883
40395		55.649346	30.526074	23.830173
40396		55.598874	30.478323	23.815113
40397		55.551009	30.466412	23.802393
40398		55.511355	30.456765	23.776247
40399		55.496006	30.453882	23.739544
40400		55.486302	30.449999	23.681917
40401		55.487614	30.441678	23.613234
40402		55.450633	30.437802	23.545283
40403		55.393113	30.437785	23.484714
40404		55.323709	30.446744	23.426230
40405		55.272136	30.459170	23.379051
40406		55.221659	30.477715	23.340915
40407		55.167799	30.497234	23.301305
40408		55.116294	30.519859	23.254470
40409		55.057902	30.541681	23.215825
40410		54.991176	30.563913	23.183219
40411		54.939168	30.568012	23.151902
40412		54.902937	30.566014	23.128741
40413		54.874565	30.557704	23.110347
40414		54.876022	30.546656	23.096106
40415		54.878352	30.542061	23.085639
40416		54.866070	30.546768	23.072865
40417		54.853516	30.552885	23.048938
40418		54.849680	30.563121	23.022615
40419		54.851209	30.575756	23.005351
40420		54.856777	30.587499	22.990461
40421		54.877634	30.586392	22.972992
40422		54.900153	30.585018	22.959299
40423		54.903052	30.583924	22.951368
40424		54.901317	30.580007	22.945567
40425		54.893678	30.576999	22.941188
40426		54.873417	30.575947	22.937492
40427		54.835002	30.575642	22.933978
40428		54.782266	30.572738	22.930930
40429		54.732769	30.572083	22.932015
40430		54.713089	30.578619	22.945211
40431		54.727537	30.584109	22.968402
40432		54.761967	30.593115	23.000844
40433		54.779262	30.599194	23.032454
40434		54.786734	30.607177	23.052446
40435		54.784233	30.622104	23.076481
40436		54.767172	30.634377	23.105947
40437		54.743272	30.639903	23.136759
40438		54.712739	30.641617	23.172660
40439		54.678936	30.636021	23.205393
40440		54.672716	30.626344	23.236893
40441		54.673205	30.623551	23.282537
40442		54.657852	30.633680	23.337355
40443		54.644318	30.652836	23.393038
40444		54.624861	30.684943	23.445584
40445		54.578156	30.720675	23.498532
40446		54.535942	30.751083	23.544565
40447		54.502163	30.777663	23.597437
40448		54.509148	30.799764	23.659329
40449		54.552104	30.816852	23.729618
40450		54.598712	30.844726	23.810192
40451		54.645951	30.875615	23.889643
40452		54.695782	30.916849	23.958018
40453		54.738656	30.964286	24.025584
40454		54.778888	31.015088	24.089745
40455		54.804448	31.059442	24.149728
40456		54.795984	31.097835	24.209250
40457		54.788481	31.128769	24.276328
40458		54.832255	31.145392	24.347638
40459		54.880132	31.139565	24.398140
40460		54.885137	31.133051	24.438210
40461		54.876451	31.133753	24.479208
40462		54.840192	31.135838	24.495291
40463		54.783814	31.148777	24.497320
40464		54.735645	31.166829	24.498634
40465		54.669777	31.199363	24.515020
40466		54.619428	31.242365	24.554368
40467		54.574168	31.269408	24.578529
40468		54.527680	31.281464	24.585587
40469		54.538647	31.277880	24.585188
40470		54.571867	31.268287	24.582684
40471		54.579551	31.261079	24.595926
40472		54.541450	31.255586	24.615336
40473		54.469169	31.245280	24.614242
40474		54.362971	31.225043	24.582669
40475		54.227023	31.198886	24.537756
40476		54.100022	31.172148	24.500720
40477		53.993056	31.128134	24.472867
40478		53.869800	31.074892	24.455378
40479		53.727508	31.015416	24.456383
40480		53.573696	30.940033	24.445402
40481		53.404987	30.860536	24.424472
40482		53.277836	30.784459	24.405756
40483		53.151438	30.703911	24.381755
40484		53.010860	30.632558	24.376778
40485		52.872822	30.557036	24.367673
40486		52.701055	30.478938	24.351319
40487		52.525779	30.415960	24.349805
40488		52.384023	30.356249	24.351081
40489		52.263240	30.290678	24.336791
40490		52.176730	30.227272	24.323519
40491		52.082878	30.147006	24.303336
40492		51.938356	30.073839	24.282326
40493		51.775518	30.027952	24.277104
40494		51.603023	29.994115	24.255235
40495		51.425426	29.971133	24.232518
40496		51.298910	29.949751	24.210548
40497		51.162421	29.916871	24.177474
40498		50.981164	29.896124	24.157017
40499		50.801212	29.883672	24.149378
40500		50.635167	29.867248	24.134604
40501		50.534989	29.863718	24.132599
40502		50.453827	29.835591	24.107115
40503		50.307539	29.809711	24.083571
40504		50.136930	29.807086	24.064588
40505		49.956181	29.795674	24.014838
40506		49.785890	29.792477	23.957285
40507		49.652983	29.797276	23.913442
40508		49.529178	29.792915	23.870639
40509		49.377290	29.789705	23.837812
40510		49.213584	29.788684	23.814079
40511		49.050526	29.782933	23.788172
40512		48.946546	29.787520	23.774598
40513		48.905662	29.772042	23.752523
40514		48.877271	29.747990	23.720222
40515		48.870171	29.749714	23.705463
40516		48.855493	29.739985	23.673632
40517		48.817831	29.739976	23.646090
40518		48.772757	29.738962	23.612478
40519		48.726214	29.722898	23.569624
40520		48.714497	29.717222	23.529948
40521		48.746268	29.712473	23.493654
40522		48.797719	29.695062	23.447956
40523		48.845433	29.690584	23.413477
40524		48.869607	29.699140	23.378599
40525		48.865531	29.716171	23.348937
40526		48.839879	29.736847	23.320995
40527		48.808777	29.755396	23.302725
40528		48.797981	29.773838	23.298260
40529		48.834941	29.788142	23.301704
40530		48.889791	29.786031	23.299587
40531		48.922014	29.790414	23.300569
40532		48.951849	29.813528	23.307558
40533		48.973466	29.827685	23.291586
40534		48.969804	29.846032	23.275100
40535		48.936296	29.868040	23.264437
40536		48.894126	29.885584	23.255695
40537		48.853574	29.896449	23.248629
40538		48.838909	29.911522	23.251068
40539		48.837677	29.914501	23.246295
40540		48.825282	29.918093	23.234371
40541		48.812011	29.937390	23.225161
40542		48.803306	29.958903	23.206890
40543		48.796836	29.981544	23.189473
40544		48.810474	30.012457	23.184772
40545		48.860626	30.042138	23.188480
40546		48.938363	30.072330	23.186244
40547		49.011767	30.098381	23.182782
40548		49.069586	30.128229	23.174724
40549		49.127438	30.162878	23.175219
40550		49.178968	30.191626	23.174820
40551		49.225648	30.214991	23.180535
40552		49.265192	30.223286	23.188346
40553		49.283140	30.232198	23.199847
40554		49.304562	30.239175	23.205649
40555		49.304746	30.240486	23.199248
40556		49.285997	30.247618	23.196187
40557		49.243387	30.253880	23.181787
40558		49.197519	30.263667	23.159137
40559		49.148115	30.272301	23.133410
40560		49.100387	30.285077	23.111019
40561		49.068197	30.302127	23.090463
40562		49.050243	30.314323	23.068474
40563		49.038891	30.337445	23.052678
40564		49.034402	30.364504	23.036123
40565		49.028422	30.395954	23.021977
40566		49.030021	30.429819	23.006039
40567		49.039597	30.463638	22.994089
40568		49.059117	30.496466	22.982352
40569		49.089117	30.532788	22.972918
40570		49.121716	30.566197	22.960689
40571		49.155469	30.601768	22.953768
40572		49.190772	30.640317	22.949612
40573		49.227006	30.677312	22.946118
40574		49.256657	30.718481	22.951861
40575		49.280576	30.758784	22.960568
40576		49.297040	30.799476	22.969300
40577		49.316952	30.840674	22.980690
40578		49.346157	30.877931	22.994080
40579		49.391506	30.915158	23.014224
40580		49.466228	30.947441	23.039257
40581		49.571644	30.984019	23.069291
40582		49.708620	31.022528	23.100797
40583		49.852076	31.054256	23.122437
40584		49.986628	31.097419	23.148873
40585		50.103711	31.141535	23.167625
40586		50.202902	31.185223	23.182184
40587		50.295073	31.227320	23.206821
40588		50.416139	31.284851	23.256346
40589		50.592801	31.328442	23.306559
40590		50.800519	31.356861	23.334333
40591		51.003311	31.393967	23.372820
40592		51.181361	31.429200	23.410418
40593		51.316532	31.471755	23.444721
40594		51.425573	31.520146	23.469917
40595		51.511824	31.553721	23.476141
40596		51.583337	31.577043	23.472282
40597		51.633563	31.588319	23.471223
40598		51.684743	31.599417	23.483972
40599		51.761932	31.600245	23.503165
40600		51.866369	31.601072	23.528769
40601		51.991806	31.608695	23.575384
40602		52.143433	31.605150	23.620476
40603		52.292212	31.604992	23.677837
40604		52.458173	31.613512	23.746552
40605		52.630947	31.615883	23.788145
40606		52.771244	31.617229	23.811297
40607		52.876435	31.621641	23.836645
40608		52.946642	31.629351	23.859757
40609		52.984797	31.636826	23.874003
40610		53.002436	31.636948	23.881646
40611		53.034095	31.637218	23.895267
40612		53.097130	31.615685	23.902915
40613		53.188137	31.586830	23.906910
40614		53.266458	31.565336	23.932179
40615		53.307889	31.547029	23.960726
40616		53.315093	31.523886	23.974817
40617		53.303984	31.499938	23.978008
40618		53.281316	31.478312	23.981644
40619		53.249974	31.451459	23.981424
40620		53.222887	31.421434	23.977812
40621		53.220521	31.386014	23.972560
40622		53.253221	31.339366	23.964965
40623		53.289760	31.292823	23.970301
40624		53.303439	31.252512	23.988486
40625		53.292436	31.215109	23.994960
40626		53.271527	31.184693	23.992881
40627		53.240436	31.166094	23.992822
40628		53.206772	31.139796	23.999263
40629		53.174241	31.116978	24.019198
40630		53.142277	31.093435	24.032911
40631		53.104392	31.059417	24.034844
40632		53.061222	31.005265	24.025809
40633		53.018236	30.941842	24.020657
40634		52.976674	30.872717	24.015805
40635		52.932304	30.799604	24.013649
40636		52.885370	30.733899	24.017075
40637		52.827241	30.679936	24.026356
40638		52.768844	30.644490	24.031737
40639		52.732294	30.596081	24.021516
40640		52.713332	30.540821	23.990725
40641		52.688966	30.500777	23.963304
40642		52.670985	30.477110	23.947430
40643		52.659995	30.469324	23.933033
40644		52.664754	30.473076	23.911606
40645		52.683896	30.475704	23.885702
40646		52.696564	30.473034	23.844960
40647		52.699084	30.474084	23.806944
40648		52.689217	30.485754	23.769819
40649		52.667828	30.507896	23.728105
40650		52.635451	30.548536	23.679014
40651		52.611242	30.601923	23.620614
40652		52.579906	30.660610	23.552420
40653		52.559396	30.718332	23.488216
40654		52.571216	30.783941	23.432654
40655		52.605635	30.867005	23.384973
40656		52.651025	30.959084	23.341672
40657		52.701247	31.053794	23.303159
40658		52.754444	31.156037	23.269817
40659		52.810417	31.273000	23.241789
40660		52.870929	31.397687	23.214075
40661		52.928375	31.523956	23.184594
40662		52.976436	31.641362	23.162133
40663		53.016853	31.745700	23.146067
40664		53.050364	31.842723	23.141929
40665		53.081884	31.942777	23.161702
40666		53.137358	32.050310	23.203818
40667		53.223253	32.154633	23.250722
40668		53.289994	32.257141	23.304357
40669		53.319804	32.354272	23.367780
40670		53.339848	32.450731	23.436323
40671		53.380205	32.535738	23.493700
40672		53.451892	32.594143	23.523548
40673		53.520637	32.633992	23.535436
40674		53.561016	32.659494	23.538823
40675		53.558594	32.672125	23.534187
40676		53.517507	32.675755	23.524557
40677		53.451273	32.671436	23.502526
40678		53.384870	32.668383	23.482318
40679		53.366050	32.670127	23.458027
40680		53.408995	32.667115	23.411946
40681		53.443509	32.665030	23.358691
40682		53.414387	32.667818	23.326478
40683		53.338918	32.670326	23.304205
40684		53.230806	32.667011	23.270558
40685		53.114646	32.657338	23.228501
40686		53.005782	32.645586	23.178947
40687		52.917835	32.635278	23.124522
40688		52.877983	32.628008	23.064583
