// General information: 
//  MT Manager version: 2022.2.0 
//  XDA version: 2022.2.0 build 7381 rev 124627 built on 2023-07-19
// Device information: 
//  DeviceId: 00B44805
//  ProductCode: MTW2-3A7G6
//  Firmware Version: 4.3.5
//  Hardware Version: 2.0.0
// Device settings: 
//  Filter Profile: human(46.1)
//  Option Flags: Orientation Smoother Disabled, Position/Velocity Smoother Disabled, Continuous Zero Rotation Update Disabled, AHS Disabled, ICC Disabled
// Coordinate system: ENU
PacketCounter	SampleTimeFine	Roll	Pitch	Yaw
37461		87.474396	3.552854	16.752262
37462		87.449794	3.555925	16.748186
37463		87.431779	3.560990	16.746581
37464		87.413047	3.560449	16.745469
37465		87.400318	3.559664	16.741527
37466		87.392655	3.553898	16.735401
37467		87.383543	3.550444	16.732138
37468		87.376265	3.548584	16.729709
37469		87.364802	3.547230	16.726890
37470		87.360939	3.548367	16.724366
37471		87.358573	3.547739	16.720884
37472		87.358575	3.548026	16.717112
37473		87.362100	3.547361	16.712702
37474		87.363081	3.542816	16.704628
37475		87.364932	3.535839	16.694700
37476		87.369251	3.531431	16.688525
37477		87.369526	3.529953	16.683994
37478		87.371308	3.529294	16.676753
37479		87.372128	3.529974	16.669114
37480		87.376158	3.531583	16.663947
37481		87.377815	3.532998	16.657185
37482		87.371801	3.538127	16.652872
37483		87.371691	3.540690	16.652024
37484		87.360874	3.544011	16.650552
37485		87.339308	3.550464	16.651442
37486		87.316805	3.557029	16.651862
37487		87.284957	3.562751	16.653677
37488		87.252855	3.569002	16.653790
37489		87.223179	3.573781	16.657909
37490		87.182288	3.576389	16.657981
37491		87.142620	3.577254	16.660143
37492		87.105673	3.578331	16.660818
37493		87.072969	3.579758	16.665809
37494		87.043725	3.579405	16.666130
37495		87.013002	3.581746	16.665518
37496		86.991964	3.582911	16.668882
37497		86.972009	3.582438	16.668222
37498		86.952225	3.579960	16.666862
37499		86.938984	3.575349	16.667589
37500		86.924770	3.571872	16.667931
37501		86.911362	3.569509	16.671283
37502		86.891736	3.569203	16.669772
37503		86.878882	3.572619	16.674652
37504		86.861870	3.575104	16.676617
37505		86.849222	3.569730	16.682147
37506		86.831776	3.561473	16.675910
37507		86.806050	3.566997	16.665649
37508		86.813405	3.576495	16.681570
37509		86.803385	3.572808	16.681819
37510		86.787778	3.563174	16.676111
37511		86.788264	3.553456	16.685360
37512		86.769215	3.551595	16.676436
37513		86.765481	3.555765	16.685948
37514		86.763341	3.556469	16.684227
37515		86.765659	3.555822	16.688634
37516		86.754270	3.556755	16.688026
37517		86.739368	3.556256	16.683445
37518		86.727285	3.556033	16.686140
37519		86.715447	3.550639	16.685660
37520		86.690190	3.544699	16.686198
37521		86.663744	3.542420	16.682924
37522		86.634038	3.545711	16.682250
37523		86.592756	3.544568	16.678990
37524		86.538277	3.533578	16.672852
37525		86.485814	3.509763	16.663995
37526		86.380126	3.484321	16.655211
37527		86.250546	3.454839	16.642391
37528		86.090319	3.417404	16.631185
37529		85.902679	3.374051	16.622071
37530		85.697659	3.315593	16.611924
37531		85.472335	3.239915	16.602181
37532		85.217802	3.148964	16.589019
37533		84.967735	3.040453	16.578378
37534		84.745009	2.908897	16.574802
37535		84.549851	2.750081	16.581946
37536		84.372843	2.566833	16.602215
37537		84.226411	2.361057	16.643068
37538		84.099023	2.122508	16.685142
37539		83.972674	1.873241	16.748374
37540		83.834683	1.614975	16.800042
37541		83.701822	1.343145	16.805960
37542		83.582040	1.078534	16.819490
37543		83.439177	0.833246	16.826770
37544		83.291301	0.593504	16.788617
37545		83.183481	0.371419	16.759098
37546		83.115808	0.158546	16.728602
37547		83.085450	-0.057666	16.689074
37548		83.093177	-0.261392	16.682718
37549		83.142802	-0.493784	16.645599
37550		83.218688	-0.762069	16.582049
37551		83.334062	-1.033797	16.575586
37552		83.443391	-1.328233	16.571539
37553		83.550840	-1.646536	16.573484
37554		83.672395	-1.988967	16.598312
37555		83.790360	-2.358455	16.651650
37556		83.880067	-2.748933	16.737360
37557		83.927306	-3.166834	16.840422
37558		83.922940	-3.620500	16.945869
37559		83.868725	-4.105817	17.067999
37560		83.756254	-4.607494	17.216278
37561		83.582861	-5.130019	17.355779
37562		83.358262	-5.683987	17.466960
37563		83.097761	-6.271236	17.562397
37564		82.861191	-6.878563	17.660462
37565		82.644408	-7.495747	17.746875
37566		82.459431	-8.128074	17.816104
37567		82.309071	-8.778596	17.873955
37568		82.249381	-9.453210	17.917359
37569		82.305773	-10.155045	17.964548
37570		82.426405	-10.877668	18.020608
37571		82.620290	-11.617776	18.093454
37572		82.830697	-12.373269	18.186287
37573		83.055323	-13.151334	18.257726
37574		83.268986	-13.943522	18.341530
37575		83.459758	-14.745916	18.431666
37576		83.635537	-15.550915	18.521539
37577		83.804462	-16.352062	18.618920
37578		83.943850	-17.139805	18.718329
37579		84.067383	-17.914340	18.815254
37580		84.178709	-18.668787	18.943061
37581		84.246739	-19.404200	19.075299
37582		84.273473	-20.126605	19.211097
37583		84.251666	-20.836556	19.348889
37584		84.175115	-21.533455	19.489337
37585		84.043238	-22.218633	19.636909
37586		83.866736	-22.902268	19.781162
37587		83.639498	-23.587203	19.922607
37588		83.398044	-24.266869	20.083417
37589		83.132969	-24.949064	20.257335
37590		82.842256	-25.640546	20.440942
37591		82.524726	-26.336767	20.630231
37592		82.177462	-27.044412	20.821782
37593		81.778178	-27.765254	20.998943
37594		81.327186	-28.500112	21.171712
37595		80.817135	-29.252430	21.347082
37596		80.263975	-30.028139	21.529443
37597		79.696370	-30.815380	21.726279
37598		79.127170	-31.617582	21.956810
37599		78.577376	-32.434672	22.193862
37600		78.063624	-33.265503	22.469297
37601		77.577333	-34.111466	22.776520
37602		77.119922	-34.980756	23.085177
37603		76.660163	-35.868874	23.399762
37604		76.183834	-36.773556	23.742222
37605		75.702607	-37.693231	24.119644
37606		75.242665	-38.633367	24.499088
37607		74.771265	-39.579543	24.917409
37608		74.295418	-40.550374	25.310563
37609		73.809863	-41.535646	25.711807
37610		73.308225	-42.545805	26.106888
37611		72.781804	-43.574508	26.517040
37612		72.246439	-44.618401	26.977802
37613		71.728092	-45.671566	27.495332
37614		71.147777	-46.737547	28.082684
37615		70.464870	-47.816987	28.702853
37616		69.670038	-48.909459	29.376543
37617		68.801617	-50.016330	30.129261
37618		67.885697	-51.129016	30.947718
37619		66.917314	-52.244841	31.844715
37620		65.951444	-53.344426	32.846948
37621		65.078091	-54.365841	34.020740
37622		64.228642	-55.332332	35.293131
37623		63.290157	-56.245746	36.609104
37624		62.219538	-57.122907	37.924398
37625		61.100786	-57.972561	39.217757
37626		59.904694	-58.778967	40.554174
37627		58.639202	-59.560660	41.883647
37628		57.280179	-60.316509	43.245223
37629		55.828704	-61.060774	44.597822
37630		54.351351	-61.756506	46.011595
37631		52.809011	-62.423266	47.433405
37632		51.166034	-63.101031	48.809866
37633		49.383444	-63.798526	50.177345
37634		47.537800	-64.484739	51.581115
37635		45.705340	-65.127497	53.048942
37636		43.906624	-65.770289	54.498858
37637		42.123833	-66.390017	55.984909
37638		40.507352	-66.939702	57.524898
37639		39.196472	-67.387064	59.128779
37640		37.958825	-67.805326	60.697588
37641		36.661505	-68.192428	62.241652
37642		35.330111	-68.542044	63.743859
37643		33.991055	-68.867124	65.148530
37644		32.642336	-69.170490	66.466963
37645		31.310826	-69.452482	67.711454
37646		29.985433	-69.711894	68.890424
37647		28.711577	-69.969167	69.990816
37648		27.504310	-70.211810	71.039879
37649		26.425277	-70.424636	72.058776
37650		25.523368	-70.610697	73.037610
37651		24.759339	-70.785379	73.941844
37652		24.091733	-70.934046	74.790340
37653		23.504027	-71.067880	75.556509
37654		22.920704	-71.200701	76.247129
37655		22.284520	-71.345381	76.872099
37656		21.644992	-71.481570	77.447626
37657		21.010006	-71.618599	77.991445
37658		20.397962	-71.752422	78.510611
37659		19.801011	-71.894644	79.007734
37660		19.274477	-72.044022	79.465814
37661		18.822709	-72.181103	79.903529
37662		18.419979	-72.329184	80.292685
37663		18.092073	-72.467038	80.638999
37664		17.814525	-72.600673	80.910285
37665		17.618644	-72.718969	81.102643
37666		17.501100	-72.816939	81.226487
37667		17.453916	-72.898083	81.274304
37668		17.478678	-72.954059	81.236658
37669		17.549644	-72.988793	81.147084
37670		17.660238	-73.012618	81.001991
37671		17.795143	-73.021509	80.837319
37672		17.940634	-73.024179	80.675913
37673		18.080904	-73.034142	80.535100
37674		18.195792	-73.040933	80.441088
37675		18.251831	-73.068334	80.391088
37676		18.243924	-73.110158	80.394044
37677		18.220191	-73.151248	80.451253
37678		18.163612	-73.201806	80.521780
37679		18.094651	-73.257431	80.634950
37680		17.997183	-73.327158	80.761067
37681		17.886654	-73.404257	80.920655
37682		17.767301	-73.487828	81.098708
37683		17.666320	-73.570197	81.281748
37684		17.535540	-73.661299	81.464184
37685		17.412955	-73.749634	81.640258
37686		17.310905	-73.832690	81.788425
37687		17.210422	-73.921452	81.899211
37688		17.112108	-74.003581	81.975388
37689		17.031679	-74.082476	82.019773
37690		16.972836	-74.153975	82.040743
37691		16.934569	-74.215321	82.065386
37692		16.876320	-74.276735	82.095074
37693		16.798311	-74.331890	82.152127
37694		16.678068	-74.385762	82.226980
37695		16.520299	-74.442502	82.339177
37696		16.323457	-74.503424	82.474863
37697		16.083594	-74.563923	82.642516
37698		15.814289	-74.628070	82.837338
37699		15.549089	-74.686215	83.042772
37700		15.261219	-74.744677	83.264901
37701		14.966140	-74.798642	83.501453
37702		14.687389	-74.844857	83.739337
37703		14.397821	-74.894421	83.967961
37704		14.116254	-74.944525	84.180975
37705		13.827783	-74.986863	84.403271
37706		13.545864	-75.030544	84.622572
37707		13.273042	-75.074534	84.858230
37708		12.990044	-75.110730	85.107116
37709		12.718847	-75.147449	85.360567
37710		12.455200	-75.182053	85.615726
37711		12.194215	-75.212168	85.875351
37712		11.952490	-75.241611	86.119079
37713		11.754388	-75.265554	86.354961
37714		11.569259	-75.282374	86.582034
37715		11.374198	-75.302179	86.802360
37716		11.168425	-75.326163	87.017525
37717		10.946180	-75.345436	87.253659
37718		10.682288	-75.360295	87.527643
37719		10.401698	-75.374766	87.825508
37720		10.096151	-75.382068	88.148832
37721		9.770352	-75.393397	88.488900
37722		9.430328	-75.408564	88.831340
37723		9.015103	-75.387309	89.211408
37724		8.602996	-75.389783	89.587825
37725		8.254955	-75.379808	89.955847
37726		7.832556	-75.344029	90.318761
37727		7.368299	-75.327588	90.719643
37728		6.935087	-75.307479	91.157485
37729		6.508462	-75.277217	91.593429
37730		6.137959	-75.248565	91.955037
37731		5.839043	-75.211541	92.252458
37732		5.593696	-75.172462	92.533080
37733		5.409776	-75.149200	92.789689
37734		5.273218	-75.123032	92.996921
37735		5.188620	-75.098640	93.151471
37736		5.150945	-75.086999	93.248183
37737		5.156167	-75.080838	93.318008
37738		5.186567	-75.082734	93.361333
37739		5.218112	-75.103397	93.383271
37740		5.222502	-75.140208	93.410637
37741		5.242899	-75.192412	93.432416
37742		5.239120	-75.255838	93.463255
37743		5.212286	-75.324973	93.501170
37744		5.169381	-75.395208	93.543550
37745		5.105432	-75.460272	93.614458
37746		5.010054	-75.517924	93.712714
37747		4.870049	-75.572080	93.853737
37748		4.697871	-75.626874	94.019124
37749		4.515118	-75.669790	94.199654
37750		4.341141	-75.705003	94.385108
37751		4.191452	-75.734709	94.569757
37752		4.047192	-75.760832	94.748319
37753		3.902264	-75.780918	94.932999
37754		3.734443	-75.785840	95.124509
37755		3.508916	-75.775732	95.353244
37756		3.261639	-75.748378	95.601593
37757		2.984851	-75.703413	95.880968
37758		2.685793	-75.657965	96.155760
37759		2.411864	-75.617009	96.400693
37760		2.163108	-75.584788	96.620435
37761		1.955589	-75.558436	96.819642
37762		1.748651	-75.538921	97.013734
37763		1.534298	-75.538095	97.215809
37764		1.291581	-75.550490	97.443624
37765		1.034496	-75.572812	97.675938
37766		0.800873	-75.611177	97.879272
37767		0.582519	-75.671273	98.065202
37768		0.408441	-75.743826	98.215057
37769		0.297300	-75.829491	98.330202
37770		0.243015	-75.925795	98.429930
37771		0.215931	-76.026467	98.543387
37772		0.175211	-76.125725	98.660333
37773		0.087142	-76.215454	98.832911
37774		-0.041115	-76.282632	99.031931
37775		-0.207894	-76.331475	99.247698
37776		-0.401423	-76.371129	99.454059
37777		-0.590328	-76.409697	99.641696
37778		-0.759018	-76.445286	99.801140
37779		-0.914677	-76.489189	99.974715
37780		-1.004830	-76.526436	100.128415
37781		-1.017010	-76.553377	100.253251
37782		-1.027441	-76.574559	100.379013
37783		-1.113877	-76.593498	100.537560
37784		-1.281579	-76.606904	100.727078
37785		-1.497736	-76.611272	100.942571
37786		-1.750699	-76.604093	101.166448
37787		-1.996742	-76.587777	101.384182
37788		-2.196489	-76.556322	101.576222
37789		-2.349950	-76.514241	101.735701
37790		-2.436780	-76.455455	101.847775
37791		-2.484924	-76.385435	101.926215
37792		-2.501398	-76.305884	101.952382
37793		-2.506041	-76.223542	101.946036
37794		-2.478240	-76.140892	101.886920
37795		-2.454217	-76.064079	101.793027
37796		-2.410266	-76.001549	101.652475
37797		-2.325242	-75.945518	101.461708
37798		-2.204665	-75.902386	101.230516
37799		-2.050462	-75.866548	100.969567
37800		-1.871823	-75.835193	100.687967
37801		-1.671078	-75.810746	100.393677
37802		-1.446825	-75.790556	100.087663
37803		-1.187054	-75.767356	99.753908
37804		-0.915235	-75.741535	99.393577
37805		-0.609871	-75.712400	98.990842
37806		-0.266985	-75.676951	98.537147
37807		0.126113	-75.636940	98.031203
37808		0.593246	-75.587504	97.452979
37809		1.127497	-75.528956	96.797120
37810		1.685005	-75.471156	96.095293
37811		2.298434	-75.409446	95.303707
37812		3.014056	-75.342049	94.389903
37813		3.889047	-75.258052	93.346788
37814		5.100155	-75.142876	92.070058
37815		6.655193	-75.003955	90.554907
37816		8.430162	-74.853859	88.830806
37817		10.398973	-74.682515	86.927586
37818		12.589250	-74.478957	84.828666
37819		14.995016	-74.242223	82.547774
37820		17.562109	-73.982853	80.096023
37821		20.253858	-73.685798	77.512744
37822		23.053567	-73.335246	74.817164
37823		25.894780	-72.941801	72.068637
37824		28.813876	-72.475502	69.282622
37825		31.757278	-71.941883	66.542049
37826		34.571254	-71.386801	63.859401
37827		37.112901	-70.824592	61.297425
37828		39.434038	-70.246412	58.870013
37829		41.671285	-69.637385	56.606296
37830		43.832022	-69.004174	54.492879
37831		45.959527	-68.324044	52.518119
37832		48.037786	-67.613866	50.705032
37833		49.919979	-66.941806	48.971678
37834		51.590936	-66.291613	47.303177
37835		53.162870	-65.632022	45.786386
37836		54.665120	-64.963996	44.362915
37837		56.115129	-64.278893	43.059963
37838		57.512399	-63.577656	41.848680
37839		58.800271	-62.916588	40.656291
37840		59.957419	-62.272992	39.494922
37841		61.045403	-61.628508	38.415893
37842		62.083600	-60.977448	37.389978
37843		63.077764	-60.314793	36.427812
37844		64.044898	-59.627941	35.537143
37845		64.968816	-58.923364	34.684863
37846		65.866600	-58.192197	33.862657
37847		66.716983	-57.441845	33.075243
37848		67.508156	-56.689396	32.276781
37849		68.243571	-55.928199	31.516048
37850		68.934003	-55.147147	30.809380
37851		69.594978	-54.339408	30.148027
37852		70.243243	-53.501731	29.529816
37853		70.883477	-52.634120	28.958509
37854		71.525833	-51.718131	28.445670
37855		72.156209	-50.787037	27.977447
37856		72.719939	-49.864182	27.500140
37857		73.230748	-48.949411	27.052424
37858		73.725080	-48.024840	26.673870
37859		74.193572	-47.101861	26.337365
37860		74.634394	-46.184579	26.002305
37861		75.054857	-45.252391	25.727788
37862		75.424792	-44.318284	25.474006
37863		75.730697	-43.391739	25.215323
37864		76.017564	-42.467730	24.969144
37865		76.345783	-41.544460	24.744799
37866		76.722775	-40.616369	24.554663
37867		77.093494	-39.684091	24.381622
37868		77.486373	-38.741659	24.220093
37869		77.907120	-37.771855	24.115352
37870		78.286297	-36.805622	23.999037
37871		78.512481	-35.858169	23.825854
37872		78.635948	-34.926944	23.632243
37873		78.695434	-34.005374	23.435506
37874		78.732045	-33.089040	23.250938
37875		78.737096	-32.179504	23.068553
37876		78.744504	-31.275326	22.891075
37877		78.767237	-30.367738	22.743634
37878		78.768011	-29.476409	22.581642
37879		78.757126	-28.611860	22.393207
37880		78.754845	-27.764590	22.227402
37881		78.745654	-26.934909	22.059302
37882		78.749294	-26.118184	21.904790
37883		78.740809	-25.316143	21.761914
37884		78.738375	-24.532637	21.612777
37885		78.759397	-23.763744	21.483730
37886		78.777411	-23.005711	21.357882
37887		78.810694	-22.262172	21.240811
37888		78.869492	-21.525236	21.146782
37889		78.916478	-20.804640	21.046149
37890		78.935755	-20.103862	20.948868
37891		78.914476	-19.424551	20.847304
37892		78.872801	-18.774780	20.735255
37893		78.822516	-18.145149	20.636382
37894		78.746423	-17.534347	20.528088
37895		78.637211	-16.941845	20.416892
37896		78.533052	-16.366778	20.300763
37897		78.482083	-15.801956	20.183614
37898		78.441107	-15.233265	20.104508
37899		78.408357	-14.678634	20.011743
37900		78.439214	-14.143044	19.897504
37901		78.482064	-13.616935	19.800994
37902		78.515558	-13.098650	19.706016
37903		78.575054	-12.594003	19.596400
37904		78.664699	-12.098378	19.493541
37905		78.765729	-11.605709	19.403636
37906		78.895540	-11.122603	19.316889
37907		79.045128	-10.639738	19.232735
37908		79.180183	-10.155102	19.154019
37909		79.301446	-9.669336	19.078029
37910		79.418029	-9.188586	19.001067
37911		79.499894	-8.716173	18.911812
37912		79.558387	-8.247933	18.827579
37913		79.611439	-7.779580	18.750834
37914		79.669441	-7.316983	18.669281
37915		79.733852	-6.855937	18.594968
37916		79.782805	-6.390634	18.525942
37917		79.831296	-5.919879	18.460610
37918		79.891286	-5.451887	18.397717
37919		79.958892	-4.990871	18.329437
37920		80.028827	-4.540433	18.256968
37921		80.106131	-4.095182	18.186944
37922		80.198820	-3.652509	18.120642
37923		80.277379	-3.208819	18.059367
37924		80.325043	-2.771360	17.986694
37925		80.374161	-2.345603	17.913356
37926		80.438764	-1.927228	17.852678
37927		80.519109	-1.524406	17.791311
37928		80.611843	-1.144739	17.725061
37929		80.729625	-0.781939	17.668878
37930		80.849493	-0.437002	17.624759
37931		80.936579	-0.110853	17.572162
37932		81.002397	0.191158	17.512957
37933		81.055380	0.481015	17.444958
37934		81.111466	0.765640	17.382553
37935		81.167202	1.053715	17.332866
37936		81.245184	1.337874	17.294234
37937		81.326646	1.617255	17.253567
37938		81.388021	1.885993	17.197244
37939		81.438927	2.147201	17.145753
37940		81.487337	2.399210	17.100533
37941		81.534752	2.640426	17.056977
37942		81.575821	2.874004	17.018989
37943		81.595093	3.104067	16.982650
37944		81.593966	3.334415	16.947513
37945		81.594446	3.566088	16.913883
37946		81.595955	3.797663	16.888892
37947		81.580360	4.026529	16.860921
37948		81.568225	4.237796	16.826307
37949		81.604631	4.410193	16.802475
37950		81.672667	4.548663	16.771512
37951		81.691728	4.680115	16.730673
37952		81.717400	4.811824	16.688573
37953		81.765337	4.947329	16.660177
37954		81.852209	5.078800	16.641183
37955		81.971743	5.206233	16.631296
37956		82.115385	5.322667	16.614531
37957		82.270711	5.437475	16.596024
37958		82.427272	5.549883	16.573754
37959		82.567834	5.675336	16.558049
37960		82.670883	5.816115	16.546668
37961		82.770276	5.942356	16.534817
37962		82.878641	6.039793	16.542122
37963		82.877730	6.117189	16.534719
37964		82.740477	6.164166	16.517995
37965		82.523425	6.204840	16.498331
37966		82.305750	6.226055	16.488143
37967		82.102852	6.235333	16.493484
37968		81.922085	6.238530	16.510393
37969		81.777350	6.241983	16.528581
37970		81.671627	6.251562	16.541588
37971		81.614718	6.260389	16.544706
37972		81.623174	6.280375	16.542014
37973		81.666779	6.312110	16.540674
37974		81.741358	6.352221	16.532429
37975		81.844464	6.404637	16.536064
37976		81.939310	6.459451	16.542991
37977		82.028621	6.517765	16.555891
37978		82.076773	6.573765	16.566025
37979		82.103326	6.607079	16.558731
37980		82.089613	6.629006	16.553235
37981		81.919910	6.644277	16.524401
37982		81.753032	6.667142	16.522632
37983		81.595598	6.684462	16.534370
37984		81.389174	6.678634	16.538315
37985		81.224429	6.661815	16.550402
37986		81.146470	6.631486	16.578425
37987		81.103748	6.589112	16.605634
37988		81.105820	6.538327	16.627619
37989		81.132928	6.499573	16.642373
37990		81.194969	6.473351	16.655662
37991		81.274797	6.458173	16.660343
37992		81.332349	6.454630	16.650041
37993		81.380301	6.455100	16.631580
37994		81.435670	6.460249	16.614719
37995		81.477085	6.468690	16.600052
37996		81.528634	6.475937	16.594699
37997		81.586107	6.473679	16.585795
37998		81.653274	6.464917	16.576287
37999		81.727791	6.457632	16.558411
38000		81.804357	6.473684	16.541898
38001		81.890208	6.523000	16.550120
38002		81.953821	6.600604	16.554639
38003		81.992372	6.704243	16.576326
38004		82.006907	6.830694	16.595513
38005		82.044045	6.978451	16.633359
38006		82.104168	7.132682	16.680268
38007		82.190317	7.282970	16.724089
38008		82.296537	7.421381	16.758719
38009		82.425749	7.546105	16.791617
38010		82.550527	7.648940	16.823148
38011		82.661181	7.737165	16.839301
38012		82.767179	7.811860	16.854481
38013		82.855396	7.886681	16.852737
38014		82.932828	7.967044	16.855520
38015		82.993115	8.053522	16.855584
38016		83.022147	8.131859	16.857903
38017		83.000464	8.207277	16.841083
38018		82.955197	8.280473	16.835718
38019		82.873685	8.351106	16.822562
38020		82.784054	8.418816	16.812576
38021		82.681198	8.487235	16.805124
38022		82.579999	8.549190	16.799389
38023		82.476175	8.607972	16.802085
38024		82.356053	8.666661	16.815003
38025		82.204618	8.717085	16.830035
38026		82.079086	8.756384	16.848442
38027		81.963254	8.787764	16.860121
38028		81.874719	8.815762	16.870516
38029		81.843671	8.841414	16.876877
38030		81.827995	8.864926	16.867538
38031		81.853797	8.887470	16.854289
38032		81.884383	8.900023	16.832677
38033		81.915094	8.904050	16.798688
38034		81.936553	8.894407	16.748043
38035		81.954676	8.878373	16.689587
38036		81.972180	8.858735	16.617646
38037		81.946629	8.847754	16.528484
38038		81.931337	8.848440	16.455779
38039		81.895228	8.857585	16.400527
38040		81.831600	8.865725	16.350810
38041		81.762929	8.871118	16.312299
38042		81.710031	8.866392	16.279696
38043		81.681013	8.853826	16.239741
38044		81.688507	8.830200	16.196531
38045		81.719967	8.795276	16.163746
38046		81.747844	8.744331	16.116840
38047		81.827758	8.691829	16.069755
38048		81.912451	8.639156	16.014233
38049		82.010306	8.594364	15.962828
38050		82.099208	8.555909	15.903054
38051		82.179154	8.525420	15.832730
38052		82.268135	8.490724	15.759107
38053		82.329642	8.460149	15.677975
38054		82.365270	8.426245	15.572779
38055		82.431469	8.394273	15.424138
38056		82.521185	8.386987	15.305636
38057		82.494041	8.412167	15.245927
38058		82.394177	8.459108	15.215961
38059		82.268831	8.525676	15.214463
38060		82.108063	8.614224	15.238050
38061		81.954307	8.711110	15.282075
38062		81.809846	8.806741	15.337556
38063		81.706771	8.890597	15.398198
38064		81.644525	8.954758	15.469925
38065		81.620922	8.986184	15.541946
38066		81.652629	8.980383	15.615271
38067		81.735751	8.945976	15.685793
38068		81.865959	8.877829	15.728166
38069		82.065086	8.794118	15.749981
38070		82.299057	8.700523	15.766516
38071		82.549219	8.605024	15.786750
38072		82.770526	8.504612	15.808152
38073		83.009997	8.404785	15.838163
38074		83.234559	8.298948	15.853138
38075		83.469766	8.203381	15.862518
38076		83.679330	8.118220	15.865011
38077		83.873386	8.038099	15.867159
38078		84.037219	7.956961	15.865146
38079		84.189234	7.877516	15.855868
38080		84.336930	7.812956	15.862727
38081		84.454126	7.766329	15.884164
38082		84.557580	7.739799	15.936261
38083		84.640562	7.730811	16.007770
38084		84.709349	7.725541	16.095217
38085		84.772808	7.719855	16.191769
38086		84.834293	7.702202	16.281944
38087		84.905846	7.685917	16.357576
38088		84.977256	7.670916	16.373085
38089		85.047685	7.677917	16.385613
38090		85.078052	7.703238	16.393036
38091		85.100615	7.743372	16.404151
38092		85.091183	7.769551	16.401893
38093		85.071878	7.812187	16.420702
38094		85.010260	7.845260	16.415611
38095		84.962457	7.865108	16.419165
38096		84.906192	7.876656	16.415901
38097		84.859247	7.879859	16.408302
38098		84.798621	7.898724	16.415993
38099		84.700962	7.917666	16.420380
38100		84.617907	7.945360	16.448051
38101		84.501113	7.974337	16.474688
38102		84.385417	7.997079	16.508734
38103		84.288956	8.012956	16.547711
38104		84.197209	8.033389	16.580749
38105		84.138893	8.044270	16.604098
38106		84.103213	8.053974	16.615008
38107		84.120133	8.054753	16.609603
38108		84.151115	8.056488	16.606498
38109		84.201853	8.059963	16.607597
38110		84.245037	8.047733	16.588952
38111		84.299525	8.036676	16.584431
38112		84.332448	8.009814	16.569998
38113		84.361095	7.990475	16.560761
38114		84.353604	7.972697	16.550921
38115		84.318573	7.977898	16.565984
38116		84.262016	7.995610	16.567469
38117		84.182072	8.029224	16.578854
38118		84.083823	8.072207	16.585437
38119		83.970815	8.111937	16.586550
38120		83.851747	8.141668	16.573618
38121		83.727916	8.159769	16.555315
38122		83.605824	8.166681	16.534187
38123		83.478857	8.175444	16.506050
38124		83.355119	8.181228	16.485626
38125		83.220098	8.177792	16.463920
38126		83.097111	8.168466	16.437148
38127		82.989103	8.164286	16.430884
38128		82.883444	8.163459	16.429838
38129		82.807517	8.164155	16.433703
38130		82.739261	8.165748	16.439067
38131		82.703214	8.163725	16.451138
38132		82.684866	8.156620	16.460626
38133		82.680799	8.144638	16.452152
38134		82.702299	8.137925	16.436923
38135		82.721761	8.141337	16.417983
38136		82.740604	8.153894	16.410292
38137		82.744522	8.175196	16.412963
38138		82.716094	8.205058	16.420330
38139		82.673328	8.238273	16.434663
38140		82.624522	8.276682	16.450840
38141		82.553187	8.320784	16.458984
38142		82.492819	8.373708	16.460014
38143		82.425821	8.431721	16.463977
38144		82.369573	8.490244	16.470028
38145		82.305546	8.546437	16.479003
38146		82.236124	8.590764	16.492779
38147		82.172245	8.619608	16.510125
38148		82.107617	8.632285	16.527710
38149		82.022256	8.627807	16.558019
38150		81.935052	8.597344	16.592924
38151		81.827238	8.541023	16.638052
38152		81.669137	8.459467	16.699924
38153		81.482362	8.356509	16.771986
38154		81.291347	8.242326	16.866134
38155		81.065030	8.122458	16.989520
38156		80.839116	8.017313	17.116768
38157		80.692757	7.948818	17.280173
38158		80.582298	7.886385	17.434153
38159		80.480990	7.819036	17.582313
38160		80.351719	7.720776	17.716417
38161		80.059001	7.586538	17.801698
38162		79.632159	7.414673	17.849074
38163		79.163625	7.190748	17.876650
38164		78.677314	6.931343	17.924979
38165		78.146063	6.589344	17.947246
38166		77.687380	6.163391	17.989013
38167		77.312460	5.633680	18.046174
38168		77.043687	4.988613	18.107706
38169		76.899516	4.236326	18.182644
38170		76.845388	3.392081	18.269417
38171		76.850778	2.470611	18.369774
38172		76.872479	1.488045	18.473797
38173		76.870241	0.444018	18.569801
38174		76.811214	-0.655548	18.671629
38175		76.677472	-1.806729	18.774554
38176		76.520908	-3.006697	18.878022
38177		76.355002	-4.238611	19.005711
38178		76.191188	-5.489997	19.165343
38179		76.039023	-6.749577	19.358674
38180		75.891593	-8.019107	19.571110
38181		75.747700	-9.302753	19.790655
38182		75.607053	-10.591797	20.026438
38183		75.442236	-11.894750	20.253547
38184		75.296640	-13.192629	20.492367
38185		75.168457	-14.474641	20.755473
38186		75.043465	-15.747559	21.012988
38187		74.963241	-16.997318	21.285731
38188		74.932241	-18.218749	21.576243
38189		74.928578	-19.419808	21.872664
38190		74.938096	-20.611682	22.171086
38191		74.956367	-21.798663	22.461409
38192		74.999804	-22.975061	22.757548
38193		75.054676	-24.126248	23.074124
38194		75.082057	-25.261217	23.405726
38195		75.045168	-26.378412	23.736290
38196		74.952449	-27.493415	24.051261
38197		74.809021	-28.605075	24.358592
38198		74.636567	-29.714159	24.660902
38199		74.434099	-30.814399	24.949616
38200		74.196500	-31.900898	25.240166
38201		73.953666	-32.954909	25.549820
38202		73.702143	-33.983718	25.875512
38203		73.426351	-34.992327	26.184120
38204		73.143870	-35.984493	26.491344
38205		72.855285	-36.951811	26.800855
38206		72.575678	-37.905541	27.110436
38207		72.318388	-38.851756	27.399157
38208		72.077595	-39.784621	27.710566
38209		71.839413	-40.710927	28.018066
38210		71.623465	-41.640685	28.303322
38211		71.417927	-42.563594	28.591479
38212		71.249534	-43.465306	28.879478
38213		71.137423	-44.314216	29.247229
38214		70.933803	-45.156601	29.589720
38215		70.742170	-45.995037	29.889022
38216		70.586001	-46.814318	30.229447
38217		70.440581	-47.611869	30.611352
38218		70.249702	-48.393963	31.033684
38219		69.935357	-49.194727	31.412843
38220		69.609137	-50.002288	31.759622
38221		69.260488	-50.792027	32.162324
38222		68.868768	-51.566178	32.588465
38223		68.400744	-52.313295	33.051470
38224		67.838259	-53.063852	33.485633
38225		67.264546	-53.812873	33.885748
38226		66.703623	-54.530211	34.356977
38227		66.131236	-55.217978	34.864130
38228		65.544248	-55.905149	35.343803
38229		64.921221	-56.562636	35.882182
38230		64.245485	-57.213494	36.408549
38231		63.552771	-57.862184	36.898920
38232		62.836753	-58.475488	37.434410
38233		62.115568	-59.047010	38.010572
38234		61.410365	-59.601821	38.592000
38235		60.700742	-60.136814	39.193408
38236		59.952959	-60.658518	39.798550
38237		59.170688	-61.168487	40.411428
38238		58.347336	-61.651037	41.048517
38239		57.500393	-62.105043	41.715693
38240		56.612211	-62.558206	42.353290
38241		55.711150	-62.989925	43.025231
38242		54.795873	-63.418571	43.706916
38243		53.875177	-63.840873	44.409689
38244		52.923967	-64.250248	45.171442
38245		51.962465	-64.664111	45.954941
38246		51.005223	-65.066931	46.790231
38247		50.018925	-65.469513	47.663200
38248		49.017135	-65.900982	48.522697
38249		47.986004	-66.342072	49.437535
38250		46.953579	-66.760520	50.421296
38251		45.960969	-67.160401	51.455054
38252		45.030873	-67.507504	52.581401
38253		44.119114	-67.849758	53.713113
38254		43.161311	-68.184687	54.855550
38255		42.151261	-68.507845	55.989144
38256		41.112321	-68.824191	57.073030
38257		40.040135	-69.119905	58.134511
38258		38.940675	-69.414229	59.142716
38259		37.837454	-69.690435	60.144899
38260		36.700053	-69.957232	61.148402
38261		35.538907	-70.231308	62.166656
38262		34.422197	-70.485152	63.212444
38263		33.344451	-70.713713	64.303388
38264		32.283459	-70.943700	65.398959
38265		31.221223	-71.153458	66.538579
38266		30.159167	-71.346496	67.677317
38267		29.103232	-71.530927	68.795117
38268		28.020194	-71.718456	69.876009
38269		26.919692	-71.903008	70.934105
38270		25.824497	-72.069061	71.980516
38271		24.734141	-72.237508	72.998011
38272		23.630059	-72.401249	74.011038
38273		22.565710	-72.537026	75.044566
38274		21.500722	-72.678949	76.073157
38275		20.388739	-72.822734	77.139434
38276		19.248070	-72.954418	78.225921
38277		18.138731	-73.080089	79.304061
38278		17.063834	-73.200263	80.355740
38279		16.074726	-73.298891	81.373388
38280		15.109933	-73.402594	82.357328
38281		14.178848	-73.500601	83.294708
38282		13.375925	-73.576999	84.122851
38283		12.710838	-73.645466	84.849577
38284		12.140427	-73.715175	85.467073
38285		11.644635	-73.774421	85.994065
38286		11.286665	-73.815721	86.398902
38287		11.041387	-73.848641	86.696099
38288		10.884099	-73.867776	86.893999
38289		10.773796	-73.882016	87.005519
38290		10.707604	-73.897366	87.045724
38291		10.692486	-73.904394	87.041629
38292		10.720534	-73.904203	86.994327
38293		10.750697	-73.910897	86.923972
38294		10.753139	-73.920107	86.840879
38295		10.727675	-73.930833	86.765889
38296		10.703061	-73.942249	86.685316
38297		10.687059	-73.950464	86.608427
38298		10.693275	-73.959791	86.528415
38299		10.758861	-73.958999	86.440920
38300		10.840732	-73.952850	86.344834
38301		10.890882	-73.957104	86.251265
38302		10.931250	-73.960732	86.164052
38303		10.946638	-73.961364	86.100342
38304		10.941850	-73.966398	86.035842
38305		10.923095	-73.975081	85.974710
38306		10.920587	-73.980353	85.891534
38307		10.920644	-73.992942	85.799231
38308		10.951712	-74.002020	85.677373
38309		10.994009	-74.012538	85.555282
38310		11.065275	-74.024554	85.413895
38311		11.161488	-74.030931	85.282913
38312		11.286959	-74.031827	85.147186
38313		11.417482	-74.037641	85.020506
38314		11.559713	-74.038688	84.899838
38315		11.680570	-74.041578	84.796131
38316		11.786438	-74.051647	84.681602
38317		11.863232	-74.054797	84.586743
38318		11.929804	-74.056269	84.488802
38319		11.977761	-74.055344	84.411630
38320		12.022944	-74.054003	84.341545
38321		12.058788	-74.047070	84.301529
38322		12.110314	-74.038778	84.254836
38323		12.160310	-74.027442	84.226284
38324		12.222958	-74.012152	84.189776
38325		12.289421	-73.998096	84.139693
38326		12.349645	-73.995610	84.057702
38327		12.405805	-73.992356	83.983030
38328		12.468554	-73.987901	83.900250
38329		12.536811	-73.984648	83.812730
38330		12.626430	-73.983083	83.714267
38331		12.711982	-73.974493	83.639388
38332		12.801998	-73.967380	83.558822
38333		12.906144	-73.955984	83.488903
38334		13.009221	-73.947762	83.395371
38335		13.114689	-73.939284	83.293437
38336		13.236558	-73.932084	83.173053
38337		13.361339	-73.927197	83.052585
38338		13.513259	-73.927631	82.900243
38339		13.701296	-73.926181	82.748024
38340		13.940706	-73.923889	82.568005
38341		14.198405	-73.920549	82.373624
38342		14.481108	-73.915496	82.166914
38343		14.768173	-73.902516	81.962907
38344		15.044609	-73.887866	81.743790
38345		15.305516	-73.872957	81.531266
38346		15.551623	-73.855056	81.315638
38347		15.781556	-73.832184	81.108906
38348		16.003352	-73.804131	80.898300
38349		16.233506	-73.773505	80.692516
38350		16.453638	-73.737831	80.481119
38351		16.667568	-73.706344	80.261898
38352		16.895879	-73.671805	80.032533
38353		17.134965	-73.635683	79.798466
38354		17.406306	-73.600895	79.537849
38355		17.716359	-73.565046	79.284360
38356		18.086795	-73.516303	79.013691
38357		18.466312	-73.478352	78.728725
38358		18.856811	-73.441465	78.427744
38359		19.244734	-73.408439	78.121790
38360		19.608436	-73.380047	77.817787
38361		19.964625	-73.355022	77.520348
38362		20.337076	-73.326678	77.207610
38363		20.721647	-73.297332	76.889508
38364		21.168037	-73.253472	76.536381
38365		21.645918	-73.199379	76.150878
38366		22.168167	-73.149019	75.709303
38367		22.705727	-73.083638	75.260687
38368		23.248692	-73.008614	74.789738
38369		23.794474	-72.925544	74.309158
38370		24.346660	-72.832679	73.813541
38371		24.886361	-72.729998	73.311631
38372		25.434276	-72.616445	72.783887
38373		25.999669	-72.485850	72.237166
38374		26.593677	-72.346947	71.624431
38375		27.189405	-72.210173	70.959746
38376		27.790141	-72.060919	70.272634
38377		28.388989	-71.909342	69.569213
38378		29.024585	-71.754534	68.838047
38379		29.665835	-71.594795	68.125393
38380		30.341519	-71.433658	67.388244
38381		31.071797	-71.261469	66.628851
38382		31.839733	-71.072283	65.839590
38383		32.644134	-70.881644	64.992080
38384		33.512458	-70.673317	64.108003
38385		34.405060	-70.447151	63.206507
38386		35.330828	-70.209029	62.250752
38387		36.277950	-69.948266	61.280166
38388		37.260365	-69.663508	60.280463
38389		38.235266	-69.370067	59.255511
38390		39.204028	-69.059054	58.211989
38391		40.176422	-68.729458	57.173011
38392		41.150577	-68.381832	56.127586
38393		42.116136	-68.012273	55.104477
38394		43.097481	-67.630222	54.076856
38395		44.076702	-67.241202	53.068286
38396		45.061063	-66.832375	52.084447
38397		45.995062	-66.417435	51.132797
38398		46.894670	-65.997553	50.180526
38399		47.773001	-65.560341	49.268484
38400		48.633501	-65.103346	48.382173
38401		49.478213	-64.623502	47.513908
38402		50.337720	-64.103586	46.663629
38403		51.147881	-63.593318	45.832782
38404		51.834967	-63.112603	44.970023
38405		52.472881	-62.635612	44.154282
38406		53.108490	-62.153749	43.363869
38407		53.741958	-61.672990	42.594992
38408		54.390746	-61.182688	41.851054
38409		55.057195	-60.691350	41.128149
38410		55.782426	-60.195953	40.408010
38411		56.567810	-59.677742	39.751904
38412		57.380102	-59.151857	39.089592
38413		58.203112	-58.628205	38.433826
38414		59.049091	-58.088063	37.799863
38415		59.886180	-57.541478	37.191745
38416		60.695725	-56.994490	36.581322
38417		61.465839	-56.435287	35.993330
38418		62.212146	-55.858221	35.415695
38419		62.942699	-55.277158	34.840242
38420		63.682280	-54.663471	34.301362
38421		64.419438	-54.043479	33.792687
38422		65.084609	-53.436331	33.276589
38423		65.663282	-52.843316	32.772397
38424		66.207780	-52.246033	32.292461
38425		66.719079	-51.647322	31.832151
38426		67.193086	-51.038436	31.392565
38427		67.630662	-50.407382	30.989571
38428		68.048208	-49.756555	30.604325
38429		68.417059	-49.120336	30.203801
38430		68.751748	-48.474866	29.819356
38431		69.074394	-47.816244	29.465474
38432		69.355742	-47.169464	29.093901
38433		69.606254	-46.524505	28.727383
38434		69.844170	-45.865120	28.385620
38435		70.060359	-45.194234	28.042757
38436		70.270017	-44.498121	27.729067
38437		70.478222	-43.784063	27.451063
38438		70.638828	-43.088102	27.134051
38439		70.797884	-42.406723	26.811250
38440		71.021106	-41.711625	26.525462
38441		71.274108	-41.000587	26.274572
38442		71.536383	-40.268546	26.033673
38443		71.772639	-39.549026	25.779642
38444		72.035645	-38.842243	25.499611
38445		72.353333	-38.146181	25.250918
38446		72.694335	-37.465611	24.995001
38447		73.047099	-36.792371	24.745150
38448		73.409957	-36.108644	24.505572
38449		73.797217	-35.402970	24.303517
38450		74.195021	-34.669123	24.127312
38451		74.598839	-33.940837	23.942151
38452		75.011143	-33.213868	23.751311
38453		75.422705	-32.479205	23.597407
38454		75.798491	-31.755546	23.442276
38455		76.125082	-31.046986	23.290673
38456		76.424921	-30.337202	23.160381
38457		76.688696	-29.625391	23.048240
38458		76.909784	-28.916180	22.935855
38459		77.037528	-28.217965	22.823445
38460		77.132540	-27.538863	22.701298
38461		77.240548	-26.859347	22.602144
38462		77.328671	-26.178171	22.517115
38463		77.382906	-25.487017	22.442525
38464		77.425169	-24.786185	22.394940
38465		77.459530	-24.082883	22.357912
38466		77.502778	-23.393344	22.323092
38467		77.530135	-22.721969	22.297545
38468		77.518344	-22.078323	22.270995
38469		77.408336	-21.467326	22.224083
38470		77.240595	-20.884599	22.164261
38471		77.068085	-20.326110	22.117865
38472		76.914979	-19.794026	22.076920
38473		76.803252	-19.283975	22.040754
38474		76.731585	-18.788161	22.020752
38475		76.708150	-18.305978	22.008981
38476		76.723807	-17.836523	21.997271
38477		76.752336	-17.369587	21.994165
38478		76.763619	-16.905137	21.980853
38479		76.736293	-16.458303	21.947590
38480		76.690604	-16.037824	21.887485
38481		76.636757	-15.635136	21.828823
38482		76.604686	-15.249133	21.763727
38483		76.627311	-14.882176	21.701361
38484		76.691636	-14.522362	21.648513
38485		76.777399	-14.163409	21.603449
38486		76.884333	-13.800145	21.546721
38487		76.995077	-13.430460	21.491094
38488		77.091089	-13.054188	21.427518
38489		77.180621	-12.673461	21.350135
38490		77.283720	-12.287216	21.270646
38491		77.398646	-11.899354	21.205900
38492		77.519734	-11.516779	21.137629
38493		77.670725	-11.140713	21.068698
38494		77.856152	-10.773498	20.997832
38495		78.059951	-10.411966	20.924971
38496		78.285978	-10.046202	20.854856
38497		78.502141	-9.670462	20.784685
38498		78.704463	-9.289803	20.706082
38499		78.915526	-8.899804	20.636031
38500		79.119745	-8.503239	20.576400
38501		79.292542	-8.112336	20.514807
38502		79.430584	-7.737479	20.439233
38503		79.554546	-7.371935	20.373708
38504		79.656990	-7.008870	20.318680
38505		79.715572	-6.642539	20.270427
38506		79.714938	-6.274312	20.216619
38507		79.660890	-5.914668	20.155236
38508		79.586398	-5.557948	20.113825
38509		79.495096	-5.208204	20.076482
38510		79.397260	-4.870361	20.035748
38511		79.316809	-4.541685	19.997619
38512		79.262973	-4.220477	19.967910
38513		79.227977	-3.898774	19.945494
38514		79.187568	-3.573137	19.923792
38515		79.134282	-3.246304	19.892349
38516		79.080740	-2.912947	19.863860
38517		79.026197	-2.573152	19.840371
38518		78.981544	-2.227221	19.815628
38519		78.951885	-1.872038	19.791499
38520		78.938433	-1.510677	19.766583
38521		78.954599	-1.139987	19.749230
38522		78.998755	-0.757878	19.736073
38523		79.097507	-0.367225	19.731693
38524		79.275801	0.039840	19.749919
38525		79.513426	0.454190	19.770182
38526		79.797367	0.866656	19.795861
38527		80.081003	1.281885	19.833140
38528		80.321408	1.687658	19.858102
38529		80.483715	2.080419	19.868371
38530		80.533499	2.463166	19.871488
38531		80.499361	2.837635	19.872474
38532		80.403152	3.205095	19.871927
38533		80.258397	3.562702	19.874026
38534		80.067053	3.911210	19.873578
38535		79.869008	4.240734	19.867722
38536		79.679296	4.545447	19.864297
38537		79.488989	4.821468	19.852391
38538		79.312751	5.064347	19.835076
38539		79.168713	5.279005	19.816267
38540		79.075319	5.468884	19.799408
38541		79.029142	5.638974	19.784325
38542		79.030253	5.800144	19.773018
38543		79.076122	5.951018	19.765029
38544		79.166217	6.094126	19.758704
38545		79.250956	6.227459	19.745499
38546		79.317432	6.348013	19.722942
38547		79.361018	6.453131	19.695804
38548		79.383731	6.547022	19.666080
38549		79.390573	6.633366	19.633848
38550		79.386951	6.712742	19.601090
38551		79.395070	6.789129	19.569916
38552		79.419751	6.865012	19.543553
38553		79.451388	6.934759	19.521167
38554		79.480281	6.998376	19.498933
38555		79.496768	7.054966	19.474233
38556		79.500809	7.104737	19.456848
38557		79.480731	7.152617	19.435596
38558		79.446735	7.194359	19.415981
38559		79.405252	7.233108	19.399758
38560		79.367276	7.268658	19.389068
38561		79.341813	7.299785	19.380941
38562		79.330733	7.321320	19.372938
38563		79.332311	7.332723	19.365011
38564		79.353934	7.343122	19.361878
38565		79.374460	7.353040	19.365473
38566		79.372825	7.372694	19.367394
38567		79.351278	7.397035	19.366571
38568		79.332569	7.428020	19.370697
38569		79.314093	7.461675	19.377180
38570		79.298165	7.498885	19.380624
38571		79.274178	7.539288	19.384759
38572		79.242651	7.589468	19.387682
38573		79.213005	7.649854	19.388025
38574		79.180609	7.719482	19.386771
38575		79.150353	7.800984	19.384540
38576		79.132724	7.889295	19.382002
38577		79.117031	7.983570	19.380745
38578		79.096759	8.077189	19.368164
38579		79.077099	8.167433	19.352566
38580		79.097631	8.230256	19.342437
38581		79.109504	8.293152	19.348680
38582		79.116568	8.320272	19.338845
38583		79.122337	8.334435	19.342129
38584		79.119503	8.332053	19.343262
38585		79.123705	8.319216	19.340215
38586		79.130665	8.298685	19.344086
38587		79.098985	8.275703	19.345103
38588		79.046761	8.250415	19.344938
38589		79.001890	8.231067	19.351188
38590		78.944444	8.221951	19.365309
38591		78.873091	8.226376	19.380454
38592		78.793570	8.245353	19.393290
38593		78.728058	8.275197	19.406767
38594		78.719749	8.308549	19.425241
38595		78.735936	8.344337	19.446247
38596		78.749100	8.380490	19.455194
38597		78.768993	8.413464	19.460797
38598		78.776040	8.439814	19.461572
38599		78.770695	8.455756	19.459787
38600		78.779890	8.464773	19.456162
38601		78.805810	8.471066	19.454187
38602		78.843947	8.476092	19.450536
38603		78.896700	8.482992	19.452514
38604		78.950722	8.493658	19.451753
38605		79.005588	8.512487	19.452277
38606		79.059142	8.531061	19.450447
38607		79.115329	8.547306	19.444154
38608		79.178861	8.560683	19.440839
38609		79.228456	8.574779	19.438065
38610		79.254775	8.588406	19.432885
38611		79.274800	8.600875	19.431202
38612		79.288800	8.610879	19.433683
38613		79.291876	8.621489	19.435444
38614		79.286506	8.631551	19.439480
38615		79.280398	8.643922	19.443279
38616		79.276222	8.654910	19.447274
38617		79.276562	8.660266	19.453922
38618		79.273852	8.657849	19.459078
38619		79.252865	8.652570	19.464181
38620		79.221220	8.647603	19.473484
38621		79.192273	8.645524	19.482711
38622		79.161288	8.641395	19.488671
38623		79.142809	8.641689	19.495760
38624		79.134478	8.648083	19.502992
38625		79.124327	8.658069	19.505703
38626		79.124864	8.665269	19.509432
38627		79.134016	8.667664	19.510506
38628		79.142866	8.664814	19.511429
38629		79.145838	8.655655	19.510705
38630		79.143315	8.641185	19.508742
38631		79.143004	8.621441	19.505202
38632		79.140432	8.600490	19.507398
38633		79.129283	8.574495	19.508695
38634		79.103586	8.545172	19.502027
38635		79.048606	8.515290	19.496465
38636		78.965329	8.469642	19.484463
38637		78.856898	8.409564	19.463436
38638		78.730164	8.329835	19.453783
38639		78.569255	8.229563	19.447266
38640		78.393093	8.096876	19.423030
38641		78.235215	7.930747	19.407540
38642		78.084849	7.727677	19.400484
38643		77.940418	7.477036	19.390551
38644		77.836222	7.183222	19.379685
38645		77.778989	6.847657	19.379076
38646		77.765437	6.475208	19.384718
38647		77.788617	6.071558	19.398971
38648		77.847322	5.642205	19.422164
38649		77.927696	5.188553	19.452677
38650		78.020557	4.717705	19.488968
38651		78.119358	4.229093	19.533204
38652		78.206598	3.731222	19.582937
38653		78.281423	3.225186	19.639125
38654		78.331466	2.715734	19.698549
38655		78.363988	2.197732	19.757946
38656		78.393552	1.675883	19.821787
38657		78.409855	1.158178	19.894649
38658		78.402239	0.641411	19.966330
38659		78.366421	0.130188	20.031696
38660		78.331551	-0.373748	20.100071
38661		78.293616	-0.869106	20.174537
38662		78.257257	-1.356249	20.247444
38663		78.240825	-1.836242	20.324670
38664		78.230952	-2.311240	20.400829
38665		78.233855	-2.782899	20.476257
38666		78.254183	-3.249911	20.555874
38667		78.268422	-3.709195	20.637388
38668		78.274560	-4.161212	20.713699
38669		78.282565	-4.606475	20.786359
38670		78.288385	-5.048795	20.854646
38671		78.294292	-5.486630	20.913523
38672		78.306335	-5.920329	20.980856
38673		78.313228	-6.348349	21.060790
38674		78.314112	-6.776317	21.142204
38675		78.301977	-7.211907	21.243111
38676		78.271359	-7.671799	21.298336
38677		78.263290	-8.135235	21.371435
38678		78.247491	-8.603831	21.452759
38679		78.203871	-9.066919	21.525708
38680		78.154877	-9.518598	21.583386
38681		78.108474	-9.952577	21.643890
38682		78.058401	-10.372961	21.709812
38683		78.027643	-10.788424	21.768994
38684		78.055061	-11.199938	21.843496
38685		78.099037	-11.612619	21.943815
38686		78.162356	-12.040603	22.036195
38687		78.250748	-12.483006	22.141713
38688		78.326852	-12.938526	22.262554
38689		78.371207	-13.405135	22.381612
38690		78.366519	-13.879173	22.500490
38691		78.311970	-14.349498	22.606318
38692		78.233602	-14.817281	22.715669
38693		78.105536	-15.281020	22.827670
38694		77.937277	-15.749203	22.924090
38695		77.750195	-16.218836	23.013972
38696		77.545212	-16.694473	23.103982
38697		77.328092	-17.177497	23.187279
38698		77.114507	-17.664689	23.256872
38699		76.924365	-18.151319	23.330858
38700		76.753246	-18.630670	23.412196
38701		76.609523	-19.109696	23.486259
38702		76.529238	-19.587122	23.557265
38703		76.488820	-20.055954	23.644920
38704		76.451269	-20.526083	23.715905
38705		76.441617	-20.994432	23.774575
38706		76.445963	-21.460971	23.844262
38707		76.453907	-21.921375	23.913425
38708		76.489018	-22.385430	23.979725
38709		76.533794	-22.844292	24.059061
38710		76.600382	-23.312688	24.132924
38711		76.705984	-23.787475	24.204467
38712		76.833041	-24.264200	24.281841
38713		76.963932	-24.741156	24.356298
38714		77.112137	-25.217969	24.431519
38715		77.255241	-25.693681	24.506647
38716		77.396590	-26.170653	24.571493
38717		77.530245	-26.642071	24.643612
38718		77.657822	-27.112988	24.725096
38719		77.776286	-27.587588	24.806913
38720		77.902753	-28.073518	24.890972
38721		78.032725	-28.566963	24.986462
38722		78.165089	-29.068026	25.085576
38723		78.299677	-29.576237	25.188431
38724		78.427852	-30.090950	25.294848
38725		78.524497	-30.606841	25.399339
38726		78.583215	-31.118288	25.497387
38727		78.594592	-31.622901	25.599529
38728		78.582801	-32.121579	25.684104
38729		78.567655	-32.605637	25.792196
38730		78.516497	-33.082043	25.895951
38731		78.471354	-33.558253	25.987386
38732		78.434552	-34.027307	26.110294
38733		78.370961	-34.495138	26.247511
38734		78.302898	-34.961135	26.370468
38735		78.220309	-35.427636	26.496478
38736		78.116367	-35.882709	26.633892
38737		77.993106	-36.321280	26.789042
38738		77.832997	-36.746236	26.937600
38739		77.646882	-37.158102	27.084160
38740		77.448476	-37.555760	27.223687
38741		77.253128	-37.942162	27.364287
38742		77.046904	-38.316988	27.492385
38743		76.833018	-38.681378	27.617870
38744		76.604662	-39.038075	27.731018
38745		76.383075	-39.389950	27.840842
38746		76.187754	-39.739259	27.953171
38747		76.008291	-40.084640	28.054338
38748		75.855290	-40.427598	28.147192
38749		75.730499	-40.759845	28.285462
38750		75.593948	-41.092094	28.402246
38751		75.484425	-41.421842	28.518913
38752		75.385189	-41.747003	28.650723
38753		75.265956	-42.069205	28.783381
38754		75.143501	-42.387740	28.908430
38755		75.006178	-42.701371	29.036067
38756		74.872018	-43.020585	29.149055
38757		74.750349	-43.340826	29.269427
38758		74.635284	-43.667293	29.381413
38759		74.542008	-43.995133	29.494603
38760		74.456086	-44.325902	29.611657
38761		74.383036	-44.658928	29.732270
38762		74.314039	-44.989655	29.876833
38763		74.233802	-45.320020	30.026869
38764		74.149209	-45.647835	30.186581
38765		74.041628	-45.975991	30.357654
38766		73.911613	-46.309009	30.521943
38767		73.757824	-46.647343	30.693299
38768		73.584140	-46.993564	30.848628
38769		73.394673	-47.343375	31.010333
38770		73.175980	-47.688955	31.178267
38771		72.923634	-48.032977	31.329374
38772		72.665388	-48.374607	31.482195
38773		72.426676	-48.696178	31.669468
38774		72.198419	-49.016451	31.845886
38775		71.964036	-49.333958	32.036936
38776		71.732549	-49.654063	32.224136
38777		71.512413	-49.969990	32.425176
38778		71.283166	-50.285774	32.637935
38779		71.033315	-50.597895	32.856152
38780		70.772173	-50.911737	33.069775
38781		70.496541	-51.218608	33.306973
38782		70.193047	-51.527332	33.538662
38783		69.876633	-51.839087	33.763381
38784		69.559758	-52.156316	33.978069
38785		69.245420	-52.477752	34.198414
38786		68.922073	-52.799377	34.425548
38787		68.597487	-53.127815	34.659501
38788		68.284365	-53.469869	34.881483
38789		67.978427	-53.821122	35.113069
38790		67.680330	-54.171160	35.361872
38791		67.379762	-54.517867	35.618016
38792		67.090697	-54.853778	35.897606
38793		66.778921	-55.179977	36.206816
38794		66.461039	-55.513443	36.486556
38795		66.172030	-55.852491	36.773412
38796		65.874977	-56.177937	37.103767
38797		65.532088	-56.506081	37.427888
38798		65.184719	-56.845029	37.727605
38799		64.832500	-57.173681	38.050432
38800		64.450348	-57.487718	38.376957
38801		64.044301	-57.789376	38.697715
38802		63.625206	-58.077315	39.028563
38803		63.209490	-58.354051	39.356435
38804		62.789374	-58.615580	39.719077
38805		62.366763	-58.888499	40.039820
38806		61.952126	-59.169712	40.352892
38807		61.527515	-59.438991	40.685886
38808		61.103400	-59.699043	41.024613
38809		60.689967	-59.944142	41.366122
38810		60.287110	-60.178336	41.702556
38811		59.891324	-60.401262	42.047128
38812		59.509922	-60.621822	42.385357
38813		59.128623	-60.835678	42.733183
38814		58.748318	-61.045545	43.071169
38815		58.354047	-61.250535	43.410381
38816		57.940787	-61.454973	43.734908
38817		57.515737	-61.657331	44.056362
38818		57.097787	-61.844326	44.386252
38819		56.695522	-62.020769	44.736466
38820		56.294311	-62.192566	45.069082
38821		55.866160	-62.363834	45.399603
38822		55.408301	-62.542492	45.708602
38823		54.959462	-62.727231	46.011909
38824		54.498743	-62.918110	46.316948
38825		54.018333	-63.117325	46.637163
38826		53.514283	-63.317374	46.994456
38827		52.969035	-63.522210	47.380810
38828		52.422211	-63.742353	47.776132
38829		51.855795	-63.955690	48.236994
38830		51.261021	-64.179133	48.696462
38831		50.651871	-64.407883	49.177647
38832		50.006864	-64.647390	49.658890
38833		49.348602	-64.906945	50.120112
38834		48.673179	-65.176131	50.587468
38835		47.986780	-65.443654	51.083721
38836		47.302978	-65.713673	51.575605
38837		46.634871	-65.964791	52.100451
38838		45.975829	-66.206940	52.628028
38839		45.329638	-66.448828	53.157766
38840		44.657018	-66.691875	53.700075
38841		43.955895	-66.941999	54.228607
38842		43.246332	-67.189577	54.770654
38843		42.504825	-67.435109	55.324421
38844		41.739658	-67.690194	55.870663
38845		40.979851	-67.938276	56.419709
38846		40.247232	-68.169134	56.983678
38847		39.541926	-68.395856	57.551772
38848		38.859699	-68.617605	58.117458
38849		38.194629	-68.825499	58.688004
38850		37.545806	-69.027531	59.238718
38851		36.933707	-69.213316	59.777984
38852		36.350220	-69.386802	60.288841
38853		35.757324	-69.550130	60.787869
38854		35.148085	-69.712371	61.270260
38855		34.532305	-69.864436	61.764907
38856		33.901984	-70.008390	62.269348
38857		33.252924	-70.153709	62.779965
38858		32.594394	-70.289173	63.304770
38859		31.921678	-70.412024	63.845080
38860		31.266891	-70.525731	64.375611
38861		30.608326	-70.626062	64.918981
38862		29.927713	-70.741179	65.433174
38863		29.231190	-70.850621	65.961449
38864		28.512099	-70.959703	66.490008
38865		27.783140	-71.072951	67.016855
38866		27.061278	-71.186623	67.540929
38867		26.357669	-71.289110	68.073468
38868		25.702276	-71.384405	68.581795
38869		25.084213	-71.473647	69.081861
38870		24.470863	-71.563939	69.576836
38871		23.849803	-71.652751	70.080385
38872		23.222943	-71.745230	70.586500
38873		22.588389	-71.836579	71.115990
38874		21.959230	-71.916197	71.650339
38875		21.399228	-71.973422	72.160461
38876		20.894498	-72.019090	72.652272
38877		20.360560	-72.071298	73.116190
38878		19.791975	-72.130105	73.554685
38879		19.220164	-72.184373	73.989915
38880		18.633991	-72.243572	74.409838
38881		18.037264	-72.304004	74.817991
38882		17.471409	-72.352463	75.205659
38883		16.936911	-72.396798	75.578033
38884		16.484569	-72.430423	75.911150
38885		16.101146	-72.458100	76.212093
38886		15.750247	-72.497195	76.469239
38887		15.423085	-72.531922	76.731285
38888		15.115195	-72.570797	76.975923
38889		14.817840	-72.610299	77.214428
38890		14.547711	-72.643951	77.431724
38891		14.294238	-72.674062	77.627368
38892		14.071553	-72.700447	77.787345
38893		13.888314	-72.721447	77.916064
38894		13.727781	-72.745256	78.011183
38895		13.602050	-72.769180	78.076338
38896		13.508134	-72.786158	78.118549
38897		13.409258	-72.807834	78.144334
38898		13.323940	-72.827751	78.158807
38899		13.255421	-72.834523	78.189109
38900		13.191484	-72.838601	78.209156
38901		13.151730	-72.836062	78.215325
38902		13.136978	-72.822062	78.207572
38903		13.108762	-72.814689	78.194477
38904		13.078074	-72.808753	78.181467
38905		13.034407	-72.808507	78.187209
38906		12.973123	-72.817308	78.212979
38907		12.894225	-72.834377	78.268246
38908		12.790974	-72.857058	78.347743
38909		12.683639	-72.879813	78.446296
38910		12.584415	-72.906803	78.547067
38911		12.489132	-72.934945	78.640150
38912		12.414362	-72.960049	78.710600
38913		12.371692	-72.985255	78.766448
38914		12.361386	-73.007427	78.801533
38915		12.347576	-73.032672	78.815111
38916		12.343261	-73.055913	78.829477
38917		12.351694	-73.068627	78.847701
38918		12.362106	-73.079053	78.843514
38919		12.372947	-73.085724	78.835272
38920		12.420681	-73.084030	78.792933
38921		12.489587	-73.078836	78.723063
38922		12.588391	-73.080504	78.610786
38923		12.710404	-73.078767	78.479853
38924		12.852457	-73.076653	78.312199
38925		13.014073	-73.071791	78.124634
38926		13.197150	-73.064766	77.910868
38927		13.395384	-73.053005	77.688643
38928		13.616648	-73.039569	77.437763
38929		13.856729	-73.022214	77.170337
38930		14.098481	-73.009778	76.879860
38931		14.349402	-73.003945	76.576751
38932		14.622391	-72.998971	76.260779
38933		14.913813	-72.998120	75.938289
38934		15.243299	-72.999736	75.587770
38935		15.598435	-73.001234	75.227857
38936		15.979918	-73.004664	74.829745
38937		16.383515	-73.005819	74.409472
38938		16.818634	-73.003172	73.960698
38939		17.264703	-73.000321	73.510039
38940		17.745826	-72.995607	73.031094
38941		18.248852	-72.987028	72.544861
38942		18.793804	-72.971309	72.029485
38943		19.372804	-72.952370	71.483810
38944		19.995009	-72.925219	70.901200
38945		20.646195	-72.893267	70.288045
38946		21.327317	-72.849747	69.643260
38947		22.027900	-72.799609	68.969703
38948		22.758094	-72.740575	68.264618
38949		23.505249	-72.667642	67.533218
38950		24.272943	-72.592331	66.759038
38951		25.075461	-72.506684	65.962621
38952		25.898448	-72.420154	65.132606
38953		26.748921	-72.330666	64.291113
38954		27.649136	-72.227903	63.442985
38955		28.580487	-72.114576	62.610804
38956		29.564210	-71.980819	61.770280
38957		30.606682	-71.825332	60.929515
38958		31.700902	-71.655011	60.051528
38959		32.823320	-71.473651	59.155611
38960		33.992159	-71.272968	58.234972
38961		35.185668	-71.054781	57.303730
38962		36.403978	-70.817808	56.361393
38963		37.652121	-70.545079	55.442068
38964		38.884843	-70.248008	54.522851
38965		40.039825	-69.957283	53.570440
38966		41.117192	-69.656373	52.626599
38967		42.064557	-69.367048	51.667000
38968		42.862925	-69.104878	50.671250
38969		43.587115	-68.852512	49.703659
38970		44.290993	-68.600188	48.761577
38971		45.003977	-68.341134	47.853975
38972		45.748942	-68.066297	46.985159
38973		46.549484	-67.773118	46.159295
38974		47.376787	-67.473319	45.340131
38975		48.232987	-67.168424	44.537071
38976		49.111833	-66.854387	43.747577
38977		50.001599	-66.530508	42.983407
38978		50.910430	-66.196780	42.230841
38979		51.835391	-65.844043	41.517204
38980		52.791747	-65.464990	40.827206
38981		53.757764	-65.050252	40.186123
38982		54.728875	-64.601051	39.559461
38983		55.651435	-64.142526	38.914722
38984		56.515493	-63.674623	38.266215
38985		57.312770	-63.204163	37.630666
38986		58.018557	-62.739951	36.980888
38987		58.663956	-62.277200	36.343660
38988		59.296031	-61.805476	35.719331
38989		59.904726	-61.320276	35.103457
38990		60.490294	-60.814349	34.484473
38991		61.064197	-60.287995	33.880461
38992		61.650496	-59.740405	33.280210
38993		62.230199	-59.199536	32.690100
38994		62.787496	-58.657657	32.115247
38995		63.318659	-58.110549	31.605913
38996		63.839544	-57.553866	31.122599
38997		64.346320	-56.988035	30.680371
38998		64.849097	-56.406002	30.266394
38999		65.349899	-55.810307	29.867327
39000		65.842058	-55.187253	29.505598
39001		66.292706	-54.574096	29.137389
39002		66.706444	-53.968049	28.762106
39003		67.114463	-53.345061	28.441913
39004		67.500196	-52.717543	28.128697
39005		67.874094	-52.079459	27.834889
39006		68.235942	-51.420068	27.575041
39007		68.568093	-50.757306	27.319082
39008		68.844812	-50.109327	27.024432
39009		69.078174	-49.459621	26.741067
39010		69.297083	-48.803849	26.453964
39011		69.523591	-48.139092	26.181315
39012		69.755445	-47.457667	25.936192
39013		69.998739	-46.761151	25.722309
39014		70.265048	-46.036376	25.542096
39015		70.539214	-45.320695	25.355799
39016		70.781825	-44.608773	25.166665
39017		70.990160	-43.905434	24.986219
39018		71.155489	-43.202243	24.798044
39019		71.301378	-42.498607	24.621661
39020		71.455312	-41.779509	24.467017
39021		71.604929	-41.050592	24.330083
39022		71.775112	-40.305068	24.204995
39023		71.963291	-39.551232	24.108990
39024		72.151628	-38.810026	23.991708
39025		72.372059	-38.076880	23.900770
39026		72.617824	-37.338998	23.834341
39027		72.889938	-36.596203	23.780695
39028		73.194005	-35.834912	23.753865
39029		73.521292	-35.059525	23.736910
39030		73.826620	-34.277692	23.701756
39031		74.102034	-33.490996	23.666136
39032		74.373434	-32.679465	23.652665
39033		74.637805	-31.856368	23.662169
39034		74.840089	-31.048497	23.651555
39035		74.947995	-30.262005	23.620651
39036		74.995813	-29.490342	23.581452
39037		74.977201	-28.729023	23.542754
39038		74.887670	-27.978071	23.493070
39039		74.748252	-27.243103	23.426476
39040		74.618227	-26.511059	23.369742
39041		74.482261	-25.780404	23.333035
39042		74.334341	-25.060993	23.279320
39043		74.225924	-24.354753	23.219441
39044		74.174652	-23.652300	23.178921
39045		74.137296	-22.962540	23.144568
39046		74.136826	-22.282004	23.133875
39047		74.177709	-21.630034	23.122221
39048		74.342141	-21.009032	23.110452
39049		74.647912	-20.414571	23.111111
39050		75.057438	-19.835616	23.101219
39051		75.540910	-19.260013	23.086967
39052		76.057114	-18.684731	23.069253
39053		76.566930	-18.114625	23.040677
39054		77.028604	-17.556252	22.995134
39055		77.407837	-17.016207	22.929222
39056		77.733896	-16.494172	22.860488
39057		77.983423	-15.985067	22.786953
39058		78.152735	-15.492514	22.707711
39059		78.272175	-15.013894	22.624734
39060		78.385627	-14.548878	22.544401
39061		78.524379	-14.092879	22.474343
39062		78.745729	-13.644042	22.417734
39063		79.037645	-13.200784	22.366243
39064		79.378369	-12.765191	22.314307
39065		79.751924	-12.337371	22.266270
39066		80.132678	-11.912337	22.228060
39067		80.494397	-11.502674	22.190522
39068		80.795557	-11.108975	22.138385
39069		81.029106	-10.732693	22.079169
39070		81.183107	-10.365054	22.023836
39071		81.264235	-10.006233	21.959371
39072		81.273397	-9.653246	21.898282
39073		81.197537	-9.305231	21.827125
39074		81.081444	-8.959950	21.753808
39075		80.976408	-8.622434	21.694509
39076		80.923070	-8.288052	21.649107
39077		80.928621	-7.959388	21.612154
39078		80.979461	-7.637424	21.574913
39079		81.049602	-7.322331	21.537437
39080		81.129335	-7.014470	21.492790
39081		81.210035	-6.710043	21.444069
39082		81.284708	-6.405247	21.388897
39083		81.352480	-6.101744	21.330507
39084		81.412926	-5.791349	21.275351
39085		81.450731	-5.470776	21.221626
39086		81.462035	-5.137704	21.170045
39087		81.431426	-4.801982	21.114776
39088		81.384792	-4.465806	21.057862
39089		81.351677	-4.132685	21.005118
39090		81.351469	-3.795025	20.957474
39091		81.376897	-3.452423	20.918746
39092		81.432843	-3.107883	20.875177
39093		81.529190	-2.757828	20.841677
39094		81.631958	-2.404426	20.806192
39095		81.707422	-2.047348	20.762168
39096		81.761646	-1.694702	20.715663
39097		81.776853	-1.342416	20.658968
39098		81.766625	-0.992009	20.602989
39099		81.754565	-0.636264	20.553042
39100		81.743531	-0.281838	20.501507
39101		81.740623	0.070068	20.445654
39102		81.772758	0.409962	20.399823
39103		81.820508	0.737686	20.339889
39104		81.910130	1.044130	20.268688
39105		82.014292	1.335934	20.199990
39106		82.101788	1.615239	20.127335
39107		82.154241	1.892126	20.047312
39108		82.173427	2.161587	19.967488
39109		82.154622	2.428783	19.890569
39110		82.111157	2.689138	19.810202
39111		82.050677	2.942258	19.724287
39112		82.001462	3.184599	19.637543
39113		81.979244	3.414079	19.557279
39114		81.977827	3.631608	19.479385
39115		81.999175	3.839496	19.406649
39116		82.034324	4.041434	19.351574
39117		82.064833	4.238566	19.301716
39118		82.081117	4.437225	19.260763
39119		82.075681	4.638347	19.222318
39120		82.052992	4.842114	19.190182
39121		82.010397	5.042936	19.152661
39122		81.990345	5.235064	19.109494
39123		82.032158	5.423789	19.079755
39124		82.125761	5.601127	19.058832
39125		82.239860	5.777408	19.037521
39126		82.373734	5.948008	19.020547
39127		82.496723	6.115722	18.994577
39128		82.595096	6.279200	18.965625
39129		82.634826	6.436236	18.933821
39130		82.612177	6.578458	18.888474
39131		82.566521	6.701482	18.841811
39132		82.516649	6.808294	18.796961
39133		82.464969	6.910915	18.752631
39134		82.432008	7.008123	18.714778
39135		82.425148	7.103822	18.678610
39136		82.446513	7.196325	18.638158
39137		82.485744	7.288388	18.595968
39138		82.528978	7.380624	18.548389
39139		82.585823	7.472524	18.500658
39140		82.652227	7.570274	18.458629
39141		82.720636	7.665542	18.421014
39142		82.783648	7.761745	18.382800
39143		82.835229	7.862775	18.351277
39144		82.866556	7.965062	18.323467
39145		82.860779	8.070690	18.288560
39146		82.838239	8.179551	18.252928
39147		82.806808	8.296876	18.221420
39148		82.752349	8.424226	18.190475
39149		82.701610	8.528861	18.161541
39150		82.793477	8.573790	18.178530
39151		82.926416	8.606378	18.227130
39152		82.945084	8.587460	18.248928
39153		82.835229	8.540739	18.225282
39154		82.743416	8.484288	18.205716
39155		82.661343	8.433565	18.202601
39156		82.525085	8.388883	18.179369
39157		82.427770	8.355847	18.156738
39158		82.371940	8.350950	18.143534
39159		82.300649	8.374090	18.122425
39160		82.275791	8.408813	18.102617
39161		82.356288	8.445712	18.099878
39162		82.468806	8.483620	18.092789
39163		82.564242	8.505666	18.080528
39164		82.659652	8.513983	18.067336
39165		82.725248	8.507435	18.053601
39166		82.787791	8.498263	18.049490
39167		82.837002	8.491788	18.045003
39168		82.860199	8.491591	18.040209
39169		82.851257	8.503237	18.036653
39170		82.833526	8.519335	18.032489
39171		82.815989	8.540090	18.030599
39172		82.783670	8.555723	18.036595
39173		82.726490	8.566663	18.042048
39174		82.649805	8.565185	18.042351
39175		82.571567	8.558800	18.051953
39176		82.491142	8.552042	18.067433
39177		82.403542	8.541776	18.079294
39178		82.325253	8.530580	18.094726
39179		82.251314	8.509896	18.114613
39180		82.173800	8.485978	18.125716
39181		82.103150	8.451138	18.134382
39182		82.040724	8.406767	18.150395
39183		81.978091	8.347072	18.170486
39184		81.867618	8.275466	18.184975
39185		81.683412	8.180323	18.188694
39186		81.439411	8.058122	18.178665
39187		81.153302	7.903894	18.164783
39188		80.807478	7.718044	18.147700
39189		80.411764	7.501095	18.122507
39190		80.025730	7.256340	18.101933
39191		79.697165	6.983336	18.095376
39192		79.427872	6.686149	18.099254
39193		79.222028	6.364715	18.110238
39194		79.093938	6.017729	18.122232
39195		79.046439	5.646619	18.150240
39196		79.037334	5.256700	18.180669
39197		79.052807	4.847537	18.213781
39198		79.092666	4.422656	18.248789
39199		79.140357	3.989044	18.287585
39200		79.182656	3.551119	18.332666
39201		79.204167	3.109417	18.386218
39202		79.204773	2.658689	18.437537
39203		79.179089	2.198574	18.491264
39204		79.131256	1.724693	18.550552
39205		79.075910	1.234895	18.612227
39206		79.022903	0.734752	18.685071
39207		78.973183	0.227993	18.774076
39208		78.943672	-0.288467	18.865693
39209		78.962943	-0.805133	18.972626
39210		78.989158	-1.319837	19.091139
39211		79.029831	-1.833401	19.204444
39212		79.085818	-2.355715	19.314072
39213		79.130227	-2.881150	19.415825
39214		79.161556	-3.415269	19.515746
39215		79.192477	-3.961134	19.618877
39216		79.230938	-4.519813	19.719459
39217		79.276235	-5.092162	19.826472
39218		79.329287	-5.673999	19.937160
39219		79.399424	-6.260484	20.055430
39220		79.468429	-6.847284	20.178439
39221		79.513200	-7.433397	20.297243
39222		79.538389	-8.021731	20.417965
39223		79.547927	-8.609640	20.538234
39224		79.553899	-9.200463	20.649154
39225		79.557248	-9.792948	20.759164
39226		79.569180	-10.383851	20.867949
39227		79.605559	-10.971637	20.994324
39228		79.641912	-11.559315	21.119098
39229		79.686904	-12.152070	21.236177
39230		79.739861	-12.752239	21.355492
39231		79.786654	-13.359049	21.476268
39232		79.833926	-13.973536	21.594688
39233		79.876226	-14.587887	21.721590
39234		79.891228	-15.202811	21.854801
39235		79.889603	-15.818827	21.984843
39236		79.891510	-16.439484	22.117684
39237		79.881062	-17.059689	22.253463
39238		79.865278	-17.687086	22.386585
39239		79.853910	-18.318292	22.515410
39240		79.851050	-18.953758	22.641366
39241		79.851267	-19.587408	22.771788
39242		79.847704	-20.215907	22.905721
39243		79.854494	-20.840410	23.044236
39244		79.859601	-21.461735	23.184299
39245		79.870830	-22.086733	23.333281
39246		79.884037	-22.713726	23.477144
39247		79.894516	-23.345892	23.609538
39248		79.907449	-23.984079	23.745307
39249		79.918083	-24.620293	23.892971
39250		79.928407	-25.258035	24.036015
39251		79.933139	-25.899804	24.202673
39252		79.913267	-26.547580	24.359222
39253		79.893570	-27.202956	24.512281
39254		79.863356	-27.862910	24.667190
39255		79.809382	-28.527229	24.820722
39256		79.731887	-29.193816	24.961933
39257		79.658692	-29.852707	25.127871
39258		79.577421	-30.503657	25.303706
39259		79.467288	-31.147653	25.480469
39260		79.328850	-31.789961	25.660164
39261		79.180148	-32.436097	25.840133
39262		79.037376	-33.092800	26.003006
39263		78.913640	-33.754173	26.184148
39264		78.789857	-34.421563	26.368474
39265		78.676973	-35.092092	26.555079
39266		78.568183	-35.759105	26.746037
39267		78.451963	-36.427196	26.927123
39268		78.351241	-37.088965	27.104360
39269		78.240906	-37.728736	27.316700
39270		78.129521	-38.359497	27.524186
39271		77.997031	-38.987205	27.751264
39272		77.862261	-39.620924	27.961566
39273		77.730950	-40.261732	28.184490
39274		77.599582	-40.911589	28.403404
39275		77.467364	-41.571125	28.616962
39276		77.341148	-42.222161	28.852170
39277		77.187520	-42.857519	29.108677
39278		77.000706	-43.482362	29.348992
39279		76.785507	-44.092707	29.594859
39280		76.573210	-44.686152	29.844229
39281		76.341927	-45.265662	30.098410
39282		76.090884	-45.839269	30.326483
39283		75.854830	-46.402438	30.564149
39284		75.593822	-46.944346	30.849428
39285		75.290806	-47.487903	31.092864
39286		75.040084	-48.030136	31.336766
39287		74.780260	-48.561768	31.602346
39288		74.494335	-49.093716	31.844861
39289		74.209541	-49.614736	32.088379
39290		73.922697	-50.112585	32.374922
39291		73.599434	-50.598291	32.642986
39292		73.292589	-51.079324	32.897923
39293		72.987921	-51.533403	33.196224
39294		72.651986	-51.978019	33.491100
39295		72.308796	-52.411522	33.792218
39296		71.952100	-52.843091	34.088356
39297		71.592521	-53.270089	34.401865
39298		71.222138	-53.698114	34.726949
39299		70.854221	-54.119992	35.063041
39300		70.459167	-54.536275	35.436993
39301		70.059964	-54.964923	35.792299
39302		69.663542	-55.399571	36.142621
39303		69.263193	-55.821973	36.542571
39304		68.856491	-56.226918	36.997750
39305		68.410930	-56.633740	37.461667
39306		67.936955	-57.048729	37.927648
39307		67.461048	-57.461890	38.415649
39308		66.945495	-57.873866	38.934405
39309		66.376136	-58.288487	39.428258
39310		65.778423	-58.695646	39.946957
39311		65.135042	-59.094788	40.469558
39312		64.447894	-59.495055	40.984148
39313		63.725731	-59.890521	41.510045
39314		62.983327	-60.270408	42.061719
39315		62.207568	-60.646970	42.617267
39316		61.400132	-61.020379	43.184388
39317		60.586075	-61.401430	43.767287
39318		59.776057	-61.790971	44.369562
39319		59.005892	-62.191279	44.979178
39320		58.319035	-62.571659	45.643268
39321		57.695685	-62.912599	46.379801
39322		57.063818	-63.241361	47.122245
39323		56.370136	-63.572148	47.827278
39324		55.664604	-63.905723	48.498820
39325		54.954518	-64.208702	49.219890
39326		54.177872	-64.517051	49.898763
39327		53.371391	-64.821294	50.546109
39328		52.530910	-65.107725	51.227711
39329		51.676905	-65.404306	51.881407
39330		50.845678	-65.694047	52.541822
39331		50.041759	-65.961122	53.228537
39332		49.264020	-66.232883	53.881003
39333		48.490977	-66.484224	54.571237
39334		47.709573	-66.746017	55.218472
39335		46.949809	-67.010298	55.847714
39336		46.189430	-67.261845	56.506895
39337		45.400609	-67.523216	57.148453
39338		44.595046	-67.790800	57.806171
39339		43.785748	-68.043981	58.466810
39340		42.968736	-68.298342	59.135705
39341		42.200830	-68.536550	59.800857
39342		41.470262	-68.750546	60.477523
39343		40.726216	-68.963785	61.123122
39344		40.000754	-69.164008	61.759112
39345		39.274936	-69.354460	62.399927
39346		38.556780	-69.545313	63.023113
39347		37.841734	-69.718012	63.663797
39348		37.117127	-69.887318	64.298228
39349		36.383480	-70.053083	64.944346
39350		35.662725	-70.195372	65.617014
39351		34.919664	-70.352040	66.261015
39352		34.184045	-70.504320	66.917251
39353		33.456011	-70.634260	67.607347
39354		32.704660	-70.779653	68.254237
39355		31.951765	-70.928903	68.907078
39356		31.215167	-71.066522	69.569778
39357		30.456037	-71.207543	70.234698
39358		29.711806	-71.339985	70.904924
39359		28.960997	-71.467885	71.578176
39360		28.185367	-71.603784	72.247749
39361		27.400780	-71.725330	72.947961
39362		26.609522	-71.845721	73.653760
39363		25.816923	-71.966412	74.371510
39364		25.007701	-72.073858	75.116620
39365		24.187814	-72.188676	75.838272
39366		23.358192	-72.299715	76.562300
39367		22.521939	-72.402310	77.306408
39368		21.670117	-72.510205	78.039421
39369		20.865324	-72.600242	78.756982
39370		20.144003	-72.670735	79.445114
39371		19.408034	-72.753106	80.097673
39372		18.715869	-72.821625	80.731538
39373		18.054815	-72.879372	81.331746
39374		17.392438	-72.935575	81.882797
39375		16.763229	-72.977947	82.415750
39376		16.154415	-73.024317	82.912660
39377		15.555648	-73.069754	83.400436
39378		14.975208	-73.107900	83.892512
39379		14.403523	-73.150412	84.385395
39380		13.902154	-73.191359	84.844457
39381		13.564288	-73.209162	85.243466
39382		13.292234	-73.237539	85.587026
39383		13.060100	-73.267482	85.897135
39384		12.855530	-73.293795	86.162434
39385		12.669425	-73.324876	86.380361
39386		12.505701	-73.347242	86.570226
39387		12.320991	-73.361877	86.747602
39388		12.068617	-73.391929	86.917934
39389		11.789537	-73.413688	87.115371
39390		11.465649	-73.428384	87.328746
39391		11.092660	-73.458357	87.560872
39392		10.753800	-73.483239	87.803058
39393		10.470411	-73.493651	88.052288
39394		10.205076	-73.514696	88.284865
39395		9.996372	-73.527556	88.521885
39396		9.876468	-73.533644	88.717313
39397		9.790626	-73.537790	88.882729
39398		9.741496	-73.538889	89.014350
39399		9.698989	-73.540562	89.115602
39400		9.600114	-73.560360	89.197471
39401		9.489807	-73.577271	89.282101
39402		9.364751	-73.593509	89.354226
39403		9.228533	-73.612725	89.413952
39404		9.125577	-73.627704	89.452435
39405		9.102896	-73.629711	89.466529
39406		9.127062	-73.620370	89.445965
39407		9.200608	-73.606685	89.402763
39408		9.301114	-73.593676	89.332944
39409		9.381809	-73.586548	89.263544
39410		9.451845	-73.579170	89.198564
39411		9.506244	-73.572145	89.144703
39412		9.548545	-73.569469	89.093734
39413		9.579683	-73.564402	89.065389
39414		9.619182	-73.553025	89.040643
39415		9.649445	-73.545856	89.021007
39416		9.670656	-73.543248	89.003085
39417		9.676272	-73.540659	88.995300
39418		9.660041	-73.545477	88.988202
39419		9.632719	-73.551448	89.001579
39420		9.623351	-73.557104	88.997353
39421		9.620728	-73.563415	88.981677
39422		9.673389	-73.566486	88.932640
39423		9.730255	-73.564341	88.867377
39424		9.804048	-73.568523	88.769603
39425		9.903648	-73.567598	88.660792
39426		10.003628	-73.567665	88.535915
39427		10.106023	-73.576097	88.397349
39428		10.216548	-73.588439	88.250226
39429		10.326158	-73.604521	88.091173
39430		10.459619	-73.619244	87.921752
39431		10.615491	-73.629972	87.754761
39432		10.791528	-73.633349	87.581292
39433		10.969579	-73.633686	87.404342
39434		11.142249	-73.634036	87.218597
39435		11.295567	-73.636561	87.021522
39436		11.443724	-73.641876	86.811223
39437		11.584404	-73.647431	86.595504
39438		11.753188	-73.657305	86.351834
39439		11.948721	-73.661894	86.113024
39440		12.179173	-73.666939	85.853892
39441		12.432507	-73.666359	85.583240
39442		12.705031	-73.660895	85.298142
39443		13.006469	-73.653348	84.977942
39444		13.309822	-73.644150	84.643633
39445		13.626902	-73.633632	84.285922
39446		13.948457	-73.625719	83.909715
39447		14.281043	-73.615715	83.533661
39448		14.633374	-73.603035	83.162173
39449		15.004337	-73.586672	82.795922
39450		15.412310	-73.558526	82.424493
39451		15.866556	-73.519957	82.040816
39452		16.387206	-73.465568	81.614169
39453		16.944596	-73.399356	81.154475
39454		17.557236	-73.325946	80.624247
39455		18.218952	-73.237978	80.058779
39456		18.938780	-73.138130	79.432891
39457		19.689350	-73.020748	78.772359
39458		20.471694	-72.898244	78.069520
39459		21.255915	-72.767326	77.347007
39460		22.044415	-72.623049	76.605904
39461		22.811514	-72.475381	75.849767
39462		23.548441	-72.333313	75.064083
39463		24.262873	-72.188654	74.282721
39464		24.964725	-72.047124	73.484384
39465		25.642494	-71.915297	72.700898
39466		26.336219	-71.782678	71.922010
39467		27.039105	-71.641788	71.164711
39468		27.756825	-71.510484	70.402245
39469		28.489967	-71.375697	69.662096
39470		29.240194	-71.238458	68.923949
39471		29.975696	-71.104812	68.214843
39472		30.665279	-70.990476	67.510665
39473		31.305267	-70.885174	66.836927
39474		31.926291	-70.783300	66.189144
39475		32.537534	-70.683043	65.558404
39476		33.139795	-70.582216	64.939614
39477		33.753486	-70.479672	64.323758
39478		34.377821	-70.363959	63.721542
39479		34.978016	-70.258188	63.112702
39480		35.542730	-70.164972	62.509948
39481		36.088703	-70.070135	61.947676
39482		36.620432	-69.980918	61.388104
39483		37.132157	-69.895556	60.853260
39484		37.674523	-69.802853	60.318565
39485		38.224874	-69.701798	59.796221
39486		38.794979	-69.590938	59.252226
39487		39.376051	-69.483152	58.676599
39488		39.977293	-69.370388	58.086010
39489		40.574588	-69.252868	57.497182
39490		41.181499	-69.130036	56.903806
39491		41.793140	-69.001631	56.315568
39492		42.433979	-68.860481	55.714005
39493		43.101661	-68.705066	55.112036
39494		43.789470	-68.521413	54.500837
39495		44.480096	-68.309342	53.901798
39496		45.166490	-68.083714	53.288030
39497		45.840993	-67.853535	52.676801
39498		46.510721	-67.606714	52.102854
39499		47.156433	-67.346585	51.561700
39500		47.790230	-67.084664	51.015930
39501		48.402305	-66.812585	50.496979
39502		49.020686	-66.527325	49.971728
39503		49.633985	-66.231126	49.445095
39504		50.256532	-65.916059	48.907534
39505		50.867269	-65.574649	48.388434
39506		51.482719	-65.223593	47.846815
39507		52.074212	-64.869001	47.319604
39508		52.635914	-64.519526	46.792675
39509		53.162339	-64.173738	46.279410
39510		53.684766	-63.828162	45.782067
39511		54.189017	-63.479154	45.308990
39512		54.691469	-63.118044	44.839693
39513		55.202212	-62.734199	44.389872
39514		55.723529	-62.339887	43.927735
39515		56.201067	-61.965639	43.436569
39516		56.657960	-61.593421	42.948084
39517		57.108922	-61.212323	42.477334
39518		57.562269	-60.825865	42.017481
39519		58.026906	-60.425582	41.582471
39520		58.508483	-60.009662	41.146866
39521		59.010587	-59.565196	40.749637
39522		59.538736	-59.105430	40.356823
39523		60.021819	-58.693872	39.917159
39524		60.455921	-58.301304	39.463649
39525		60.867700	-57.919520	39.033973
39526		61.260073	-57.546315	38.610348
39527		61.643749	-57.177561	38.203195
39528		62.011621	-56.808498	37.811369
39529		62.382144	-56.438597	37.435978
39530		62.765459	-56.053901	37.109658
39531		63.141725	-55.659373	36.807690
39532		63.494980	-55.283818	36.490846
39533		63.824374	-54.929766	36.180634
39534		64.146911	-54.587394	35.883448
39535		64.437730	-54.254257	35.608268
39536		64.711018	-53.923820	35.337207
39537		64.978948	-53.586152	35.101042
39538		65.243621	-53.235379	34.894399
39539		65.493297	-52.887838	34.667338
39540		65.747334	-52.540823	34.434509
39541		65.987048	-52.186147	34.238345
39542		66.206217	-51.834082	34.031751
39543		66.410865	-51.487614	33.824561
39544		66.621173	-51.134188	33.621791
39545		66.817425	-50.774446	33.416878
39546		67.011065	-50.397979	33.218157
39547		67.185797	-50.008892	33.025120
39548		67.375578	-49.627536	32.805669
39549		67.608466	-49.242118	32.620318
39550		67.853362	-48.847673	32.451812
39551		68.083731	-48.460269	32.280321
39552		68.328829	-48.068338	32.113033
39553		68.576418	-47.667490	31.968329
39554		68.806139	-47.260218	31.809947
39555		69.022735	-46.847259	31.646758
39556		69.241033	-46.417980	31.494641
39557		69.429525	-45.974757	31.352822
39558		69.615172	-45.527051	31.201976
39559		69.811739	-45.070288	31.069868
39560		70.011091	-44.608482	30.935442
39561		70.187167	-44.153055	30.794297
39562		70.358852	-43.692049	30.653881
39563		70.510857	-43.221871	30.509511
39564		70.657226	-42.741993	30.370513
39565		70.802196	-42.246160	30.256134
39566		70.960925	-41.730265	30.149543
39567		71.128292	-41.219236	30.032201
39568		71.263221	-40.714009	29.904716
39569		71.378331	-40.220605	29.781493
39570		71.498996	-39.732726	29.654704
39571		71.610244	-39.242009	29.530598
39572		71.713760	-38.747300	29.411400
39573		71.811629	-38.238397	29.309630
39574		71.925144	-37.716443	29.212716
39575		72.019865	-37.209734	29.097383
39576		72.087905	-36.710593	28.960876
39577		72.150513	-36.211971	28.851021
39578		72.202733	-35.724492	28.728204
39579		72.248091	-35.246379	28.606844
39580		72.289856	-34.774663	28.496404
39581		72.330474	-34.305539	28.396071
39582		72.368703	-33.838403	28.301519
39583		72.395621	-33.372340	28.219053
39584		72.411441	-32.919250	28.109640
39585		72.458262	-32.476588	27.996911
39586		72.529722	-32.034971	27.889391
39587		72.614352	-31.590817	27.798027
39588		72.710302	-31.145083	27.704626
39589		72.799072	-30.702313	27.610163
39590		72.889578	-30.266531	27.500765
39591		72.997512	-29.834531	27.393694
39592		73.110981	-29.400069	27.287868
39593		73.216663	-28.964543	27.176771
39594		73.347675	-28.523228	27.061809
39595		73.489875	-28.072262	26.969079
39596		73.639548	-27.620286	26.870285
39597		73.804232	-27.165963	26.776605
39598		73.967747	-26.712133	26.685301
39599		74.101317	-26.268781	26.583241
39600		74.191027	-25.836516	26.470654
39601		74.224062	-25.417890	26.349293
39602		74.251397	-25.009905	26.210975
39603		74.300130	-24.604484	26.092028
39604		74.361233	-24.199114	25.968271
39605		74.441150	-23.789904	25.855886
39606		74.549894	-23.370911	25.753015
39607		74.654370	-22.946776	25.654513
39608		74.755437	-22.522408	25.554954
39609		74.834141	-22.096311	25.452986
39610		74.862170	-21.680969	25.332276
39611		74.882801	-21.278305	25.211907
39612		74.924344	-20.884167	25.098067
39613		74.972770	-20.495502	24.997402
39614		75.031764	-20.111477	24.909170
39615		75.072906	-19.726897	24.825963
39616		75.094218	-19.347410	24.730603
39617		75.107976	-18.971035	24.636547
39618		75.106640	-18.597128	24.538322
39619		75.076644	-18.218252	24.440553
39620		75.027663	-17.836959	24.337501
39621		74.974063	-17.446698	24.246669
39622		74.927660	-17.056597	24.155459
39623		74.903295	-16.668597	24.072226
39624		74.887286	-16.287159	23.990371
39625		74.872509	-15.914744	23.905077
39626		74.868248	-15.550023	23.815222
39627		74.861875	-15.187012	23.731443
39628		74.871291	-14.822460	23.635680
39629		74.903781	-14.453025	23.555969
39630		74.935735	-14.089837	23.468529
39631		74.993118	-13.735152	23.381262
39632		75.079049	-13.386924	23.309722
39633		75.154425	-13.044016	23.243808
39634		75.215838	-12.706890	23.173058
39635		75.272738	-12.367208	23.109818
39636		75.322714	-12.024314	23.042284
39637		75.364951	-11.686219	22.970275
39638		75.416797	-11.341470	22.901341
39639		75.459231	-10.992554	22.833350
39640		75.513834	-10.641730	22.765487
39641		75.560162	-10.290121	22.699424
39642		75.609438	-9.939590	22.633969
39643		75.678117	-9.591512	22.579640
39644		75.747627	-9.240032	22.517321
39645		75.808649	-8.878212	22.458686
39646		75.878678	-8.505125	22.406513
39647		75.955430	-8.123775	22.357533
39648		76.035680	-7.737609	22.314286
39649		76.108142	-7.353751	22.273319
39650		76.151799	-6.983980	22.215427
39651		76.169607	-6.631389	22.153430
39652		76.170184	-6.284576	22.095568
39653		76.164026	-5.940253	22.042941
39654		76.161695	-5.593529	21.991876
39655		76.159396	-5.243717	21.954899
39656		76.156575	-4.890816	21.916338
39657		76.149168	-4.542504	21.872863
39658		76.132834	-4.205817	21.820085
39659		76.104994	-3.881893	21.768405
39660		76.059505	-3.565986	21.716125
39661		76.001750	-3.261724	21.664527
39662		75.959900	-2.963969	21.615430
39663		75.945161	-2.672821	21.572166
39664		75.973864	-2.381789	21.533094
39665		76.064281	-2.084393	21.507078
39666		76.199444	-1.786899	21.480507
39667		76.367926	-1.488432	21.450369
39668		76.557750	-1.186472	21.422077
39669		76.733915	-0.881360	21.390715
39670		76.879494	-0.587038	21.351536
39671		76.988036	-0.296265	21.308037
39672		77.072465	-0.009899	21.266395
39673		77.154166	0.277893	21.235789
39674		77.226815	0.563442	21.215551
39675		77.278232	0.842829	21.192045
39676		77.325492	1.110269	21.171810
39677		77.340885	1.373340	21.152808
39678		77.283453	1.623136	21.121834
39679		77.148215	1.857441	21.069304
39680		77.019335	2.086163	21.026739
39681		76.908054	2.308668	20.992354
39682		76.807364	2.523173	20.957549
39683		76.722311	2.726569	20.926725
39684		76.679938	2.917110	20.895210
39685		76.679351	3.094841	20.872052
39686		76.717386	3.257062	20.849685
39687		76.766740	3.410044	20.822627
39688		76.820186	3.561612	20.790550
39689		76.885680	3.716160	20.759252
39690		76.961181	3.875269	20.728828
39691		77.027132	4.042807	20.697436
39692		77.080165	4.210521	20.658886
39693		77.142352	4.373186	20.617598
39694		77.216961	4.531716	20.572464
39695		77.280881	4.689162	20.527371
39696		77.342406	4.847402	20.486316
39697		77.402893	5.008782	20.446786
39698		77.473961	5.177162	20.411249
39699		77.538956	5.350614	20.385927
39700		77.572735	5.530068	20.355302
39701		77.588162	5.718155	20.324513
39702		77.597007	5.905353	20.298793
39703		77.587560	6.089215	20.273815
39704		77.551981	6.268482	20.243475
39705		77.492769	6.445961	20.210965
39706		77.433722	6.624897	20.181798
39707		77.380289	6.804735	20.158121
39708		77.357430	6.986254	20.137676
39709		77.347591	7.169140	20.120278
39710		77.360165	7.342733	20.095773
39711		77.408879	7.507548	20.082525
39712		77.472310	7.657757	20.067462
39713		77.528598	7.786905	20.043092
39714		77.580621	7.900710	20.019429
39715		77.616776	8.000561	19.997920
39716		77.634487	8.087612	19.967272
39717		77.639695	8.166867	19.937252
39718		77.640777	8.240291	19.912273
39719		77.660227	8.306349	19.891401
39720		77.703892	8.370031	19.873403
39721		77.744701	8.434998	19.856088
39722		77.799773	8.501654	19.840787
39723		77.867985	8.574804	19.825116
39724		77.942629	8.653786	19.808914
39725		78.011870	8.737023	19.787704
39726		78.136625	8.795380	19.779477
39727		78.253337	8.837540	19.776254
39728		78.349269	8.852913	19.777591
39729		78.376422	8.852489	19.777322
39730		78.356760	8.848370	19.778922
39731		78.317706	8.839987	19.787599
39732		78.274691	8.832724	19.799250
39733		78.227366	8.831051	19.816644
39734		78.176260	8.836416	19.830701
39735		78.124134	8.847782	19.842615
39736		78.055345	8.860801	19.855003
39737		77.961723	8.870732	19.869509
39738		77.870899	8.881649	19.879075
39739		77.806033	8.883548	19.885884
39740		77.791708	8.870533	19.898364
39741		77.789067	8.844852	19.914514
39742		77.793191	8.814207	19.920638
39743		77.842838	8.780280	19.931196
39744		77.919197	8.744225	19.946318
39745		77.972159	8.705940	19.954745
39746		78.001741	8.660870	19.954465
39747		78.017500	8.613701	19.949306
39748		78.025986	8.557148	19.948374
39749		78.031036	8.488736	19.940328
39750		78.045986	8.402656	19.932691
39751		78.065876	8.299344	19.925527
39752		78.095143	8.178799	19.917530
39753		78.132227	8.043111	19.917192
39754		78.164693	7.895735	19.916068
39755		78.190625	7.732192	19.914821
39756		78.208051	7.551699	19.915156
39757		78.200996	7.356126	19.906126
39758		78.186537	7.145622	19.898975
39759		78.156387	6.923940	19.895830
39760		78.117063	6.686824	19.885540
39761		78.085307	6.439123	19.879167
39762		78.050578	6.183380	19.879268
39763		78.013668	5.924672	19.876549
39764		77.999187	5.663284	19.880399
39765		78.004206	5.400822	19.897409
39766		78.029151	5.133349	19.914710
39767		78.071283	4.860927	19.936600
39768		78.105404	4.585431	19.961206
39769		78.134248	4.305744	19.985720
39770		78.198043	4.027257	20.021500
39771		78.281881	3.752633	20.070531
39772		78.367531	3.481749	20.113392
39773		78.466362	3.210029	20.163235
39774		78.566299	2.944729	20.221427
39775		78.648653	2.678324	20.279285
39776		78.702391	2.409703	20.337864
39777		78.714427	2.142297	20.395675
39778		78.706243	1.873931	20.448397
39779		78.683719	1.609012	20.502303
39780		78.645739	1.340528	20.554362
39781		78.596598	1.070208	20.602047
39782		78.540361	0.801430	20.655051
39783		78.471637	0.531251	20.711447
39784		78.403979	0.256548	20.762865
39785		78.336772	-0.021901	20.818134
39786		78.261920	-0.305445	20.876981
39787		78.172801	-0.597234	20.923390
39788		78.083951	-0.892541	20.969930
39789		77.980650	-1.190577	21.015812
39790		77.863514	-1.488613	21.058318
39791		77.746594	-1.787550	21.098400
39792		77.639729	-2.088825	21.139083
39793		77.536152	-2.392862	21.182612
39794		77.440116	-2.701686	21.221641
39795		77.355579	-3.013884	21.267732
39796		77.267461	-3.340435	21.311523
39797		77.187812	-3.678977	21.341895
39798		77.125455	-4.026966	21.378980
39799		77.049674	-4.376624	21.415641
39800		76.971808	-4.731435	21.448855
39801		76.899080	-5.087131	21.496961
39802		76.822138	-5.447999	21.547972
39803		76.756089	-5.811719	21.596241
39804		76.709950	-6.177822	21.657241
39805		76.671047	-6.543276	21.716342
39806		76.653482	-6.914248	21.765532
39807		76.658524	-7.280077	21.830940
39808		76.668469	-7.643141	21.898977
39809		76.682809	-7.999328	21.970027
39810		76.691009	-8.353192	22.042370
39811		76.684023	-8.709286	22.110315
39812		76.682827	-9.065788	22.180653
39813		76.666407	-9.420311	22.258524
39814		76.644771	-9.779056	22.322850
39815		76.621010	-10.139566	22.390687
39816		76.585647	-10.505432	22.455862
39817		76.539712	-10.877413	22.517509
39818		76.489655	-11.259931	22.587984
39819		76.459454	-11.653916	22.659271
39820		76.476472	-12.064922	22.730835
39821		76.513469	-12.482742	22.819689
39822		76.559101	-12.908472	22.910462
39823		76.605278	-13.339550	23.005216
39824		76.638589	-13.781271	23.104716
39825		76.652484	-14.234133	23.202487
39826		76.659447	-14.702794	23.297044
39827		76.647706	-15.176431	23.393101
39828		76.613882	-15.662264	23.485937
39829		76.571988	-16.158857	23.583346
39830		76.529879	-16.668357	23.688918
39831		76.503637	-17.199158	23.796464
39832		76.488826	-17.744590	23.907958
39833		76.475901	-18.300190	24.038040
39834		76.464011	-18.862026	24.178868
39835		76.437929	-19.429746	24.315498
39836		76.403267	-20.005660	24.452892
39837		76.348734	-20.581317	24.599458
39838		76.281144	-21.160497	24.744161
39839		76.213686	-21.741727	24.895805
39840		76.148036	-22.320500	25.058047
39841		76.082579	-22.897355	25.230445
39842		76.018841	-23.468204	25.406053
39843		75.938136	-24.037745	25.600313
39844		75.857407	-24.609538	25.790443
39845		75.803328	-25.182579	25.995250
39846		75.792221	-25.758502	26.216014
39847		75.805974	-26.336242	26.449643
39848		75.846669	-26.917807	26.686593
39849		75.902869	-27.499536	26.930342
39850		75.963424	-28.084069	27.168656
39851		76.007096	-28.665866	27.413276
39852		76.034003	-29.240489	27.658284
39853		76.028430	-29.810029	27.910576
39854		75.996569	-30.379979	28.163121
39855		75.945425	-30.951851	28.410624
39856		75.881089	-31.525129	28.652381
39857		75.803279	-32.097852	28.904263
39858		75.717418	-32.670753	29.160096
39859		75.610486	-33.242430	29.413318
39860		75.499429	-33.815734	29.659536
39861		75.373288	-34.384363	29.913534
39862		75.239152	-34.950922	30.153741
39863		75.099269	-35.509134	30.398288
39864		74.964396	-36.063174	30.636214
39865		74.850527	-36.614124	30.870851
39866		74.755125	-37.162032	31.097812
39867		74.681814	-37.705194	31.327769
39868		74.614440	-38.241520	31.556907
39869		74.538427	-38.770768	31.785320
39870		74.454023	-39.293513	32.004783
39871		74.365162	-39.806729	32.227435
39872		74.277904	-40.312168	32.451032
39873		74.181057	-40.813309	32.675898
39874		74.091153	-41.313350	32.894248
39875		74.003903	-41.812579	33.120196
39876		73.911154	-42.326437	33.332285
39877		73.804073	-42.834283	33.547734
39878		73.676805	-43.334545	33.794620
39879		73.507459	-43.825446	34.032643
39880		73.328510	-44.310187	34.269653
39881		73.133660	-44.786993	34.517224
39882		72.923688	-45.269607	34.751334
39883		72.728785	-45.754619	34.982372
39884		72.534137	-46.236915	35.229801
39885		72.346423	-46.722012	35.469712
39886		72.184494	-47.197678	35.725657
39887		72.013079	-47.667442	35.975013
39888		71.846687	-48.133631	36.230041
39889		71.653735	-48.596187	36.493309
39890		71.438251	-49.061180	36.734386
39891		71.214999	-49.515063	36.993392
39892		70.951003	-49.956188	37.260171
39893		70.675018	-50.393167	37.495732
39894		70.398259	-50.810978	37.759006
39895		70.074377	-51.225065	38.008461
39896		69.755653	-51.640169	38.247017
39897		69.440567	-52.046081	38.512031
39898		69.105884	-52.448649	38.767735
39899		68.752495	-52.847940	39.027594
39900		68.386656	-53.225336	39.322445
39901		68.020691	-53.599206	39.608279
39902		67.662661	-53.960332	39.931138
39903		67.270825	-54.317942	40.269214
39904		66.870235	-54.681779	40.599987
39905		66.444411	-55.040202	40.984755
39906		65.969619	-55.408850	41.360857
39907		65.469595	-55.786918	41.752984
39908		64.945030	-56.158476	42.180269
39909		64.353651	-56.527843	42.618424
39910		63.723589	-56.909231	43.031310
39911		63.089696	-57.280806	43.472332
39912		62.429370	-57.639364	43.947187
39913		61.754602	-58.005029	44.405282
39914		61.075719	-58.367041	44.889167
39915		60.378999	-58.709025	45.421466
39916		59.669450	-59.052171	45.955220
39917		58.952021	-59.388119	46.527159
39918		58.196814	-59.743702	47.061982
39919		57.422560	-60.110192	47.590897
39920		56.665150	-60.465451	48.145832
39921		55.926798	-60.812587	48.714694
39922		55.187837	-61.151028	49.287436
39923		54.441460	-61.492151	49.851789
39924		53.687041	-61.837461	50.403522
39925		52.949062	-62.176537	50.961527
39926		52.255046	-62.493168	51.569102
39927		51.536345	-62.822002	52.131111
39928		50.829512	-63.152462	52.695003
39929		50.135055	-63.470149	53.285751
39930		49.442515	-63.789059	53.870707
39931		48.742996	-64.102346	54.460563
39932		48.072896	-64.401545	55.064443
39933		47.424238	-64.690794	55.673134
39934		46.783191	-64.972529	56.276839
39935		46.106414	-65.253780	56.879662
39936		45.432918	-65.547811	57.454239
39937		44.758097	-65.831371	58.054880
39938		44.053594	-66.112304	58.656544
39939		43.325579	-66.397752	59.246493
39940		42.578323	-66.682839	59.868747
39941		41.802791	-66.976828	60.500469
39942		41.024440	-67.276180	61.158290
39943		40.231460	-67.555039	61.886083
39944		39.386879	-67.837791	62.596657
39945		38.509337	-68.114013	63.339801
39946		37.594995	-68.383627	64.132188
39947		36.647776	-68.670992	64.909708
39948		35.635609	-68.973457	65.724227
39949		34.565770	-69.261535	66.568607
39950		33.479099	-69.545187	67.420139
39951		32.526343	-69.766428	68.326260
39952		31.605295	-69.977023	69.225918
39953		30.582921	-70.214111	70.074578
39954		29.554469	-70.423179	70.943177
39955		28.529691	-70.609046	71.801121
39956		27.487816	-70.803193	72.594396
39957		26.457930	-70.976957	73.370001
39958		25.443443	-71.140172	74.119232
39959		24.454124	-71.295461	74.856321
39960		23.483071	-71.442898	75.611474
39961		22.510168	-71.590679	76.376347
39962		21.530823	-71.732833	77.155438
39963		20.595533	-71.853457	77.931081
39964		19.736547	-71.961708	78.668635
39965		19.010051	-72.040493	79.363267
39966		18.342096	-72.108417	80.022820
39967		17.713899	-72.160655	80.633832
39968		17.108261	-72.193067	81.214179
39969		16.517358	-72.234657	81.726153
39970		15.962268	-72.264554	82.189775
39971		15.396832	-72.290133	82.609215
39972		14.844669	-72.328914	82.967012
39973		14.322885	-72.364294	83.318226
39974		13.856560	-72.387829	83.644500
39975		13.424346	-72.411852	83.961484
39976		13.067880	-72.417746	84.274827
39977		12.773533	-72.433396	84.550566
39978		12.510178	-72.454475	84.816657
39979		12.296124	-72.461554	85.083626
39980		12.115345	-72.473750	85.298861
39981		11.931157	-72.500288	85.492445
39982		11.807741	-72.524343	85.640795
39983		11.717461	-72.539805	85.740261
39984		11.647673	-72.555161	85.779992
39985		11.621408	-72.571097	85.772405
39986		11.594209	-72.594112	85.719389
39987		11.562488	-72.612089	85.659890
39988		11.549642	-72.623639	85.592120
39989		11.529417	-72.637483	85.531633
39990		11.530467	-72.646782	85.476365
39991		11.517759	-72.654153	85.445978
39992		11.504096	-72.662458	85.423880
39993		11.474861	-72.666080	85.429126
39994		11.437444	-72.670776	85.437031
39995		11.390291	-72.674688	85.462218
39996		11.351389	-72.681438	85.468018
39997		11.308093	-72.688700	85.479576
39998		11.274981	-72.693572	85.495825
39999		11.246452	-72.699575	85.514324
40000		11.236542	-72.706125	85.522709
40001		11.221851	-72.712673	85.536283
40002		11.200728	-72.720810	85.542245
40003		11.172014	-72.728295	85.545733
40004		11.142901	-72.737736	85.538693
40005		11.111158	-72.744205	85.533684
40006		11.103189	-72.740738	85.514592
40007		11.107913	-72.738337	85.487104
40008		11.134368	-72.731753	85.444411
40009		11.178898	-72.717271	85.400381
40010		11.227016	-72.708031	85.345882
40011		11.269105	-72.702858	85.294038
40012		11.311023	-72.698004	85.245919
40013		11.339766	-72.695402	85.208368
40014		11.378219	-72.699678	85.154977
40015		11.409963	-72.703738	85.104998
40016		11.451923	-72.708650	85.029939
40017		11.487460	-72.710536	84.954284
40018		11.528379	-72.716500	84.858799
40019		11.590741	-72.719913	84.743847
40020		11.666685	-72.717247	84.617204
40021		11.748071	-72.720405	84.479747
40022		11.856770	-72.724055	84.334819
40023		11.999356	-72.721690	84.175866
40024		12.169897	-72.716935	83.997531
40025		12.367939	-72.708907	83.792641
40026		12.595436	-72.693523	83.545840
40027		12.828243	-72.678837	83.269548
40028		13.081505	-72.660417	82.950395
40029		13.345312	-72.638270	82.596839
40030		13.633072	-72.615480	82.208897
40031		13.961060	-72.589147	81.795888
40032		14.350548	-72.553223	81.348667
40033		14.784428	-72.509599	80.874427
40034		15.256689	-72.465345	80.352298
40035		15.753891	-72.417233	79.819689
40036		16.273405	-72.367468	79.254965
40037		16.779715	-72.325125	78.673240
40038		17.276978	-72.284287	78.089099
40039		17.756460	-72.249223	77.509165
40040		18.241366	-72.214289	76.928020
40041		18.711908	-72.184294	76.359089
40042		19.180037	-72.156580	75.787570
40043		19.657340	-72.127725	75.230158
40044		20.146996	-72.096746	74.663441
40045		20.653975	-72.070975	74.097293
40046		21.211570	-72.033855	73.521188
40047		21.785839	-71.993676	72.943151
40048		22.390098	-71.944793	72.350556
40049		23.016347	-71.889212	71.750334
40050		23.654705	-71.826243	71.136408
40051		24.284143	-71.756172	70.516099
40052		24.906362	-71.683913	69.892230
40053		25.536758	-71.597806	69.266295
40054		26.189029	-71.502352	68.614348
40055		26.868944	-71.393555	67.940541
40056		27.578802	-71.269552	67.227818
40057		28.310933	-71.136523	66.487413
40058		29.061078	-70.991657	65.715744
40059		29.753582	-70.851549	64.949224
40060		30.428886	-70.698424	64.201941
40061		31.072901	-70.546746	63.481461
40062		31.705373	-70.396394	62.768951
40063		32.315407	-70.242555	62.097591
40064		32.930421	-70.082139	61.438340
40065		33.541469	-69.923000	60.786178
40066		34.168572	-69.752928	60.138486
40067		34.779679	-69.578123	59.507456
40068		35.390159	-69.407835	58.862416
40069		35.989266	-69.224185	58.243382
40070		36.582974	-69.030898	57.624190
40071		37.160934	-68.833537	57.010232
40072		37.747381	-68.622546	56.406620
40073		38.336556	-68.404828	55.833274
40074		38.882597	-68.203785	55.269121
40075		39.390827	-68.002458	54.753171
40076		39.881111	-67.798639	54.279592
40077		40.359177	-67.599576	53.827388
40078		40.807623	-67.403001	53.389413
40079		41.245634	-67.211684	52.961236
40080		41.709736	-67.014996	52.533392
40081		42.188224	-66.813695	52.103032
40082		42.707787	-66.599046	51.664839
40083		43.284687	-66.357199	51.238463
40084		43.892241	-66.103393	50.787555
40085		44.517314	-65.835869	50.354148
40086		45.151663	-65.546052	49.938331
40087		45.769892	-65.253162	49.524173
40088		46.355050	-64.961051	49.098074
40089		46.895751	-64.662127	48.681286
40090		47.403120	-64.354613	48.263471
40091		47.885953	-64.039628	47.840314
40092		48.361662	-63.710733	47.407277
40093		48.817005	-63.366849	46.978712
40094		49.272142	-63.022061	46.518885
40095		49.730108	-62.667486	46.069803
40096		50.198757	-62.297987	45.632550
40097		50.673620	-61.925684	45.187335
40098		51.164243	-61.542842	44.740338
40099		51.711862	-61.121435	44.340621
40100		52.284089	-60.704638	43.938982
40101		52.753187	-60.334835	43.493272
40102		53.175795	-59.976738	43.062529
40103		53.582478	-59.623349	42.655387
40104		53.990418	-59.280006	42.247357
40105		54.392496	-58.941498	41.854571
40106		54.810755	-58.606032	41.467566
40107		55.261324	-58.265320	41.097168
40108		55.723532	-57.915565	40.749369
40109		56.173521	-57.585752	40.382943
40110		56.638542	-57.272034	40.019363
40111		57.101039	-56.965458	39.680499
40112		57.538905	-56.665004	39.341756
40113		57.957869	-56.371583	39.012708
40114		58.394831	-56.061082	38.716862
40115		58.824997	-55.777310	38.403012
40116		59.227369	-55.518327	38.073044
40117		59.623356	-55.263825	37.773003
40118		59.999746	-55.021831	37.471685
40119		60.381187	-54.785234	37.199492
40120		60.769925	-54.557395	36.931488
40121		61.156539	-54.334451	36.678204
40122		61.546422	-54.110620	36.444306
40123		61.929349	-53.881104	36.241535
40124		62.311524	-53.655540	36.031046
40125		62.674357	-53.428701	35.846823
40126		63.006302	-53.205545	35.652496
40127		63.315014	-52.986921	35.463262
40128		63.590966	-52.767546	35.281567
40129		63.818246	-52.544519	35.105500
40130		64.008971	-52.312063	34.921382
40131		64.172191	-52.061401	34.731443
40132		64.305395	-51.789782	34.529007
40133		64.426102	-51.496339	34.314107
40134		64.540445	-51.172967	34.090800
40135		64.648666	-50.826283	33.864109
40136		64.786863	-50.448088	33.655452
40137		64.914372	-50.040948	33.472683
40138		65.021297	-49.622707	33.274845
40139		65.144314	-49.189239	33.086141
40140		65.260349	-48.738614	32.905073
40141		65.354253	-48.282263	32.702550
40142		65.451560	-47.810355	32.489409
40143		65.553782	-47.327217	32.267456
40144		65.676112	-46.836500	32.030210
40145		65.829268	-46.331531	31.802898
40146		66.019083	-45.809177	31.584114
40147		66.228058	-45.284588	31.356756
40148		66.423955	-44.750316	31.116764
40149		66.606145	-44.207039	30.887753
40150		66.770955	-43.671620	30.636981
40151		66.941826	-43.132375	30.396240
40152		67.099587	-42.585519	30.166795
40153		67.247671	-42.038427	29.943760
40154		67.419229	-41.482384	29.729452
40155		67.599409	-40.916289	29.533184
40156		67.794899	-40.331609	29.338300
40157		67.992999	-39.724472	29.154764
40158		68.195809	-39.102330	28.956553
40159		68.365911	-38.476719	28.741301
40160		68.533545	-37.839146	28.519186
40161		68.703926	-37.192103	28.304445
40162		68.890096	-36.531115	28.098261
40163		69.075650	-35.861047	27.898483
40164		69.262288	-35.187750	27.694447
40165		69.483632	-34.506487	27.507968
40166		69.713671	-33.807503	27.333147
40167		69.940315	-33.100389	27.157209
40168		70.201849	-32.378880	26.982628
40169		70.481080	-31.637968	26.829269
40170		70.726268	-30.904567	26.652501
40171		70.963613	-30.177189	26.479331
40172		71.198341	-29.441574	26.321846
40173		71.423852	-28.696054	26.169985
40174		71.668500	-27.941666	26.029787
40175		71.897160	-27.193443	25.891520
40176		72.025027	-26.479166	25.700505
40177		72.136769	-25.782655	25.519769
40178		72.247092	-25.084950	25.357684
40179		72.362552	-24.393054	25.207814
40180		72.481223	-23.706858	25.058170
40181		72.601694	-23.024567	24.920922
40182		72.746414	-22.342628	24.791415
40183		72.881296	-21.661190	24.670365
40184		72.995135	-20.998849	24.536783
40185		73.100301	-20.358292	24.397366
40186		73.201054	-19.728025	24.267990
40187		73.294219	-19.113801	24.142535
40188		73.398738	-18.513315	24.021244
40189		73.512187	-17.932958	23.905335
40190		73.657070	-17.367233	23.799665
40191		73.816885	-16.815401	23.713346
40192		73.971678	-16.278189	23.624805
40193		74.121329	-15.759196	23.535313
40194		74.256018	-15.241048	23.461514
40195		74.369038	-14.730875	23.388356
40196		74.480684	-14.227180	23.322959
40197		74.591978	-13.727750	23.270059
40198		74.666344	-13.241696	23.201416
40199		74.685442	-12.773407	23.114277
40200		74.695560	-12.312036	23.033376
40201		74.708469	-11.852983	22.961375
40202		74.730715	-11.394310	22.899906
40203		74.742344	-10.937050	22.848634
40204		74.738272	-10.486724	22.792163
40205		74.739754	-10.051587	22.737472
40206		74.734986	-9.630855	22.678302
40207		74.709308	-9.220355	22.616380
40208		74.664531	-8.817128	22.552358
40209		74.600105	-8.415812	22.486338
40210		74.543493	-8.013796	22.430735
40211		74.480759	-7.610127	22.379301
40212		74.429232	-7.221489	22.315327
40213		74.405637	-6.842818	22.255445
40214		74.383697	-6.474394	22.202977
40215		74.349967	-6.120263	22.136868
40216		74.326141	-5.778718	22.065873
40217		74.298962	-5.441867	21.992817
40218		74.271999	-5.104119	21.918024
40219		74.268245	-4.765116	21.851901
40220		74.273010	-4.428107	21.784729
40221		74.297388	-4.090677	21.720230
40222		74.354264	-3.759520	21.660267
40223		74.436349	-3.439218	21.598689
40224		74.546303	-3.129364	21.533517
40225		74.676262	-2.826808	21.470299
40226		74.819570	-2.528338	21.407892
40227		74.969382	-2.232975	21.346530
40228		75.121423	-1.945343	21.285589
40229		75.275251	-1.665041	21.217020
40230		75.414519	-1.391746	21.147167
40231		75.539954	-1.121703	21.083782
40232		75.661340	-0.851171	21.021060
40233		75.777292	-0.582662	20.969449
40234		75.875473	-0.319391	20.914744
40235		75.957684	-0.068302	20.856601
40236		76.035461	0.175925	20.798971
40237		76.097755	0.413172	20.741183
40238		76.157397	0.653048	20.676659
40239		76.225960	0.896842	20.615574
40240		76.305299	1.147793	20.557402
40241		76.387502	1.407402	20.505649
40242		76.480368	1.673834	20.458874
40243		76.595243	1.934175	20.408468
40244		76.750117	2.194460	20.364876
40245		76.926566	2.450535	20.324325
40246		77.124631	2.706238	20.285614
40247		77.328726	2.962030	20.253584
40248		77.515360	3.215050	20.220040
40249		77.680406	3.460762	20.183549
40250		77.826569	3.699055	20.147332
40251		77.915310	3.937003	20.109215
40252		77.942654	4.167738	20.065677
40253		77.931189	4.397836	20.019098
40254		77.888131	4.624805	19.970664
40255		77.818574	4.853426	19.917450
40256		77.753058	5.087297	19.862720
40257		77.697514	5.328621	19.813700
40258		77.653751	5.580188	19.768005
40259		77.620237	5.842377	19.724018
40260		77.621968	6.108848	19.678689
40261		77.650423	6.380193	19.634529
40262		77.686410	6.660755	19.589390
40263		77.752042	6.952431	19.545010
40264		77.834769	7.262208	19.505863
40265		77.902360	7.593779	19.464926
40266		77.969765	7.950919	19.425006
40267		78.053219	8.332342	19.383713
40268		78.136803	8.732897	19.340254
40269		78.191369	9.148131	19.286903
40270		78.223532	9.578297	19.228494
40271		78.269476	9.978327	19.150534
40272		78.948633	10.018932	19.110734
40273		79.438661	10.066744	19.377901
40274		77.997443	9.915068	19.205883
40275		76.869617	9.712275	18.987177
40276		77.370596	9.724354	19.087357
40277		78.417921	9.822876	19.351698
40278		77.752091	9.792316	19.268905
40279		77.516575	9.749490	19.199595
40280		77.840025	9.815133	19.251019
40281		78.168456	9.902513	19.300577
40282		78.212847	9.951750	19.274544
40283		78.164397	9.968508	19.249819
40284		78.093655	9.961235	19.248966
40285		78.010557	9.928527	19.247879
40286		77.981592	9.899674	19.254124
40287		78.030793	9.890428	19.265401
40288		78.136343	9.897030	19.282491
40289		78.226302	9.909537	19.289556
40290		78.307465	9.925627	19.289317
40291		78.395793	9.941987	19.282576
40292		78.472678	9.954154	19.270828
40293		78.516939	9.956934	19.255490
40294		78.537680	9.952413	19.241785
40295		78.546789	9.943134	19.231565
40296		78.551162	9.934851	19.225715
40297		78.559590	9.930818	19.225350
40298		78.568506	9.932053	19.230714
40299		78.557947	9.938024	19.237206
40300		78.535761	9.947802	19.245623
40301		78.496818	9.960961	19.254480
40302		78.440183	9.976690	19.261224
40303		78.385307	9.992136	19.266868
40304		78.333556	10.001813	19.273024
40305		78.283362	10.007850	19.274124
40306		78.259706	10.009132	19.278425
40307		78.249505	10.007088	19.286019
40308		78.236316	10.003374	19.290473
40309		78.235776	9.994423	19.293276
40310		78.246565	9.985954	19.301247
40311		78.243989	9.974209	19.299123
40312		78.252700	9.966647	19.296145
40313		78.272853	9.961638	19.291805
40314		78.303466	9.956243	19.287895
40315		78.336628	9.950791	19.281468
40316		78.373688	9.945706	19.276617
40317		78.404398	9.940141	19.276587
40318		78.418135	9.935764	19.279476
40319		78.421018	9.931653	19.282645
40320		78.427754	9.925259	19.293626
40321		78.411659	9.915488	19.296621
40322		78.401149	9.901198	19.297994
40323		78.389668	9.889583	19.305317
40324		78.361327	9.881386	19.311261
40325		78.303886	9.873400	19.316256
40326		78.246102	9.856588	19.327800
40327		78.169156	9.826830	19.341130
40328		78.082699	9.776247	19.345436
40329		78.007728	9.690231	19.325906
40330		77.951446	9.574295	19.293439
40331		77.882043	9.422629	19.263830
40332		77.843845	9.238282	19.251034
40333		77.825186	9.028428	19.235760
40334		77.862467	8.782626	19.230333
40335		77.911180	8.512022	19.225430
40336		77.943814	8.215766	19.220169
40337		77.953883	7.889265	19.208687
40338		77.947251	7.533397	19.187785
40339		77.926766	7.135883	19.159324
40340		77.916208	6.705697	19.127625
40341		77.925293	6.243924	19.100789
40342		77.947520	5.762788	19.080813
40343		77.990713	5.266206	19.065240
40344		78.053486	4.762872	19.053100
40345		78.112580	4.252904	19.044071
40346		78.176116	3.737754	19.042154
40347		78.254730	3.217383	19.042275
40348		78.322803	2.691019	19.041701
40349		78.393763	2.156058	19.040332
40350		78.503975	1.620713	19.056660
40351		78.627294	1.084283	19.084666
40352		78.769946	0.547082	19.115549
40353		78.933321	0.011925	19.152509
40354		79.114503	-0.520133	19.201461
40355		79.288631	-1.042018	19.258602
40356		79.426101	-1.553496	19.327029
40357		79.478598	-2.053910	19.385077
40358		79.461244	-2.550807	19.429690
40359		79.377895	-3.041128	19.470594
40360		79.233301	-3.524520	19.512605
40361		79.056798	-4.002439	19.553436
40362		78.875960	-4.468441	19.604770
40363		78.716343	-4.919492	19.675150
40364		78.571568	-5.362383	19.752246
40365		78.452561	-5.805163	19.830533
40366		78.355757	-6.246479	19.919386
40367		78.276812	-6.694280	20.008536
40368		78.247427	-7.150823	20.098944
40369		78.261666	-7.609894	20.200954
40370		78.295095	-8.072282	20.304333
40371		78.338576	-8.530114	20.412089
40372		78.372044	-8.982664	20.529049
40373		78.363887	-9.437658	20.643635
40374		78.309469	-9.899648	20.747035
40375		78.221129	-10.368767	20.843023
40376		78.107154	-10.853583	20.935789
40377		77.977422	-11.350011	21.022128
40378		77.838780	-11.854833	21.106989
40379		77.702825	-12.359154	21.197601
40380		77.586436	-12.869641	21.285476
40381		77.483569	-13.382666	21.377812
40382		77.386377	-13.903455	21.461202
40383		77.302737	-14.435579	21.536752
40384		77.228281	-14.977859	21.609778
40385		77.149235	-15.523927	21.692852
40386		77.091050	-16.075039	21.765110
40387		77.071753	-16.635796	21.851641
40388		77.068518	-17.201692	21.939592
40389		77.086280	-17.777316	22.029331
40390		77.131625	-18.364460	22.116004
40391		77.179128	-18.960996	22.207926
40392		77.229259	-19.570363	22.285746
40393		77.280629	-20.184989	22.361201
40394		77.327772	-20.796625	22.430937
40395		77.356819	-21.399494	22.518011
40396		77.394635	-22.004638	22.612325
40397		77.336108	-22.617813	22.690762
40398		77.347739	-23.258854	22.761767
40399		77.356546	-23.887294	22.866496
40400		77.338273	-24.512600	22.960251
40401		77.285422	-25.129847	23.059799
40402		77.204572	-25.733578	23.149600
40403		77.118489	-26.311933	23.254539
40404		77.012748	-26.866886	23.362963
40405		76.900191	-27.401449	23.461410
40406		76.791900	-27.919534	23.556103
40407		76.702867	-28.415748	23.673723
40408		76.605227	-28.898591	23.793259
40409		76.520069	-29.375128	23.901885
40410		76.454805	-29.850782	23.998883
40411		76.416743	-30.313275	24.113180
40412		76.398896	-30.760601	24.245922
40413		76.397469	-31.198171	24.389428
40414		76.359945	-31.636703	24.516917
40415		76.313404	-32.083301	24.620043
40416		76.297398	-32.538988	24.717980
40417		76.295040	-32.997692	24.824152
40418		76.276630	-33.460755	24.931236
40419		76.233670	-33.931029	25.035161
40420		76.201076	-34.406920	25.128968
40421		76.170764	-34.887023	25.240042
40422		76.137594	-35.380203	25.340316
40423		76.113378	-35.879107	25.449879
40424		76.054395	-36.388564	25.564695
40425		75.976285	-36.910969	25.668852
40426		75.901583	-37.447537	25.775502
40427		75.809175	-37.998275	25.887342
40428		75.710695	-38.565189	25.989850
40429		75.616616	-39.136681	26.118251
40430		75.504046	-39.711119	26.261484
40431		75.358207	-40.293731	26.407206
40432		75.201440	-40.884636	26.540026
40433		75.046065	-41.485622	26.683495
40434		74.886784	-42.088694	26.845458
40435		74.715246	-42.694959	27.017057
40436		74.525615	-43.303575	27.208928
40437		74.309799	-43.911414	27.410524
40438		74.072384	-44.522108	27.604311
40439		73.844882	-45.129719	27.817390
40440		73.626897	-45.722391	28.093906
40441		73.357285	-46.317378	28.350307
40442		73.097668	-46.914391	28.608938
40443		72.815278	-47.510329	28.880761
40444		72.513341	-48.114372	29.130745
40445		72.200523	-48.726499	29.367544
40446		71.902913	-49.329879	29.631999
40447		71.591045	-49.927020	29.892570
40448		71.292373	-50.518693	30.149061
40449		70.970001	-51.101366	30.417738
40450		70.634461	-51.684576	30.674481
40451		70.324424	-52.264246	30.950808
40452		69.993404	-52.847605	31.215008
40453		69.656447	-53.431380	31.469361
40454		69.289962	-54.019619	31.709004
40455		68.906671	-54.607693	31.946374
40456		68.526658	-55.187171	32.193073
40457		68.175233	-55.740888	32.494461
40458		67.802648	-56.269244	32.859481
40459		67.347812	-56.803936	33.198447
40460		66.901814	-57.341742	33.564009
40461		66.443893	-57.881028	33.962673
40462		65.922556	-58.426321	34.361544
40463		65.393666	-58.978649	34.762301
40464		64.857453	-59.528588	35.186851
40465		64.287180	-60.086183	35.590563
40466		63.708058	-60.633742	36.023140
40467		63.100504	-61.167833	36.478880
40468		62.504867	-61.700502	36.920230
40469		61.934262	-62.201388	37.462121
40470		61.271647	-62.708716	37.994931
40471		60.553047	-63.240279	38.503690
40472		59.783910	-63.782270	39.044773
40473		58.942131	-64.324526	39.644158
40474		58.044360	-64.872025	40.287657
40475		57.064057	-65.432722	40.945153
40476		56.060618	-65.992280	41.620530
40477		55.060872	-66.516586	42.389090
40478		54.055541	-67.039337	43.173234
40479		53.043307	-67.559093	44.000536
40480		52.007393	-68.062988	44.889967
40481		50.952527	-68.559333	45.801549
40482		49.919183	-69.029112	46.789452
40483		48.852842	-69.494571	47.771739
40484		47.776231	-69.960981	48.757886
40485		46.644724	-70.410227	49.807433
40486		45.463751	-70.854335	50.822926
40487		44.250593	-71.288346	51.848521
40488		43.041536	-71.691385	52.901164
40489		41.830021	-72.066923	53.988451
40490		40.608797	-72.425709	55.121200
40491		39.339634	-72.780421	56.280097
40492		38.049594	-73.142263	57.442293
40493		36.724583	-73.492837	58.692778
40494		35.414632	-73.811547	60.008985
40495		34.106520	-74.118002	61.335276
40496		32.780067	-74.399629	62.717394
40497		31.408453	-74.673887	64.112796
40498		29.998144	-74.949021	65.545376
40499		28.604200	-75.184197	67.016698
40500		27.211445	-75.387076	68.521639
40501		25.815257	-75.556825	70.033770
40502		24.349941	-75.723363	71.537952
40503		22.812560	-75.904514	72.995410
40504		21.264838	-76.063907	74.470175
40505		19.719174	-76.194201	75.967311
40506		18.178752	-76.322554	77.420373
40507		16.651680	-76.438435	78.853675
40508		15.136008	-76.552804	80.252319
40509		13.618152	-76.676376	81.605710
40510		12.146839	-76.788471	82.900324
40511		10.886952	-76.865622	84.075926
40512		9.928019	-76.908879	85.103524
40513		9.090811	-76.937186	86.019120
40514		8.255861	-76.994167	86.813940
40515		7.512508	-77.036062	87.532240
40516		6.794358	-77.077874	88.169262
40517		6.106119	-77.127699	88.740030
40518		5.471395	-77.171437	89.246223
40519		4.873585	-77.209865	89.705050
40520		4.359345	-77.241157	90.099624
40521		3.908414	-77.268692	90.437301
40522		3.488422	-77.305383	90.724850
40523		3.099732	-77.348335	90.986580
40524		2.752617	-77.397418	91.218106
40525		2.428995	-77.452406	91.445580
40526		2.124113	-77.512758	91.663892
40527		1.874592	-77.569092	91.870755
40528		1.695551	-77.619124	92.037557
40529		1.562427	-77.655765	92.178966
40530		1.450647	-77.689526	92.296448
40531		1.351578	-77.718904	92.390953
40532		1.264279	-77.734613	92.473061
40533		1.140859	-77.752868	92.552850
40534		0.966924	-77.784712	92.625990
40535		0.789015	-77.809718	92.720090
40536		0.656877	-77.821384	92.801489
40537		0.559884	-77.832540	92.863585
40538		0.546851	-77.828279	92.887823
40539		0.631240	-77.813152	92.836115
40540		0.779231	-77.797102	92.734740
40541		0.995028	-77.770633	92.583133
40542		1.254605	-77.741451	92.393524
40543		1.579473	-77.718534	92.146149
40544		1.951243	-77.697981	91.847305
40545		2.332785	-77.683940	91.496261
40546		2.692038	-77.683606	91.114232
40547		2.988502	-77.697763	90.724665
40548		3.271654	-77.716717	90.346388
40549		3.513403	-77.737078	90.027059
40550		3.718223	-77.762406	89.771601
40551		3.905147	-77.783610	89.583769
40552		4.058809	-77.803697	89.448177
40553		4.190196	-77.827435	89.339039
40554		4.317469	-77.844313	89.249439
40555		4.365274	-77.871435	89.191317
40556		4.331047	-77.905204	89.172901
40557		4.275535	-77.930434	89.206676
40558		4.225970	-77.951966	89.238041
40559		4.169388	-77.972544	89.279985
40560		4.170303	-77.985559	89.277518
40561		4.236878	-77.983522	89.224976
40562		4.360595	-77.984707	89.092242
40563		4.558775	-77.981633	88.886712
40564		4.836188	-77.973153	88.595629
40565		5.175963	-77.964609	88.234265
40566		5.589668	-77.953373	87.794284
40567		6.066867	-77.939711	87.292591
40568		6.623447	-77.919693	86.703703
40569		7.245547	-77.892270	86.052344
40570		7.938381	-77.860570	85.331907
40571		8.709049	-77.820984	84.542329
40572		9.546460	-77.769752	83.710443
40573		10.474231	-77.711366	82.815161
40574		11.486297	-77.645448	81.839245
40575		12.582287	-77.565819	80.797539
40576		13.775419	-77.477927	79.666235
40577		15.032000	-77.376374	78.474904
40578		16.358136	-77.262002	77.213560
40579		17.757725	-77.127559	75.893514
40580		19.207961	-76.972993	74.506741
40581		20.693340	-76.803354	73.057600
40582		22.197026	-76.612337	71.559061
40583		23.691889	-76.419335	70.018830
40584		25.190694	-76.204289	68.456824
40585		26.668561	-75.973866	66.912993
40586		28.154082	-75.723367	65.383000
40587		29.627264	-75.451694	63.907533
40588		31.113453	-75.151531	62.471474
40589		32.598076	-74.819712	61.097045
40590		34.087328	-74.479063	59.719857
40591		35.525971	-74.121447	58.392844
40592		36.869111	-73.758881	57.119165
40593		38.060644	-73.416750	55.885404
40594		39.118324	-73.080730	54.714984
40595		40.091901	-72.751215	53.612067
40596		41.014678	-72.422857	52.561717
40597		41.897362	-72.096591	51.589280
40598		42.781359	-71.760550	50.672986
40599		43.653138	-71.418754	49.821185
40600		44.546686	-71.077184	48.990456
40601		45.462826	-70.727922	48.226658
40602		46.395577	-70.372017	47.500995
40603		47.326938	-70.020683	46.801455
40604		48.279550	-69.647987	46.153271
40605		49.192489	-69.291900	45.576334
40606		49.946972	-68.988935	44.968495
40607		50.554326	-68.733961	44.373730
40608		51.153890	-68.487194	43.857298
40609		51.742351	-68.244872	43.444559
40610		52.313559	-68.022440	43.072010
40611		52.887596	-67.804526	42.759392
40612		53.461400	-67.580933	42.512804
40613		53.989859	-67.378843	42.273101
40614		54.472276	-67.181708	42.077304
40615		54.877818	-67.003983	41.900695
40616		55.179355	-66.850070	41.704515
40617		55.411507	-66.713506	41.539270
40618		55.586540	-66.593848	41.390408
40619		55.705434	-66.492309	41.249509
40620		55.787506	-66.397013	41.132289
40621		55.869327	-66.301564	41.059522
40622		55.938733	-66.210081	41.013635
40623		55.986318	-66.137435	40.950649
40624		56.018803	-66.072876	40.911134
40625		56.031612	-66.023845	40.881379
40626		56.030680	-65.991256	40.843885
40627		56.021578	-65.968650	40.830801
40628		56.033033	-65.953334	40.842261
40629		56.040786	-65.942921	40.878489
40630		56.037114	-65.939271	40.920760
40631		56.033509	-65.937516	40.971452
40632		56.019339	-65.940683	41.027247
40633		55.980306	-65.948073	41.089197
40634		55.921030	-65.956242	41.161580
40635		55.849546	-65.961595	41.249985
40636		55.763449	-65.965052	41.326462
40637		55.659596	-65.963664	41.404425
40638		55.558735	-65.951079	41.470434
40639		55.457051	-65.930840	41.523411
40640		55.341957	-65.908524	41.538694
40641		55.251634	-65.882025	41.533036
40642		55.184285	-65.846973	41.526658
40643		55.113049	-65.805849	41.501488
40644		55.064013	-65.762596	41.451641
40645		55.069842	-65.711212	41.413528
40646		55.123618	-65.646019	41.390719
40647		55.183422	-65.575950	41.356141
40648		55.249105	-65.499088	41.297685
40649		55.338959	-65.409151	41.235914
40650		55.450077	-65.305758	41.161964
40651		55.560550	-65.189810	41.078079
40652		55.692688	-65.056636	40.976372
40653		55.842125	-64.907993	40.861004
40654		56.010798	-64.741554	40.715439
40655		56.190825	-64.559000	40.567634
40656		56.391291	-64.355742	40.410541
