// General information: 
//  MT Manager version: 2022.2.0 
//  XDA version: 2022.2.0 build 7381 rev 124627 built on 2023-07-19
// Device information: 
//  DeviceId: 00B44730
//  ProductCode: MTW2-3A7G6
//  Firmware Version: 4.3.5
//  Hardware Version: 2.0.0
// Device settings: 
//  Filter Profile: human(46.1)
//  Option Flags: Orientation Smoother Disabled, Position/Velocity Smoother Disabled, Continuous Zero Rotation Update Disabled, AHS Disabled, ICC Disabled
// Coordinate system: ENU
PacketCounter	SampleTimeFine	Roll	Pitch	Yaw
44706		14.316216	27.411304	-72.234801
44707		14.328702	27.407260	-72.257363
44708		14.330156	27.402847	-72.283918
44709		14.325379	27.403075	-72.311950
44710		14.322622	27.402843	-72.338167
44711		14.317781	27.402610	-72.362488
44712		14.306342	27.404657	-72.376022
44713		14.292670	27.411133	-72.385201
44714		14.277373	27.422916	-72.390392
44715		14.268043	27.441530	-72.394332
44716		14.256112	27.457349	-72.400229
44717		14.266335	27.472360	-72.410560
44718		14.289618	27.482704	-72.421357
44719		14.328106	27.480050	-72.423234
44720		14.417107	27.470362	-72.407636
44721		14.523168	27.452116	-72.382733
44722		14.583783	27.413347	-72.375788
44723		14.572319	27.370432	-72.393625
44724		14.500746	27.351433	-72.402757
44725		14.402336	27.356240	-72.384940
44726		14.313760	27.368224	-72.347730
44727		14.264816	27.380336	-72.296360
44728		14.258456	27.385245	-72.244592
44729		14.273643	27.382063	-72.199500
44730		14.307623	27.377845	-72.170303
44731		14.348245	27.384183	-72.147192
44732		14.370324	27.393317	-72.127450
44733		14.376721	27.401330	-72.107903
44734		14.359285	27.401308	-72.094716
44735		14.332852	27.394317	-72.081864
44736		14.310443	27.385446	-72.069463
44737		14.295643	27.382532	-72.072265
44738		14.289103	27.386959	-72.081561
44739		14.292169	27.391996	-72.100349
44740		14.302761	27.392131	-72.126723
44741		14.316007	27.388332	-72.153747
44742		14.320592	27.383388	-72.173627
44743		14.316750	27.380871	-72.184736
44744		14.305581	27.379014	-72.190048
44745		14.287021	27.376040	-72.189220
44746		14.269088	27.371356	-72.191945
44747		14.254043	27.369155	-72.195860
44748		14.246321	27.364191	-72.198681
44749		14.251593	27.359944	-72.204040
44750		14.265853	27.357398	-72.208835
44751		14.277147	27.362275	-72.213413
44752		14.294676	27.366738	-72.207517
44753		14.308716	27.368548	-72.201410
44754		14.316341	27.361911	-72.201025
44755		14.313356	27.360060	-72.198071
44756		14.314842	27.362094	-72.195349
44757		14.324718	27.365778	-72.191526
44758		14.336447	27.363807	-72.189516
44759		14.347920	27.363735	-72.190845
44760		14.362841	27.370025	-72.192904
44761		14.381607	27.375875	-72.191620
44762		14.402421	27.378024	-72.194881
44763		14.415714	27.377220	-72.198697
44764		14.421848	27.374547	-72.200703
44765		14.426790	27.374329	-72.201908
44766		14.432543	27.371152	-72.202875
44767		14.438085	27.367227	-72.202104
44768		14.437128	27.365760	-72.197173
44769		14.435153	27.365198	-72.191948
44770		14.440079	27.359600	-72.188241
44771		14.453118	27.352600	-72.187554
44772		14.466417	27.343373	-72.189990
44773		14.472859	27.339227	-72.188278
44774		14.472709	27.335667	-72.189492
44775		14.473189	27.333845	-72.191949
44776		14.474393	27.328405	-72.194662
44777		14.470657	27.327711	-72.200068
44778		14.470948	27.328856	-72.205511
44779		14.476141	27.331372	-72.208413
44780		14.480178	27.325687	-72.210797
44781		14.477038	27.321284	-72.214233
44782		14.469244	27.319353	-72.217275
44783		14.460633	27.320599	-72.216068
44784		14.451826	27.321382	-72.214213
44785		14.450589	27.321796	-72.212854
44786		14.456255	27.321682	-72.212997
44787		14.467232	27.323360	-72.212159
44788		14.475708	27.323032	-72.212163
44789		14.482388	27.325368	-72.210576
44790		14.488140	27.326009	-72.208432
44791		14.491075	27.328005	-72.207591
44792		14.494481	27.331134	-72.201888
44793		14.497887	27.331663	-72.198843
44794		14.502360	27.332039	-72.196115
44795		14.508250	27.336102	-72.194135
44796		14.511761	27.335947	-72.193389
44797		14.524805	27.336161	-72.193925
44798		14.537248	27.335422	-72.193475
44799		14.542117	27.330982	-72.192556
44800		14.546658	27.324601	-72.193320
44801		14.550768	27.321611	-72.196374
44802		14.556705	27.317036	-72.195723
44803		14.564605	27.318884	-72.195788
44804		14.573071	27.325103	-72.194899
44805		14.579449	27.331163	-72.193508
44806		14.585345	27.333030	-72.195136
44807		14.584909	27.335182	-72.196974
44808		14.587483	27.330743	-72.199813
44809		14.591302	27.327737	-72.204640
44810		14.596181	27.324588	-72.211191
44811		14.594102	27.322229	-72.211695
44812		14.588373	27.318384	-72.208753
44813		14.578125	27.318589	-72.209025
44814		14.565436	27.317856	-72.204634
44815		14.552305	27.317778	-72.200351
44816		14.544429	27.315738	-72.192693
44817		14.536442	27.314025	-72.188881
44818		14.533674	27.309270	-72.188747
44819		14.528090	27.302092	-72.190475
44820		14.521247	27.292422	-72.196160
44821		14.509964	27.290310	-72.203750
44822		14.496424	27.289231	-72.209876
44823		14.484202	27.287615	-72.214051
44824		14.479236	27.285569	-72.215478
44825		14.477370	27.281439	-72.219910
44826		14.474599	27.279174	-72.226494
44827		14.474014	27.275315	-72.231905
44828		14.478507	27.274376	-72.239736
44829		14.483533	27.278377	-72.243057
44830		14.483061	27.278676	-72.244205
44831		14.474149	27.276147	-72.246375
44832		14.461880	27.276341	-72.249874
44833		14.451366	27.281013	-72.249697
44834		14.446016	27.285671	-72.250779
44835		14.445111	27.289283	-72.254822
44836		14.451430	27.292483	-72.257100
44837		14.463162	27.298887	-72.258518
44838		14.474309	27.304413	-72.257215
44839		14.483997	27.309556	-72.253806
44840		14.487066	27.308160	-72.252719
44841		14.486856	27.309569	-72.253463
44842		14.483981	27.307816	-72.253365
44843		14.481518	27.312168	-72.253176
44844		14.480348	27.315693	-72.252845
44845		14.482356	27.321646	-72.251386
44846		14.485789	27.324508	-72.250219
44847		14.493364	27.326607	-72.247678
44848		14.503590	27.328912	-72.243557
44849		14.512287	27.329027	-72.243995
44850		14.516635	27.327965	-72.242424
44851		14.516832	27.327151	-72.241639
44852		14.513478	27.326124	-72.241514
44853		14.509568	27.327947	-72.242356
44854		14.505587	27.330891	-72.240151
44855		14.499777	27.332682	-72.239197
44856		14.496468	27.333206	-72.240787
44857		14.501013	27.336228	-72.238494
44858		14.509606	27.333758	-72.239628
44859		14.521565	27.332207	-72.238714
44860		14.532974	27.325807	-72.241939
44861		14.538865	27.325090	-72.246549
44862		14.546471	27.328469	-72.253043
44863		14.554788	27.334277	-72.257797
44864		14.567200	27.335628	-72.257967
44865		14.576180	27.335755	-72.256637
44866		14.581698	27.337188	-72.256039
44867		14.582251	27.334416	-72.249375
44868		14.583154	27.330322	-72.243742
44869		14.585391	27.324580	-72.241547
44870		14.593901	27.320640	-72.241929
44871		14.610295	27.327145	-72.241615
44872		14.623982	27.332467	-72.242318
44873		14.638137	27.338172	-72.242643
44874		14.644891	27.339146	-72.243220
44875		14.649887	27.339674	-72.243755
44876		14.650798	27.339057	-72.242952
44877		14.650795	27.343467	-72.241035
44878		14.647726	27.346991	-72.239586
44879		14.643814	27.349831	-72.235418
44880		14.643882	27.353969	-72.231114
44881		14.642080	27.358830	-72.231092
44882		14.651620	27.363318	-72.232322
44883		14.666273	27.371017	-72.233221
44884		14.686738	27.375865	-72.230991
44885		14.704703	27.382645	-72.229870
44886		14.714498	27.383709	-72.224996
44887		14.718279	27.381986	-72.220446
44888		14.715522	27.378042	-72.220410
44889		14.714771	27.373978	-72.217814
44890		14.713068	27.374748	-72.218488
44891		14.714897	27.382176	-72.217460
44892		14.720171	27.391844	-72.214316
44893		14.730954	27.402451	-72.210714
44894		14.737362	27.407416	-72.207697
44895		14.738131	27.413830	-72.204602
44896		14.730831	27.418795	-72.198365
44897		14.718271	27.422943	-72.192783
44898		14.705426	27.421565	-72.188529
44899		14.693332	27.419494	-72.187354
44900		14.686625	27.420446	-72.187242
44901		14.690637	27.427915	-72.186242
44902		14.703463	27.437954	-72.187627
44903		14.722204	27.449457	-72.188738
44904		14.739963	27.454961	-72.191531
44905		14.760264	27.455806	-72.192223
44906		14.767288	27.456842	-72.191362
44907		14.773113	27.461123	-72.185023
44908		14.775508	27.460388	-72.175384
44909		14.781590	27.457469	-72.166085
44910		14.787003	27.455718	-72.159821
44911		14.795807	27.458317	-72.153895
44912		14.808783	27.459742	-72.151874
44913		14.822499	27.466905	-72.154358
44914		14.837657	27.471103	-72.154986
44915		14.852685	27.472080	-72.156579
44916		14.863211	27.470422	-72.162064
44917		14.869262	27.472957	-72.159650
44918		14.872143	27.474118	-72.154489
44919		14.875444	27.478588	-72.145546
44920		14.882454	27.485401	-72.132675
44921		14.887769	27.491400	-72.124179
44922		14.897221	27.496484	-72.114184
44923		14.907411	27.503571	-72.111322
44924		14.923141	27.507779	-72.108737
44925		14.936255	27.512437	-72.106955
44926		14.946618	27.515281	-72.106165
44927		14.947276	27.520189	-72.104416
44928		14.952051	27.521404	-72.101518
44929		14.951973	27.528781	-72.098708
44930		14.950571	27.534100	-72.095407
44931		14.954370	27.539563	-72.092062
44932		14.958125	27.542305	-72.093441
44933		14.966974	27.547375	-72.095298
44934		14.978157	27.551972	-72.098661
44935		14.985443	27.553038	-72.102903
44936		14.992055	27.556342	-72.104221
44937		14.996242	27.562310	-72.102789
44938		15.004056	27.566302	-72.096847
44939		15.013529	27.569385	-72.091067
44940		15.020673	27.569228	-72.085039
44941		15.026104	27.571987	-72.081810
44942		15.038993	27.575729	-72.075893
44943		15.058951	27.583242	-72.075816
44944		15.069956	27.586631	-72.076592
44945		15.073988	27.586640	-72.078760
44946		15.078813	27.586596	-72.086718
44947		15.088286	27.588690	-72.085957
44948		15.093641	27.588928	-72.083317
44949		15.099742	27.592193	-72.080235
44950		15.106382	27.596467	-72.075929
44951		15.110520	27.598946	-72.071737
44952		15.113123	27.599109	-72.073864
44953		15.113335	27.599037	-72.072473
44954		15.106624	27.602859	-72.072999
44955		15.098966	27.607866	-72.077460
44956		15.093683	27.609717	-72.078112
44957		15.089237	27.608579	-72.083477
44958		15.085793	27.603320	-72.085604
44959		15.082697	27.600461	-72.087831
44960		15.076145	27.599015	-72.092981
44961		15.070067	27.597834	-72.094803
44962		15.071999	27.594771	-72.093644
44963		15.070970	27.595165	-72.090623
44964		15.073217	27.595670	-72.089039
44965		15.078194	27.597167	-72.084571
44966		15.082975	27.594706	-72.082898
44967		15.085491	27.592441	-72.081771
44968		15.087202	27.590155	-72.079919
44969		15.084436	27.588041	-72.079716
44970		15.084459	27.584099	-72.077823
44971		15.085626	27.580814	-72.076406
44972		15.085365	27.576800	-72.078482
44973		15.086416	27.575746	-72.076818
44974		15.089329	27.576022	-72.072569
44975		15.090766	27.579196	-72.071225
44976		15.089451	27.577885	-72.067798
44977		15.089549	27.576322	-72.067754
44978		15.086889	27.570253	-72.066475
44979		15.081991	27.565122	-72.067183
44980		15.072481	27.555247	-72.068734
44981		15.073613	27.543781	-72.071165
44982		15.073380	27.532269	-72.077439
44983		15.078897	27.520887	-72.079894
44984		15.085051	27.508301	-72.082959
44985		15.094108	27.497980	-72.085717
44986		15.106531	27.490260	-72.082962
44987		15.114093	27.485842	-72.078585
44988		15.121414	27.480454	-72.075068
44989		15.131841	27.476586	-72.070850
44990		15.141467	27.471708	-72.073019
44991		15.149100	27.467059	-72.072986
44992		15.154464	27.466403	-72.075128
44993		15.161813	27.465474	-72.075264
44994		15.170841	27.464679	-72.069551
44995		15.181075	27.463266	-72.060748
44996		15.189480	27.459867	-72.052434
44997		15.191809	27.456341	-72.048319
44998		15.188604	27.451248	-72.044929
44999		15.180723	27.447802	-72.045237
45000		15.171152	27.447336	-72.050633
45001		15.166426	27.447184	-72.052749
45002		15.168264	27.442695	-72.050188
45003		15.170213	27.437687	-72.049177
45004		15.174160	27.428817	-72.050301
45005		15.179256	27.420640	-72.049278
45006		15.186357	27.412240	-72.049695
45007		15.186265	27.399237	-72.046442
45008		15.185417	27.380581	-72.037681
45009		15.179810	27.362016	-72.034628
45010		15.175952	27.346093	-72.036303
45011		15.178019	27.335137	-72.037143
45012		15.187826	27.325154	-72.037708
45013		15.202874	27.319645	-72.037443
45014		15.215332	27.314693	-72.036903
45015		15.223327	27.315236	-72.032179
45016		15.220266	27.317826	-72.020622
45017		15.215736	27.318554	-72.001891
45018		15.214441	27.315952	-71.980551
45019		15.216635	27.310545	-71.953972
45020		15.221321	27.298772	-71.932485
45021		15.232462	27.285645	-71.917816
45022		15.244560	27.276164	-71.905886
45023		15.256533	27.272544	-71.900889
45024		15.264938	27.266528	-71.902384
45025		15.268684	27.262095	-71.908566
45026		15.266259	27.252674	-71.917363
45027		15.265673	27.248905	-71.922849
45028		15.259090	27.246085	-71.926218
45029		15.253332	27.243960	-71.931281
45030		15.252043	27.237996	-71.937474
45031		15.257521	27.232343	-71.942438
45032		15.259898	27.225277	-71.946688
45033		15.260009	27.216290	-71.949849
45034		15.257478	27.208808	-71.949833
45035		15.258324	27.202770	-71.946797
45036		15.260503	27.196061	-71.945026
45037		15.264684	27.191830	-71.943369
45038		15.275948	27.188033	-71.942139
45039		15.291198	27.185476	-71.939197
45040		15.303022	27.184415	-71.938652
45041		15.312102	27.185971	-71.935970
45042		15.316590	27.186581	-71.931340
45043		15.320869	27.187542	-71.926741
45044		15.325050	27.186099	-71.924480
45045		15.324787	27.184762	-71.921875
45046		15.325505	27.185047	-71.919291
45047		15.324404	27.184690	-71.916958
45048		15.326088	27.182497	-71.916062
45049		15.326291	27.182419	-71.914682
45050		15.326262	27.181452	-71.913995
45051		15.325520	27.184585	-71.912626
45052		15.330652	27.185684	-71.911278
45053		15.341093	27.184543	-71.910479
45054		15.358797	27.178689	-71.908951
45055		15.379426	27.172036	-71.911015
45056		15.397776	27.168713	-71.915606
45057		15.411870	27.168419	-71.919423
45058		15.419369	27.168082	-71.915988
45059		15.422076	27.168769	-71.912195
45060		15.415891	27.166137	-71.910677
45061		15.410345	27.162944	-71.904947
45062		15.408757	27.159690	-71.900609
45063		15.413814	27.158921	-71.896417
45064		15.422958	27.155889	-71.891581
45065		15.435223	27.155000	-71.888230
45066		15.441004	27.152184	-71.887473
45067		15.443294	27.150664	-71.887453
45068		15.441705	27.149447	-71.887226
45069		15.440389	27.149840	-71.885983
45070		15.439589	27.150574	-71.885032
45071		15.439424	27.152736	-71.885148
45072		15.444959	27.150671	-71.888349
45073		15.453002	27.152266	-71.892677
45074		15.469737	27.151673	-71.897196
45075		15.487392	27.148726	-71.902901
45076		15.506890	27.146440	-71.907222
45077		15.520257	27.144899	-71.911568
45078		15.530465	27.144927	-71.915607
45079		15.530822	27.149090	-71.916269
45080		15.527791	27.149802	-71.917729
45081		15.524579	27.152560	-71.908392
45082		15.522472	27.151030	-71.901284
45083		15.521144	27.149394	-71.895997
45084		15.526976	27.147312	-71.895531
45085		15.539142	27.146967	-71.897577
45086		15.550425	27.147353	-71.901603
45087		15.560560	27.147512	-71.907285
45088		15.565605	27.145488	-71.912484
45089		15.568209	27.143015	-71.915709
45090		15.573094	27.142115	-71.911225
45091		15.576408	27.140533	-71.904204
45092		15.574168	27.131826	-71.896159
45093		15.578943	27.125328	-71.891299
45094		15.593071	27.122139	-71.889747
45095		15.610718	27.120866	-71.889789
45096		15.627369	27.122511	-71.893822
45097		15.649095	27.124289	-71.894691
45098		15.663261	27.123098	-71.896356
45099		15.671652	27.124123	-71.893539
45100		15.672253	27.120951	-71.888322
45101		15.664434	27.116977	-71.883294
45102		15.658883	27.112931	-71.877128
45103		15.658173	27.111061	-71.872664
45104		15.664293	27.106013	-71.872414
45105		15.670133	27.105545	-71.872688
45106		15.674761	27.104317	-71.878412
45107		15.677589	27.106833	-71.882987
45108		15.678230	27.107721	-71.885674
45109		15.679424	27.107202	-71.887686
45110		15.680139	27.103830	-71.887275
45111		15.680480	27.102257	-71.885513
45112		15.679094	27.096645	-71.885337
45113		15.677564	27.094090	-71.886804
45114		15.675866	27.095116	-71.887572
45115		15.679205	27.097595	-71.888644
45116		15.683590	27.098847	-71.890402
45117		15.688036	27.098662	-71.895117
45118		15.689787	27.096947	-71.900241
45119		15.685806	27.094377	-71.903455
45120		15.681076	27.092716	-71.904627
45121		15.679189	27.088707	-71.909194
45122		15.677790	27.086780	-71.908919
45123		15.679744	27.086203	-71.905681
45124		15.681921	27.085322	-71.904732
45125		15.685035	27.082817	-71.904461
45126		15.691669	27.079118	-71.901647
45127		15.697559	27.079385	-71.901245
45128		15.703744	27.078771	-71.898468
45129		15.710089	27.078262	-71.895241
45130		15.715961	27.076964	-71.894619
45131		15.722457	27.074962	-71.890991
45132		15.720736	27.074037	-71.885665
45133		15.715036	27.073053	-71.879725
45134		15.713302	27.072088	-71.876335
45135		15.718963	27.071069	-71.872973
45136		15.731053	27.070099	-71.869019
45137		15.739922	27.068679	-71.869029
45138		15.747238	27.069811	-71.870279
45139		15.744090	27.073658	-71.869992
45140		15.744876	27.071080	-71.867104
45141		15.745538	27.068562	-71.868585
45142		15.746739	27.062816	-71.870061
45143		15.748084	27.060807	-71.871676
45144		15.747377	27.057773	-71.877706
45145		15.745792	27.058183	-71.878236
45146		15.742127	27.056802	-71.883494
45147		15.739026	27.057686	-71.884156
45148		15.742579	27.054158	-71.884171
45149		15.751448	27.052737	-71.884179
45150		15.759973	27.052047	-71.883460
45151		15.766345	27.053575	-71.884266
45152		15.768890	27.052518	-71.886691
45153		15.770233	27.050509	-71.888308
45154		15.775574	27.052256	-71.889069
45155		15.770624	27.058248	-71.885013
45156		15.771281	27.057920	-71.883430
45157		15.767245	27.058317	-71.885711
45158		15.762909	27.056500	-71.888837
45159		15.759705	27.055914	-71.890854
45160		15.755977	27.056798	-71.893191
45161		15.754288	27.055737	-71.895075
45162		15.756663	27.055470	-71.896441
45163		15.755507	27.056409	-71.898858
45164		15.749753	27.056567	-71.900119
45165		15.746597	27.056714	-71.901463
45166		15.746262	27.055180	-71.902481
45167		15.744522	27.053383	-71.905040
45168		15.740956	27.052727	-71.907641
45169		15.738417	27.057652	-71.912874
45170		15.737329	27.059870	-71.918143
45171		15.732255	27.062003	-71.921773
45172		15.726927	27.062622	-71.927121
45173		15.721021	27.062041	-71.932640
45174		15.718090	27.058326	-71.936760
45175		15.715953	27.054346	-71.943090
45176		15.708968	27.053310	-71.948376
45177		15.704294	27.050231	-71.951480
45178		15.694467	27.049354	-71.957167
45179		15.682539	27.051397	-71.962557
45180		15.678003	27.053971	-71.966411
45181		15.678891	27.056429	-71.969231
45182		15.683602	27.054734	-71.970726
45183		15.693063	27.052354	-71.972198
45184		15.701357	27.048007	-71.975346
45185		15.710038	27.043650	-71.978033
45186		15.709227	27.038468	-71.983555
45187		15.705768	27.037897	-71.987328
45188		15.693133	27.037946	-71.992484
45189		15.680081	27.038946	-71.995869
45190		15.671873	27.039762	-72.002584
45191		15.670908	27.039935	-72.003935
45192		15.679632	27.038487	-72.003980
45193		15.697314	27.037211	-72.003951
45194		15.709441	27.032254	-72.013162
45195		15.714047	27.031896	-72.022161
45196		15.707930	27.035599	-72.030208
45197		15.695256	27.040086	-72.034533
45198		15.683356	27.044994	-72.038713
45199		15.676647	27.052193	-72.035905
45200		15.678694	27.051550	-72.029912
45201		15.680715	27.052423	-72.025347
45202		15.680821	27.050079	-72.024900
45203		15.687199	27.050289	-72.020996
45204		15.688233	27.048472	-72.018029
45205		15.683987	27.048300	-72.016709
45206		15.678601	27.046892	-72.018704
45207		15.672494	27.045749	-72.020616
45208		15.668696	27.046635	-72.027239
45209		15.673894	27.047697	-72.031393
45210		15.684352	27.047673	-72.038223
45211		15.690969	27.048110	-72.048282
45212		15.695828	27.047572	-72.058897
45213		15.700336	27.049440	-72.067618
45214		15.705543	27.051063	-72.076877
45215		15.711177	27.052660	-72.082911
45216		15.714622	27.052769	-72.086682
45217		15.716683	27.053311	-72.092462
45218		15.720093	27.057045	-72.097462
45219		15.721168	27.060058	-72.103913
45220		15.724089	27.063882	-72.111213
45221		15.725799	27.066672	-72.118469
45222		15.725399	27.070698	-72.128643
45223		15.724412	27.073499	-72.139404
45224		15.722799	27.075069	-72.147452
45225		15.718776	27.077497	-72.153795
45226		15.715120	27.076214	-72.156716
45227		15.714581	27.076916	-72.159959
45228		15.712324	27.077415	-72.162524
45229		15.710642	27.082078	-72.166840
45230		15.710957	27.086144	-72.169886
45231		15.712070	27.089888	-72.175669
45232		15.716865	27.090978	-72.181212
45233		15.717247	27.093480	-72.187539
45234		15.715258	27.094665	-72.189199
45235		15.709606	27.098467	-72.190720
45236		15.704752	27.099069	-72.191877
45237		15.703070	27.102412	-72.191501
45238		15.707805	27.105114	-72.192436
45239		15.716114	27.110386	-72.193346
45240		15.725574	27.115997	-72.194938
45241		15.736849	27.126968	-72.193002
45242		15.740924	27.138007	-72.191061
45243		15.746240	27.143634	-72.186885
45244		15.750732	27.145107	-72.183688
45245		15.754647	27.145296	-72.181545
45246		15.758693	27.151263	-72.178433
45247		15.768556	27.160479	-72.176908
45248		15.776657	27.165078	-72.178080
45249		15.789147	27.166764	-72.182327
45250		15.796237	27.163658	-72.182527
45251		15.796035	27.163434	-72.189007
45252		15.798187	27.164026	-72.191442
45253		15.801804	27.164832	-72.196418
45254		15.809173	27.160837	-72.202560
45255		15.820902	27.155547	-72.204949
45256		15.833069	27.154363	-72.210643
45257		15.839868	27.156421	-72.213313
45258		15.844835	27.156807	-72.218733
45259		15.854538	27.155729	-72.223140
45260		15.859552	27.156918	-72.226184
45261		15.858120	27.156549	-72.225693
45262		15.855657	27.152804	-72.227826
45263		15.855016	27.150723	-72.227737
45264		15.852177	27.151614	-72.225084
45265		15.845585	27.152287	-72.218853
45266		15.840322	27.151845	-72.212064
45267		15.832160	27.152258	-72.206654
45268		15.826470	27.148929	-72.203885
45269		15.823910	27.148837	-72.206087
45270		15.824288	27.154326	-72.211210
45271		15.829935	27.164026	-72.213327
45272		15.838874	27.170033	-72.206958
45273		15.841044	27.173804	-72.199724
45274		15.837145	27.174414	-72.192568
45275		15.825440	27.174500	-72.186261
45276		15.812457	27.173623	-72.177435
45277		15.801932	27.170479	-72.169389
45278		15.790992	27.167442	-72.164045
45279		15.773613	27.173635	-72.158587
45280		15.765177	27.183712	-72.148061
45281		15.763690	27.194382	-72.142728
45282		15.773526	27.197780	-72.142878
45283		15.785043	27.200607	-72.143077
45284		15.792709	27.200303	-72.143280
45285		15.793326	27.201456	-72.143182
45286		15.786463	27.200751	-72.138449
45287		15.772661	27.202989	-72.130175
45288		15.755221	27.204439	-72.113871
45289		15.733876	27.204166	-72.097246
45290		15.712106	27.206249	-72.078230
45291		15.696004	27.210076	-72.064372
45292		15.677550	27.214507	-72.054933
45293		15.666325	27.220270	-72.047593
45294		15.661014	27.224776	-72.046512
45295		15.655766	27.227786	-72.045275
45296		15.653519	27.228256	-72.049635
45297		15.653162	27.228195	-72.051830
45298		15.655954	27.229225	-72.059720
45299		15.667024	27.228425	-72.064998
45300		15.669708	27.226687	-72.069293
45301		15.665086	27.226391	-72.075822
45302		15.662873	27.228310	-72.081036
45303		15.663601	27.233572	-72.088968
45304		15.663990	27.234668	-72.095123
45305		15.664286	27.235712	-72.102800
45306		15.666423	27.238242	-72.116864
45307		15.666087	27.240835	-72.128431
45308		15.661368	27.237665	-72.136828
45309		15.647990	27.234996	-72.143741
45310		15.628684	27.231343	-72.149369
45311		15.609044	27.232041	-72.157295
45312		15.597958	27.229424	-72.164357
45313		15.593910	27.231846	-72.170750
45314		15.600304	27.233156	-72.178652
45315		15.610966	27.237556	-72.184455
45316		15.622160	27.238865	-72.193880
45317		15.631314	27.240059	-72.201447
45318		15.636277	27.239727	-72.207891
45319		15.634088	27.238104	-72.207976
45320		15.627038	27.238908	-72.203733
45321		15.613520	27.238875	-72.194059
45322		15.596742	27.239141	-72.186645
45323		15.577255	27.239502	-72.177194
45324		15.562426	27.239106	-72.171136
45325		15.549577	27.244586	-72.164678
45326		15.543100	27.248100	-72.160456
45327		15.545574	27.251526	-72.161814
45328		15.553524	27.253255	-72.166281
45329		15.561401	27.254887	-72.172245
45330		15.569490	27.254412	-72.175265
45331		15.576720	27.256265	-72.180436
45332		15.582421	27.255821	-72.181347
45333		15.584984	27.255700	-72.178292
45334		15.580166	27.257298	-72.173232
45335		15.575751	27.258711	-72.166401
45336		15.574530	27.260609	-72.160693
45337		15.576574	27.262895	-72.154837
45338		15.585858	27.262276	-72.148972
45339		15.586587	27.265603	-72.146879
45340		15.589546	27.267573	-72.144633
45341		15.592408	27.269479	-72.143848
45342		15.596958	27.267335	-72.140532
45343		15.597429	27.266288	-72.142461
45344		15.597206	27.267819	-72.142182
45345		15.597139	27.264774	-72.143587
45346		15.599802	27.261664	-72.145452
45347		15.599112	27.260171	-72.150742
45348		15.598891	27.262270	-72.155532
45349		15.600482	27.265946	-72.157839
45350		15.601994	27.266793	-72.161343
45351		15.606710	27.266580	-72.164275
45352		15.608522	27.268734	-72.168878
45353		15.608085	27.271612	-72.170150
45354		15.610847	27.274325	-72.169622
45355		15.614352	27.276009	-72.169631
45356		15.620006	27.275701	-72.170394
45357		15.624159	27.277165	-72.171195
45358		15.624899	27.279839	-72.170794
45359		15.625300	27.281737	-72.171789
45360		15.628156	27.282261	-72.171700
45361		15.629784	27.281657	-72.170274
45362		15.629560	27.282413	-72.169896
45363		15.625258	27.282933	-72.168032
45364		15.624422	27.283891	-72.165498
45365		15.629044	27.285289	-72.162817
45366		15.634671	27.283461	-72.164018
45367		15.645100	27.286558	-72.166848
45368		15.652822	27.288310	-72.174598
45369		15.651152	27.288681	-72.175233
45370		15.650946	27.285050	-72.175102
45371		15.649660	27.283899	-72.173596
45372		15.644848	27.281815	-72.170936
45373		15.634154	27.282915	-72.166783
45374		15.628896	27.285321	-72.164477
45375		15.632633	27.286968	-72.162747
45376		15.636409	27.288606	-72.165590
45377		15.637499	27.291010	-72.166709
45378		15.632571	27.291683	-72.170176
45379		15.623157	27.292953	-72.172955
45380		15.613266	27.291581	-72.174518
45381		15.601662	27.288532	-72.173607
45382		15.589768	27.287152	-72.172646
45383		15.580208	27.289298	-72.170491
45384		15.579140	27.289721	-72.163838
45385		15.581144	27.287591	-72.160276
45386		15.585684	27.286937	-72.159874
45387		15.590261	27.287602	-72.157863
45388		15.599322	27.286977	-72.154823
45389		15.606040	27.286224	-72.154109
45390		15.610715	27.282524	-72.153351
45391		15.611752	27.279191	-72.152082
45392		15.611603	27.277738	-72.153350
45393		15.613455	27.277094	-72.150193
45394		15.613696	27.277806	-72.146042
45395		15.614288	27.278324	-72.140640
45396		15.614287	27.278442	-72.133506
45397		15.610470	27.279614	-72.127520
45398		15.600417	27.278410	-72.122923
45399		15.591960	27.280883	-72.123429
45400		15.591315	27.282430	-72.126019
45401		15.593395	27.282976	-72.131793
45402		15.603591	27.283447	-72.130834
45403		15.610119	27.283453	-72.131188
45404		15.608673	27.278790	-72.132848
45405		15.609624	27.274002	-72.132923
45406		15.608899	27.272830	-72.128720
45407		15.605619	27.275994	-72.123260
45408		15.604865	27.274854	-72.117559
45409		15.607711	27.275514	-72.106119
45410		15.612959	27.274826	-72.098035
45411		15.618435	27.270946	-72.091355
45412		15.629165	27.263945	-72.090584
45413		15.640612	27.255889	-72.091262
45414		15.658120	27.247512	-72.094019
45415		15.669067	27.238804	-72.098845
45416		15.677004	27.234774	-72.104910
45417		15.676696	27.231769	-72.108075
45418		15.674818	27.230177	-72.107327
45419		15.673393	27.226843	-72.107850
45420		15.678731	27.222998	-72.106089
45421		15.693907	27.218171	-72.104956
45422		15.711658	27.214811	-72.105892
45423		15.731933	27.209837	-72.105463
45424		15.749739	27.199836	-72.110940
45425		15.769503	27.193588	-72.109336
45426		15.779705	27.189642	-72.110268
45427		15.784649	27.188770	-72.106130
45428		15.786659	27.189019	-72.098183
45429		15.786665	27.191193	-72.090665
45430		15.786169	27.195203	-72.079844
45431		15.788157	27.196823	-72.068695
45432		15.792432	27.197110	-72.056081
45433		15.797785	27.195430	-72.049146
45434		15.805666	27.193667	-72.046680
45435		15.811606	27.190949	-72.047197
45436		15.818974	27.188709	-72.046377
45437		15.825180	27.186675	-72.044488
45438		15.837123	27.183010	-72.044082
45439		15.843410	27.182423	-72.040853
45440		15.837880	27.179869	-72.037517
45441		15.835552	27.176168	-72.033683
45442		15.841883	27.170703	-72.029495
45443		15.848843	27.166237	-72.028673
45444		15.855928	27.163277	-72.031796
45445		15.872544	27.160808	-72.035559
45446		15.890063	27.161102	-72.040476
45447		15.899431	27.160198	-72.042247
45448		15.899235	27.157440	-72.041310
45449		15.890556	27.155678	-72.039857
45450		15.880115	27.155399	-72.035363
45451		15.866127	27.158213	-72.032659
45452		15.864287	27.157438	-72.027190
45453		15.872939	27.155391	-72.023524
45454		15.885434	27.148558	-72.025519
45455		15.900152	27.143801	-72.027868
45456		15.913052	27.141148	-72.032521
45457		15.921728	27.139736	-72.034175
45458		15.927390	27.138724	-72.034922
45459		15.926732	27.137353	-72.034239
45460		15.928579	27.134688	-72.029363
45461		15.935695	27.133113	-72.025863
45462		15.943950	27.130600	-72.024234
45463		15.956826	27.128658	-72.022215
45464		15.965487	27.128853	-72.021961
45465		15.972936	27.129318	-72.020700
45466		15.975400	27.130795	-72.021222
45467		15.980563	27.134163	-72.019054
45468		15.979333	27.132498	-72.014172
45469		15.976013	27.131266	-72.011022
45470		15.973058	27.130072	-72.008078
45471		15.974704	27.130179	-72.006009
45472		15.978967	27.128837	-72.008658
45473		15.986857	27.129209	-72.003931
45474		15.989247	27.129227	-72.005898
45475		15.993454	27.131408	-72.006019
45476		15.996254	27.131319	-72.006032
45477		15.998635	27.132654	-72.003408
45478		15.999331	27.133969	-72.000608
45479		16.002766	27.134275	-71.995978
45480		16.005688	27.134879	-71.992611
45481		16.013275	27.133849	-71.990960
45482		16.020741	27.132264	-71.988869
45483		16.028585	27.131834	-71.990795
45484		16.036404	27.132317	-71.989755
45485		16.044288	27.132609	-71.991009
45486		16.050418	27.132177	-71.993567
45487		16.055896	27.133206	-71.995930
45488		16.062904	27.132499	-71.997667
45489		16.068081	27.132133	-72.003106
45490		16.075033	27.130726	-72.005775
45491		16.081960	27.129838	-72.009322
45492		16.089518	27.126731	-72.013823
45493		16.098810	27.124384	-72.016935
45494		16.107107	27.121809	-72.019591
45495		16.112624	27.123562	-72.021283
45496		16.113534	27.124850	-72.021311
45497		16.112072	27.125184	-72.020247
45498		16.107075	27.124626	-72.022674
45499		16.104081	27.125435	-72.021773
45500		16.103985	27.124813	-72.020794
45501		16.109341	27.123749	-72.019196
45502		16.116604	27.123649	-72.020521
45503		16.124923	27.123843	-72.018314
45504		16.128895	27.124100	-72.019622
45505		16.130274	27.123530	-72.019968
45506		16.133278	27.121921	-72.017961
45507		16.130104	27.123499	-72.018122
45508		16.127166	27.123116	-72.013751
45509		16.122913	27.121420	-72.012244
45510		16.118219	27.122169	-72.013126
45511		16.114826	27.123796	-72.015019
45512		16.114195	27.124031	-72.015974
45513		16.116808	27.121592	-72.019232
45514		16.124908	27.119780	-72.024520
45515		16.133016	27.119957	-72.030016
45516		16.135456	27.120650	-72.032553
45517		16.133770	27.121030	-72.033227
45518		16.134448	27.122348	-72.031325
45519		16.132144	27.123661	-72.030544
45520		16.132263	27.122301	-72.026576
45521		16.136427	27.123758	-72.027368
45522		16.144548	27.126359	-72.029836
45523		16.146208	27.130765	-72.031453
45524		16.147230	27.134814	-72.033325
45525		16.143293	27.138813	-72.032426
45526		16.135629	27.138321	-72.033812
45527		16.129559	27.140078	-72.033254
45528		16.129111	27.137389	-72.035927
45529		16.134944	27.136877	-72.036170
45530		16.141789	27.132686	-72.038862
45531		16.145353	27.131425	-72.039831
45532		16.149522	27.130093	-72.040816
45533		16.155355	27.129582	-72.041059
45534		16.156731	27.127777	-72.041095
45535		16.159370	27.126119	-72.037712
45536		16.159192	27.127721	-72.035730
45537		16.160917	27.125607	-72.033968
45538		16.165418	27.123506	-72.033654
45539		16.165395	27.121919	-72.033786
45540		16.165213	27.119832	-72.035062
45541		16.165444	27.118912	-72.032793
45542		16.160086	27.118482	-72.030613
45543		16.160741	27.121050	-72.029224
45544		16.165109	27.119719	-72.028348
45545		16.171078	27.117716	-72.028206
45546		16.178282	27.116283	-72.028520
45547		16.186345	27.115801	-72.028707
45548		16.191433	27.115783	-72.026362
45549		16.193058	27.115876	-72.024315
45550		16.189959	27.117606	-72.023912
45551		16.187316	27.121232	-72.018617
45552		16.190230	27.126108	-72.016449
45553		16.187527	27.132661	-72.010197
45554		16.192004	27.130596	-72.010079
45555		16.198632	27.128379	-72.010719
45556		16.204400	27.127391	-72.008548
45557		16.209884	27.128421	-72.010902
45558		16.219150	27.127114	-72.010604
45559		16.227836	27.125699	-72.012243
45560		16.230328	27.123466	-72.016469
45561		16.231428	27.125873	-72.017593
45562		16.232339	27.126514	-72.016662
45563		16.230507	27.128384	-72.017736
45564		16.229885	27.130026	-72.021263
45565		16.230732	27.131768	-72.024788
45566		16.234701	27.132128	-72.025470
45567		16.238498	27.130763	-72.030681
45568		16.241824	27.131172	-72.038720
45569		16.245486	27.131297	-72.044314
45570		16.250811	27.134793	-72.044505
45571		16.254159	27.133585	-72.047208
45572		16.256324	27.132994	-72.051279
45573		16.260062	27.134556	-72.055528
45574		16.264460	27.136769	-72.059291
45575		16.271205	27.140303	-72.062244
45576		16.282511	27.139760	-72.064616
45577		16.292169	27.139471	-72.069926
45578		16.298913	27.141108	-72.071626
45579		16.308469	27.139429	-72.072318
45580		16.311664	27.137119	-72.073613
45581		16.311906	27.136149	-72.077325
45582		16.309642	27.136885	-72.082723
45583		16.308330	27.140034	-72.084966
45584		16.309113	27.138449	-72.088050
45585		16.317255	27.142998	-72.091216
45586		16.326308	27.145394	-72.096674
45587		16.338024	27.145912	-72.102978
45588		16.350149	27.142945	-72.110612
45589		16.362436	27.141063	-72.125684
45590		16.367118	27.143990	-72.137144
45591		16.361638	27.147657	-72.149040
45592		16.351006	27.150957	-72.162245
45593		16.337639	27.153457	-72.172384
45594		16.327854	27.154395	-72.176393
45595		16.317552	27.155938	-72.186198
45596		16.313137	27.160257	-72.198673
45597		16.311765	27.165524	-72.212567
45598		16.310971	27.170818	-72.226627
45599		16.314933	27.175882	-72.239452
45600		16.313964	27.181958	-72.254214
45601		16.311670	27.186769	-72.269738
45602		16.309102	27.192515	-72.287698
45603		16.306802	27.197324	-72.303227
45604		16.302964	27.199993	-72.317587
45605		16.299219	27.198709	-72.335886
45606		16.297822	27.197654	-72.358106
45607		16.301085	27.197806	-72.379112
45608		16.311777	27.197396	-72.398533
45609		16.320893	27.194277	-72.421940
45610		16.328511	27.189765	-72.442825
45611		16.332854	27.189600	-72.461160
45612		16.333024	27.191738	-72.478601
45613		16.332828	27.194424	-72.496104
45614		16.332813	27.195162	-72.512063
45615		16.331539	27.194569	-72.527911
45616		16.332470	27.191374	-72.543859
45617		16.330712	27.190216	-72.557869
45618		16.331003	27.192213	-72.578000
45619		16.330922	27.193449	-72.589150
45620		16.331921	27.195990	-72.602505
45621		16.332678	27.196245	-72.613378
45622		16.331936	27.195725	-72.624374
45623		16.327421	27.197602	-72.634982
45624		16.322733	27.199054	-72.646693
45625		16.315460	27.203966	-72.653895
45626		16.305533	27.212032	-72.669349
45627		16.297537	27.220027	-72.680796
45628		16.283705	27.229288	-72.695713
45629		16.271356	27.247974	-72.712636
45630		16.258226	27.272184	-72.732602
45631		16.243207	27.296000	-72.750116
45632		16.232442	27.315192	-72.765263
45633		16.221097	27.328515	-72.776539
45634		16.210344	27.338424	-72.781824
45635		16.195095	27.345757	-72.785708
45636		16.176518	27.347170	-72.793683
45637		16.158440	27.360357	-72.805195
45638		16.138352	27.380066	-72.817939
45639		16.119360	27.397859	-72.828141
45640		16.104969	27.406519	-72.841103
45641		16.095300	27.409145	-72.856443
45642		16.088601	27.411861	-72.871565
45643		16.087439	27.414809	-72.884103
45644		16.079793	27.420614	-72.900257
45645		16.071856	27.427069	-72.911403
45646		16.060887	27.432461	-72.923076
45647		16.049976	27.437639	-72.934867
45648		16.046847	27.440155	-72.942674
45649		16.047056	27.444169	-72.949451
45650		16.048859	27.445849	-72.954387
45651		16.047523	27.450328	-72.961347
45652		16.043315	27.453079	-72.967173
45653		16.038005	27.458747	-72.975459
45654		16.039506	27.464096	-72.981916
45655		16.041797	27.469638	-72.989017
45656		16.046732	27.472488	-72.994169
45657		16.051788	27.475050	-72.998667
45658		16.048378	27.481266	-72.995748
45659		16.029870	27.483079	-72.992418
45660		15.999951	27.482164	-72.990209
45661		15.974798	27.480919	-72.988066
45662		15.954540	27.480661	-72.985921
45663		15.936554	27.479392	-72.986060
45664		15.921176	27.479800	-72.987708
45665		15.912406	27.483622	-72.994812
45666		15.908048	27.487180	-72.999580
45667		15.906254	27.491803	-73.004042
45668		15.896853	27.493904	-73.010747
45669		15.888355	27.494033	-73.017730
45670		15.880156	27.493656	-73.021893
45671		15.872307	27.493632	-73.023672
45672		15.861699	27.489718	-73.024472
45673		15.857408	27.489381	-73.021740
45674		15.853076	27.485752	-73.020198
45675		15.848181	27.481983	-73.018300
45676		15.842468	27.477358	-73.015750
45677		15.835141	27.474311	-73.015002
45678		15.827026	27.470410	-73.012616
45679		15.822641	27.467918	-73.011891
45680		15.822738	27.462152	-73.012475
45681		15.820895	27.461036	-73.014572
45682		15.818435	27.462614	-73.017475
45683		15.811606	27.465143	-73.021603
45684		15.804620	27.466521	-73.027540
45685		15.801072	27.467353	-73.030226
45686		15.795519	27.461819	-73.035219
45687		15.787554	27.454619	-73.035975
45688		15.784181	27.451298	-73.039499
45689		15.782123	27.450229	-73.043331
45690		15.778278	27.452151	-73.047279
45691		15.776094	27.453285	-73.050843
45692		15.769945	27.453829	-73.054354
45693		15.765358	27.456399	-73.058404
45694		15.764457	27.458910	-73.061792
45695		15.768743	27.459572	-73.061530
45696		15.774415	27.459347	-73.063072
45697		15.777180	27.461190	-73.062333
45698		15.775153	27.458269	-73.065663
45699		15.770633	27.457974	-73.064681
45700		15.764070	27.455694	-73.063295
45701		15.754936	27.453207	-73.058519
45702		15.740538	27.450501	-73.051841
45703		15.722641	27.452792	-73.048720
45704		15.712548	27.455907	-73.041584
45705		15.705095	27.460841	-73.036993
45706		15.709329	27.463241	-73.035949
45707		15.716232	27.462411	-73.033465
45708		15.723233	27.460325	-73.036727
45709		15.730071	27.462360	-73.039275
45710		15.736290	27.463483	-73.039979
45711		15.737416	27.463635	-73.041433
45712		15.727170	27.459591	-73.040284
45713		15.715983	27.457004	-73.033884
45714		15.702821	27.455990	-73.028850
45715		15.690469	27.457347	-73.023549
45716		15.681262	27.456581	-73.018349
45717		15.675840	27.457310	-73.011715
45718		15.675314	27.457595	-73.005890
45719		15.676220	27.458566	-73.002447
45720		15.682120	27.456947	-73.000180
45721		15.687988	27.457856	-72.999054
45722		15.705548	27.462023	-72.998630
45723		15.704135	27.466582	-72.993681
45724		15.706484	27.465966	-72.990178
45725		15.705042	27.469807	-72.985897
45726		15.697632	27.473563	-72.981119
45727		15.696004	27.473871	-72.974211
45728		15.697923	27.474874	-72.967098
45729		15.699764	27.477016	-72.961366
45730		15.701388	27.474493	-72.957409
45731		15.708233	27.472223	-72.956253
45732		15.719849	27.472460	-72.955606
45733		15.730164	27.472024	-72.955625
45734		15.736059	27.470353	-72.954314
45735		15.742694	27.468135	-72.954890
45736		15.746959	27.469821	-72.952777
45737		15.754588	27.470207	-72.949727
45738		15.756122	27.469168	-72.948012
45739		15.757789	27.467012	-72.946280
45740		15.753642	27.466889	-72.947014
45741		15.750264	27.466951	-72.948660
45742		15.750673	27.464795	-72.950371
45743		15.751894	27.462030	-72.952764
45744		15.753337	27.457327	-72.954301
45745		15.756403	27.456190	-72.952771
45746		15.758424	27.453565	-72.945956
45747		15.759036	27.453910	-72.938965
45748		15.759590	27.453887	-72.930583
45749		15.763004	27.456271	-72.923996
45750		15.770004	27.457221	-72.918968
45751		15.775642	27.458933	-72.912952
45752		15.783643	27.455198	-72.908129
45753		15.788054	27.453649	-72.908134
45754		15.790796	27.453703	-72.907552
45755		15.795525	27.454958	-72.903165
45756		15.799463	27.456086	-72.897710
45757		15.798161	27.458433	-72.893045
45758		15.799189	27.459736	-72.886223
45759		15.800990	27.461151	-72.881167
45760		15.804186	27.460282	-72.877414
45761		15.811927	27.463517	-72.871698
45762		15.817537	27.465596	-72.870003
45763		15.826567	27.466991	-72.867150
45764		15.829462	27.468372	-72.864131
45765		15.831085	27.470556	-72.860139
45766		15.829442	27.473282	-72.858459
45767		15.828192	27.477055	-72.852468
45768		15.826709	27.477671	-72.848454
45769		15.833342	27.476910	-72.841752
45770		15.834673	27.475923	-72.841617
45771		15.845144	27.473991	-72.841231
45772		15.853887	27.475022	-72.847307
45773		15.862921	27.474954	-72.851731
45774		15.871174	27.476195	-72.855026
45775		15.877014	27.476377	-72.854567
45776		15.876698	27.476613	-72.853528
45777		15.876708	27.477832	-72.851070
45778		15.879941	27.477703	-72.845845
45779		15.879044	27.478471	-72.845016
45780		15.880294	27.478898	-72.844499
45781		15.885079	27.480114	-72.846061
45782		15.888810	27.480599	-72.849114
45783		15.893005	27.484159	-72.847912
45784		15.895236	27.486382	-72.852492
45785		15.893837	27.486582	-72.849843
45786		15.893688	27.485944	-72.849802
45787		15.889598	27.485506	-72.851373
45788		15.886192	27.483707	-72.854873
45789		15.886493	27.485551	-72.855970
45790		15.887381	27.488244	-72.858065
45791		15.886978	27.489579	-72.859065
45792		15.886870	27.489694	-72.857157
45793		15.885615	27.488406	-72.854119
45794		15.885511	27.487913	-72.850445
45795		15.883987	27.490309	-72.847528
45796		15.884044	27.489638	-72.845177
45797		15.882382	27.488468	-72.845592
45798		15.880631	27.487686	-72.845287
45799		15.877442	27.487697	-72.845235
45800		15.876987	27.486514	-72.848018
45801		15.878487	27.485835	-72.846702
45802		15.872275	27.484293	-72.844287
45803		15.867853	27.482512	-72.842986
45804		15.868132	27.483224	-72.845739
45805		15.868633	27.485006	-72.845113
45806		15.870575	27.485264	-72.844506
45807		15.877064	27.484525	-72.845471
45808		15.882226	27.485988	-72.849146
45809		15.887690	27.486998	-72.851466
45810		15.886877	27.490926	-72.854040
45811		15.883629	27.489509	-72.855327
45812		15.871795	27.486003	-72.860499
45813		15.862951	27.484826	-72.864683
45814		15.858390	27.484235	-72.867495
45815		15.858205	27.484059	-72.874043
45816		15.865301	27.484905	-72.875197
45817		15.872321	27.485448	-72.877314
45818		15.881315	27.483606	-72.875697
45819		15.884858	27.479425	-72.871675
45820		15.882919	27.475106	-72.868049
45821		15.879619	27.474421	-72.862739
45822		15.872825	27.473687	-72.861727
45823		15.867768	27.473530	-72.858345
45824		15.866225	27.474036	-72.857441
45825		15.866164	27.473820	-72.856333
45826		15.865920	27.471864	-72.856876
45827		15.869222	27.469922	-72.860238
45828		15.870747	27.467364	-72.867582
45829		15.872467	27.465177	-72.871812
45830		15.877076	27.464564	-72.876351
45831		15.876960	27.462923	-72.876575
45832		15.876704	27.460231	-72.877816
45833		15.878394	27.459485	-72.874784
45834		15.880271	27.461148	-72.868552
45835		15.877294	27.461804	-72.866128
45836		15.875087	27.461105	-72.863328
45837		15.874344	27.461090	-72.861464
45838		15.874845	27.459609	-72.861535
45839		15.878450	27.460451	-72.860511
45840		15.881304	27.462607	-72.857839
45841		15.883189	27.461797	-72.853088
45842		15.880718	27.461916	-72.845069
45843		15.874627	27.463506	-72.843057
45844		15.872802	27.465619	-72.841476
45845		15.879882	27.467582	-72.842253
45846		15.896050	27.467119	-72.842843
45847		15.916763	27.465709	-72.844570
45848		15.937447	27.463904	-72.848079
45849		15.957060	27.459214	-72.848178
45850		15.970902	27.454403	-72.845402
45851		15.972560	27.452942	-72.843045
45852		15.967423	27.450246	-72.842556
45853		15.959554	27.448761	-72.838156
45854		15.953327	27.447166	-72.831656
45855		15.950147	27.444986	-72.825983
45856		15.950162	27.449378	-72.820918
45857		15.947764	27.449839	-72.813343
45858		15.940217	27.451548	-72.809056
45859		15.936695	27.450918	-72.805498
45860		15.933613	27.451983	-72.802667
45861		15.932402	27.452814	-72.797668
45862		15.929329	27.453100	-72.795456
45863		15.928174	27.458250	-72.794105
45864		15.927725	27.459954	-72.793793
45865		15.931984	27.459879	-72.794196
45866		15.934030	27.460174	-72.798630
45867		15.939599	27.458275	-72.801879
45868		15.940178	27.457523	-72.808297
45869		15.940295	27.454391	-72.814065
45870		15.940873	27.450140	-72.822242
45871		15.941184	27.446943	-72.826290
45872		15.942460	27.443812	-72.827716
45873		15.948418	27.441783	-72.827525
45874		15.952629	27.442806	-72.826546
45875		15.960530	27.440176	-72.822711
45876		15.967362	27.434736	-72.821132
45877		15.973385	27.429091	-72.822551
45878		15.972121	27.423091	-72.828778
45879		15.974621	27.417805	-72.834712
45880		15.984867	27.410559	-72.837815
45881		15.988639	27.407778	-72.844321
45882		15.991665	27.403496	-72.842344
45883		15.991255	27.404828	-72.843359
45884		15.994795	27.402406	-72.845399
45885		15.998024	27.401181	-72.842180
45886		15.995386	27.398531	-72.837058
45887		15.987657	27.396263	-72.831633
45888		15.974655	27.391584	-72.828630
45889		15.957802	27.384832	-72.820025
45890		15.943378	27.376973	-72.817230
45891		15.937789	27.369001	-72.809391
45892		15.937323	27.356342	-72.804128
45893		15.942145	27.342381	-72.800954
45894		15.951812	27.332278	-72.800084
45895		15.958175	27.330821	-72.795792
45896		15.961695	27.334181	-72.785329
45897		15.967291	27.339374	-72.770100
45898		15.966897	27.343149	-72.753584
45899		15.964498	27.350046	-72.741765
45900		15.968005	27.354097	-72.731798
45901		15.975060	27.358176	-72.724655
45902		15.983369	27.361533	-72.719561
45903		15.989666	27.363684	-72.713659
45904		15.992948	27.367151	-72.705650
45905		15.996321	27.370172	-72.698444
45906		15.996549	27.370912	-72.693354
45907		15.993000	27.370277	-72.689827
45908		15.992931	27.368227	-72.689661
45909		15.995614	27.367910	-72.690932
45910		16.002009	27.369769	-72.688556
45911		16.007553	27.372193	-72.689519
45912		16.008420	27.372104	-72.692001
45913		16.008251	27.374785	-72.689973
45914		16.008169	27.377052	-72.686887
45915		16.009769	27.379900	-72.682272
45916		16.012353	27.378507	-72.677687
45917		16.016829	27.379066	-72.675706
45918		16.025041	27.379670	-72.672022
45919		16.035581	27.379122	-72.670263
45920		16.047230	27.378737	-72.669853
45921		16.060883	27.377246	-72.667682
45922		16.072767	27.374496	-72.668821
45923		16.077117	27.371515	-72.670172
45924		16.078896	27.368216	-72.674610
45925		16.079997	27.367665	-72.676757
45926		16.083759	27.368141	-72.681214
45927		16.092842	27.367370	-72.686229
45928		16.106879	27.366262	-72.692560
45929		16.126008	27.363172	-72.696428
45930		16.146198	27.359507	-72.703298
45931		16.166057	27.357633	-72.706594
45932		16.182116	27.353727	-72.709781
45933		16.195610	27.347991	-72.711623
45934		16.202265	27.343322	-72.711332
45935		16.205142	27.337915	-72.713850
45936		16.207944	27.337230	-72.712377
45937		16.217056	27.335664	-72.710453
45938		16.224471	27.334238	-72.710399
45939		16.230707	27.334955	-72.705837
45940		16.233967	27.334131	-72.700852
45941		16.236726	27.334429	-72.693852
45942		16.241067	27.331774	-72.686402
45943		16.245722	27.332255	-72.682714
45944		16.255143	27.330967	-72.676074
45945		16.261143	27.330343	-72.674562
45946		16.269100	27.328695	-72.669760
45947		16.270962	27.328557	-72.664390
45948		16.271127	27.328577	-72.660884
45949		16.272620	27.328589	-72.658943
45950		16.277605	27.327925	-72.659917
45951		16.279893	27.325544	-72.659019
45952		16.281242	27.323856	-72.658150
45953		16.288430	27.322908	-72.659860
45954		16.295974	27.319967	-72.660049
45955		16.302131	27.318559	-72.657493
45956		16.307972	27.316993	-72.656734
45957		16.312969	27.318128	-72.656561
45958		16.314408	27.320044	-72.660225
45959		16.313845	27.322168	-72.662296
45960		16.308603	27.322558	-72.665542
45961		16.304988	27.322023	-72.669650
45962		16.301340	27.318331	-72.674969
45963		16.300762	27.314732	-72.680668
45964		16.300081	27.310908	-72.685929
45965		16.300580	27.307664	-72.688288
45966		16.299536	27.304496	-72.691468
45967		16.297817	27.302629	-72.692612
45968		16.295970	27.299185	-72.693106
45969		16.297071	27.298641	-72.695261
45970		16.301097	27.296962	-72.696001
45971		16.310024	27.295464	-72.695789
45972		16.315578	27.295413	-72.697416
45973		16.319284	27.294045	-72.696694
45974		16.316670	27.293536	-72.697545
45975		16.310644	27.292933	-72.695886
45976		16.300116	27.291865	-72.694805
45977		16.287793	27.291037	-72.695977
45978		16.279894	27.290004	-72.697359
45979		16.281864	27.289184	-72.698554
45980		16.282745	27.286972	-72.703693
45981		16.286043	27.284346	-72.707727
45982		16.292190	27.284896	-72.709095
45983		16.298272	27.287903	-72.711845
45984		16.304147	27.287698	-72.711016
45985		16.302987	27.286302	-72.706364
45986		16.293608	27.288627	-72.704618
45987		16.289248	27.291073	-72.699426
45988		16.286980	27.293307	-72.695907
45989		16.287774	27.293509	-72.693223
45990		16.292124	27.295118	-72.692622
45991		16.297941	27.294564	-72.692820
45992		16.305418	27.292484	-72.690550
45993		16.311188	27.290521	-72.692083
45994		16.315028	27.291749	-72.694775
45995		16.317778	27.293550	-72.694056
45996		16.321278	27.293385	-72.692977
45997		16.327226	27.291342	-72.692799
45998		16.329264	27.290164	-72.692685
45999		16.329055	27.292128	-72.691340
46000		16.330337	27.294830	-72.687937
46001		16.331482	27.295695	-72.688761
46002		16.335723	27.296735	-72.687387
46003		16.338557	27.295639	-72.687627
46004		16.340405	27.295938	-72.689640
46005		16.343975	27.296053	-72.689296
46006		16.347217	27.295241	-72.692503
46007		16.347402	27.293567	-72.696957
46008		16.345322	27.294360	-72.699207
46009		16.343082	27.293435	-72.704830
46010		16.347162	27.293145	-72.706760
46011		16.352110	27.292866	-72.707918
46012		16.357306	27.292109	-72.706536
46013		16.359471	27.291913	-72.705361
46014		16.358030	27.294701	-72.708614
46015		16.356105	27.297920	-72.708526
46016		16.351281	27.299625	-72.705595
46017		16.343695	27.300195	-72.703512
46018		16.336025	27.299180	-72.700086
46019		16.326857	27.299519	-72.698883
46020		16.320609	27.300886	-72.696209
46021		16.316410	27.304069	-72.696253
46022		16.318910	27.304986	-72.696522
46023		16.322346	27.306586	-72.696555
46024		16.317576	27.303894	-72.696957
46025		16.309762	27.303134	-72.697926
46026		16.306395	27.302171	-72.698776
46027		16.301719	27.301168	-72.698657
46028		16.295548	27.300987	-72.697610
46029		16.292145	27.301781	-72.698698
46030		16.289118	27.302191	-72.703464
46031		16.289041	27.303489	-72.708671
46032		16.297383	27.306944	-72.709684
46033		16.287655	27.318232	-72.707047
46034		16.276818	27.319488	-72.706013
46035		16.274015	27.317270	-72.710519
46036		16.269517	27.318134	-72.713442
46037		16.272040	27.318601	-72.715768
46038		16.277477	27.319296	-72.718174
46039		16.281538	27.318586	-72.720953
46040		16.287052	27.317177	-72.723407
46041		16.290741	27.315927	-72.730270
46042		16.295655	27.318410	-72.735648
46043		16.297609	27.317714	-72.744434
46044		16.304965	27.312917	-72.753718
46045		16.315234	27.309742	-72.763894
46046		16.325375	27.314270	-72.766983
46047		16.334143	27.325089	-72.768127
46048		16.338021	27.331351	-72.765859
46049		16.337771	27.332602	-72.765198
46050		16.335652	27.334140	-72.767586
46051		16.341092	27.338744	-72.768239
46052		16.345407	27.341843	-72.765120
46053		16.354338	27.346039	-72.761261
46054		16.364037	27.349749	-72.755895
46055		16.372473	27.349058	-72.752538
46056		16.375340	27.346972	-72.751322
46057		16.376736	27.344858	-72.751408
46058		16.377624	27.345543	-72.753339
46059		16.374856	27.350437	-72.752900
46060		16.370907	27.353885	-72.749201
46061		16.365845	27.357906	-72.741986
46062		16.359458	27.361228	-72.732824
46063		16.360116	27.363467	-72.722297
46064		16.366534	27.363007	-72.715652
46065		16.377593	27.362177	-72.708742
46066		16.389793	27.362172	-72.704534
46067		16.397969	27.364449	-72.701925
46068		16.404197	27.369288	-72.700262
46069		16.408234	27.373578	-72.700086
46070		16.409681	27.378410	-72.702205
46071		16.406565	27.383472	-72.705188
46072		16.404380	27.385827	-72.706046
46073		16.399052	27.387264	-72.710793
46074		16.392039	27.389013	-72.715241
46075		16.383023	27.390104	-72.719303
46076		16.372155	27.390754	-72.726682
46077		16.362639	27.392795	-72.735203
46078		16.353661	27.394393	-72.745926
46079		16.345593	27.398147	-72.753943
46080		16.339344	27.403203	-72.766108
46081		16.335050	27.404409	-72.775769
46082		16.326418	27.403778	-72.782925
46083		16.313144	27.403358	-72.792770
46084		16.297724	27.404707	-72.798987
46085		16.282749	27.406104	-72.801857
46086		16.269278	27.407539	-72.802873
46087		16.255729	27.409948	-72.805905
46088		16.247443	27.411217	-72.809299
46089		16.239104	27.412094	-72.814126
46090		16.230455	27.414252	-72.821005
46091		16.220033	27.415848	-72.831177
46092		16.212521	27.417683	-72.841852
46093		16.208047	27.418957	-72.853228
46094		16.196810	27.419857	-72.862594
46095		16.181355	27.417191	-72.872888
46096		16.166116	27.417933	-72.883661
46097		16.152958	27.415998	-72.893149
46098		16.145237	27.416623	-72.904894
46099		16.147269	27.418729	-72.911019
46100		16.153830	27.421363	-72.915251
46101		16.162197	27.424395	-72.917829
46102		16.166296	27.425555	-72.916622
46103		16.166288	27.423818	-72.915226
46104		16.157977	27.426504	-72.916900
46105		16.145039	27.432990	-72.918428
46106		16.127713	27.439090	-72.917355
46107		16.107477	27.441982	-72.918494
46108		16.087085	27.444683	-72.919229
46109		16.067520	27.446674	-72.921783
46110		16.048062	27.449015	-72.922291
46111		16.025289	27.449706	-72.919726
46112		15.998205	27.450567	-72.914490
46113		15.971503	27.449454	-72.906735
46114		15.944275	27.448229	-72.905053
46115		15.920971	27.449733	-72.899407
46116		15.902335	27.450346	-72.890909
46117		15.885656	27.449936	-72.888511
46118		15.873250	27.449399	-72.889098
46119		15.866823	27.451019	-72.889001
46120		15.866597	27.449817	-72.888010
46121		15.864809	27.447217	-72.889872
46122		15.858306	27.441450	-72.895030
46123		15.850139	27.436512	-72.901776
46124		15.844192	27.432076	-72.907505
46125		15.839779	27.429595	-72.912929
46126		15.835978	27.424477	-72.922465
46127		15.833378	27.423678	-72.931529
46128		15.833949	27.420983	-72.939030
46129		15.834691	27.420572	-72.944608
46130		15.834119	27.420235	-72.946806
46131		15.835319	27.417476	-72.949252
46132		15.833550	27.416176	-72.946202
46133		15.833533	27.414429	-72.944808
46134		15.832606	27.412780	-72.942445
46135		15.830420	27.408806	-72.941482
46136		15.828526	27.406653	-72.943721
46137		15.832779	27.406549	-72.944106
46138		15.839367	27.409816	-72.950143
46139		15.845787	27.411938	-72.950096
46140		15.854436	27.413165	-72.949488
46141		15.864682	27.413452	-72.950380
46142		15.873397	27.411874	-72.950492
46143		15.877083	27.410479	-72.949760
46144		15.881093	27.410937	-72.951117
46145		15.882706	27.411527	-72.946853
46146		15.885575	27.408639	-72.947277
46147		15.885450	27.409780	-72.944948
46148		15.883855	27.410444	-72.940021
46149		15.883896	27.411502	-72.935988
46150		15.884422	27.413640	-72.932666
46151		15.889407	27.414744	-72.932467
46152		15.902368	27.419711	-72.931987
46153		15.916939	27.423744	-72.932665
46154		15.931754	27.423100	-72.933645
46155		15.949836	27.420335	-72.934042
46156		15.962364	27.419649	-72.935197
46157		15.973810	27.419491	-72.931713
46158		15.983402	27.420229	-72.922047
46159		15.982750	27.423440	-72.907747
46160		15.973735	27.421614	-72.887712
46161		15.960093	27.420682	-72.869151
46162		15.950459	27.419790	-72.855815
46163		15.946091	27.415558	-72.845785
46164		15.947554	27.416666	-72.841931
46165		15.958113	27.421209	-72.844687
46166		15.975103	27.427182	-72.850407
46167		15.993901	27.430046	-72.855485
46168		16.009857	27.429809	-72.860611
46169		16.016886	27.427530	-72.865269
46170		16.015299	27.421800	-72.864733
46171		16.013566	27.422009	-72.863969
46172		16.012135	27.423229	-72.857723
46173		16.010355	27.423291	-72.849416
46174		16.007071	27.422124	-72.840294
46175		16.002967	27.420748	-72.833472
46176		15.998127	27.419570	-72.832300
46177		15.999534	27.418835	-72.831074
46178		16.003604	27.417086	-72.834475
46179		16.011390	27.416714	-72.837877
46180		16.019098	27.416155	-72.840659
46181		16.025461	27.415469	-72.843254
46182		16.031766	27.413983	-72.843879
46183		16.036148	27.412391	-72.843893
46184		16.035395	27.412968	-72.846517
46185		16.039841	27.414175	-72.843883
46186		16.041387	27.411591	-72.842777
46187		16.043689	27.411976	-72.839264
46188		16.042005	27.410520	-72.837245
46189		16.042574	27.411462	-72.835665
46190		16.046708	27.411145	-72.836622
46191		16.049503	27.409325	-72.837530
46192		16.050373	27.412157	-72.838606
46193		16.050235	27.413291	-72.836294
46194		16.052849	27.413408	-72.836804
46195		16.052007	27.414734	-72.833759
46196		16.054864	27.415342	-72.832880
46197		16.054856	27.414990	-72.830193
46198		16.057083	27.415256	-72.825014
46199		16.061657	27.414974	-72.822004
46200		16.067642	27.414831	-72.817588
46201		16.073432	27.412853	-72.819069
46202		16.077765	27.413835	-72.816986
46203		16.082161	27.412940	-72.816340
46204		16.088145	27.412702	-72.813175
46205		16.088985	27.411370	-72.810186
46206		16.085643	27.411769	-72.809233
46207		16.083324	27.410683	-72.807374
46208		16.084487	27.410585	-72.806422
46209		16.083834	27.410585	-72.810537
46210		16.084956	27.411107	-72.811196
46211		16.086770	27.411751	-72.812788
46212		16.084901	27.410991	-72.813954
46213		16.080014	27.412143	-72.813675
46214		16.074147	27.412732	-72.814349
46215		16.069113	27.414670	-72.815109
46216		16.066706	27.418448	-72.818999
46217		16.070537	27.421398	-72.821841
46218		16.074634	27.421026	-72.824480
46219		16.074904	27.423538	-72.824985
46220		16.073067	27.423493	-72.824883
46221		16.067468	27.424834	-72.823879
46222		16.066135	27.426683	-72.827511
46223		16.076533	27.437684	-72.827677
46224		16.062249	27.454859	-72.817294
46225		16.062158	27.458780	-72.812352
46226		16.063214	27.456505	-72.815833
46227		16.066438	27.456763	-72.818891
46228		16.063635	27.455641	-72.822074
46229		16.061592	27.457419	-72.823413
46230		16.068041	27.460069	-72.819923
46231		16.072896	27.462647	-72.820099
46232		16.078685	27.462555	-72.818675
46233		16.086109	27.462894	-72.817271
46234		16.096073	27.463897	-72.818125
46235		16.110091	27.465912	-72.818292
46236		16.121872	27.468318	-72.816655
46237		16.127880	27.469038	-72.813790
46238		16.127709	27.467208	-72.811499
46239		16.120511	27.468324	-72.811410
46240		16.112873	27.466308	-72.810342
46241		16.105210	27.463946	-72.809435
46242		16.103532	27.463845	-72.806957
46243		16.108095	27.463551	-72.803953
46244		16.116319	27.459041	-72.805982
46245		16.127724	27.456753	-72.804457
46246		16.140604	27.453764	-72.803201
46247		16.153822	27.447333	-72.801355
46248		16.169246	27.442795	-72.798788
46249		16.178809	27.439500	-72.793007
46250		16.188087	27.436017	-72.790857
46251		16.193781	27.433162	-72.785483
46252		16.195282	27.429907	-72.784895
46253		16.196288	27.429866	-72.778908
46254		16.199326	27.430494	-72.773972
46255		16.204369	27.430614	-72.765222
46256		16.212200	27.434038	-72.755344
46257		16.215625	27.432541	-72.748818
46258		16.216196	27.428744	-72.740688
46259		16.213494	27.421993	-72.738341
46260		16.202795	27.416071	-72.738363
46261		16.191492	27.410491	-72.737796
46262		16.190655	27.405998	-72.735820
46263		16.193907	27.403896	-72.731654
46264		16.196178	27.400260	-72.720706
46265		16.194145	27.395920	-72.708933
46266		16.184438	27.390791	-72.696866
46267		16.171488	27.386897	-72.687712
46268		16.158459	27.382101	-72.678651
46269		16.149067	27.377951	-72.672482
46270		16.148544	27.372485	-72.668930
46271		16.156496	27.368260	-72.664713
46272		16.168982	27.360421	-72.661706
46273		16.186090	27.354922	-72.658131
46274		16.202953	27.349334	-72.656155
46275		16.208847	27.344473	-72.658586
46276		16.213545	27.340355	-72.667095
46277		16.217005	27.336256	-72.670729
46278		16.222950	27.331132	-72.671230
46279		16.229117	27.324691	-72.671600
46280		16.233797	27.320494	-72.669245
46281		16.241741	27.316264	-72.665039
46282		16.250360	27.317445	-72.666545
46283		16.260685	27.319792	-72.665403
46284		16.276162	27.321139	-72.666071
46285		16.291596	27.321363	-72.668996
46286		16.305768	27.318280	-72.667761
46287		16.316759	27.318351	-72.669336
46288		16.327187	27.316814	-72.669133
46289		16.333340	27.317421	-72.664581
46290		16.336204	27.317327	-72.663258
46291		16.341496	27.318219	-72.659671
46292		16.348069	27.319957	-72.657692
46293		16.354825	27.322554	-72.653573
46294		16.363035	27.322936	-72.652310
46295		16.371895	27.323573	-72.651701
46296		16.380424	27.327016	-72.651449
46297		16.392617	27.328684	-72.646687
46298		16.401678	27.329561	-72.643143
46299		16.408390	27.330071	-72.641014
46300		16.414330	27.333404	-72.635163
46301		16.416463	27.334553	-72.632714
46302		16.419394	27.335147	-72.630091
46303		16.426831	27.336161	-72.628027
46304		16.435662	27.339311	-72.625326
46305		16.446283	27.341450	-72.620799
46306		16.456669	27.342029	-72.619460
46307		16.464668	27.342952	-72.619815
46308		16.472739	27.344365	-72.616789
46309		16.475153	27.344618	-72.611624
46310		16.463615	27.342304	-72.611971
46311		16.449834	27.336822	-72.613324
46312		16.440317	27.335554	-72.614709
46313		16.437098	27.334755	-72.613873
46314		16.441302	27.330184	-72.617076
46315		16.450909	27.324978	-72.620806
46316		16.461952	27.319925	-72.623628
46317		16.470741	27.317090	-72.626335
46318		16.474200	27.314966	-72.626059
46319		16.477991	27.312759	-72.624340
46320		16.479290	27.312520	-72.622525
46321		16.485788	27.308649	-72.616888
46322		16.491768	27.307755	-72.613729
46323		16.497171	27.307149	-72.609784
46324		16.503991	27.303794	-72.608121
46325		16.508493	27.301398	-72.607132
46326		16.511890	27.299897	-72.608758
46327		16.515562	27.299176	-72.607405
46328		16.515414	27.296490	-72.606605
46329		16.513998	27.292238	-72.604812
46330		16.518742	27.284422	-72.604422
46331		16.518053	27.280674	-72.602693
46332		16.519396	27.277639	-72.602052
46333		16.523025	27.274839	-72.602690
46334		16.531663	27.273100	-72.607338
46335		16.537589	27.270326	-72.607803
46336		16.541702	27.267870	-72.611087
46337		16.547497	27.265891	-72.612578
46338		16.554816	27.266053	-72.611143
46339		16.554528	27.268657	-72.609236
46340		16.553545	27.273331	-72.603227
46341		16.551548	27.276190	-72.594077
46342		16.549708	27.277219	-72.583823
46343		16.546514	27.277478	-72.572503
46344		16.545561	27.274686	-72.563490
46345		16.543050	27.273372	-72.554227
46346		16.536861	27.273059	-72.551935
46347		16.535076	27.272578	-72.551900
46348		16.533133	27.272008	-72.552155
46349		16.534687	27.273561	-72.556467
46350		16.538413	27.273599	-72.562332
46351		16.542927	27.272221	-72.569846
46352		16.546900	27.269961	-72.574150
46353		16.546333	27.265746	-72.580572
46354		16.547115	27.263721	-72.587139
46355		16.548199	27.263179	-72.589341
46356		16.550395	27.263222	-72.586361
46357		16.551190	27.262555	-72.582777
46358		16.552000	27.260286	-72.578573
46359		16.549381	27.261479	-72.578177
46360		16.547432	27.259351	-72.581514
46361		16.543660	27.260352	-72.586120
46362		16.541222	27.262199	-72.591501
46363		16.538906	27.264208	-72.596230
46364		16.539044	27.262406	-72.600208
46365		16.539960	27.260584	-72.605425
46366		16.543170	27.260042	-72.607589
46367		16.544368	27.258011	-72.609432
46368		16.542064	27.257677	-72.614487
46369		16.541626	27.260380	-72.614277
46370		16.539616	27.260622	-72.614170
46371		16.537005	27.262504	-72.613116
46372		16.538183	27.262396	-72.612107
46373		16.538703	27.262626	-72.611238
46374		16.537550	27.263109	-72.611615
46375		16.536344	27.263233	-72.613336
46376		16.535921	27.263512	-72.614210
46377		16.532591	27.265579	-72.612437
46378		16.525926	27.267125	-72.613052
46379		16.529577	27.265705	-72.612367
46380		16.530774	27.265420	-72.613096
46381		16.525255	27.265974	-72.611147
46382		16.521241	27.266558	-72.608171
46383		16.521922	27.268065	-72.604293
46384		16.523041	27.267984	-72.604265
46385		16.516791	27.268034	-72.602260
46386		16.512888	27.270209	-72.607286
46387		16.516030	27.271973	-72.610693
46388		16.521361	27.274252	-72.614495
46389		16.524617	27.274529	-72.617542
46390		16.519354	27.273575	-72.622291
46391		16.511086	27.273037	-72.626916
46392		16.505951	27.269204	-72.631984
46393		16.499255	27.268185	-72.636367
46394		16.494263	27.266273	-72.638886
46395		16.491014	27.265466	-72.638089
46396		16.487639	27.263857	-72.637924
46397		16.483499	27.261269	-72.640078
46398		16.482208	27.259884	-72.642001
46399		16.483278	27.258647	-72.644869
46400		16.485664	27.256947	-72.649145
46401		16.486700	27.253637	-72.654001
46402		16.485775	27.252227	-72.662197
46403		16.482155	27.254500	-72.663809
46404		16.471037	27.256709	-72.660887
46405		16.456275	27.256464	-72.660358
46406		16.441449	27.255302	-72.660452
46407		16.430446	27.256089	-72.659859
46408		16.424073	27.253995	-72.658367
46409		16.420429	27.254882	-72.661306
46410		16.418490	27.253588	-72.661967
46411		16.411684	27.254741	-72.666058
46412		16.411639	27.257170	-72.670338
46413		16.411123	27.255717	-72.674112
46414		16.408997	27.253907	-72.677100
46415		16.407772	27.253331	-72.679492
46416		16.404291	27.253162	-72.679734
46417		16.402743	27.251765	-72.677016
46418		16.401276	27.250075	-72.672192
46419		16.401888	27.248119	-72.671633
46420		16.402244	27.248081	-72.673148
46421		16.405817	27.250905	-72.670175
46422		16.410920	27.249597	-72.668503
46423		16.416873	27.248196	-72.667626
46424		16.421374	27.244325	-72.664534
46425		16.425762	27.244093	-72.663241
46426		16.434363	27.245361	-72.664632
46427		16.445523	27.244620	-72.665120
46428		16.458916	27.242345	-72.666123
46429		16.467624	27.240996	-72.669145
46430		16.474551	27.242142	-72.672420
46431		16.480879	27.245017	-72.673344
46432		16.491107	27.246563	-72.672305
46433		16.495109	27.248033	-72.674741
46434		16.499184	27.246450	-72.676914
46435		16.500993	27.246408	-72.679180
46436		16.501102	27.248095	-72.681248
46437		16.500490	27.249515	-72.684064
46438		16.499776	27.250179	-72.686552
46439		16.496106	27.249690	-72.690825
46440		16.495275	27.251889	-72.693294
46441		16.497814	27.252350	-72.695617
46442		16.496903	27.250898	-72.704179
46443		16.496250	27.249558	-72.709643
46444		16.496178	27.250844	-72.712815
46445		16.497851	27.250908	-72.716765
46446		16.501950	27.246432	-72.721735
46447		16.506236	27.239301	-72.727064
46448		16.510222	27.237106	-72.730700
46449		16.512474	27.236405	-72.737713
46450		16.518043	27.234314	-72.741740
46451		16.526155	27.232356	-72.743021
46452		16.530913	27.228456	-72.748658
46453		16.533651	27.223875	-72.752251
46454		16.535659	27.221383	-72.752060
46455		16.537705	27.219055	-72.752949
46456		16.540558	27.216973	-72.751448
46457		16.546381	27.216368	-72.751596
46458		16.550529	27.216086	-72.752176
46459		16.556978	27.218162	-72.752075
46460		16.565457	27.219515	-72.755260
46461		16.574783	27.220163	-72.758694
46462		16.579691	27.218998	-72.759754
46463		16.576903	27.220284	-72.761081
46464		16.570554	27.219384	-72.759892
46465		16.565458	27.220644	-72.761412
46466		16.560626	27.218691	-72.760372
46467		16.554807	27.220135	-72.761176
46468		16.554777	27.222394	-72.767018
46469		16.553934	27.226789	-72.770554
46470		16.550818	27.229523	-72.773708
46471		16.547788	27.233093	-72.776418
46472		16.542097	27.236666	-72.783190
46473		16.530291	27.240168	-72.790757
46474		16.518765	27.240456	-72.795475
46475		16.503693	27.241102	-72.797727
46476		16.483488	27.233778	-72.802474
46477		16.475644	27.215461	-72.815271
46478		16.466470	27.200332	-72.832411
46479		16.460615	27.193860	-72.850281
46480		16.456139	27.195795	-72.862970
46481		16.458430	27.197849	-72.867333
46482		16.453333	27.200130	-72.867825
46483		16.444106	27.198820	-72.865001
46484		16.433912	27.193325	-72.868498
46485		16.426795	27.185949	-72.873110
46486		16.421268	27.183785	-72.882241
46487		16.418558	27.186798	-72.891377
46488		16.418657	27.191649	-72.901617
46489		16.419137	27.197152	-72.906951
46490		16.416621	27.196242	-72.915835
46491		16.413660	27.194867	-72.921498
46492		16.404812	27.192073	-72.923497
46493		16.394346	27.192754	-72.925373
46494		16.384548	27.195214	-72.925243
46495		16.375563	27.198971	-72.925250
46496		16.370540	27.200659	-72.923216
46497		16.365293	27.202009	-72.926437
46498		16.363152	27.203691	-72.926725
46499		16.358493	27.204276	-72.933003
46500		16.358192	27.205548	-72.941157
46501		16.360228	27.208503	-72.948223
46502		16.365511	27.210312	-72.951433
46503		16.371063	27.208543	-72.956250
46504		16.373255	27.208351	-72.962725
46505		16.377097	27.207168	-72.969477
46506		16.377700	27.205395	-72.977692
46507		16.380700	27.205883	-72.984091
46508		16.381342	27.206189	-72.989816
46509		16.383875	27.206642	-72.992138
46510		16.385682	27.204944	-72.994676
46511		16.388325	27.203222	-72.997298
46512		16.392383	27.205097	-72.997198
46513		16.396496	27.205073	-72.999268
46514		16.400739	27.203256	-73.000384
46515		16.401333	27.201973	-72.999185
46516		16.396126	27.195071	-72.996133
46517		16.384862	27.183748	-72.997741
46518		16.371301	27.172121	-72.998594
46519		16.347636	27.163008	-73.000189
46520		16.322799	27.157676	-73.003204
46521		16.299421	27.158455	-73.003002
46522		16.280371	27.156464	-73.008283
46523		16.269635	27.158037	-73.012884
46524		16.272458	27.159201	-73.019532
46525		16.284582	27.157847	-73.028769
46526		16.299225	27.152787	-73.035682
46527		16.308764	27.144264	-73.044286
46528		16.308154	27.139115	-73.052025
46529		16.292541	27.136239	-73.053554
46530		16.267464	27.131837	-73.058516
46531		16.238811	27.127792	-73.060955
46532		16.211653	27.123084	-73.063621
46533		16.188351	27.118912	-73.066372
46534		16.165552	27.115235	-73.070958
46535		16.145782	27.113695	-73.075658
46536		16.134296	27.114787	-73.076807
46537		16.127578	27.116482	-73.078620
46538		16.123771	27.114471	-73.084548
46539		16.116552	27.111997	-73.086241
46540		16.107456	27.110779	-73.089939
46541		16.094396	27.113678	-73.093446
46542		16.076518	27.120540	-73.095402
46543		16.055795	27.129038	-73.093570
46544		16.033744	27.134049	-73.090682
46545		16.010563	27.137335	-73.084571
46546		15.993273	27.141634	-73.080137
46547		15.984595	27.142969	-73.077142
46548		15.982759	27.142897	-73.075150
46549		15.984076	27.141419	-73.074654
46550		15.985804	27.141176	-73.077089
46551		15.986995	27.139116	-73.078928
46552		15.989313	27.140126	-73.083462
46553		15.985503	27.141080	-73.088128
46554		15.978749	27.141117	-73.090559
46555		15.969089	27.144225	-73.088909
46556		15.960153	27.146906	-73.087199
46557		15.954641	27.148670	-73.082380
46558		15.950622	27.146444	-73.079919
46559		15.948144	27.142541	-73.080845
46560		15.949179	27.138274	-73.085952
46561		15.956110	27.137611	-73.092502
46562		15.964715	27.137565	-73.095236
46563		15.969446	27.136074	-73.100976
46564		15.973802	27.138965	-73.105836
46565		15.981971	27.145044	-73.110595
46566		15.991814	27.150265	-73.113506
46567		16.000470	27.155224	-73.112212
46568		16.004836	27.155354	-73.110010
46569		16.007621	27.156953	-73.107654
46570		16.008792	27.160253	-73.103286
46571		16.011459	27.163337	-73.101294
46572		16.008473	27.164981	-73.104809
46573		16.008694	27.167452	-73.105364
46574		16.007059	27.169609	-73.110532
46575		16.007272	27.169325	-73.113712
46576		16.009642	27.171773	-73.115263
46577		16.012418	27.170615	-73.115532
46578		16.013897	27.166766	-73.112798
46579		16.013126	27.164347	-73.109828
46580		16.008893	27.164870	-73.109300
46581		16.004716	27.169124	-73.104965
46582		16.002599	27.172002	-73.104482
46583		16.004525	27.173200	-73.103755
46584		16.005464	27.171931	-73.106484
46585		16.009584	27.170517	-73.109842
46586		16.015180	27.168453	-73.113866
46587		16.018451	27.169395	-73.116227
46588		16.021922	27.168629	-73.115296
46589		16.023113	27.170009	-73.113864
46590		16.024373	27.170440	-73.110892
46591		16.024098	27.172872	-73.107394
46592		16.022647	27.170434	-73.101026
46593		16.017841	27.169941	-73.098909
46594		16.016353	27.170986	-73.090138
46595		16.014726	27.172297	-73.084869
46596		16.015234	27.174356	-73.079466
46597		16.018133	27.175838	-73.075439
46598		16.022482	27.176122	-73.072236
46599		16.029166	27.173831	-73.072680
46600		16.033343	27.171541	-73.074004
46601		16.035995	27.169117	-73.077262
46602		16.038528	27.170736	-73.077288
46603		16.041424	27.171529	-73.073918
46604		16.044560	27.171263	-73.065671
46605		16.046219	27.168760	-73.060824
46606		16.047866	27.163927	-73.057194
46607		16.044525	27.165133	-73.054527
46608		16.038031	27.167045	-73.050902
46609		16.039221	27.169110	-73.048819
46610		16.045125	27.170816	-73.045213
46611		16.055963	27.170605	-73.039201
46612		16.064415	27.169514	-73.033826
46613		16.072580	27.173042	-73.029775
46614		16.078983	27.178411	-73.025565
46615		16.084092	27.184151	-73.019062
46616		16.084038	27.186734	-73.011253
46617		16.073212	27.185063	-73.007828
46618		16.063815	27.184237	-73.004013
46619		16.062175	27.185542	-72.998761
46620		16.062766	27.184712	-72.995049
46621		16.064064	27.182542	-72.995231
46622		16.067306	27.181898	-72.998079
46623		16.071549	27.179001	-73.001071
46624		16.074130	27.178502	-73.002245
46625		16.078377	27.179725	-73.001303
46626		16.079786	27.180053	-72.995792
46627		16.084610	27.177278	-72.989766
46628		16.084084	27.173061	-72.982417
46629		16.082780	27.169218	-72.976743
46630		16.080422	27.167687	-72.972023
46631		16.078774	27.167616	-72.968087
46632		16.077041	27.166778	-72.964244
46633		16.078456	27.167240	-72.960134
46634		16.078089	27.165368	-72.960274
46635		16.078764	27.163952	-72.957430
46636		16.078610	27.162603	-72.953850
46637		16.080987	27.159910	-72.949723
46638		16.080367	27.154293	-72.945508
46639		16.080019	27.149354	-72.937857
46640		16.081771	27.144397	-72.932396
46641		16.083748	27.141543	-72.922558
46642		16.081321	27.135446	-72.910564
46643		16.079828	27.128468	-72.898474
46644		16.081858	27.124007	-72.887537
46645		16.093025	27.122057	-72.877826
46646		16.103389	27.120906	-72.865725
46647		16.107056	27.116768	-72.854614
46648		16.106258	27.109435	-72.841855
46649		16.102421	27.103798	-72.828692
46650		16.098619	27.099314	-72.812152
46651		16.094778	27.097106	-72.795718
46652		16.091478	27.096132	-72.779781
46653		16.085713	27.096806	-72.766660
46654		16.077906	27.100137	-72.758658
46655		16.070741	27.103057	-72.753537
46656		16.067199	27.106890	-72.750022
46657		16.065319	27.108422	-72.748129
46658		16.063389	27.106957	-72.748590
46659		16.063836	27.105770	-72.749092
46660		16.062640	27.104930	-72.749224
46661		16.060431	27.106808	-72.752334
46662		16.057282	27.109608	-72.755141
46663		16.049455	27.113221	-72.760032
46664		16.042495	27.114190	-72.764845
46665		16.032662	27.112631	-72.769548
46666		16.024457	27.111675	-72.771205
46667		16.016953	27.112195	-72.773718
46668		16.009971	27.113163	-72.778834
46669		16.007648	27.117209	-72.781651
46670		16.006777	27.119269	-72.786674
46671		16.006894	27.120482	-72.790215
46672		16.007473	27.123676	-72.795376
46673		16.008329	27.126078	-72.798306
46674		16.009082	27.127073	-72.801986
46675		16.007932	27.128417	-72.800801
46676		16.001200	27.131181	-72.800160
46677		15.993053	27.133820	-72.798359
46678		15.989515	27.135626	-72.796951
46679		15.991327	27.137614	-72.797247
46680		15.990583	27.140912	-72.799027
46681		15.985290	27.143625	-72.801029
46682		15.983227	27.143742	-72.801948
46683		15.986739	27.143765	-72.801612
46684		15.985490	27.145779	-72.799643
46685		15.982850	27.147484	-72.797071
46686		15.983167	27.148036	-72.797328
46687		15.981052	27.151161	-72.797479
46688		15.980811	27.152653	-72.792151
46689		15.979128	27.152573	-72.788254
46690		15.972932	27.149318	-72.783941
46691		15.961916	27.147770	-72.782285
46692		15.952212	27.147304	-72.781102
46693		15.951159	27.149213	-72.777608
46694		15.957084	27.149679	-72.773778
46695		15.965262	27.151118	-72.771666
46696		15.975911	27.149558	-72.767741
46697		15.997457	27.149836	-72.763174
46698		16.020363	27.149501	-72.762046
46699		16.042326	27.152685	-72.760556
46700		16.062062	27.156196	-72.755335
46701		16.077449	27.157465	-72.749196
46702		16.089071	27.156020	-72.741989
46703		16.098305	27.158286	-72.734274
46704		16.101117	27.160325	-72.728798
46705		16.106957	27.163787	-72.724961
46706		16.109445	27.166845	-72.724145
46707		16.116667	27.168697	-72.724671
46708		16.124592	27.169712	-72.724062
46709		16.136694	27.169320	-72.722754
46710		16.151031	27.170189	-72.720033
46711		16.160161	27.169150	-72.717256
46712		16.164577	27.169365	-72.712265
46713		16.168826	27.171939	-72.710012
46714		16.171424	27.173622	-72.707696
46715		16.171643	27.176775	-72.707617
46716		16.174223	27.178150	-72.707756
46717		16.176244	27.178531	-72.706039
46718		16.180420	27.180857	-72.703853
46719		16.184771	27.184673	-72.698627
46720		16.188847	27.191985	-72.693372
46721		16.191500	27.199134	-72.687467
46722		16.192585	27.203835	-72.682289
46723		16.191848	27.208775	-72.683538
46724		16.197362	27.211704	-72.683890
46725		16.205964	27.216727	-72.684191
46726		16.215287	27.220683	-72.684512
46727		16.224633	27.224844	-72.686161
46728		16.234639	27.230813	-72.685874
46729		16.247911	27.235195	-72.686354
46730		16.261053	27.240864	-72.685808
46731		16.276021	27.242595	-72.686314
46732		16.289442	27.243294	-72.685357
46733		16.297406	27.244282	-72.687232
46734		16.301159	27.247702	-72.691854
46735		16.302859	27.250495	-72.693171
46736		16.303630	27.254840	-72.694071
46737		16.306178	27.256649	-72.695074
46738		16.310172	27.256577	-72.698439
46739		16.317288	27.256504	-72.702595
46740		16.325688	27.258830	-72.707185
46741		16.337263	27.261090	-72.712224
46742		16.349529	27.260886	-72.719545
46743		16.360359	27.263326	-72.723892
46744		16.370441	27.263578	-72.729090
46745		16.380944	27.264338	-72.727400
46746		16.386500	27.265167	-72.729388
46747		16.392542	27.263594	-72.726818
46748		16.392927	27.262095	-72.727388
46749		16.392706	27.262327	-72.724261
46750		16.389915	27.263194	-72.723541
46751		16.386405	27.265877	-72.721321
46752		16.382664	27.267327	-72.721815
46753		16.380537	27.270459	-72.721990
46754		16.380030	27.271261	-72.722769
46755		16.385118	27.272158	-72.720865
46756		16.391532	27.275515	-72.718045
46757		16.389609	27.278396	-72.714895
46758		16.389906	27.280509	-72.712639
46759		16.390426	27.279199	-72.711522
46760		16.389886	27.280890	-72.711193
46761		16.387962	27.282408	-72.709358
46762		16.385772	27.286760	-72.708010
46763		16.390118	27.285111	-72.708036
46764		16.386856	27.284614	-72.702510
46765		16.388428	27.281386	-72.698412
46766		16.386334	27.272031	-72.694816
46767		16.380595	27.265041	-72.700365
46768		16.377123	27.260728	-72.702184
46769		16.375099	27.261011	-72.703323
46770		16.379231	27.259450	-72.704736
46771		16.378359	27.257689	-72.701232
46772		16.382870	27.256905	-72.695895
46773		16.382295	27.256806	-72.685442
46774		16.382392	27.255086	-72.676530
46775		16.377889	27.253411	-72.668568
46776		16.371677	27.252265	-72.660897
46777		16.362084	27.255822	-72.655482
46778		16.355676	27.256786	-72.649761
46779		16.356188	27.256835	-72.647338
46780		16.358742	27.256442	-72.648200
46781		16.363635	27.255545	-72.651580
46782		16.368329	27.254017	-72.657223
46783		16.376208	27.253088	-72.662708
46784		16.383193	27.252872	-72.668224
46785		16.391815	27.253126	-72.673090
46786		16.397512	27.252312	-72.674717
46787		16.402057	27.249726	-72.672078
46788		16.407099	27.251218	-72.668486
46789		16.413029	27.252482	-72.664955
46790		16.419767	27.253934	-72.659596
46791		16.425492	27.258851	-72.656107
46792		16.431329	27.259985	-72.652890
46793		16.435565	27.262539	-72.650644
46794		16.446356	27.264070	-72.640964
46795		16.462039	27.262846	-72.631779
46796		16.484155	27.261416	-72.616348
46797		16.511826	27.257161	-72.603585
46798		16.534909	27.257165	-72.584497
46799		16.552756	27.259410	-72.560495
46800		16.553648	27.257960	-72.536684
46801		16.546812	27.252684	-72.517670
46802		16.536178	27.248966	-72.507896
46803		16.534741	27.241692	-72.505662
46804		16.541490	27.236325	-72.505909
46805		16.554901	27.235799	-72.509275
46806		16.574343	27.232374	-72.515982
46807		16.597764	27.226432	-72.525967
46808		16.620478	27.216203	-72.537257
46809		16.648108	27.209396	-72.541760
46810		16.664520	27.205869	-72.548202
46811		16.676137	27.208811	-72.552544
46812		16.682129	27.215355	-72.554924
46813		16.683835	27.221545	-72.552952
46814		16.681214	27.222147	-72.549032
46815		16.675836	27.220767	-72.542076
46816		16.672684	27.217326	-72.536648
46817		16.677216	27.214054	-72.534689
46818		16.686180	27.209429	-72.536786
46819		16.696309	27.210015	-72.542373
46820		16.709245	27.211356	-72.550177
46821		16.721518	27.214256	-72.556862
46822		16.732144	27.217581	-72.562748
46823		16.742266	27.220879	-72.565706
46824		16.746185	27.223020	-72.568296
46825		16.747242	27.225187	-72.567923
46826		16.748198	27.228614	-72.566286
46827		16.747758	27.231134	-72.564535
46828		16.750488	27.233148	-72.559974
46829		16.753227	27.236047	-72.556351
46830		16.753405	27.238731	-72.556270
46831		16.753615	27.243239	-72.554894
46832		16.748424	27.248999	-72.550085
46833		16.746489	27.249164	-72.549590
46834		16.747539	27.251154	-72.547143
46835		16.744664	27.252442	-72.548617
46836		16.743297	27.251669	-72.552131
46837		16.751834	27.254099	-72.556675
46838		16.762669	27.255654	-72.560499
46839		16.770648	27.256639	-72.562357
46840		16.773075	27.258986	-72.563603
46841		16.775531	27.260934	-72.566269
46842		16.781159	27.263058	-72.565291
46843		16.779868	27.266564	-72.563858
46844		16.776931	27.267532	-72.565500
46845		16.771812	27.265966	-72.568202
46846		16.767356	27.265722	-72.569116
46847		16.769157	27.267034	-72.570095
46848		16.773143	27.266332	-72.574276
46849		16.778788	27.264599	-72.579011
46850		16.784466	27.262544	-72.581039
46851		16.790861	27.260636	-72.586463
46852		16.799539	27.259877	-72.589468
46853		16.809948	27.261414	-72.588760
46854		16.816496	27.261663	-72.587447
46855		16.819324	27.262390	-72.584147
46856		16.820666	27.261847	-72.579275
46857		16.817316	27.262226	-72.575760
46858		16.815303	27.260815	-72.576115
46859		16.812614	27.259127	-72.576917
46860		16.811356	27.255509	-72.581249
46861		16.808384	27.256258	-72.585046
46862		16.810628	27.258079	-72.590201
46863		16.815424	27.260039	-72.592616
46864		16.821101	27.259937	-72.593413
46865		16.820846	27.256772	-72.593627
46866		16.821920	27.254510	-72.595303
46867		16.824658	27.253345	-72.595634
46868		16.823364	27.254161	-72.594200
46869		16.818230	27.255976	-72.593626
46870		16.810093	27.253610	-72.592828
46871		16.801212	27.253599	-72.591452
46872		16.791266	27.258093	-72.588343
46873		16.789498	27.257980	-72.584555
46874		16.787601	27.255102	-72.585233
46875		16.787814	27.254874	-72.588469
46876		16.790264	27.255955	-72.589904
46877		16.794309	27.258765	-72.590972
46878		16.797687	27.258687	-72.590889
46879		16.800429	27.256170	-72.592535
46880		16.803145	27.252839	-72.592866
46881		16.799415	27.255114	-72.594669
46882		16.793992	27.256466	-72.598023
46883		16.796539	27.258276	-72.599034
46884		16.801352	27.257952	-72.601847
46885		16.805412	27.256710	-72.606858
46886		16.810910	27.255763	-72.611469
46887		16.815621	27.257186	-72.616191
46888		16.819458	27.257977	-72.621874
46889		16.818641	27.259689	-72.628076
46890		16.819462	27.260507	-72.630493
46891		16.816665	27.260979	-72.630992
46892		16.815478	27.260056	-72.629836
46893		16.810337	27.260517	-72.630592
46894		16.806628	27.261646	-72.631723
46895		16.806079	27.262943	-72.632964
46896		16.808595	27.261342	-72.635965
46897		16.815748	27.260614	-72.640746
46898		16.820795	27.260921	-72.654146
46899		16.829911	27.265483	-72.660688
46900		16.842156	27.269055	-72.665309
46901		16.855674	27.268400	-72.666985
46902		16.862986	27.263242	-72.671438
46903		16.859457	27.258492	-72.676516
46904		16.857184	27.260871	-72.677802
46905		16.858398	27.262750	-72.674139
46906		16.858171	27.262009	-72.669539
46907		16.856209	27.262166	-72.669075
46908		16.852523	27.263442	-72.669671
46909		16.851876	27.266226	-72.671255
46910		16.857441	27.267754	-72.672533
46911		16.870873	27.267239	-72.675857
46912		16.882725	27.265454	-72.679104
46913		16.883780	27.263566	-72.682695
46914		16.881731	27.264947	-72.680895
46915		16.878169	27.266266	-72.680062
46916		16.877536	27.269408	-72.678329
46917		16.879580	27.272317	-72.672386
46918		16.884484	27.273736	-72.672577
46919		16.885524	27.274544	-72.673540
46920		16.886597	27.275779	-72.670347
46921		16.884719	27.275795	-72.668237
46922		16.876575	27.271815	-72.670875
46923		16.862417	27.266949	-72.670676
46924		16.844174	27.264173	-72.670199
46925		16.828059	27.262376	-72.674928
46926		16.816575	27.259960	-72.678285
46927		16.809008	27.257174	-72.684256
46928		16.802151	27.252691	-72.690805
46929		16.801466	27.247524	-72.701924
46930		16.803815	27.246678	-72.707761
46931		16.806476	27.242951	-72.712375
46932		16.809011	27.241799	-72.714976
46933		16.806868	27.242232	-72.717825
46934		16.807745	27.241655	-72.722341
46935		16.810221	27.240231	-72.728290
46936		16.815547	27.240839	-72.735600
46937		16.824316	27.238279	-72.741395
46938		16.832785	27.237482	-72.748949
46939		16.832628	27.240512	-72.756176
46940		16.834743	27.242130	-72.764099
46941		16.836267	27.244531	-72.769388
46942		16.838612	27.244377	-72.774394
46943		16.845855	27.244187	-72.776855
46944		16.855019	27.240208	-72.773638
46945		16.861213	27.234944	-72.771073
46946		16.867442	27.226844	-72.768231
46947		16.873060	27.220123	-72.762995
46948		16.877765	27.212676	-72.760130
46949		16.877929	27.206776	-72.754081
46950		16.873206	27.203366	-72.748105
46951		16.866319	27.198777	-72.741530
46952		16.859858	27.198798	-72.735936
46953		16.859814	27.197894	-72.728595
46954		16.864337	27.197070	-72.721453
46955		16.871056	27.199991	-72.714992
46956		16.883887	27.201902	-72.709359
46957		16.896825	27.202479	-72.705707
46958		16.909741	27.200703	-72.703642
46959		16.922127	27.195783	-72.701266
46960		16.928194	27.191298	-72.698153
46961		16.926507	27.185641	-72.698012
46962		16.921508	27.180857	-72.699121
46963		16.911161	27.179021	-72.696770
46964		16.901403	27.178406	-72.695185
46965		16.893308	27.178068	-72.692910
46966		16.884343	27.175075	-72.693685
46967		16.874693	27.169843	-72.696954
46968		16.869436	27.166068	-72.703290
46969		16.864231	27.161959	-72.710321
46970		16.860546	27.158397	-72.714237
46971		16.857666	27.156989	-72.718377
46972		16.857228	27.155422	-72.716840
46973		16.856956	27.151578	-72.717739
46974		16.853226	27.147814	-72.724231
46975		16.845732	27.146240	-72.727252
46976		16.838734	27.147281	-72.730752
46977		16.830278	27.150874	-72.731799
46978		16.823228	27.152613	-72.736537
46979		16.813203	27.153329	-72.741157
46980		16.806164	27.153272	-72.746194
46981		16.799071	27.155457	-72.753215
46982		16.791836	27.159598	-72.758541
46983		16.778579	27.164650	-72.760469
46984		16.760654	27.166303	-72.763975
46985		16.752371	27.166913	-72.764362
46986		16.751604	27.169499	-72.767101
46987		16.755849	27.167977	-72.768793
46988		16.762426	27.163772	-72.771355
46989		16.767278	27.161691	-72.777678
46990		16.768652	27.163927	-72.784920
46991		16.762637	27.164691	-72.786690
46992		16.749838	27.164210	-72.783148
46993		16.729282	27.163829	-72.779920
46994		16.704183	27.158738	-72.776417
46995		16.683994	27.152404	-72.771846
46996		16.670671	27.147024	-72.766058
46997		16.664608	27.138745	-72.761832
46998		16.655125	27.129371	-72.764048
46999		16.643356	27.122339	-72.763973
47000		16.628929	27.120914	-72.761855
47001		16.611489	27.118351	-72.761016
47002		16.598264	27.120024	-72.762540
47003		16.587894	27.116152	-72.762197
47004		16.578123	27.112914	-72.762549
47005		16.575428	27.108515	-72.766013
47006		16.573270	27.106622	-72.770174
47007		16.569711	27.104556	-72.772647
47008		16.561350	27.102870	-72.775007
47009		16.554760	27.100149	-72.776086
47010		16.541754	27.097960	-72.778632
47011		16.535096	27.094706	-72.782011
47012		16.532845	27.094838	-72.786667
47013		16.532383	27.093957	-72.788237
47014		16.532633	27.092014	-72.790079
47015		16.531520	27.088472	-72.791941
47016		16.527939	27.086939	-72.792823
47017		16.525868	27.087218	-72.794035
47018		16.525310	27.086833	-72.795539
47019		16.527016	27.088939	-72.797513
47020		16.526298	27.091506	-72.797944
47021		16.524793	27.095260	-72.799857
47022		16.524968	27.097568	-72.799347
47023		16.525147	27.100020	-72.799973
47024		16.522762	27.103878	-72.801503
47025		16.517466	27.106476	-72.802007
47026		16.507310	27.107682	-72.806608
47027		16.496407	27.109363	-72.811588
47028		16.482987	27.113169	-72.815347
47029		16.471789	27.119982	-72.820700
47030		16.469186	27.126181	-72.823737
47031		16.468427	27.130431	-72.825679
47032		16.464720	27.127527	-72.830503
47033		16.461077	27.125596	-72.834633
47034		16.454155	27.121731	-72.841833
47035		16.443283	27.120713	-72.849435
47036		16.428262	27.122257	-72.857006
47037		16.412452	27.126200	-72.863895
47038		16.394265	27.129061	-72.869970
47039		16.377758	27.133031	-72.874550
47040		16.361200	27.135459	-72.879428
47041		16.355788	27.139533	-72.880295
47042		16.350178	27.145168	-72.881770
47043		16.345776	27.142727	-72.885883
47044		16.342015	27.138928	-72.892361
47045		16.341142	27.140758	-72.900206
47046		16.340877	27.143658	-72.908182
47047		16.336737	27.149824	-72.913377
47048		16.324690	27.156505	-72.915861
47049		16.313114	27.159401	-72.915620
47050		16.303095	27.164338	-72.910110
47051		16.294923	27.167188	-72.903034
47052		16.285155	27.166701	-72.898639
47053		16.280238	27.165888	-72.893562
47054		16.281125	27.166559	-72.895467
47055		16.282171	27.165993	-72.897737
47056		16.287632	27.167884	-72.901137
47057		16.294526	27.174298	-72.904247
47058		16.298270	27.178692	-72.907369
47059		16.296944	27.182681	-72.903728
47060		16.280852	27.186514	-72.894627
47061		16.251481	27.189084	-72.888502
47062		16.222846	27.192070	-72.881081
47063		16.197453	27.192824	-72.875681
47064		16.179528	27.196466	-72.873058
47065		16.169700	27.197246	-72.870561
47066		16.167446	27.197500	-72.873771
47067		16.168251	27.198696	-72.879670
47068		16.171987	27.201735	-72.884664
47069		16.175130	27.204293	-72.888976
47070		16.177472	27.206083	-72.892420
47071		16.172922	27.207140	-72.894947
47072		16.167832	27.204625	-72.893243
47073		16.158286	27.200944	-72.889722
47074		16.149928	27.201387	-72.887239
47075		16.140981	27.199159	-72.886374
47076		16.134851	27.198959	-72.888272
47077		16.131894	27.200203	-72.889843
47078		16.134973	27.203102	-72.893251
47079		16.143334	27.213202	-72.893793
47080		16.147354	27.219147	-72.888590
47081		16.153339	27.218186	-72.885351
47082		16.159113	27.217675	-72.884530
47083		16.160064	27.221814	-72.882260
47084		16.159508	27.224696	-72.878150
47085		16.154328	27.228867	-72.871851
47086		16.146631	27.232049	-72.867803
47087		16.137555	27.235878	-72.861119
47088		16.129223	27.242103	-72.850820
47089		16.125774	27.246180	-72.840288
47090		16.130093	27.249508	-72.831086
47091		16.133644	27.251891	-72.824900
47092		16.142489	27.252943	-72.822114
47093		16.153112	27.253491	-72.818630
47094		16.164381	27.254359	-72.816258
47095		16.175047	27.256109	-72.809837
47096		16.181140	27.255534	-72.800653
47097		16.185762	27.255829	-72.789869
47098		16.185531	27.255883	-72.781210
47099		16.183968	27.255008	-72.769348
47100		16.182116	27.255632	-72.760403
47101		16.180226	27.258014	-72.752509
47102		16.182750	27.261260	-72.748360
47103		16.187163	27.261977	-72.742500
47104		16.192934	27.261710	-72.739301
47105		16.200474	27.262938	-72.733161
47106		16.204812	27.261115	-72.730340
47107		16.213215	27.260683	-72.724521
47108		16.217427	27.261374	-72.721738
47109		16.222622	27.261245	-72.717193
47110		16.227701	27.261016	-72.713194
47111		16.232870	27.262228	-72.707352
47112		16.235475	27.262816	-72.704950
47113		16.234973	27.262595	-72.705902
47114		16.239219	27.261985	-72.703859
47115		16.237971	27.260594	-72.705446
47116		16.237966	27.261597	-72.709033
47117		16.237239	27.263151	-72.713604
47118		16.240443	27.264835	-72.715771
47119		16.251719	27.264812	-72.716872
47120		16.257006	27.269330	-72.720694
47121		16.254984	27.268111	-72.721620
47122		16.257648	27.266742	-72.721991
47123		16.262550	27.268528	-72.722703
47124		16.266628	27.268863	-72.723844
47125		16.269304	27.269678	-72.722229
47126		16.273166	27.273202	-72.724444
47127		16.276548	27.273990	-72.725129
47128		16.272548	27.276993	-72.728054
47129		16.264054	27.279069	-72.728941
47130		16.252349	27.279398	-72.731837
47131		16.242285	27.276738	-72.739866
47132		16.237576	27.275073	-72.748279
47133		16.236966	27.273798	-72.753810
47134		16.238023	27.271720	-72.756725
47135		16.243200	27.269045	-72.756413
47136		16.242639	27.269413	-72.755980
47137		16.242353	27.267412	-72.753323
47138		16.241932	27.266715	-72.749319
47139		16.241460	27.267688	-72.747345
47140		16.240983	27.267962	-72.744377
47141		16.238891	27.266886	-72.746949
47142		16.239088	27.265801	-72.748540
47143		16.239303	27.264881	-72.752447
47144		16.238722	27.264010	-72.755003
47145		16.236566	27.263079	-72.759212
47146		16.234412	27.263109	-72.759035
47147		16.232404	27.263753	-72.756389
47148		16.229473	27.264501	-72.753946
47149		16.232129	27.265982	-72.751684
47150		16.232383	27.265991	-72.748994
47151		16.233519	27.266474	-72.746709
47152		16.236056	27.265696	-72.747252
47153		16.235608	27.265326	-72.746579
47154		16.232013	27.265699	-72.743252
47155		16.223610	27.265615	-72.744467
47156		16.215063	27.265546	-72.745713
47157		16.210460	27.267957	-72.746991
47158		16.211294	27.269943	-72.748017
47159		16.213154	27.269728	-72.748676
47160		16.218981	27.269646	-72.746557
47161		16.224860	27.270148	-72.743664
47162		16.227471	27.271672	-72.739580
47163		16.233350	27.272173	-72.736687
47164		16.238295	27.274322	-72.732489
47165		16.241039	27.274314	-72.729890
47166		16.242784	27.273835	-72.730705
47167		16.245466	27.273973	-72.729743
47168		16.244751	27.275827	-72.730501
47169		16.245759	27.276601	-72.731492
47170		16.245087	27.276507	-72.733626
47171		16.246275	27.274307	-72.733937
47172		16.249683	27.270862	-72.739091
47173		16.253184	27.268820	-72.740731
47174		16.260625	27.267063	-72.740515
47175		16.263245	27.267348	-72.741188
47176		16.273826	27.268755	-72.735345
47177		16.276718	27.267109	-72.730775
47178		16.290569	27.265187	-72.727260
47179		16.292503	27.264156	-72.726936
47180		16.306072	27.261996	-72.730986
47181		16.314885	27.264115	-72.732054
47182		16.324464	27.263135	-72.733643
47183		16.334964	27.263946	-72.733408
47184		16.340749	27.261148	-72.735803
47185		16.351398	27.257796	-72.737825
47186		16.360192	27.253461	-72.744957
47187		16.375496	27.251614	-72.746705
47188		16.388477	27.248613	-72.745006
47189		16.399109	27.245931	-72.746384
47190		16.410339	27.244245	-72.748827
47191		16.425566	27.243217	-72.751565
47192		16.444042	27.239738	-72.754039
47193		16.461041	27.235915	-72.755144
47194		16.477724	27.235283	-72.757200
47195		16.500750	27.235598	-72.760022
47196		16.520647	27.235318	-72.761738
47197		16.536629	27.234791	-72.764495
47198		16.551426	27.237462	-72.770416
47199		16.567067	27.242218	-72.775162
47200		16.580335	27.244736	-72.778818
47201		16.590618	27.247340	-72.782198
47202		16.597801	27.248845	-72.782393
47203		16.601951	27.249465	-72.783746
47204		16.605211	27.249558	-72.785366
47205		16.609406	27.250692	-72.784434
47206		16.612786	27.250455	-72.783004
47207		16.612354	27.248752	-72.783652
47208		16.613491	27.245697	-72.783215
47209		16.616163	27.245834	-72.782265
47210		16.623596	27.244416	-72.780139
47211		16.632738	27.241254	-72.779231
47212		16.640133	27.238415	-72.780169
47213		16.641956	27.237027	-72.783780
47214		16.639610	27.238759	-72.785781
47215		16.636733	27.237871	-72.787722
47216		16.631215	27.238318	-72.792307
47217		16.624514	27.235605	-72.793554
47218		16.625599	27.229438	-72.800357
47219		16.625726	27.227514	-72.808851
47220		16.631875	27.228546	-72.818326
47221		16.645283	27.229811	-72.824985
47222		16.661827	27.229292	-72.832191
47223		16.672127	27.231233	-72.836215
47224		16.677719	27.232890	-72.836613
47225		16.678952	27.230541	-72.835318
47226		16.678591	27.228749	-72.831457
47227		16.671928	27.229058	-72.826190
47228		16.664276	27.232239	-72.819654
47229		16.657504	27.237215	-72.809838
47230		16.653927	27.239709	-72.798912
47231		16.651396	27.239737	-72.787480
47232		16.654206	27.238051	-72.780601
47233		16.663369	27.238573	-72.772524
47234		16.670924	27.238229	-72.764621
47235		16.676047	27.239391	-72.758802
47236		16.684127	27.239167	-72.757341
47237		16.690879	27.236661	-72.756091
47238		16.696562	27.236432	-72.755188
47239		16.706404	27.236426	-72.751685
47240		16.707575	27.234695	-72.748635
47241		16.710468	27.231697	-72.745400
47242		16.714826	27.229625	-72.741672
47243		16.716795	27.230946	-72.735508
47244		16.716266	27.232953	-72.728514
47245		16.715905	27.232272	-72.724613
47246		16.717641	27.232386	-72.724862
47247		16.723460	27.232355	-72.724267
47248		16.730786	27.231834	-72.723030
47249		16.738091	27.232290	-72.724729
47250		16.745609	27.229675	-72.723742
47251		16.747557	27.227315	-72.724747
47252		16.747658	27.225331	-72.728760
47253		16.746378	27.226461	-72.726165
47254		16.741080	27.226774	-72.724275
47255		16.739799	27.227905	-72.721682
47256		16.739085	27.225626	-72.726933
47257		16.743422	27.222604	-72.728278
47258		16.747514	27.219945	-72.734773
47259		16.757967	27.218399	-72.740398
47260		16.765822	27.218189	-72.748015
47261		16.771427	27.218789	-72.753941
47262		16.771545	27.218589	-72.758378
47263		16.766201	27.219192	-72.760977
47264		16.757528	27.221669	-72.763707
47265		16.741415	27.218633	-72.762978
47266		16.728844	27.210112	-72.755744
47267		16.715267	27.202265	-72.757627
47268		16.700801	27.196467	-72.758566
47269		16.694837	27.190583	-72.767011
47270		16.698120	27.186873	-72.776402
47271		16.703034	27.184313	-72.784915
47272		16.711587	27.187036	-72.791587
47273		16.720165	27.189276	-72.801436
47274		16.725756	27.190503	-72.805024
47275		16.730641	27.192949	-72.805078
47276		16.733106	27.194378	-72.803705
47277		16.729473	27.194168	-72.802732
47278		16.728130	27.193241	-72.802186
47279		16.729027	27.196175	-72.802872
47280		16.736384	27.198315	-72.799479
47281		16.745187	27.201096	-72.799878
47282		16.755418	27.205047	-72.800526
47283		16.764305	27.206339	-72.800597
47284		16.770872	27.206519	-72.798413
47285		16.774346	27.206986	-72.795851
47286		16.776932	27.207341	-72.790308
47287		16.778282	27.205173	-72.783497
47288		16.779499	27.201866	-72.779203
47289		16.782125	27.203324	-72.776964
47290		16.786301	27.204231	-72.773867
47291		16.791352	27.203699	-72.773265
47292		16.793221	27.203170	-72.772081
47293		16.791892	27.203789	-72.771779
47294		16.789668	27.205536	-72.769397
47295		16.793007	27.207650	-72.768791
47296		16.793929	27.207463	-72.770266
47297		16.793528	27.205603	-72.769315
47298		16.797620	27.206850	-72.769010
47299		16.802637	27.207645	-72.767107
47300		16.795907	27.203643	-72.766016
47301		16.775442	27.190665	-72.768558
47302		16.765325	27.185717	-72.777058
47303		16.757247	27.192934	-72.780649
47304		16.756418	27.201516	-72.773248
47305		16.763776	27.205473	-72.766149
47306		16.766474	27.205973	-72.757640
47307		16.764684	27.202636	-72.751806
47308		16.760919	27.202084	-72.749229
47309		16.757985	27.204363	-72.746328
47310		16.761356	27.206396	-72.741765
47311		16.770381	27.206033	-72.739871
47312		16.784008	27.206255	-72.737545
47313		16.793019	27.204725	-72.738579
47314		16.800455	27.201830	-72.736898
47315		16.802215	27.203109	-72.737914
47316		16.804663	27.205303	-72.737076
47317		16.804841	27.207578	-72.736138
47318		16.804983	27.207405	-72.735839
47319		16.808339	27.208852	-72.735884
47320		16.809316	27.207367	-72.737915
47321		16.816749	27.205004	-72.740571
47322		16.817801	27.203102	-72.742646
47323		16.815639	27.202221	-72.746906
47324		16.814222	27.200849	-72.748679
47325		16.814532	27.199646	-72.749368
47326		16.818057	27.195895	-72.749083
47327		16.823320	27.190392	-72.749781
47328		16.821160	27.187333	-72.754096
47329		16.823743	27.190110	-72.750564
47330		16.829387	27.193436	-72.747906
47331		16.834534	27.190748	-72.747629
47332		16.836577	27.186234	-72.746929
47333		16.834640	27.181552	-72.749564
47334		16.827692	27.179573	-72.752980
47335		16.820730	27.181841	-72.753006
47336		16.818413	27.183834	-72.752243
47337		16.817839	27.184948	-72.751957
47338		16.820627	27.179374	-72.753146
47339		16.825711	27.177510	-72.753843
47340		16.828221	27.177567	-72.753765
47341		16.828555	27.176863	-72.752182
47342		16.834407	27.174333	-72.751460
47343		16.840381	27.171314	-72.750210
47344		16.839746	27.171441	-72.750177
47345		16.835945	27.173545	-72.750538
47346		16.835034	27.176089	-72.753083
47347		16.835957	27.176535	-72.758000
47348		16.832977	27.177715	-72.758203
47349		16.830037	27.178165	-72.758893
47350		16.820838	27.176246	-72.760047
47351		16.810038	27.173044	-72.766580
47352		16.798423	27.169818	-72.772530
47353		16.791426	27.171584	-72.774844
47354		16.787519	27.171271	-72.781239
47355		16.788560	27.168901	-72.787128
47356		16.791857	27.165492	-72.792190
47357		16.792941	27.162958	-72.796455
47358		16.797076	27.162226	-72.798322
47359		16.803589	27.162344	-72.801615
47360		16.810950	27.159299	-72.802434
47361		16.815008	27.162065	-72.803452
47362		16.822143	27.166518	-72.800255
47363		16.815294	27.168291	-72.795429
47364		16.809434	27.163948	-72.794607
47365		16.804970	27.161579	-72.798874
47366		16.794122	27.162917	-72.796056
47367		16.786352	27.164186	-72.798377
47368		16.790550	27.161953	-72.800261
47369		16.782253	27.158259	-72.801610
47370		16.781835	27.152556	-72.805568
47371		16.779755	27.151347	-72.806588
47372		16.783164	27.147098	-72.809956
47373		16.779608	27.142909	-72.812926
47374		16.778252	27.140812	-72.815072
47375		16.771429	27.140097	-72.814474
47376		16.767538	27.138655	-72.818350
47377		16.768607	27.137944	-72.819044
47378		16.772760	27.136341	-72.820932
47379		16.777766	27.135963	-72.821947
47380		16.782804	27.134676	-72.821111
47381		16.786196	27.135953	-72.819532
47382		16.786977	27.139262	-72.818948
47383		16.788914	27.139215	-72.814127
47384		16.786818	27.139667	-72.808581
47385		16.784895	27.137799	-72.803119
47386		16.776366	27.136943	-72.803002
47387		16.769477	27.138214	-72.800467
47388		16.758447	27.141594	-72.799294
47389		16.749901	27.142365	-72.801629
47390		16.743545	27.142454	-72.805752
47391		16.741501	27.139920	-72.808076
47392		16.742536	27.137489	-72.810407
47393		16.745141	27.136610	-72.814017
47394		16.749224	27.136424	-72.814252
47395		16.749584	27.133230	-72.816895
47396		16.749901	27.130465	-72.816808
47397		16.749411	27.129421	-72.816859
47398		16.748105	27.125118	-72.818053
47399		16.745295	27.120929	-72.823298
47400		16.744522	27.119191	-72.831994
47401		16.747052	27.118643	-72.838846
47402		16.749425	27.118226	-72.847403
47403		16.756761	27.117517	-72.851974
47404		16.763932	27.118460	-72.857244
47405		16.771188	27.119240	-72.862139
47406		16.775135	27.121843	-72.866911
47407		16.780617	27.124938	-72.875700
47408		16.793926	27.128977	-72.881374
47409		16.810601	27.130264	-72.889812
47410		16.836757	27.128874	-72.899910
47411		16.854885	27.131492	-72.911591
47412		16.866479	27.135406	-72.922112
47413		16.870395	27.139331	-72.927343
47414		16.869435	27.143586	-72.929813
47415		16.865606	27.145680	-72.930202
47416		16.861489	27.149921	-72.931177
47417		16.852887	27.153165	-72.929311
47418		16.848874	27.157051	-72.931959
47419		16.845565	27.165261	-72.930400
47420		16.843018	27.169786	-72.932166
47421		16.839124	27.172706	-72.933534
47422		16.832845	27.172004	-72.935927
47423		16.827434	27.173269	-72.937952
47424		16.829686	27.178913	-72.938742
47425		16.835353	27.181180	-72.939428
47426		16.844005	27.183883	-72.940938
47427		16.853814	27.183341	-72.939665
47428		16.862035	27.182182	-72.936229
47429		16.867875	27.183118	-72.931081
47430		16.871027	27.186158	-72.927511
47431		16.867969	27.190393	-72.922721
47432		16.859431	27.192151	-72.915884
47433		16.849389	27.193899	-72.909187
47434		16.834381	27.195647	-72.906664
47435		16.814806	27.196730	-72.901965
47436		16.796922	27.195159	-72.895963
47437		16.782296	27.192608	-72.890601
47438		16.768960	27.191271	-72.890265
47439		16.754249	27.190209	-72.885232
47440		16.736248	27.186909	-72.886561
47441		16.724706	27.184035	-72.887019
47442		16.714375	27.185684	-72.894066
47443		16.708134	27.186123	-72.899998
47444		16.708884	27.187998	-72.905316
47445		16.712852	27.190594	-72.911833
47446		16.714358	27.194966	-72.914254
47447		16.708933	27.196227	-72.916299
47448		16.700332	27.194949	-72.920587
47449		16.688542	27.196533	-72.922028
47450		16.678263	27.199097	-72.922165
47451		16.665712	27.200678	-72.921350
47452		16.651447	27.201693	-72.919850
47453		16.634938	27.202938	-72.918746
47454		16.615872	27.205571	-72.918512
47455		16.601678	27.207149	-72.920310
47456		16.592706	27.211878	-72.928339
47457		16.587131	27.213796	-72.936869
47458		16.589292	27.217921	-72.945541
47459		16.598032	27.220021	-72.953633
47460		16.608444	27.221277	-72.959232
47461		16.614090	27.222546	-72.964437
47462		16.616436	27.223732	-72.968837
47463		16.607706	27.227295	-72.970281
47464		16.597386	27.227459	-72.972197
47465		16.587148	27.229861	-72.972038
47466		16.576768	27.232511	-72.975098
47467		16.566549	27.234251	-72.975589
47468		16.560944	27.236277	-72.978905
47469		16.555441	27.238354	-72.981944
47470		16.548258	27.240932	-72.984404
47471		16.545918	27.243509	-72.987094
47472		16.538796	27.244237	-72.989883
47473		16.534841	27.247802	-72.990650
47474		16.530824	27.251429	-72.990098
47475		16.525301	27.254659	-72.990236
47476		16.519113	27.254954	-72.986361
47477		16.515475	27.252073	-72.988085
47478		16.511681	27.248510	-72.991610
47479		16.502302	27.249256	-72.991784
47480		16.492184	27.246801	-72.994159
47481		16.485024	27.250028	-72.996905
47482		16.485887	27.251849	-72.995220
47483		16.487835	27.250955	-72.989455
47484		16.485633	27.250397	-72.985737
47485		16.482771	27.248507	-72.985195
47486		16.478208	27.248066	-72.985817
47487		16.475281	27.246508	-72.988510
47488		16.474490	27.248604	-72.989921
47489		16.477109	27.248703	-72.989002
47490		16.486010	27.247275	-72.991912
47491		16.498180	27.247553	-72.991210
47492		16.504667	27.247096	-72.990585
47493		16.509123	27.242406	-72.989960
47494		16.511997	27.236842	-72.989613
47495		16.515542	27.233970	-72.990294
47496		16.516442	27.235403	-72.989317
47497		16.522259	27.235834	-72.986424
47498		16.526332	27.236617	-72.982488
47499		16.532901	27.238698	-72.976682
47500		16.540467	27.239707	-72.967236
47501		16.546283	27.240137	-72.964344
47502		16.549702	27.237537	-72.964703
47503		16.550688	27.237639	-72.966390
47504		16.551395	27.239202	-72.969744
47505		16.552325	27.240131	-72.972402
47506		16.559441	27.243144	-72.972074
47507		16.565972	27.244897	-72.970145
47508		16.572559	27.242834	-72.967303
47509		16.577676	27.240787	-72.966357
47510		16.584942	27.240186	-72.966434
47511		16.591448	27.242598	-72.963861
47512		16.595582	27.243057	-72.962324
47513		16.596492	27.245138	-72.962078
47514		16.595822	27.247562	-72.958419
47515		16.595166	27.249800	-72.955287
47516		16.594493	27.249760	-72.953560
47517		16.593916	27.250510	-72.950104
47518		16.594102	27.250182	-72.946572
47519		16.594528	27.245985	-72.946652
47520		16.597176	27.245377	-72.944841
47521		16.606339	27.242174	-72.943844
47522		16.620242	27.237759	-72.944887
47523		16.633465	27.231275	-72.951267
47524		16.645018	27.224303	-72.961320
47525		16.654003	27.221633	-72.972274
47526		16.657103	27.223958	-72.979467
47527		16.655481	27.228355	-72.980866
47528		16.646516	27.233603	-72.980375
47529		16.641039	27.236984	-72.975047
47530		16.640354	27.237485	-72.970800
47531		16.641476	27.236248	-72.966681
47532		16.644860	27.235307	-72.965190
47533		16.643420	27.236070	-72.966590
47534		16.638772	27.236985	-72.966195
47535		16.634133	27.237421	-72.969575
47536		16.631948	27.235677	-72.972136
47537		16.633008	27.233804	-72.975763
47538		16.638559	27.236190	-72.977963
47539		16.645003	27.238450	-72.980873
47540		16.649736	27.241608	-72.979473
47541		16.653144	27.241541	-72.979198
47542		16.655503	27.243691	-72.979091
47543		16.658726	27.247258	-72.978817
47544		16.661059	27.249397	-72.979177
47545		16.660415	27.250484	-72.978958
47546		16.659583	27.253127	-72.980979
47547		16.661206	27.256531	-72.981697
47548		16.658778	27.259083	-72.984043
47549		16.654053	27.261007	-72.987755
47550		16.654796	27.262719	-72.991988
47551		16.652522	27.263327	-72.996634
47552		16.648767	27.260477	-72.997857
47553		16.644893	27.261408	-73.001237
47554		16.640781	27.265028	-73.004431
47555		16.639227	27.268420	-73.003262
47556		16.629544	27.271675	-73.002505
47557		16.621482	27.277536	-73.000469
47558		16.615004	27.282474	-73.001357
47559		16.611099	27.285036	-72.999584
47560		16.605515	27.286634	-73.000426
47561		16.596966	27.285733	-73.000983
47562		16.583485	27.286440	-73.003189
47563		16.576349	27.288846	-73.005017
47564		16.569229	27.290553	-73.006241
47565		16.563746	27.291804	-73.008367
47566		16.559953	27.290844	-73.007595
47567		16.556097	27.291600	-73.009373
47568		16.555502	27.290318	-73.007614
47569		16.550068	27.291227	-73.006518
47570		16.550945	27.290405	-73.008460
47571		16.551864	27.292307	-73.006616
47572		16.555866	27.291843	-73.007460
47573		16.556811	27.293087	-73.006260
47574		16.555236	27.293538	-73.007539
47575		16.553805	27.294123	-73.007347
47576		16.553013	27.295724	-73.004928
47577		16.547629	27.295317	-73.005125
47578		16.546926	27.294913	-73.004728
47579		16.548696	27.295822	-73.002549
47580		16.553494	27.296993	-72.999745
47581		16.564103	27.297406	-72.996125
47582		16.570658	27.296626	-72.991625
47583		16.572613	27.293901	-72.989444
47584		16.575270	27.292798	-72.983367
47585		16.585595	27.298016	-72.983938
47586		16.579918	27.302698	-72.977103
47587		16.584893	27.303443	-72.975192
47588		16.590583	27.302736	-72.975392
47589		16.598744	27.303007	-72.977611
47590		16.610728	27.305443	-72.978627
47591		16.621265	27.306370	-72.979838
47592		16.630239	27.305589	-72.980983
47593		16.637698	27.304361	-72.980641
47594		16.641773	27.304213	-72.983076
47595		16.641947	27.303993	-72.986406
47596		16.645176	27.306196	-72.986614
47597		16.649194	27.309593	-72.986974
47598		16.654058	27.311386	-72.986061
47599		16.657433	27.311487	-72.987402
47600		16.658334	27.312545	-72.983831
47601		16.657672	27.313627	-72.983635
47602		16.658565	27.315251	-72.977186
47603		16.656989	27.319121	-72.973785
47604		16.658491	27.323923	-72.967791
47605		16.659369	27.326960	-72.963059
47606		16.660243	27.326477	-72.961094
47607		16.661180	27.327718	-72.959905
47608		16.663715	27.327098	-72.959592
47609		16.664657	27.327857	-72.960657
47610		16.668808	27.327632	-72.959935
47611		16.670581	27.327573	-72.962272
47612		16.674578	27.328691	-72.961466
47613		16.682751	27.329749	-72.957565
47614		16.692418	27.330885	-72.953149
47615		16.702236	27.331749	-72.945034
47616		16.711210	27.331488	-72.939698
47617		16.720381	27.329054	-72.932568
47618		16.729337	27.328263	-72.927563
47619		16.740039	27.326994	-72.922011
47620		16.751486	27.324789	-72.918220
47621		16.762235	27.322685	-72.911706
47622		16.768122	27.318690	-72.910278
47623		16.779723	27.314331	-72.911797
47624		16.798252	27.312493	-72.915193
47625		16.815416	27.308798	-72.917572
47626		16.832234	27.309040	-72.917007
47627		16.842889	27.308119	-72.914678
47628		16.864064	27.304862	-72.910265
47629		16.882086	27.300471	-72.908456
47630		16.896824	27.296375	-72.907473
47631		16.913076	27.294984	-72.908905
47632		16.924994	27.296674	-72.914021
47633		16.937066	27.298766	-72.916805
47634		16.940942	27.302943	-72.918346
47635		16.934667	27.304202	-72.918265
47636		16.925046	27.305652	-72.918051
47637		16.921172	27.306905	-72.917603
47638		16.923709	27.306195	-72.917935
47639		16.934322	27.305629	-72.918825
47640		16.949847	27.303067	-72.919060
47641		16.962103	27.301053	-72.924107
47642		16.975628	27.302754	-72.929261
47643		16.991019	27.302832	-72.928773
47644		17.002291	27.303811	-72.926819
47645		17.011988	27.306022	-72.924500
47646		17.016763	27.309597	-72.920511
47647		17.021591	27.313601	-72.915381
47648		17.027214	27.317340	-72.910122
47649		17.024792	27.321725	-72.909313
47650		17.023852	27.325343	-72.907896
47651		17.019025	27.329734	-72.907457
47652		17.018193	27.332939	-72.906389
47653		17.017459	27.335043	-72.908777
47654		17.023839	27.336427	-72.911223
47655		17.034424	27.336514	-72.911467
47656		17.033708	27.336056	-72.915664
47657		17.031464	27.336337	-72.917129
47658		17.029078	27.337512	-72.914578
47659		17.028369	27.339725	-72.911501
47660		17.028436	27.339524	-72.910451
47661		17.029426	27.339747	-72.906709
47662		17.028780	27.340623	-72.903301
47663		17.032150	27.340730	-72.904653
47664		17.042578	27.340849	-72.907990
47665		17.049902	27.341648	-72.912792
47666		17.060236	27.343751	-72.914108
47667		17.073182	27.344664	-72.914937
47668		17.088409	27.344702	-72.915399
47669		17.101470	27.343291	-72.914956
47670		17.111914	27.343977	-72.914852
47671		17.124015	27.346171	-72.912157
47672		17.137625	27.346233	-72.908149
47673		17.148126	27.348276	-72.906452
47674		17.161788	27.348908	-72.901283
47675		17.173993	27.349242	-72.895065
47676		17.186133	27.350307	-72.889145
47677		17.199833	27.352647	-72.885452
47678		17.211907	27.354067	-72.880676
47679		17.224050	27.355419	-72.877023
47680		17.234517	27.357682	-72.870734
47681		17.240310	27.357881	-72.866260
47682		17.242734	27.361545	-72.856663
47683		17.240458	27.363517	-72.847526
47684		17.237425	27.364335	-72.837519
47685		17.236007	27.364844	-72.830306
47686		17.234578	27.364029	-72.823792
47687		17.236393	27.363435	-72.821337
47688		17.242130	27.363392	-72.822268
47689		17.251116	27.363322	-72.823508
47690		17.261705	27.362951	-72.824282
47691		17.273123	27.362219	-72.825797
47692		17.283705	27.361101	-72.825622
47693		17.294262	27.361831	-72.825217
47694		17.303165	27.361131	-72.822319
47695		17.301835	27.359217	-72.819305
47696		17.298132	27.352519	-72.816222
47697		17.297647	27.349330	-72.816734
47698		17.298461	27.350714	-72.809812
47699		17.296132	27.353240	-72.805497
47700		17.297854	27.351406	-72.799649
47701		17.299882	27.345878	-72.798524
47702		17.311417	27.340201	-72.801255
47703		17.321143	27.341462	-72.803428
47704		17.331532	27.342845	-72.802706
47705		17.337170	27.346201	-72.800456
47706		17.341298	27.346625	-72.794372
47707		17.346290	27.346783	-72.787675
47708		17.340944	27.344443	-72.783834
47709		17.336312	27.344653	-72.778634
47710		17.333088	27.346272	-72.776395
47711		17.333282	27.345993	-72.772698
47712		17.330919	27.346948	-72.773083
47713		17.333439	27.348333	-72.770922
47714		17.339156	27.347915	-72.774027
47715		17.339206	27.350528	-72.776400
47716		17.336761	27.352928	-72.777636
47717		17.329736	27.352413	-72.778921
47718		17.317767	27.351529	-72.783139
47719		17.308349	27.350563	-72.787051
47720		17.301222	27.350440	-72.790872
47721		17.302335	27.347123	-72.794242
47722		17.308053	27.345206	-72.798052
47723		17.311494	27.343554	-72.802955
47724		17.314841	27.341459	-72.805206
47725		17.319068	27.340385	-72.804633
47726		17.320784	27.339103	-72.803119
47727		17.322548	27.339342	-72.801630
47728		17.321898	27.339515	-72.799594
47729		17.321215	27.340607	-72.799437
47730		17.322021	27.341318	-72.801193
47731		17.327000	27.341386	-72.799950
47732		17.327906	27.339141	-72.801404
47733		17.327373	27.336792	-72.802882
47734		17.325907	27.335786	-72.799825
47735		17.323682	27.335515	-72.796515
47736		17.318212	27.334091	-72.794008
47737		17.317623	27.333125	-72.788744
47738		17.315359	27.330475	-72.789788
47739		17.318833	27.328257	-72.789886
47740		17.324695	27.325637	-72.790239
47741		17.332092	27.325419	-72.792465
47742		17.338513	27.325552	-72.796263
47743		17.340923	27.329261	-72.795365
47744		17.341758	27.330287	-72.792356
47745		17.342586	27.333472	-72.789260
47746		17.348176	27.333662	-72.785712
47747		17.356483	27.331036	-72.781854
47748		17.367995	27.329665	-72.776595
47749		17.373001	27.329081	-72.776000
47750		17.365054	27.324128	-72.779271
47751		17.380915	27.313964	-72.790688
47752		17.388038	27.315561	-72.797943
47753		17.396781	27.321255	-72.798788
47754		17.405565	27.324895	-72.793561
47755		17.412985	27.324104	-72.790990
47756		17.416315	27.319501	-72.792030
47757		17.415033	27.315824	-72.792590
47758		17.412553	27.318278	-72.793851
47759		17.411679	27.323649	-72.793016
47760		17.415430	27.328092	-72.792510
47761		17.424506	27.326144	-72.790231
47762		17.430155	27.322939	-72.797172
47763		17.432813	27.320997	-72.803701
47764		17.432860	27.321530	-72.808553
47765		17.433813	27.321850	-72.811895
47766		17.437119	27.321362	-72.813331
47767		17.441498	27.316656	-72.812805
47768		17.440757	27.317046	-72.813235
47769		17.440073	27.317946	-72.811489
47770		17.436059	27.319630	-72.811474
47771		17.436301	27.317777	-72.812940
47772		17.435718	27.316391	-72.815878
47773		17.437545	27.315065	-72.819539
47774		17.440232	27.312643	-72.821683
47775		17.444411	27.312599	-72.823667
47776		17.448537	27.308865	-72.827505
47777		17.449525	27.308345	-72.829897
47778		17.450370	27.307731	-72.833384
47779		17.444094	27.308097	-72.837874
47780		17.441790	27.308175	-72.837064
47781		17.440373	27.307477	-72.838241
47782		17.437352	27.307418	-72.836864
47783		17.435871	27.308209	-72.838345
47784		17.436750	27.308763	-72.842392
47785		17.440924	27.308912	-72.845973
47786		17.444973	27.310545	-72.849135
47787		17.452422	27.309418	-72.855846
47788		17.462944	27.308979	-72.863615
47789		17.468857	27.306222	-72.871028
47790		17.464147	27.304240	-72.879803
47791		17.456239	27.305112	-72.884655
47792		17.450746	27.304638	-72.889802
47793		17.450028	27.306500	-72.896052
47794		17.454183	27.306617	-72.898502
47795		17.460044	27.304963	-72.903021
47796		17.468897	27.307931	-72.908166
47797		17.475250	27.313379	-72.913224
47798		17.479094	27.316938	-72.916154
47799		17.477666	27.316432	-72.918935
47800		17.472290	27.311650	-72.926007
47801		17.462117	27.309294	-72.934487
47802		17.456431	27.312488	-72.939728
47803		17.452522	27.313678	-72.944796
47804		17.454946	27.313550	-72.950823
47805		17.461593	27.312196	-72.953715
47806		17.470576	27.310062	-72.957588
47807		17.480320	27.311324	-72.959725
47808		17.489239	27.311671	-72.958046
47809		17.496675	27.310421	-72.957717
47810		17.502504	27.308031	-72.954622
47811		17.506023	27.304710	-72.957627
47812		17.505178	27.304699	-72.961561
47813		17.501277	27.305503	-72.963436
47814		17.498805	27.304486	-72.968510
47815		17.495781	27.303644	-72.970703
47816		17.494999	27.300943	-72.973576
47817		17.492726	27.301240	-72.975095
47818		17.495203	27.301618	-72.974485
47819		17.493058	27.298934	-72.975399
47820		17.497988	27.296345	-72.977776
47821		17.507829	27.295470	-72.980254
47822		17.515124	27.293944	-72.984567
47823		17.522616	27.291789	-72.988726
47824		17.531654	27.289743	-72.991270
47825		17.532697	27.287929	-72.994965
47826		17.530361	27.286628	-72.997082
47827		17.525552	27.289529	-72.996400
47828		17.519961	27.291065	-72.993841
47829		17.516025	27.292516	-72.995075
47830		17.516839	27.293319	-72.995943
47831		17.523452	27.293006	-73.001380
47832		17.530868	27.291839	-73.007384
47833		17.543246	27.288362	-73.012061
47834		17.553834	27.285948	-73.022700
47835		17.561322	27.284189	-73.030052
47836		17.567070	27.282642	-73.036785
47837		17.571337	27.280660	-73.040714
47838		17.572366	27.277860	-73.043506
47839		17.570183	27.276217	-73.046972
47840		17.566222	27.273730	-73.053912
47841		17.564005	27.272930	-73.058328
47842		17.563249	27.271345	-73.062151
47843		17.563317	27.273314	-73.065186
47844		17.562523	27.274149	-73.068882
47845		17.562751	27.272491	-73.071961
47846		17.562942	27.271190	-73.077383
47847		17.559940	27.270291	-73.085022
47848		17.557607	27.270176	-73.088166
