// General information: 
//  MT Manager version: 2022.2.0 
//  XDA version: 2022.2.0 build 7381 rev 124627 built on 2023-07-19
// Device information: 
//  DeviceId: 00B447FD
//  ProductCode: MTW2-3A7G6
//  Firmware Version: 4.3.5
//  Hardware Version: 2.0.0
// Device settings: 
//  Filter Profile: human(46.1)
//  Option Flags: Orientation Smoother Disabled, Position/Velocity Smoother Disabled, Continuous Zero Rotation Update Disabled, AHS Disabled, ICC Disabled
// Coordinate system: ENU
PacketCounter	SampleTimeFine	Roll	Pitch	Yaw
44706		109.194497	-8.592388	-0.204085
44707		108.561884	-8.676869	-1.083986
44708		107.720325	-8.836064	-2.128617
44709		106.738568	-9.064407	-3.267195
44710		105.695208	-9.341717	-4.460104
44711		104.585461	-9.659809	-5.732634
44712		103.360984	-10.053063	-7.096337
44713		101.910090	-10.571777	-8.687416
44714		99.918860	-11.297806	-10.745306
44715		97.125895	-12.286524	-13.219257
44716		93.785272	-13.538370	-15.980668
44717		90.232237	-14.935721	-18.858592
44718		86.874797	-16.303078	-21.505213
44719		84.154729	-17.450293	-23.636870
44720		82.422428	-18.218868	-24.980955
44721		81.959138	-18.506779	-25.327308
44722		82.674104	-18.319710	-24.809954
44723		83.924797	-17.758060	-23.750232
44724		85.125213	-17.022306	-22.362612
44725		86.096458	-16.307530	-20.964741
44726		86.889625	-15.660304	-19.712692
44727		87.756028	-15.094529	-18.641333
44728		88.841204	-14.608194	-17.832448
44729		89.995698	-14.170066	-17.259075
44730		91.077276	-13.755214	-16.799282
44731		92.150045	-13.367595	-16.362789
44732		93.199677	-12.986749	-15.927057
44733		94.117643	-12.638352	-15.528857
44734		94.793289	-12.363151	-15.259034
44735		95.170986	-12.177963	-15.149994
44736		95.344863	-12.073826	-15.189759
44737		95.452275	-12.016916	-15.343345
44738		95.575960	-11.979922	-15.536530
44739		95.747286	-11.933935	-15.702665
44740		95.945734	-11.867790	-15.788778
44741		96.161344	-11.787345	-15.758624
44742		96.408322	-11.688854	-15.620921
44743		96.667824	-11.574518	-15.402794
44744		96.923252	-11.452181	-15.143944
44745		97.174684	-11.342622	-14.890345
44746		97.410176	-11.259008	-14.684770
44747		97.621240	-11.212159	-14.534701
44748		97.806069	-11.201843	-14.445090
44749		97.954021	-11.217341	-14.404819
44750		98.059702	-11.243402	-14.394723
44751		98.131515	-11.278927	-14.394167
44752		98.178644	-11.328710	-14.383045
44753		98.201735	-11.384948	-14.351573
44754		98.196347	-11.424580	-14.305806
44755		98.192496	-11.454628	-14.238313
44756		98.217139	-11.479006	-14.146726
44757		98.274414	-11.500892	-14.033947
44758		98.353281	-11.516855	-13.910540
44759		98.426355	-11.528809	-13.783752
44760		98.469847	-11.542663	-13.659013
44761		98.481285	-11.568998	-13.527627
44762		98.461324	-11.591225	-13.408434
44763		98.433888	-11.613428	-13.302408
44764		98.394288	-11.636698	-13.206680
44765		98.350237	-11.664401	-13.113102
44766		98.297372	-11.692097	-13.026318
44767		98.232514	-11.713282	-12.941783
44768		98.166020	-11.727309	-12.859585
44769		98.106013	-11.740596	-12.780673
44770		98.047629	-11.753226	-12.712221
44771		97.978562	-11.771792	-12.657392
44772		97.895552	-11.790183	-12.608215
44773		97.794168	-11.809546	-12.561498
44774		97.679580	-11.832873	-12.521984
44775		97.530561	-11.864516	-12.504074
44776		97.325121	-11.903921	-12.499259
44777		97.078867	-11.945531	-12.507707
44778		96.831988	-11.991777	-12.524103
44779		96.587990	-12.048039	-12.541508
44780		96.320675	-12.098820	-12.551021
44781		96.024763	-12.149577	-12.559271
44782		95.689525	-12.207418	-12.587962
44783		95.292519	-12.276475	-12.656038
44784		94.831959	-12.360721	-12.771939
44785		94.326138	-12.458075	-12.909195
44786		93.778765	-12.571583	-13.061339
44787		93.143024	-12.694184	-13.226776
44788		92.411073	-12.835824	-13.406369
44789		91.591631	-12.993798	-13.592470
44790		90.701213	-13.160450	-13.780605
44791		89.794135	-13.329658	-13.964183
44792		88.929266	-13.499236	-14.140920
44793		88.080944	-13.665851	-14.329781
44794		87.225248	-13.826349	-14.532964
44795		86.356065	-13.996200	-14.753324
44796		85.450297	-14.174224	-14.999515
44797		84.482976	-14.358130	-15.276431
44798		83.477953	-14.544518	-15.554768
44799		82.447672	-14.726113	-15.804727
44800		81.428520	-14.882496	-16.007595
44801		80.465307	-15.003665	-16.139602
44802		79.581321	-15.089317	-16.202836
44803		78.751313	-15.154259	-16.211473
44804		77.965094	-15.224524	-16.218273
44805		77.162014	-15.329066	-16.290260
44806		76.276454	-15.467564	-16.468399
44807		75.359854	-15.643230	-16.721834
44808		74.472146	-15.842313	-17.008406
44809		73.665844	-16.048581	-17.289736
44810		72.973973	-16.249343	-17.546626
44811		72.342328	-16.441229	-17.786474
44812		71.756053	-16.634433	-18.010756
44813		71.182324	-16.826280	-18.234087
44814		70.604609	-17.014022	-18.471808
44815		70.022548	-17.201112	-18.745104
44816		69.447252	-17.391015	-19.037501
44817		68.883037	-17.580825	-19.326964
44818		68.345898	-17.761477	-19.573258
44819		67.858182	-17.923606	-19.779223
44820		67.396216	-18.073154	-19.948568
44821		66.915949	-18.212738	-20.105384
44822		66.403308	-18.352954	-20.253011
44823		65.833880	-18.517981	-20.426618
44824		65.191401	-18.717507	-20.643171
44825		64.491983	-18.938183	-20.901643
44826		63.771819	-19.172297	-21.169663
44827		63.099529	-19.419464	-21.473071
44828		62.458147	-19.666833	-21.747192
44829		61.835936	-19.903233	-21.974261
44830		61.236404	-20.138346	-22.156540
44831		60.589819	-20.400685	-22.341991
44832		59.791915	-20.729486	-22.582515
44833		58.745725	-21.134406	-22.942981
44834		57.508777	-21.600263	-23.385959
44835		56.235416	-22.097332	-23.873048
44836		55.065064	-22.576992	-24.288288
44837		54.095549	-23.000533	-24.589107
44838		53.347738	-23.331951	-24.752089
44839		52.767055	-23.579181	-24.820208
44840		52.219791	-23.769640	-24.829600
44841		51.562914	-23.945167	-24.854477
44842		50.778538	-24.132452	-24.909374
44843		49.936682	-24.345863	-25.021434
44844		49.106364	-24.575123	-25.151569
44845		48.319866	-24.815894	-25.292633
44846		47.616215	-25.042108	-25.393677
44847		47.001977	-25.249084	-25.480794
44848		46.445593	-25.441673	-25.524650
44849		45.927979	-25.634443	-25.570937
44850		45.405998	-25.838213	-25.625235
44851		44.837778	-26.058650	-25.724056
44852		44.194914	-26.290847	-25.854077
44853		43.512593	-26.525849	-26.005892
44854		42.856312	-26.739354	-26.116111
44855		42.291940	-26.922041	-26.191350
44856		41.834000	-27.077783	-26.193969
44857		41.417346	-27.205960	-26.115441
44858		41.002088	-27.312076	-25.920969
44859		40.581070	-27.389082	-25.700524
44860		40.202857	-27.414447	-25.499110
44861		39.897160	-27.402682	-25.362269
44862		39.639132	-27.372461	-25.271497
44863		39.367970	-27.341702	-25.206525
44864		39.082547	-27.311005	-25.117197
44865		38.790904	-27.292378	-25.006880
44866		38.460762	-27.283370	-24.847057
44867		38.065034	-27.282140	-24.619001
44868		37.629721	-27.267133	-24.321754
44869		37.238629	-27.216399	-24.057040
44870		36.940949	-27.133781	-23.862421
44871		36.684202	-27.051018	-23.750504
44872		36.415351	-27.006609	-23.672682
44873		36.110732	-27.013065	-23.627562
44874		35.790075	-27.060305	-23.582725
44875		35.453605	-27.128227	-23.536367
44876		35.067377	-27.205956	-23.420773
44877		34.590029	-27.285533	-23.225305
44878		34.048731	-27.359239	-22.931968
44879		33.490376	-27.407782	-22.610686
44880		32.991984	-27.422089	-22.314420
44881		32.579634	-27.421446	-22.105554
44882		32.203197	-27.424684	-21.949029
44883		31.785734	-27.441289	-21.815112
44884		31.267434	-27.477343	-21.632424
44885		30.591733	-27.516750	-21.369219
44886		29.776731	-27.579320	-20.962564
44887		28.795180	-27.669031	-20.416515
44888		27.664530	-27.735269	-19.742392
44889		26.590636	-27.725893	-19.122908
44890		25.770100	-27.656888	-18.701845
44891		25.163897	-27.529847	-18.523248
44892		24.630963	-27.402550	-18.493584
44893		24.041211	-27.340764	-18.520971
44894		23.332425	-27.353790	-18.510049
44895		22.536034	-27.460983	-18.447928
44896		21.689449	-27.644951	-18.272490
44897		20.763450	-27.858068	-17.973648
44898		19.779969	-28.047988	-17.552768
44899		18.832939	-28.197681	-17.119693
44900		18.032606	-28.267092	-16.774733
44901		17.452173	-28.269953	-16.595546
44902		17.048532	-28.232045	-16.551333
44903		16.734190	-28.193456	-16.592192
44904		16.427520	-28.171398	-16.633495
44905		16.090412	-28.167052	-16.648474
44906		15.725750	-28.180417	-16.599365
44907		15.313193	-28.208692	-16.475010
44908		14.840999	-28.248713	-16.246924
44909		14.356336	-28.279698	-15.985564
44910		13.970860	-28.282444	-15.785178
44911		13.717154	-28.267577	-15.698173
44912		13.542570	-28.253684	-15.684545
44913		13.386224	-28.262114	-15.710671
44914		13.216540	-28.305242	-15.731196
44915		13.016393	-28.373729	-15.741014
44916		12.786930	-28.452870	-15.696516
44917		12.500995	-28.522208	-15.587521
44918		12.146609	-28.562669	-15.388717
44919		11.743390	-28.569753	-15.119221
44920		11.347436	-28.542980	-14.828029
44921		11.012474	-28.509040	-14.587202
44922		10.757418	-28.491183	-14.414496
44923		10.547864	-28.505346	-14.313091
44924		10.333033	-28.551104	-14.237174
44925		10.048328	-28.604714	-14.154562
44926		9.652622	-28.621246	-14.015495
44927		9.146773	-28.575060	-13.796610
44928		8.578676	-28.453494	-13.489307
44929		8.018963	-28.241503	-13.167285
44930		7.589518	-27.951294	-12.901710
44931		7.327271	-27.633733	-12.764081
44932		7.145626	-27.329028	-12.731517
44933		6.922430	-27.064719	-12.761601
44934		6.611354	-26.850915	-12.791072
44935		6.227959	-26.686494	-12.806343
44936		5.847030	-26.571257	-12.791972
44937		5.508547	-26.501328	-12.750152
44938		5.214030	-26.448680	-12.669462
44939		4.973785	-26.398185	-12.570557
44940		4.811303	-26.346112	-12.474160
44941		4.702718	-26.298427	-12.413385
44942		4.618778	-26.267618	-12.391638
44943		4.514072	-26.251110	-12.412652
44944		4.377632	-26.240739	-12.454934
44945		4.211453	-26.230963	-12.507899
44946		4.041157	-26.219707	-12.547699
44947		3.863318	-26.203195	-12.584742
44948		3.704580	-26.201339	-12.600361
44949		3.559576	-26.213039	-12.606544
44950		3.460363	-26.240758	-12.611446
44951		3.411151	-26.281704	-12.633878
44952		3.378343	-26.325222	-12.647969
44953		3.336534	-26.368183	-12.660074
44954		3.290736	-26.406457	-12.666407
44955		3.249657	-26.445014	-12.686745
44956		3.214639	-26.481386	-12.710066
44957		3.186615	-26.517357	-12.742012
44958		3.165565	-26.552413	-12.767360
44959		3.154884	-26.591793	-12.795225
44960		3.163593	-26.638082	-12.809768
44961		3.203524	-26.696330	-12.823236
44962		3.275745	-26.765605	-12.828578
44963		3.366144	-26.838979	-12.830138
44964		3.459894	-26.907944	-12.821955
44965		3.560947	-26.975766	-12.818572
44966		3.677661	-27.044651	-12.817904
44967		3.796738	-27.115905	-12.829364
44968		3.929443	-27.196560	-12.848409
44969		4.074263	-27.287707	-12.873616
44970		4.226397	-27.387991	-12.887651
44971		4.358586	-27.479203	-12.891221
44972		4.485337	-27.539741	-12.886836
44973		4.618889	-27.574117	-12.889144
44974		4.786883	-27.587107	-12.890138
44975		4.961148	-27.578881	-12.897782
44976		5.145096	-27.554465	-12.911720
44977		5.335606	-27.524902	-12.941475
44978		5.547820	-27.496417	-12.978643
44979		5.785061	-27.480781	-13.037815
44980		6.009121	-27.480517	-13.105583
44981		6.203750	-27.499675	-13.188255
44982		6.390242	-27.551330	-13.281597
44983		6.572670	-27.615724	-13.393858
44984		6.769087	-27.684530	-13.512399
44985		6.999567	-27.752766	-13.641199
44986		7.280437	-27.817323	-13.766998
44987		7.626643	-27.878487	-13.887255
44988		8.068038	-27.947336	-13.999685
44989		8.617095	-28.043819	-14.117090
44990		9.255634	-28.177766	-14.238392
44991		9.953612	-28.337152	-14.385499
44992		10.733110	-28.518059	-14.563068
44993		11.602714	-28.702228	-14.775361
44994		12.572837	-28.863272	-14.994445
44995		13.691353	-29.002895	-15.202316
44996		14.985959	-29.126375	-15.384356
44997		16.419929	-29.232873	-15.560217
44998		17.904989	-29.338381	-15.752996
44999		19.348492	-29.443904	-15.984104
45000		20.707565	-29.573823	-16.236698
45001		21.996249	-29.726337	-16.531403
45002		23.279697	-29.884735	-16.863867
45003		24.628405	-30.030103	-17.236531
45004		26.115032	-30.137195	-17.641142
45005		27.753640	-30.202984	-18.062558
45006		29.523207	-30.221943	-18.464682
45007		31.407491	-30.189495	-18.853070
45008		33.414730	-30.088981	-19.224255
45009		35.539127	-29.916299	-19.613086
45010		37.753157	-29.676674	-20.023835
45011		39.991859	-29.392268	-20.462089
45012		42.197753	-29.088239	-20.902868
45013		44.308740	-28.773908	-21.342765
45014		46.330206	-28.461280	-21.759478
45015		48.257298	-28.170645	-22.125073
45016		50.058039	-27.889677	-22.401386
45017		51.709104	-27.577266	-22.626631
45018		53.220964	-27.221681	-22.785500
45019		54.647947	-26.813172	-22.879940
45020		56.021817	-26.362646	-22.867975
45021		57.371715	-25.878711	-22.765857
45022		58.735206	-25.395692	-22.588578
45023		60.117873	-24.898635	-22.355651
45024		61.527265	-24.380449	-22.084223
45025		62.934960	-23.866503	-21.804533
45026		64.273272	-23.360368	-21.518958
45027		65.495146	-22.872926	-21.257614
45028		66.648268	-22.402518	-21.011148
45029		67.764763	-21.941724	-20.763758
45030		68.879025	-21.497282	-20.501130
45031		69.976945	-21.068235	-20.227153
45032		71.040503	-20.650175	-19.911226
45033		72.079342	-20.242496	-19.557890
45034		73.106294	-19.843410	-19.161375
45035		74.114616	-19.465436	-18.725735
45036		75.109295	-19.115583	-18.261623
45037		76.080568	-18.785887	-17.797707
45038		77.053240	-18.458660	-17.344708
45039		78.044954	-18.116779	-16.914365
45040		79.059444	-17.770656	-16.518485
45041		80.080487	-17.429928	-16.135744
45042		81.066190	-17.111051	-15.742458
45043		82.007337	-16.807974	-15.324602
45044		82.931029	-16.508536	-14.880980
45045		83.876877	-16.204204	-14.399833
45046		84.860489	-15.884277	-13.865520
45047		85.917688	-15.543780	-13.249282
45048		87.056305	-15.185231	-12.572930
45049		88.240140	-14.817568	-11.876165
45050		89.380858	-14.456983	-11.225348
45051		90.405550	-14.125329	-10.679936
45052		91.269629	-13.835374	-10.260843
45053		92.022716	-13.591259	-9.926423
45054		92.733851	-13.383388	-9.658105
45055		93.418948	-13.186426	-9.422743
45056		94.080293	-12.996793	-9.204835
45057		94.720839	-12.819938	-8.993791
45058		95.364092	-12.655448	-8.771275
45059		96.010609	-12.491713	-8.545788
45060		96.643920	-12.325808	-8.333226
45061		97.224013	-12.156039	-8.143029
45062		97.747729	-11.993181	-8.000364
45063		98.226425	-11.842257	-7.908075
45064		98.679927	-11.708217	-7.845119
45065		99.154624	-11.585413	-7.759153
45066		99.693960	-11.459488	-7.631044
45067		100.278234	-11.312710	-7.456849
45068		100.897057	-11.145750	-7.210815
45069		101.567744	-10.969984	-6.891564
45070		102.245847	-10.792641	-6.542634
45071		102.851045	-10.619667	-6.208864
45072		103.329612	-10.464953	-5.942435
45073		103.699246	-10.340611	-5.749685
45074		104.007654	-10.246351	-5.616123
45075		104.325277	-10.170186	-5.527145
45076		104.686101	-10.090784	-5.440798
45077		105.133983	-9.997331	-5.332286
45078		105.678974	-9.885675	-5.176724
45079		106.277363	-9.756181	-4.964908
45080		106.858391	-9.617426	-4.726936
45081		107.341329	-9.476604	-4.503952
45082		107.692326	-9.345329	-4.331067
45083		107.961564	-9.232324	-4.217622
45084		108.211353	-9.142557	-4.154155
45085		108.509247	-9.061173	-4.114001
45086		108.884393	-8.968091	-4.065153
45087		109.339416	-8.860459	-3.977775
45088		109.847803	-8.741003	-3.838700
45089		110.356181	-8.619389	-3.645233
45090		110.814976	-8.495960	-3.404577
45091		111.194127	-8.375164	-3.143619
45092		111.479579	-8.262150	-2.892602
45093		111.676224	-8.171913	-2.674958
45094		111.856043	-8.110471	-2.499835
45095		112.072737	-8.056418	-2.373939
45096		112.330468	-7.992071	-2.277079
45097		112.612730	-7.917476	-2.194739
45098		112.881187	-7.840551	-2.133063
45099		113.108712	-7.764390	-2.097170
45100		113.278512	-7.693800	-2.083676
45101		113.385002	-7.631733	-2.086772
45102		113.432092	-7.582957	-2.090657
45103		113.467614	-7.544951	-2.091447
45104		113.518286	-7.515693	-2.107179
45105		113.562137	-7.487295	-2.126016
45106		113.606638	-7.457060	-2.142422
45107		113.680200	-7.423675	-2.173292
45108		113.768144	-7.389708	-2.218604
45109		113.845573	-7.353991	-2.265007
45110		113.900583	-7.322528	-2.303760
45111		113.920534	-7.298421	-2.325804
45112		113.903722	-7.284871	-2.324774
45113		113.860934	-7.281318	-2.310040
45114		113.806146	-7.270242	-2.299173
45115		113.748887	-7.260427	-2.295398
45116		113.689918	-7.257172	-2.305336
45117		113.638747	-7.259416	-2.319970
45118		113.609758	-7.262429	-2.339248
45119		113.587601	-7.262633	-2.358393
45120		113.560746	-7.271318	-2.373860
45121		113.523960	-7.283156	-2.383251
45122		113.457307	-7.286155	-2.385726
45123		113.385476	-7.298018	-2.391280
45124		113.307370	-7.316927	-2.402170
45125		113.207729	-7.343589	-2.416858
45126		113.096751	-7.364884	-2.440544
45127		112.993636	-7.372970	-2.467082
45128		112.923937	-7.384481	-2.487261
45129		112.879941	-7.402839	-2.497896
45130		112.829521	-7.424123	-2.492421
45131		112.754887	-7.444405	-2.471226
45132		112.678623	-7.459288	-2.432059
45133		112.629068	-7.467284	-2.381942
45134		112.604657	-7.477380	-2.332087
45135		112.579057	-7.491754	-2.289623
45136		112.541715	-7.506248	-2.261881
45137		112.487098	-7.524581	-2.257940
45138		112.404987	-7.546839	-2.267777
45139		112.279916	-7.584645	-2.280628
45140		112.140718	-7.638945	-2.296750
45141		112.010358	-7.700196	-2.307595
45142		111.893370	-7.758071	-2.311970
45143		111.790177	-7.811593	-2.309313
45144		111.682442	-7.857957	-2.323715
45145		111.549834	-7.902269	-2.361405
45146		111.382932	-7.954558	-2.426376
45147		111.199831	-8.008173	-2.508676
45148		111.010463	-8.056690	-2.600152
45149		110.825261	-8.100657	-2.686494
45150		110.635945	-8.134892	-2.763698
45151		110.443343	-8.169303	-2.825703
45152		110.260461	-8.211549	-2.884482
45153		110.075672	-8.248616	-2.944532
45154		109.883365	-8.287053	-3.015482
45155		109.678523	-8.327787	-3.109359
45156		109.457336	-8.379420	-3.224186
45157		109.235392	-8.438879	-3.364071
45158		109.001972	-8.502755	-3.530090
45159		108.742920	-8.574293	-3.716131
45160		108.455259	-8.650640	-3.920366
45161		108.145396	-8.725998	-4.145157
45162		107.814099	-8.800562	-4.382612
45163		107.467587	-8.877249	-4.615049
45164		107.128496	-8.949101	-4.831713
45165		106.808746	-9.021277	-5.030479
45166		106.484377	-9.091773	-5.216679
45167		106.152716	-9.163645	-5.406368
45168		105.828818	-9.237904	-5.618865
45169		105.494849	-9.314416	-5.872779
45170		105.129516	-9.395662	-6.168008
45171		104.713574	-9.479247	-6.483596
45172		104.280223	-9.571289	-6.791323
45173		103.876230	-9.668124	-7.079796
45174		103.494513	-9.761986	-7.345680
45175		103.105030	-9.852162	-7.591337
45176		102.692021	-9.937362	-7.832923
45177		102.232976	-10.024021	-8.093042
45178		101.706168	-10.125983	-8.401468
45179		101.098149	-10.248826	-8.773595
45180		100.384701	-10.397973	-9.210138
45181		99.591496	-10.572014	-9.694061
45182		98.779648	-10.757193	-10.193629
45183		97.996026	-10.941643	-10.674039
45184		97.238570	-11.120807	-11.099661
45185		96.498753	-11.287074	-11.452045
45186		95.762343	-11.441342	-11.743892
45187		94.999068	-11.583033	-11.990846
45188		94.206340	-11.718859	-12.201648
45189		93.383789	-11.856362	-12.366187
45190		92.529685	-11.984917	-12.464350
45191		91.678170	-12.098593	-12.477901
45192		90.874027	-12.204128	-12.399471
45193		90.141232	-12.298543	-12.250853
45194		89.500484	-12.377551	-12.052444
45195		88.923498	-12.412437	-11.835219
45196		88.407216	-12.409136	-11.651533
45197		87.932772	-12.396909	-11.522098
45198		87.474737	-12.402231	-11.458556
45199		87.005932	-12.432727	-11.459111
45200		86.525651	-12.481290	-11.504719
45201		86.044663	-12.525531	-11.569018
45202		85.596424	-12.560504	-11.629054
45203		85.199644	-12.585703	-11.673691
45204		84.818545	-12.596799	-11.701727
45205		84.435695	-12.596160	-11.707816
45206		84.047169	-12.587932	-11.699084
45207		83.656469	-12.578815	-11.676071
45208		83.276838	-12.572985	-11.653128
45209		82.893738	-12.570303	-11.641910
45210		82.500061	-12.571577	-11.655196
45211		82.108702	-12.581919	-11.701809
45212		81.709290	-12.595744	-11.778792
45213		81.287784	-12.615488	-11.865466
45214		80.845348	-12.639038	-11.957010
45215		80.378613	-12.663081	-12.048831
45216		79.917916	-12.690735	-12.141905
45217		79.470637	-12.717028	-12.236626
45218		79.045541	-12.741784	-12.329598
45219		78.633467	-12.774144	-12.429386
45220		78.220146	-12.814508	-12.535695
45221		77.787173	-12.861721	-12.659541
45222		77.306252	-12.916574	-12.806138
45223		76.776377	-12.979145	-12.973086
45224		76.214079	-13.052524	-13.151480
45225		75.622962	-13.131183	-13.331938
45226		75.002993	-13.213395	-13.514527
45227		74.371178	-13.305864	-13.710159
45228		73.758045	-13.407917	-13.924868
45229		73.135016	-13.522283	-14.151675
45230		72.475400	-13.648474	-14.370555
45231		71.796480	-13.783925	-14.586203
45232		71.094453	-13.923399	-14.800261
45233		70.361527	-14.048473	-15.012990
45234		69.607452	-14.170610	-15.223967
45235		68.862217	-14.290628	-15.429707
45236		68.154885	-14.411713	-15.622821
45237		67.469117	-14.527267	-15.801968
45238		66.789861	-14.638687	-15.948453
45239		66.122064	-14.751412	-16.049663
45240		65.461900	-14.873805	-16.101196
45241		64.796446	-15.026563	-16.079886
45242		64.098423	-15.226772	-15.953968
45243		63.347915	-15.433032	-15.718252
45244		62.610419	-15.558055	-15.447873
45245		61.984853	-15.570883	-15.197324
45246		61.498942	-15.507267	-14.974682
45247		61.109670	-15.427957	-14.775802
45248		60.724107	-15.353898	-14.599456
45249		60.290307	-15.290774	-14.459048
45250		59.818077	-15.242122	-14.357882
45251		59.325895	-15.220626	-14.294242
45252		58.830249	-15.233976	-14.258141
45253		58.331463	-15.283006	-14.235030
45254		57.804103	-15.366804	-14.211549
45255		57.203415	-15.482835	-14.163619
45256		56.532861	-15.608396	-14.091054
45257		55.841351	-15.730392	-14.055646
45258		55.148522	-15.843717	-14.057453
45259		54.423359	-15.967511	-14.109152
45260		53.638981	-16.103612	-14.190322
45261		52.815690	-16.267770	-14.301279
45262		51.955080	-16.468032	-14.414248
45263		51.025586	-16.700821	-14.513490
45264		50.023232	-16.948803	-14.561308
45265		48.967606	-17.191235	-14.568835
45266		47.879206	-17.435507	-14.531839
45267		46.743683	-17.688549	-14.463753
45268		45.549640	-17.916513	-14.401303
45269		44.361635	-18.091888	-14.414722
45270		43.224054	-18.232987	-14.509860
45271		42.097705	-18.352837	-14.676085
45272		40.997859	-18.470576	-14.850998
45273		39.938364	-18.588505	-14.991173
45274		38.931887	-18.699182	-15.039505
45275		37.977575	-18.798078	-14.952538
45276		37.051062	-18.870904	-14.683639
45277		36.160173	-18.858818	-14.269375
45278		35.429541	-18.700744	-13.816958
45279		34.964686	-18.399773	-13.428719
45280		34.734849	-18.041821	-13.150295
45281		34.539086	-17.752506	-13.026285
45282		34.177351	-17.605087	-13.055771
45283		33.569462	-17.598707	-13.241713
45284		32.782300	-17.695868	-13.544323
45285		31.930920	-17.855258	-13.914894
45286		31.120265	-18.039981	-14.268047
45287		30.418553	-18.217737	-14.553733
45288		29.849998	-18.366748	-14.738708
45289		29.401037	-18.470739	-14.832148
45290		29.063498	-18.527614	-14.853638
45291		28.824152	-18.548403	-14.844845
45292		28.658515	-18.564657	-14.823778
45293		28.515934	-18.598330	-14.830690
45294		28.345105	-18.657538	-14.869196
45295		28.111304	-18.750293	-14.951399
45296		27.773669	-18.875139	-15.067128
45297		27.351291	-19.032276	-15.203373
45298		26.883076	-19.208267	-15.324045
45299		26.399121	-19.398209	-15.422532
45300		25.917885	-19.591700	-15.494077
45301		25.449281	-19.786999	-15.564949
45302		24.961937	-19.992541	-15.649895
45303		24.417121	-20.208126	-15.776450
45304		23.797452	-20.447759	-15.941640
45305		23.098806	-20.718144	-16.153405
45306		22.319750	-21.010982	-16.366578
45307		21.491073	-21.309078	-16.545068
45308		20.642537	-21.593726	-16.631316
45309		19.792281	-21.856405	-16.608639
45310		18.941919	-22.081107	-16.439710
45311		18.102558	-22.267718	-16.138044
45312		17.290150	-22.387721	-15.770466
45313		16.562127	-22.432239	-15.450399
45314		15.973630	-22.432989	-15.240282
45315		15.469773	-22.428651	-15.169705
45316		15.004269	-22.446989	-15.214128
45317		14.522403	-22.510284	-15.340406
45318		14.004838	-22.619938	-15.473509
45319		13.469983	-22.763442	-15.594805
45320		12.946313	-22.921866	-15.658969
45321		12.469986	-23.069708	-15.660109
45322		12.038530	-23.191024	-15.579348
45323		11.629374	-23.275394	-15.424599
45324		11.247101	-23.313457	-15.221878
45325		10.916054	-23.302507	-15.023493
45326		10.651177	-23.267816	-14.854616
45327		10.415024	-23.229674	-14.738065
45328		10.182322	-23.189570	-14.656555
45329		9.948957	-23.165055	-14.595991
45330		9.715044	-23.151439	-14.529019
45331		9.467097	-23.143659	-14.464510
45332		9.213703	-23.140459	-14.391018
45333		8.964446	-23.140289	-14.319632
45334		8.726661	-23.138557	-14.239068
45335		8.503585	-23.120657	-14.162101
45336		8.319697	-23.088551	-14.105682
45337		8.188997	-23.050993	-14.102144
45338		8.098502	-23.023003	-14.130098
45339		8.020654	-22.995404	-14.176805
45340		7.937092	-22.973571	-14.220790
45341		7.835547	-22.963191	-14.270871
45342		7.707477	-22.964726	-14.313895
45343		7.561839	-22.986674	-14.351786
45344		7.406860	-23.015802	-14.369673
45345		7.254785	-23.050018	-14.390711
45346		7.130228	-23.088235	-14.409816
45347		7.031394	-23.139315	-14.455152
45348		6.919508	-23.196056	-14.508154
45349		6.789163	-23.256638	-14.562802
45350		6.652408	-23.313908	-14.600498
45351		6.541890	-23.358692	-14.622124
45352		6.496149	-23.382670	-14.614383
45353		6.515015	-23.386898	-14.600098
45354		6.553569	-23.377407	-14.596244
45355		6.573396	-23.372426	-14.602967
45356		6.573575	-23.383616	-14.609157
45357		6.561982	-23.400259	-14.621454
45358		6.553076	-23.406696	-14.632054
45359		6.551117	-23.398418	-14.646935
45360		6.559728	-23.370422	-14.657441
45361		6.585957	-23.333860	-14.660059
45362		6.641819	-23.288168	-14.636320
45363		6.732085	-23.246950	-14.604513
45364		6.810080	-23.217325	-14.574514
45365		6.851326	-23.196016	-14.559252
45366		6.866065	-23.185631	-14.552885
45367		6.850825	-23.174810	-14.562977
45368		6.828486	-23.162555	-14.577177
45369		6.807071	-23.150024	-14.603573
45370		6.805385	-23.134171	-14.624518
45371		6.839187	-23.117451	-14.640429
45372		6.903827	-23.097027	-14.643037
45373		6.983307	-23.072790	-14.643777
45374		7.047180	-23.050680	-14.643168
45375		7.081657	-23.043927	-14.645658
45376		7.079454	-23.062955	-14.661412
45377		7.060829	-23.096003	-14.701561
45378		7.046291	-23.133046	-14.749707
45379		7.040831	-23.163562	-14.800471
45380		7.052883	-23.197250	-14.832499
45381		7.094311	-23.234146	-14.858136
45382		7.168447	-23.273563	-14.876884
45383		7.264429	-23.313621	-14.896100
45384		7.361252	-23.353142	-14.899299
45385		7.470983	-23.397380	-14.895116
45386		7.598267	-23.456071	-14.891760
45387		7.708226	-23.544071	-14.900517
45388		7.788237	-23.695376	-14.903389
45389		7.852389	-23.934562	-14.907718
45390		7.971366	-24.238825	-14.927839
45391		8.200335	-24.571154	-14.988894
45392		8.533923	-24.888275	-15.063258
45393		8.957367	-25.166565	-15.131495
45394		9.476216	-25.380941	-15.175977
45395		10.132087	-25.525739	-15.206018
45396		10.967786	-25.613663	-15.205583
45397		11.991256	-25.665031	-15.194509
45398		13.153428	-25.692004	-15.188896
45399		14.389239	-25.712915	-15.224256
45400		15.645349	-25.741938	-15.311926
45401		16.881953	-25.776018	-15.468493
45402		18.092235	-25.805839	-15.699528
45403		19.272740	-25.841941	-16.016323
45404		20.403129	-25.891903	-16.387978
45405		21.447951	-25.952716	-16.810552
45406		22.420160	-26.024240	-17.255705
45407		23.374586	-26.110034	-17.725573
45408		24.357192	-26.192167	-18.195953
45409		25.442088	-26.251567	-18.645560
45410		26.717578	-26.260971	-19.055833
45411		28.207406	-26.204771	-19.420251
45412		29.899570	-26.065288	-19.716240
45413		31.759594	-25.851520	-19.938960
45414		33.724289	-25.579718	-20.076797
45415		35.726795	-25.253910	-20.133286
45416		37.707736	-24.905321	-20.082181
45417		39.568502	-24.560945	-19.959392
45418		41.268507	-24.232792	-19.796338
45419		42.836823	-23.940736	-19.644571
45420		44.322268	-23.674354	-19.531933
45421		45.770964	-23.426476	-19.499646
45422		47.255211	-23.206490	-19.513408
45423		48.810552	-23.021407	-19.570368
45424		50.405823	-22.842727	-19.629331
45425		51.976292	-22.641302	-19.678292
45426		53.478206	-22.409621	-19.675443
45427		54.895903	-22.151965	-19.624280
45428		56.259601	-21.875571	-19.521454
45429		57.594541	-21.572721	-19.387432
45430		58.915297	-21.249346	-19.227402
45431		60.246183	-20.920107	-19.051087
45432		61.603809	-20.583207	-18.862615
45433		63.010467	-20.240356	-18.667957
45434		64.474501	-19.886566	-18.465696
45435		65.945671	-19.503188	-18.248327
45436		67.365239	-19.085399	-17.988472
45437		68.730993	-18.648585	-17.670123
45438		70.058329	-18.203157	-17.309826
45439		71.364651	-17.765414	-16.929435
45440		72.641496	-17.351730	-16.551431
45441		73.894405	-16.972201	-16.188492
45442		75.143206	-16.639054	-15.868052
45443		76.404306	-16.360413	-15.592419
45444		77.707636	-16.137382	-15.359809
45445		79.019085	-15.951061	-15.144474
45446		80.257134	-15.763535	-14.918690
45447		81.382902	-15.552638	-14.669083
45448		82.432458	-15.320984	-14.409635
45449		83.425255	-15.079855	-14.143318
45450		84.353536	-14.823000	-13.869854
45451		85.244375	-14.571228	-13.594958
45452		86.127080	-14.330297	-13.344398
45453		87.020457	-14.100865	-13.111749
45454		87.944423	-13.873007	-12.883526
45455		88.891419	-13.631964	-12.641748
45456		89.810314	-13.376435	-12.384667
45457		90.666476	-13.126459	-12.107546
45458		91.430837	-12.895344	-11.809570
45459		92.092322	-12.693999	-11.497565
45460		92.676831	-12.527028	-11.170143
45461		93.257187	-12.386768	-10.836111
45462		93.880745	-12.250030	-10.502411
45463		94.541483	-12.095434	-10.150043
45464		95.231648	-11.908296	-9.786345
45465		95.934025	-11.696042	-9.421024
45466		96.616479	-11.485169	-9.074564
45467		97.252585	-11.289410	-8.750510
45468		97.828373	-11.116991	-8.453652
45469		98.356717	-10.967484	-8.176644
45470		98.844169	-10.834765	-7.907326
45471		99.312287	-10.713876	-7.619844
45472		99.781326	-10.591919	-7.318378
45473		100.271569	-10.471087	-7.013745
45474		100.765766	-10.335695	-6.713514
45475		101.286496	-10.185073	-6.425871
45476		101.824723	-10.027611	-6.163781
45477		102.348295	-9.869005	-5.926425
45478		102.825897	-9.717553	-5.698886
45479		103.268516	-9.586449	-5.461006
45480		103.692847	-9.476843	-5.210630
45481		104.118681	-9.381937	-4.943495
45482		104.557312	-9.294318	-4.667641
45483		104.998406	-9.203884	-4.394801
45484		105.445997	-9.109824	-4.118539
45485		105.894612	-9.011429	-3.848656
45486		106.333948	-8.909802	-3.588208
45487		106.753291	-8.818932	-3.331980
45488		107.150770	-8.739249	-3.077527
45489		107.528734	-8.677480	-2.827649
45490		107.899657	-8.624582	-2.577916
45491		108.276441	-8.583465	-2.316325
45492		108.669727	-8.553279	-2.045925
45493		109.082544	-8.517764	-1.790298
45494		109.487565	-8.466585	-1.561092
45495		109.872703	-8.401259	-1.361881
45496		110.232208	-8.331113	-1.193061
45497		110.550559	-8.267153	-1.055380
45498		110.805516	-8.205817	-0.936194
45499		111.000793	-8.152967	-0.830608
45500		111.176760	-8.105266	-0.739189
45501		111.351602	-8.057153	-0.670698
45502		111.539836	-8.015319	-0.613911
45503		111.761729	-7.974095	-0.565947
45504		111.997896	-7.921348	-0.530001
45505		112.224518	-7.856210	-0.492414
45506		112.440763	-7.782566	-0.442093
45507		112.646761	-7.707225	-0.376434
45508		112.827156	-7.626810	-0.297840
45509		112.965247	-7.546473	-0.219490
45510		113.059100	-7.476981	-0.156931
45511		113.124264	-7.425807	-0.124383
45512		113.173258	-7.395721	-0.125906
45513		113.204361	-7.376383	-0.163030
45514		113.210606	-7.364904	-0.214632
45515		113.212315	-7.357221	-0.270718
45516		113.227145	-7.357063	-0.327431
45517		113.235189	-7.361900	-0.367541
45518		113.245361	-7.369744	-0.389781
45519		113.271896	-7.384513	-0.400333
45520		113.310841	-7.411253	-0.397111
45521		113.349429	-7.437958	-0.395885
45522		113.367691	-7.455234	-0.406779
45523		113.379237	-7.463477	-0.444534
45524		113.381890	-7.470508	-0.506838
45525		113.379476	-7.476733	-0.582157
45526		113.373106	-7.487024	-0.660509
45527		113.370726	-7.500180	-0.731053
45528		113.359878	-7.508142	-0.792154
45529		113.332012	-7.516156	-0.845890
45530		113.289133	-7.513870	-0.891311
45531		113.257126	-7.511766	-0.935728
45532		113.237490	-7.513924	-0.978027
45533		113.218096	-7.520765	-1.013777
45534		113.196899	-7.525653	-1.044585
45535		113.173412	-7.533565	-1.068314
45536		113.153992	-7.543688	-1.086450
45537		113.130180	-7.551937	-1.095688
45538		113.075624	-7.556417	-1.097739
45539		113.003153	-7.559301	-1.095307
45540		112.913925	-7.563663	-1.090949
45541		112.806936	-7.573546	-1.081731
45542		112.687088	-7.581375	-1.074924
45543		112.580061	-7.587836	-1.080579
45544		112.511509	-7.586524	-1.108012
45545		112.478216	-7.579633	-1.151346
45546		112.461266	-7.571088	-1.191239
45547		112.449165	-7.572602	-1.222444
45548		112.430025	-7.580322	-1.234822
45549		112.401489	-7.589671	-1.232477
45550		112.371484	-7.595702	-1.222713
45551		112.339602	-7.598924	-1.212656
45552		112.302656	-7.604705	-1.198453
45553		112.254758	-7.615068	-1.180595
45554		112.199443	-7.620854	-1.154810
45555		112.148765	-7.617101	-1.136019
45556		112.112020	-7.610484	-1.123372
45557		112.091398	-7.600326	-1.125682
45558		112.084278	-7.588932	-1.142253
45559		112.075825	-7.572144	-1.167347
45560		112.064517	-7.559776	-1.191268
45561		112.053175	-7.557324	-1.207432
45562		112.040850	-7.561387	-1.210913
45563		112.027178	-7.568304	-1.205569
45564		112.007166	-7.563334	-1.194208
45565		112.005260	-7.557224	-1.190705
45566		112.008186	-7.560891	-1.191993
45567		111.999446	-7.574265	-1.186484
45568		111.961923	-7.583584	-1.163456
45569		111.903072	-7.584258	-1.130706
45570		111.852006	-7.582559	-1.097958
45571		111.813086	-7.590746	-1.069735
45572		111.765817	-7.601376	-1.030463
45573		111.706282	-7.610150	-0.980823
45574		111.650262	-7.610944	-0.930873
45575		111.612300	-7.606834	-0.892473
45576		111.579797	-7.606088	-0.857544
45577		111.539436	-7.604429	-0.820632
45578		111.477334	-7.596417	-0.783131
45579		111.412295	-7.591959	-0.744667
45580		111.357242	-7.591318	-0.711156
45581		111.306353	-7.595832	-0.684313
45582		111.218425	-7.594224	-0.688525
45583		111.044664	-7.597685	-0.748977
45584		110.760174	-7.619043	-0.868959
45585		110.399609	-7.671613	-1.039374
45586		109.999656	-7.735297	-1.240546
45587		109.595373	-7.807160	-1.468449
45588		109.211268	-7.883842	-1.723095
45589		108.825733	-7.962360	-1.991734
45590		108.425647	-8.046535	-2.260290
45591		108.014018	-8.128671	-2.528269
45592		107.601113	-8.214934	-2.799917
45593		107.181204	-8.311460	-3.077276
45594		106.739053	-8.420445	-3.348793
45595		106.285863	-8.537282	-3.616192
45596		105.838015	-8.654171	-3.886447
45597		105.389555	-8.771383	-4.154200
45598		104.931827	-8.886881	-4.417555
45599		104.462526	-8.994837	-4.687701
45600		103.969971	-9.108316	-4.964588
45601		103.433154	-9.225596	-5.243929
45602		102.853738	-9.347886	-5.519984
45603		102.263525	-9.482730	-5.808365
45604		101.678969	-9.619759	-6.108531
45605		101.103322	-9.755963	-6.407886
45606		100.551438	-9.886538	-6.691246
45607		100.033512	-10.017862	-6.948261
45608		99.542482	-10.148474	-7.168735
45609		99.051107	-10.268546	-7.354688
45610		98.553516	-10.376758	-7.507977
45611		98.052047	-10.477291	-7.633428
45612		97.541451	-10.569800	-7.733492
45613		97.030407	-10.653478	-7.811764
45614		96.539051	-10.733391	-7.879614
45615		96.071211	-10.814887	-7.953881
45616		95.606601	-10.898701	-8.036493
45617		95.141242	-10.989941	-8.135526
45618		94.658661	-11.085860	-8.260318
45619		94.153521	-11.189598	-8.411906
45620		93.627776	-11.298979	-8.584389
45621		93.078875	-11.416993	-8.774404
45622		92.506962	-11.545386	-8.968178
45623		91.928346	-11.676978	-9.153174
45624		91.349958	-11.808808	-9.323684
45625		90.774313	-11.943298	-9.472633
45626		90.201091	-12.076121	-9.594710
45627		89.627824	-12.209528	-9.696093
45628		89.046847	-12.333246	-9.785220
45629		88.456804	-12.449062	-9.881310
45630		87.841675	-12.562888	-9.995514
45631		87.190568	-12.685026	-10.137296
45632		86.492726	-12.831305	-10.331319
45633		85.723152	-13.019397	-10.585205
45634		84.865955	-13.255434	-10.912152
45635		83.920886	-13.546565	-11.324195
45636		82.875023	-13.901512	-11.812005
45637		81.726004	-14.316736	-12.355156
45638		80.500695	-14.778989	-12.941100
45639		79.236715	-15.271491	-13.546602
45640		77.964085	-15.783167	-14.144903
45641		76.706806	-16.298494	-14.713301
45642		75.470813	-16.814540	-15.227903
45643		74.269914	-17.319202	-15.682742
45644		73.098396	-17.804090	-16.074510
45645		71.954986	-18.264408	-16.408173
45646		70.834109	-18.705586	-16.706778
45647		69.713076	-19.128538	-16.987653
45648		68.591010	-19.543423	-17.253756
45649		67.472796	-19.951475	-17.515343
45650		66.397299	-20.358095	-17.765161
45651		65.399429	-20.763489	-18.019631
45652		64.520720	-21.164003	-18.283034
45653		63.797008	-21.551990	-18.577067
45654		63.231011	-21.907324	-18.899278
45655		62.798959	-22.216117	-19.249014
45656		62.473834	-22.485732	-19.607846
45657		62.196166	-22.725423	-19.946007
45658		61.900949	-22.928369	-20.223502
45659		61.567549	-23.101948	-20.441890
45660		61.198957	-23.241115	-20.594489
45661		60.824830	-23.351469	-20.702353
45662		60.475921	-23.436780	-20.769518
45663		60.163397	-23.503073	-20.820437
45664		59.892078	-23.561780	-20.841644
45665		59.640730	-23.625272	-20.848954
45666		59.392264	-23.690453	-20.842056
45667		59.125483	-23.754110	-20.843259
45668		58.847790	-23.818316	-20.851833
45669		58.572674	-23.889022	-20.891631
45670		58.285954	-23.966532	-20.962061
45671		57.978140	-24.054182	-21.069290
45672		57.641190	-24.156311	-21.191011
45673		57.275094	-24.261341	-21.324702
45674		56.893099	-24.369141	-21.456365
45675		56.502688	-24.484854	-21.603996
45676		56.108722	-24.608886	-21.749996
45677		55.702645	-24.751906	-21.905069
45678		55.295666	-24.910945	-22.058649
45679		54.896325	-25.075243	-22.221944
45680		54.510554	-25.232403	-22.386751
45681		54.147469	-25.383120	-22.582287
45682		53.782587	-25.543396	-22.794229
45683		53.383308	-25.729211	-23.031779
45684		52.928413	-25.946432	-23.294395
45685		52.404158	-26.197132	-23.593099
45686		51.804689	-26.477212	-23.906237
45687		51.143374	-26.782009	-24.230575
45688		50.431381	-27.098591	-24.538204
45689		49.698416	-27.412428	-24.828236
45690		48.989903	-27.727702	-25.086467
45691		48.312899	-28.054434	-25.337877
45692		47.632418	-28.421693	-25.584222
45693		46.846709	-28.881778	-25.931673
45694		45.919367	-29.444361	-26.335812
45695		44.867531	-30.128735	-26.822822
45696		43.778279	-30.887483	-27.331112
45697		42.783094	-31.667447	-27.839356
45698		41.939634	-32.434429	-28.344222
45699		41.194461	-33.139204	-28.813055
45700		40.498371	-33.748621	-29.181474
45701		39.807420	-34.253649	-29.437005
45702		39.093768	-34.649308	-29.549571
45703		38.377751	-34.954179	-29.572472
45704		37.685595	-35.197745	-29.549750
45705		37.038827	-35.405561	-29.521685
45706		36.457212	-35.599556	-29.496925
45707		35.918978	-35.798610	-29.513145
45708		35.398285	-36.002380	-29.534943
45709		34.898080	-36.215678	-29.568157
45710		34.429921	-36.432226	-29.575139
45711		34.002357	-36.648917	-29.573820
45712		33.601817	-36.851820	-29.542211
45713		33.207768	-37.037708	-29.499570
45714		32.792678	-37.197801	-29.426273
45715		32.357157	-37.327373	-29.337056
45716		31.928017	-37.438297	-29.224490
45717		31.509148	-37.536573	-29.112918
45718		31.108016	-37.623966	-28.991291
45719		30.748876	-37.703277	-28.895210
45720		30.449773	-37.772011	-28.804610
45721		30.203677	-37.832039	-28.733996
45722		29.968570	-37.889384	-28.648587
45723		29.713597	-37.939943	-28.555709
45724		29.418980	-37.975627	-28.429749
45725		29.073363	-37.984478	-28.277719
45726		28.706285	-37.962365	-28.095027
45727		28.356515	-37.921631	-27.917161
45728		28.047422	-37.874026	-27.740519
45729		27.785714	-37.821609	-27.588778
45730		27.556242	-37.770754	-27.454143
45731		27.342701	-37.719552	-27.345220
45732		27.132065	-37.663456	-27.230217
45733		26.889106	-37.593047	-27.089527
45734		26.608974	-37.492612	-26.896716
45735		26.313662	-37.366789	-26.680682
45736		26.007656	-37.215593	-26.455816
45737		25.701703	-37.048092	-26.254311
45738		25.436759	-36.882885	-26.082082
45739		25.235715	-36.740196	-25.954151
45740		25.066682	-36.613913	-25.841356
45741		24.881765	-36.496959	-25.737310
45742		24.654299	-36.377994	-25.614219
45743		24.382524	-36.248137	-25.490724
45744		24.097236	-36.107728	-25.354449
45745		23.795273	-35.953085	-25.211510
45746		23.465665	-35.773590	-25.030571
45747		23.121854	-35.567729	-24.829906
45748		22.813127	-35.358597	-24.620508
45749		22.538712	-35.157393	-24.427449
45750		22.277254	-34.960150	-24.237328
45751		22.007463	-34.763449	-24.057620
45752		21.715853	-34.550525	-23.865089
45753		21.398624	-34.322671	-23.674534
45754		21.038152	-34.064134	-23.467502
45755		20.636992	-33.783139	-23.255773
45756		20.223814	-33.493377	-23.029782
45757		19.808131	-33.200536	-22.793836
45758		19.395139	-32.897450	-22.540781
45759		19.022585	-32.598498	-22.295735
45760		18.695381	-32.315995	-22.067222
45761		18.383548	-32.048258	-21.873878
45762		18.037142	-31.780203	-21.685462
45763		17.625596	-31.506033	-21.501444
45764		17.153323	-31.213799	-21.298350
45765		16.642599	-30.905377	-21.087808
45766		16.123911	-30.595677	-20.867719
45767		15.628564	-30.303716	-20.666701
45768		15.175062	-30.041969	-20.481071
45769		14.775862	-29.820348	-20.329454
45770		14.422045	-29.642815	-20.192904
45771		14.079261	-29.503354	-20.081348
45772		13.709519	-29.382603	-19.964359
45773		13.292895	-29.253536	-19.844187
45774		12.850707	-29.107066	-19.708823
45775		12.431595	-28.943802	-19.578307
45776		12.045112	-28.767508	-19.443276
45777		11.701499	-28.581022	-19.324505
45778		11.399955	-28.405389	-19.203852
45779		11.133059	-28.241993	-19.088034
45780		10.888978	-28.094599	-18.969507
45781		10.631589	-27.943170	-18.857048
45782		10.358154	-27.787842	-18.749687
45783		10.098175	-27.646973	-18.665792
45784		9.855676	-27.523716	-18.588076
45785		9.631327	-27.418840	-18.516293
45786		9.422831	-27.331073	-18.440047
45787		9.234247	-27.252904	-18.372686
45788		9.069077	-27.182185	-18.307054
45789		8.926359	-27.125228	-18.254549
45790		8.800866	-27.083540	-18.198954
45791		8.685559	-27.048503	-18.148880
45792		8.583368	-27.007018	-18.095836
45793		8.500954	-26.961593	-18.056903
45794		8.417446	-26.918729	-18.021114
45795		8.316435	-26.885949	-17.991190
45796		8.200446	-26.862951	-17.955875
45797		8.081973	-26.832671	-17.925869
45798		7.982561	-26.797105	-17.894530
45799		7.896240	-26.754431	-17.866829
45800		7.813657	-26.703105	-17.828616
45801		7.726651	-26.636730	-17.783683
45802		7.612224	-26.551516	-17.726949
45803		7.494178	-26.451471	-17.673027
45804		7.394388	-26.356934	-17.621949
45805		7.301152	-26.261311	-17.579194
45806		7.210187	-26.168146	-17.532972
45807		7.120217	-26.078000	-17.492660
45808		6.995660	-25.971661	-17.429090
45809		6.816325	-25.844869	-17.353511
45810		6.615001	-25.715617	-17.266454
45811		6.432095	-25.601103	-17.185317
45812		6.273690	-25.496517	-17.100157
45813		6.161213	-25.413744	-17.039209
45814		6.099227	-25.363656	-16.999270
45815		6.064520	-25.339161	-16.984717
45816		6.037554	-25.336759	-16.981361
45817		6.021446	-25.341992	-16.989374
45818		6.028410	-25.354864	-16.997157
45819		6.041248	-25.357606	-17.016214
45820		6.043220	-25.342128	-17.033034
45821		6.055784	-25.316228	-17.053917
45822		6.084498	-25.293295	-17.071481
45823		6.127100	-25.283370	-17.092388
45824		6.191727	-25.297704	-17.112506
45825		6.275683	-25.334339	-17.140932
45826		6.375454	-25.402020	-17.171188
45827		6.505475	-25.504725	-17.214194
45828		6.659120	-25.631937	-17.268414
45829		6.835283	-25.775384	-17.342565
45830		7.028173	-25.920633	-17.412369
45831		7.244545	-26.062223	-17.493510
45832		7.492440	-26.202226	-17.572761
45833		7.787495	-26.349838	-17.671449
45834		8.158419	-26.521130	-17.779604
45835		8.629565	-26.723850	-17.907443
45836		9.223115	-26.964671	-18.047456
45837		9.952254	-27.239542	-18.203818
45838		10.813228	-27.516078	-18.340152
45839		11.754205	-27.729579	-18.432193
45840		12.725663	-27.842844	-18.451236
45841		13.685355	-27.856067	-18.405977
45842		14.609235	-27.800511	-18.331088
45843		15.489440	-27.719921	-18.275310
45844		16.291205	-27.652980	-18.242563
45845		17.009084	-27.613931	-18.237595
45846		17.669734	-27.591366	-18.244365
45847		18.311848	-27.575914	-18.274053
45848		18.938735	-27.559875	-18.314231
45849		19.564047	-27.536059	-18.365083
45850		20.162469	-27.505238	-18.420877
45851		20.703727	-27.470121	-18.479084
45852		21.181781	-27.451305	-18.527631
45853		21.599862	-27.455324	-18.586236
45854		22.001834	-27.480972	-18.649690
45855		22.438341	-27.525859	-18.733066
45856		22.919337	-27.576223	-18.812554
45857		23.439526	-27.622514	-18.892305
45858		23.982869	-27.657678	-18.948690
45859		24.550264	-27.671717	-18.990699
45860		25.149942	-27.652183	-19.016622
45861		25.788070	-27.603424	-19.047607
45862		26.459890	-27.540154	-19.074902
45863		27.149819	-27.475989	-19.112078
45864		27.854533	-27.427480	-19.144668
45865		28.569216	-27.394948	-19.200090
45866		29.312484	-27.379504	-19.277211
45867		30.110242	-27.378325	-19.404436
45868		30.952120	-27.388673	-19.559603
45869		31.811914	-27.403096	-19.741706
45870		32.698624	-27.423702	-19.930794
45871		33.646612	-27.432291	-20.133038
45872		34.690630	-27.418474	-20.314791
45873		35.826351	-27.363571	-20.474130
45874		37.011492	-27.256361	-20.578888
45875		38.252583	-27.115885	-20.635268
45876		39.562094	-26.961450	-20.645801
45877		40.930001	-26.795541	-20.632309
45878		42.343786	-26.603985	-20.577353
45879		43.794302	-26.375454	-20.489916
45880		45.282184	-26.106563	-20.342811
45881		46.816184	-25.798252	-20.155524
45882		48.426590	-25.434751	-19.888897
45883		50.140469	-25.011704	-19.557211
45884		51.968346	-24.539828	-19.164293
45885		53.909721	-24.036951	-18.749915
45886		55.911575	-23.521911	-18.333488
45887		57.908725	-22.993421	-17.919111
45888		59.864136	-22.459336	-17.516090
45889		61.782940	-21.935146	-17.138890
45890		63.668160	-21.439367	-16.782317
45891		65.525744	-20.981816	-16.465369
45892		67.369243	-20.573836	-16.173646
45893		69.191595	-20.213064	-15.930595
45894		70.955003	-19.878437	-15.716618
45895		72.572083	-19.557560	-15.510082
45896		74.021048	-19.259668	-15.309113
45897		75.300990	-18.983545	-15.120443
45898		76.418439	-18.728092	-14.926406
45899		77.455949	-18.495310	-14.728936
45900		78.481297	-18.288626	-14.530616
45901		79.479968	-18.086087	-14.329396
45902		80.432902	-17.875601	-14.130806
45903		81.346925	-17.661574	-13.941724
45904		82.234306	-17.460250	-13.765850
45905		83.091148	-17.269536	-13.619654
45906		83.890147	-17.091071	-13.486035
45907		84.617862	-16.929951	-13.342544
45908		85.287316	-16.772425	-13.176283
45909		85.937193	-16.606925	-12.985739
45910		86.586046	-16.423448	-12.770696
45911		87.264396	-16.231469	-12.535259
45912		87.962750	-16.027472	-12.268136
45913		88.669817	-15.811788	-11.976963
45914		89.376165	-15.585485	-11.691104
45915		90.055235	-15.363737	-11.441787
45916		90.700537	-15.156919	-11.236734
45917		91.308964	-14.963774	-11.071460
45918		91.912512	-14.782637	-10.932113
45919		92.534737	-14.598254	-10.815409
45920		93.199494	-14.403588	-10.681846
45921		93.899376	-14.190399	-10.516023
45922		94.619131	-13.966511	-10.286243
45923		95.340909	-13.738462	-10.005885
45924		96.043383	-13.506852	-9.696767
45925		96.703024	-13.266256	-9.406835
45926		97.326337	-13.031962	-9.162824
45927		97.919974	-12.799336	-8.979026
45928		98.506377	-12.572048	-8.844944
45929		99.094655	-12.340689	-8.735093
45930		99.684655	-12.115134	-8.604868
45931		100.289959	-11.895256	-8.426513
45932		100.916941	-11.674939	-8.201149
45933		101.564313	-11.436254	-7.947628
45934		102.211381	-11.180900	-7.680429
45935		102.852300	-10.911623	-7.417874
45936		103.458544	-10.638185	-7.165900
45937		104.012682	-10.369961	-6.933789
45938		104.519010	-10.127502	-6.727014
45939		105.001624	-9.912947	-6.541544
45940		105.478072	-9.715439	-6.363678
45941		105.952935	-9.514423	-6.179672
45942		106.409022	-9.295783	-5.985417
45943		106.866497	-9.065447	-5.789336
45944		107.319591	-8.830389	-5.602344
45945		107.744573	-8.597704	-5.419788
45946		108.114889	-8.370704	-5.245258
45947		108.437359	-8.151374	-5.078158
45948		108.740645	-7.937430	-4.916164
45949		109.026097	-7.730333	-4.754194
45950		109.292775	-7.538942	-4.597847
45951		109.557217	-7.352419	-4.446030
45952		109.834919	-7.164902	-4.292748
45953		110.131699	-6.968584	-4.142667
45954		110.408652	-6.769469	-3.999871
45955		110.632624	-6.571329	-3.859940
45956		110.802416	-6.379933	-3.731213
45957		110.935888	-6.208585	-3.619421
45958		111.033476	-6.069678	-3.525858
45959		111.104489	-5.943635	-3.458763
45960		111.151198	-5.806309	-3.424287
45961		111.203864	-5.662577	-3.403961
45962		111.295732	-5.514093	-3.388409
45963		111.417608	-5.356069	-3.359432
45964		111.541605	-5.192315	-3.311112
45965		111.655607	-5.039341	-3.240046
45966		111.737570	-4.901690	-3.151049
45967		111.773871	-4.775884	-3.053831
45968		111.765471	-4.667339	-2.960894
45969		111.762039	-4.580804	-2.880453
45970		111.789044	-4.494035	-2.825921
45971		111.865735	-4.405722	-2.800814
45972		111.955513	-4.317042	-2.789899
45973		112.032154	-4.239595	-2.773075
45974		112.098366	-4.169328	-2.746315
45975		112.153994	-4.110849	-2.709755
45976		112.202286	-4.066568	-2.665348
45977		112.233402	-4.036725	-2.622230
45978		112.236168	-4.022552	-2.580066
45979		112.214888	-4.018146	-2.551810
45980		112.193406	-4.013338	-2.540202
45981		112.179219	-3.998342	-2.552863
45982		112.161718	-3.986966	-2.568648
45983		112.142137	-3.979542	-2.590209
45984		112.126383	-3.975363	-2.607811
45985		112.113504	-3.975277	-2.606814
45986		112.112628	-3.978104	-2.578597
45987		112.130973	-3.981634	-2.532928
45988		112.144328	-3.981585	-2.469709
45989		112.157738	-3.978803	-2.389056
45990		112.182323	-3.976869	-2.301703
45991		112.216918	-3.977553	-2.226341
45992		112.241174	-3.980432	-2.169930
45993		112.236957	-3.979640	-2.138791
45994		112.210509	-3.977780	-2.131559
45995		112.179516	-3.984192	-2.143728
45996		112.141636	-4.002808	-2.154411
45997		112.095849	-4.015206	-2.139962
45998		112.072799	-4.019776	-2.105825
45999		112.096022	-4.018991	-2.071408
46000		112.112812	-4.022021	-2.037752
46001		112.108226	-4.035560	-1.999565
46002		112.093114	-4.046663	-1.953073
46003		112.095948	-4.049855	-1.899262
46004		112.119237	-4.048076	-1.852579
46005		112.130988	-4.054759	-1.809108
46006		112.108171	-4.071237	-1.765392
46007		112.063451	-4.094110	-1.718759
46008		112.006213	-4.120737	-1.659322
46009		111.948921	-4.147870	-1.585650
46010		111.892189	-4.170727	-1.502790
46011		111.854651	-4.185612	-1.431705
46012		111.833406	-4.188858	-1.386392
46013		111.809889	-4.195370	-1.366926
46014		111.783871	-4.202082	-1.368835
46015		111.745284	-4.207939	-1.391651
46016		111.696121	-4.222621	-1.421029
46017		111.628353	-4.245287	-1.464979
46018		111.529733	-4.272193	-1.515205
46019		111.414049	-4.303545	-1.576880
46020		111.298936	-4.331186	-1.652653
46021		111.177515	-4.359644	-1.738281
46022		111.046784	-4.394696	-1.829816
46023		110.925589	-4.433973	-1.935695
46024		110.799117	-4.476089	-2.046086
46025		110.652000	-4.525213	-2.150244
46026		110.492471	-4.582447	-2.244618
46027		110.314161	-4.645492	-2.334788
46028		110.115595	-4.718143	-2.422581
46029		109.889573	-4.806294	-2.509139
46030		109.618507	-4.907190	-2.592097
46031		109.310613	-5.018345	-2.673606
46032		108.967332	-5.134516	-2.766359
46033		108.571752	-5.271244	-2.872798
46034		108.114321	-5.421569	-2.990940
46035		107.605902	-5.586579	-3.120691
46036		107.046059	-5.776611	-3.244683
46037		106.434790	-5.997683	-3.348099
46038		105.762751	-6.252166	-3.414105
46039		105.028316	-6.543885	-3.434051
46040		104.244498	-6.876203	-3.405443
46041		103.439318	-7.275154	-3.327963
46042		102.658785	-7.767744	-3.182996
46043		101.891359	-8.303422	-2.961539
46044		101.040975	-8.747316	-2.674647
46045		100.080887	-9.027882	-2.379246
46046		99.119245	-9.210478	-2.126212
46047		98.205999	-9.378526	-1.924899
46048		97.286070	-9.569723	-1.759706
46049		96.316311	-9.770453	-1.637932
46050		95.296803	-9.977551	-1.580794
46051		94.236114	-10.184898	-1.585451
46052		93.134600	-10.396624	-1.653199
46053		92.011908	-10.618984	-1.787490
46054		90.892410	-10.858417	-1.986804
46055		89.797139	-11.120975	-2.251258
46056		88.731807	-11.401710	-2.574838
46057		87.689609	-11.691640	-2.953578
46058		86.661719	-11.975136	-3.368246
46059		85.639487	-12.252877	-3.807411
46060		84.626700	-12.537942	-4.258486
46061		83.623636	-12.831402	-4.702874
46062		82.635728	-13.130400	-5.117322
46063		81.683885	-13.426902	-5.499734
46064		80.770379	-13.715276	-5.841008
46065		79.902577	-13.991872	-6.142518
46066		79.094725	-14.256188	-6.413999
46067		78.361079	-14.513907	-6.673237
46068		77.706868	-14.756065	-6.931116
46069		77.125366	-14.977708	-7.195514
46070		76.600671	-15.183009	-7.464616
46071		76.111635	-15.382022	-7.729981
46072		75.627124	-15.576871	-7.986723
46073		75.131584	-15.778689	-8.230356
46074		74.603647	-15.976423	-8.461649
46075		74.042812	-16.172059	-8.684299
46076		73.461921	-16.362112	-8.904378
46077		72.862664	-16.539912	-9.127754
46078		72.247132	-16.702666	-9.368457
46079		71.640454	-16.862433	-9.631687
46080		71.040658	-17.030785	-9.916503
46081		70.447753	-17.213907	-10.228668
46082		69.841232	-17.420344	-10.557749
46083		69.204098	-17.659435	-10.909465
46084		68.509875	-17.936289	-11.278781
46085		67.746590	-18.249077	-11.657395
46086		66.911522	-18.587816	-12.042803
46087		66.017849	-18.941801	-12.433099
46088		65.066622	-19.289421	-12.830883
46089		64.069413	-19.623701	-13.255233
46090		63.043487	-19.957247	-13.704635
46091		61.992517	-20.320486	-14.194352
46092		60.866722	-20.759317	-14.759963
46093		59.579403	-21.301924	-15.410479
46094		58.082633	-21.983871	-16.156058
46095		56.320857	-22.809230	-16.984177
46096		54.261693	-23.780337	-17.854958
46097		51.931058	-24.895828	-18.738790
46098		49.346664	-26.122651	-19.577247
46099		46.538601	-27.391864	-20.288239
46100		43.615422	-28.639561	-20.827251
46101		40.709101	-29.797401	-21.173086
46102		37.929904	-30.804913	-21.277711
46103		35.369015	-31.630811	-21.158251
46104		33.080437	-32.273068	-20.850475
46105		31.076413	-32.704691	-20.493812
46106		29.373392	-32.923943	-20.171294
46107		27.992854	-32.968206	-19.957047
46108		26.883727	-32.933896	-19.860882
46109		25.948487	-32.900850	-19.833344
46110		25.114774	-32.952888	-19.812598
46111		24.314117	-33.116399	-19.782105
46112		23.493860	-33.387935	-19.713592
46113		22.646862	-33.740758	-19.602256
46114		21.758571	-34.150303	-19.438219
46115		20.853175	-34.565142	-19.235739
46116		19.987397	-34.944462	-19.030656
46117		19.239850	-35.260036	-18.881333
46118		18.671250	-35.506764	-18.789479
46119		18.288190	-35.706223	-18.760750
46120		18.035583	-35.866221	-18.728831
46121		17.870010	-36.008619	-18.679854
46122		17.738527	-36.141127	-18.592061
46123		17.590012	-36.269155	-18.482944
46124		17.387093	-36.388415	-18.348598
46125		17.125235	-36.506510	-18.200365
46126		16.821898	-36.617637	-18.033711
46127		16.495936	-36.718416	-17.885566
46128		16.168303	-36.796728	-17.758899
46129		15.867956	-36.858810	-17.667453
46130		15.610289	-36.914336	-17.593068
46131		15.389817	-36.960431	-17.520745
46132		15.225025	-37.006333	-17.438183
46133		15.100545	-37.053712	-17.341167
46134		14.995002	-37.106691	-17.214120
46135		14.870868	-37.174679	-17.050101
46136		14.695896	-37.260566	-16.830215
46137		14.461410	-37.360442	-16.565385
46138		14.175335	-37.471340	-16.269063
46139		13.862662	-37.590314	-15.981740
46140		13.533701	-37.717268	-15.710057
46141		13.180550	-37.855107	-15.457536
46142		12.798911	-38.000994	-15.183840
46143		12.387553	-38.163121	-14.875806
46144		11.934144	-38.332084	-14.509840
46145		11.428940	-38.503293	-14.068884
46146		10.848028	-38.662815	-13.527986
46147		10.151317	-38.806171	-12.855735
46148		9.320974	-38.923011	-12.024514
46149		8.355162	-38.972650	-11.043206
46150		7.324172	-38.927698	-9.975214
46151		6.382995	-38.796274	-8.946227
46152		5.647647	-38.618922	-8.076906
46153		5.169770	-38.434596	-7.448432
46154		4.908689	-38.276053	-7.057290
46155		4.779257	-38.159741	-6.844059
46156		4.679901	-38.075917	-6.719544
46157		4.536681	-38.017708	-6.611801
46158		4.326166	-37.974951	-6.485387
46159		4.078443	-37.945208	-6.337271
46160		3.823777	-37.923343	-6.157582
46161		3.595835	-37.898902	-5.955028
46162		3.420053	-37.855476	-5.737982
46163		3.310650	-37.797152	-5.523421
46164		3.256896	-37.722586	-5.326095
46165		3.241908	-37.644544	-5.155939
46166		3.217543	-37.576953	-5.013611
46167		3.171404	-37.535705	-4.902558
46168		3.105900	-37.523895	-4.807059
46169		3.015486	-37.535623	-4.724259
46170		2.929089	-37.544748	-4.659764
46171		2.879317	-37.550866	-4.624081
46172		2.870424	-37.543229	-4.617130
46173		2.895321	-37.524309	-4.626721
46174		2.952846	-37.504118	-4.642627
46175		3.024879	-37.478208	-4.660223
46176		3.094175	-37.451338	-4.685707
46177		3.132635	-37.425117	-4.716638
46178		3.140734	-37.406305	-4.745045
46179		3.127246	-37.395574	-4.763185
46180		3.114426	-37.380301	-4.774432
46181		3.132359	-37.356208	-4.789040
46182		3.175267	-37.327721	-4.806786
46183		3.224067	-37.292493	-4.830770
46184		3.277119	-37.256042	-4.853703
46185		3.328829	-37.223656	-4.873134
46186		3.361624	-37.204533	-4.875216
46187		3.364329	-37.197482	-4.873716
46188		3.340478	-37.203352	-4.875828
46189		3.325999	-37.219655	-4.887244
46190		3.322822	-37.240818	-4.905229
46191		3.342364	-37.259057	-4.930262
46192		3.378210	-37.278450	-4.955286
46193		3.414790	-37.294662	-4.981354
46194		3.438828	-37.316586	-4.995706
46195		3.435983	-37.337975	-5.000231
46196		3.420575	-37.349399	-5.000884
46197		3.414423	-37.349001	-4.999569
46198		3.419587	-37.335398	-4.992024
46199		3.427236	-37.323757	-4.985678
46200		3.412271	-37.315883	-4.985263
46201		3.393992	-37.314225	-4.992761
46202		3.397927	-37.317882	-5.004685
46203		3.428653	-37.311596	-5.023179
46204		3.491857	-37.302913	-5.041533
46205		3.566950	-37.294679	-5.050068
46206		3.614051	-37.291552	-5.053781
46207		3.630796	-37.289856	-5.061598
46208		3.649823	-37.289261	-5.076347
46209		3.696493	-37.293258	-5.106984
46210		3.768640	-37.299795	-5.143191
46211		3.876980	-37.312379	-5.186340
46212		4.029484	-37.330741	-5.241689
46213		4.228517	-37.360426	-5.318857
46214		4.451030	-37.409671	-5.410333
46215		4.675183	-37.473400	-5.519515
46216		4.899369	-37.552391	-5.643042
46217		5.160748	-37.652438	-5.807958
46218		5.485378	-37.780126	-6.027363
46219		5.902892	-37.924407	-6.294324
46220		6.431215	-38.083962	-6.579263
46221		7.093032	-38.243350	-6.870792
46222		7.880604	-38.390558	-7.170659
46223		8.740389	-38.534593	-7.495225
46224		9.628391	-38.675051	-7.831433
46225		10.501788	-38.816838	-8.175478
46226		11.335718	-38.952181	-8.507416
46227		12.101128	-39.064859	-8.812897
46228		12.797825	-39.147152	-9.090055
46229		13.452222	-39.201281	-9.345584
46230		14.091907	-39.236062	-9.599976
46231		14.736916	-39.257656	-9.880011
46232		15.410652	-39.282219	-10.184272
46233		16.119065	-39.315389	-10.505462
46234		16.874230	-39.347341	-10.833452
46235		17.682116	-39.371015	-11.181283
46236		18.533474	-39.386171	-11.536823
46237		19.400032	-39.391308	-11.892465
46238		20.265606	-39.379585	-12.235530
46239		21.124818	-39.345488	-12.571246
46240		21.995411	-39.280786	-12.895853
46241		22.910577	-39.190185	-13.225966
46242		23.892544	-39.066003	-13.570887
46243		24.948759	-38.902505	-13.927438
46244		26.083671	-38.704675	-14.275958
46245		27.289516	-38.479963	-14.606928
46246		28.559629	-38.231299	-14.919753
46247		29.879411	-37.962035	-15.229653
46248		31.229317	-37.665112	-15.538921
46249		32.606811	-37.340561	-15.856709
46250		34.028520	-36.989934	-16.189493
46251		35.499647	-36.610089	-16.538390
46252		37.007601	-36.197516	-16.871033
46253		38.530452	-35.760242	-17.169312
46254		40.038868	-35.306296	-17.398552
46255		41.507319	-34.860366	-17.566993
46256		42.912491	-34.422751	-17.676364
46257		44.255169	-33.994768	-17.772775
46258		45.581171	-33.576721	-17.878621
46259		46.924202	-33.160332	-18.011830
46260		48.297810	-32.743849	-18.155582
46261		49.695614	-32.333503	-18.309291
46262		51.087600	-31.925137	-18.449266
46263		52.437420	-31.507691	-18.571679
46264		53.703717	-31.073570	-18.655904
46265		54.876224	-30.614265	-18.697004
46266		55.990511	-30.135987	-18.686363
46267		57.091290	-29.654307	-18.657228
46268		58.205018	-29.181504	-18.610079
46269		59.337477	-28.711691	-18.549074
46270		60.495090	-28.239494	-18.484792
46271		61.680617	-27.767060	-18.417181
46272		62.887396	-27.289305	-18.351540
46273		64.092633	-26.796978	-18.282554
46274		65.286907	-26.288142	-18.209519
46275		66.464582	-25.773292	-18.135366
46276		67.602516	-25.252387	-18.045052
46277		68.669140	-24.736365	-17.933032
46278		69.657697	-24.227159	-17.783870
46279		70.580526	-23.728821	-17.589514
46280		71.473590	-23.243147	-17.364923
46281		72.365860	-22.779045	-17.124902
46282		73.252469	-22.329290	-16.880411
46283		74.136173	-21.892261	-16.643479
46284		75.007177	-21.462221	-16.426683
46285		75.856617	-21.028910	-16.222307
46286		76.694103	-20.596391	-16.019086
46287		77.515027	-20.166023	-15.810387
46288		78.291867	-19.737620	-15.580715
46289		79.022401	-19.309955	-15.332360
46290		79.707606	-18.891899	-15.066103
46291		80.369528	-18.495133	-14.787093
46292		81.035606	-18.121491	-14.497382
46293		81.715693	-17.760014	-14.211218
46294		82.398954	-17.404695	-13.929073
46295		83.083032	-17.052422	-13.655718
46296		83.766800	-16.697831	-13.398534
46297		84.441178	-16.342187	-13.161863
46298		85.073900	-15.989667	-12.928060
46299		85.656517	-15.644417	-12.694661
46300		86.198180	-15.317850	-12.469660
46301		86.733434	-15.017602	-12.261010
46302		87.280222	-14.740685	-12.065871
46303		87.858089	-14.482117	-11.885053
46304		88.470889	-14.233687	-11.731359
46305		89.124654	-13.988310	-11.606378
46306		89.795250	-13.742937	-11.511391
46307		90.450053	-13.504031	-11.440366
46308		91.051502	-13.265770	-11.391541
46309		91.597185	-13.039437	-11.358232
46310		92.097037	-12.823906	-11.330824
46311		92.577260	-12.616908	-11.299716
46312		93.069974	-12.409890	-11.249484
46313		93.597323	-12.197401	-11.167503
46314		94.153558	-11.966929	-11.039762
46315		94.735928	-11.718737	-10.864111
46316		95.343968	-11.457860	-10.672945
46317		95.966012	-11.191621	-10.478823
46318		96.558703	-10.923802	-10.273571
46319		97.113205	-10.659618	-10.062556
46320		97.631868	-10.406124	-9.854517
46321		98.128922	-10.163721	-9.639417
46322		98.616918	-9.932473	-9.413866
46323		99.123830	-9.711904	-9.181825
46324		99.678506	-9.495560	-8.946645
46325		100.284981	-9.279661	-8.686927
46326		100.921706	-9.056997	-8.409210
46327		101.565533	-8.833656	-8.119429
46328		102.183341	-8.622581	-7.825422
46329		102.749709	-8.435588	-7.534549
46330		103.254275	-8.284342	-7.250958
46331		103.692714	-8.177947	-6.971363
46332		104.047020	-8.116687	-6.680881
46333		104.330671	-8.094009	-6.366371
46334		104.582518	-8.100674	-5.979185
46335		104.867247	-8.129277	-5.496530
46336		105.212827	-8.147232	-4.934380
46337		105.613157	-8.130709	-4.356874
46338		106.059929	-8.081610	-3.824027
46339		106.528849	-8.010182	-3.392811
46340		106.978758	-7.932842	-3.058951
46341		107.389384	-7.858497	-2.812711
46342		107.742646	-7.790736	-2.638043
46343		108.032519	-7.736851	-2.499939
46344		108.252783	-7.700811	-2.359043
46345		108.434060	-7.683719	-2.189061
46346		108.601938	-7.671030	-1.980853
46347		108.781948	-7.651015	-1.719208
46348		108.999707	-7.618022	-1.402344
46349		109.263527	-7.570876	-1.053096
46350		109.584546	-7.511755	-0.694527
46351		109.960369	-7.445217	-0.353843
46352		110.362713	-7.372336	-0.043000
46353		110.758889	-7.301856	0.246250
46354		111.127311	-7.227265	0.508094
46355		111.458702	-7.151951	0.761511
46356		111.761143	-7.087240	1.010222
46357		112.041568	-7.025507	1.247321
46358		112.278412	-6.965723	1.476072
46359		112.481635	-6.911677	1.683515
46360		112.653462	-6.862617	1.862857
46361		112.810342	-6.826353	2.037197
46362		112.978892	-6.794589	2.199666
46363		113.168868	-6.754576	2.339712
46364		113.353197	-6.703775	2.475631
46365		113.530641	-6.650180	2.610998
46366		113.700474	-6.598141	2.745046
46367		113.866464	-6.552473	2.875520
46368		114.021264	-6.508985	3.000102
46369		114.157528	-6.467516	3.115576
46370		114.258879	-6.427878	3.218340
46371		114.324171	-6.393986	3.296182
46372		114.341420	-6.359265	3.341308
46373		114.300516	-6.327211	3.345642
46374		114.219042	-6.304175	3.312682
46375		114.111367	-6.292168	3.236127
46376		113.980185	-6.287254	3.127845
46377		113.837449	-6.287052	2.988633
46378		113.672882	-6.291795	2.834191
46379		113.494833	-6.304957	2.674457
46380		113.315266	-6.321309	2.527318
46381		113.147447	-6.340712	2.401358
46382		112.994438	-6.363090	2.311150
46383		112.855825	-6.384651	2.248134
46384		112.732524	-6.404753	2.207628
46385		112.626337	-6.421047	2.173636
46386		112.531063	-6.437907	2.139309
46387		112.442935	-6.454648	2.102877
46388		112.351300	-6.473675	2.062205
46389		112.274716	-6.484581	2.019694
46390		112.230360	-6.487231	1.970304
46391		112.208941	-6.493700	1.928460
46392		112.201864	-6.506804	1.911278
46393		112.211588	-6.519495	1.911779
46394		112.223400	-6.533473	1.927314
46395		112.229506	-6.548866	1.952388
46396		112.229530	-6.573355	1.980901
46397		112.227082	-6.599699	2.008869
46398		112.220288	-6.614831	2.033344
46399		112.223302	-6.619447	2.041121
46400		112.234613	-6.620533	2.036457
46401		112.246302	-6.626716	2.025517
46402		112.259381	-6.637096	2.018190
46403		112.286873	-6.650129	2.019308
46404		112.327837	-6.669827	2.030001
46405		112.375909	-6.699570	2.057026
46406		112.423274	-6.738145	2.096661
46407		112.464875	-6.780240	2.146998
46408		112.487314	-6.825129	2.204038
46409		112.483807	-6.856294	2.252838
46410		112.463197	-6.868857	2.288159
46411		112.436500	-6.876412	2.309997
46412		112.414589	-6.887782	2.320908
46413		112.398421	-6.903878	2.324605
46414		112.378997	-6.919960	2.324076
46415		112.362437	-6.932764	2.317249
46416		112.344133	-6.943729	2.314879
46417		112.331544	-6.958790	2.314211
46418		112.324126	-6.975836	2.312757
46419		112.309858	-6.988331	2.307459
46420		112.283815	-6.986005	2.300178
46421		112.269473	-6.980914	2.282446
46422		112.254524	-6.982057	2.255886
46423		112.230864	-6.993137	2.226401
46424		112.197841	-7.003477	2.196351
46425		112.159478	-7.004858	2.164312
46426		112.130035	-7.004547	2.134764
46427		112.119659	-7.014637	2.101683
46428		112.107057	-7.027980	2.074151
46429		112.079376	-7.037818	2.053105
46430		112.048656	-7.042066	2.033101
46431		112.021320	-7.050752	2.013329
46432		111.994275	-7.063238	1.988494
46433		111.955282	-7.073718	1.960023
46434		111.900040	-7.080015	1.917214
46435		111.836628	-7.090911	1.860312
46436		111.762816	-7.105659	1.784505
46437		111.669361	-7.121598	1.686788
46438		111.548913	-7.137418	1.563321
46439		111.391143	-7.159145	1.406577
46440		111.188232	-7.187196	1.219130
46441		110.950474	-7.221635	1.004543
46442		110.692558	-7.262417	0.770080
46443		110.432174	-7.312761	0.533539
46444		110.179703	-7.372191	0.311703
46445		109.940298	-7.434875	0.107804
46446		109.696365	-7.498790	-0.084512
46447		109.435562	-7.566323	-0.265203
46448		109.147026	-7.641576	-0.435581
46449		108.844026	-7.720362	-0.597140
46450		108.537363	-7.794719	-0.755820
46451		108.239592	-7.864822	-0.914516
46452		107.939209	-7.934814	-1.073798
46453		107.619221	-8.006709	-1.235749
46454		107.279473	-8.081846	-1.404864
46455		106.922682	-8.167845	-1.576340
46456		106.553944	-8.258993	-1.750644
46457		106.182852	-8.354398	-1.916886
46458		105.821308	-8.443113	-2.071508
46459		105.473887	-8.528496	-2.220352
46460		105.131585	-8.601491	-2.358855
46461		104.795506	-8.667891	-2.492741
46462		104.463210	-8.731802	-2.631053
46463		104.123170	-8.800116	-2.786732
46464		103.758338	-8.879572	-2.961078
46465		103.357049	-8.953785	-3.160580
46466		102.929279	-9.027876	-3.384745
46467		102.486990	-9.109906	-3.630532
46468		102.045099	-9.199045	-3.885559
46469		101.601723	-9.296968	-4.144097
46470		101.143859	-9.402208	-4.402199
46471		100.668928	-9.513737	-4.665327
46472		100.160366	-9.628127	-4.935678
46473		99.630922	-9.747384	-5.205630
46474		99.089571	-9.859710	-5.470552
46475		98.576225	-9.973093	-5.717490
46476		98.121735	-10.078252	-5.930063
46477		97.734353	-10.179180	-6.098784
46478		97.392085	-10.268122	-6.215935
46479		97.071150	-10.343665	-6.272621
46480		96.732390	-10.404724	-6.264503
46481		96.344897	-10.446756	-6.201156
46482		95.888547	-10.481529	-6.103046
46483		95.342257	-10.512371	-6.003587
46484		94.712464	-10.548374	-5.912504
46485		94.022818	-10.594340	-5.845125
46486		93.288913	-10.649222	-5.804332
46487		92.538466	-10.716986	-5.780236
46488		91.790778	-10.794722	-5.768810
46489		91.072997	-10.889082	-5.771724
46490		90.385555	-10.989459	-5.785492
46491		89.737406	-11.090725	-5.809359
46492		89.107662	-11.181455	-5.842075
46493		88.480039	-11.261376	-5.887487
46494		87.833122	-11.330153	-5.949388
46495		87.159975	-11.398793	-6.029321
46496		86.463157	-11.471431	-6.122761
46497		85.756232	-11.552908	-6.216925
46498		85.042257	-11.644941	-6.314646
46499		84.305788	-11.747398	-6.426990
46500		83.523560	-11.851548	-6.554071
46501		82.689854	-11.956678	-6.710275
46502		81.807623	-12.068445	-6.900192
46503		80.885779	-12.194057	-7.120467
46504		79.939791	-12.337170	-7.374729
46505		78.977329	-12.496670	-7.663008
46506		78.004437	-12.678681	-7.973708
46507		77.020254	-12.878556	-8.299025
46508		76.024351	-13.112013	-8.635586
46509		75.028919	-13.394382	-8.989891
46510		74.040152	-13.753049	-9.361120
46511		73.099078	-14.213803	-9.767356
46512		72.236674	-14.781476	-10.215578
46513		71.453922	-15.470172	-10.676466
46514		70.774805	-16.274420	-11.109749
46515		70.175474	-17.162342	-11.463209
46516		69.602268	-18.081024	-11.724329
46517		69.045131	-18.977551	-11.892129
46518		68.470023	-19.776692	-11.986934
46519		67.863949	-20.423095	-12.043727
46520		67.225192	-20.901089	-12.122136
46521		66.544822	-21.237446	-12.268641
46522		65.805059	-21.496562	-12.498122
46523		65.007897	-21.738588	-12.795838
46524		64.174967	-22.002220	-13.139805
46525		63.322658	-22.291298	-13.504493
46526		62.482624	-22.588661	-13.859479
46527		61.661340	-22.869755	-14.187591
46528		60.862186	-23.129026	-14.475235
46529		60.054196	-23.364741	-14.744726
46530		59.180750	-23.585336	-15.001347
46531		58.203925	-23.793460	-15.263449
46532		57.111704	-23.996073	-15.528893
46533		55.935098	-24.199748	-15.789576
46534		54.724055	-24.408439	-16.028654
46535		53.526402	-24.624197	-16.250568
46536		52.364000	-24.852979	-16.448389
46537		51.248447	-25.080883	-16.622613
46538		50.149567	-25.308409	-16.783164
46539		49.037524	-25.528430	-16.942744
46540		47.901381	-25.722502	-17.091060
46541		46.756303	-25.888308	-17.223289
46542		45.598392	-26.020068	-17.327326
46543		44.450284	-26.120379	-17.406570
46544		43.349741	-26.203186	-17.452640
46545		42.334502	-26.276835	-17.476019
46546		41.404759	-26.356281	-17.469146
46547		40.550966	-26.451340	-17.446134
46548		39.735511	-26.576892	-17.399104
46549		38.918273	-26.725268	-17.340623
46550		38.081008	-26.889457	-17.261079
46551		37.217129	-27.061320	-17.194457
46552		36.319659	-27.226148	-17.134561
46553		35.426094	-27.375808	-17.085428
46554		34.585193	-27.497852	-17.022941
46555		33.834875	-27.588562	-16.948118
46556		33.184727	-27.656888	-16.842861
46557		32.608448	-27.718939	-16.708378
46558		32.082951	-27.782936	-16.542625
46559		31.594660	-27.852098	-16.366908
46560		31.132790	-27.917704	-16.176607
46561		30.705792	-27.978571	-15.989121
46562		30.311793	-28.033933	-15.814779
46563		29.937011	-28.081789	-15.678166
46564		29.562441	-28.111036	-15.570235
46565		29.194704	-28.125089	-15.482419
46566		28.842107	-28.132022	-15.389435
46567		28.509694	-28.142672	-15.287054
46568		28.198356	-28.155442	-15.163416
46569		27.907376	-28.187451	-15.040028
46570		27.613464	-28.247138	-14.910802
46571		27.301455	-28.334402	-14.778417
46572		26.982661	-28.441767	-14.640191
46573		26.668732	-28.545598	-14.517159
46574		26.373780	-28.638354	-14.421412
46575		26.088866	-28.710678	-14.364307
46576		25.808260	-28.767493	-14.329252
46577		25.531479	-28.823122	-14.313806
46578		25.241451	-28.892679	-14.294210
46579		24.950477	-28.971899	-14.262118
46580		24.666249	-29.067278	-14.201173
46581		24.382750	-29.174264	-14.117676
46582		24.088552	-29.286227	-13.997433
46583		23.772105	-29.395503	-13.846328
46584		23.425527	-29.484494	-13.655960
46585		23.070267	-29.551746	-13.455244
46586		22.723270	-29.598036	-13.258043
46587		22.404390	-29.633767	-13.092270
46588		22.122457	-29.654736	-12.957598
46589		21.885639	-29.672060	-12.867046
46590		21.673210	-29.689725	-12.805847
46591		21.448506	-29.715843	-12.763171
46592		21.190190	-29.751184	-12.718941
46593		20.881197	-29.794539	-12.664122
46594		20.538398	-29.851226	-12.586212
46595		20.182854	-29.917435	-12.498814
46596		19.832655	-29.976851	-12.400762
46597		19.505049	-30.028933	-12.297231
46598		19.207723	-30.067146	-12.190652
46599		18.933973	-30.100995	-12.095204
46600		18.669012	-30.134969	-12.009622
46601		18.410362	-30.169848	-11.948239
46602		18.144725	-30.192888	-11.906855
46603		17.867506	-30.202792	-11.871810
46604		17.588426	-30.199202	-11.820283
46605		17.313026	-30.186109	-11.748085
46606		17.058587	-30.164523	-11.650122
46607		16.841403	-30.145082	-11.545704
46608		16.652560	-30.128260	-11.438323
46609		16.480958	-30.122668	-11.350093
46610		16.301778	-30.133181	-11.272398
46611		16.111484	-30.162187	-11.215723
46612		15.910399	-30.205930	-11.178967
46613		15.700022	-30.255676	-11.159489
46614		15.493362	-30.303770	-11.139335
46615		15.307635	-30.345392	-11.119578
46616		15.140039	-30.366622	-11.091281
46617		14.983753	-30.356571	-11.051977
46618		14.845912	-30.322180	-10.996812
46619		14.708737	-30.274453	-10.933828
46620		14.575274	-30.226832	-10.867957
46621		14.457471	-30.186500	-10.811141
46622		14.354161	-30.152771	-10.767023
46623		14.257379	-30.117862	-10.740892
46624		14.164304	-30.080553	-10.727995
46625		14.072126	-30.042665	-10.731333
46626		13.976119	-30.000816	-10.731351
46627		13.878708	-29.966022	-10.731162
46628		13.779629	-29.941314	-10.724694
46629		13.664415	-29.922349	-10.716795
46630		13.544667	-29.906749	-10.706101
46631		13.421531	-29.889744	-10.702656
46632		13.289665	-29.864394	-10.692480
46633		13.173995	-29.847531	-10.688925
46634		13.065763	-29.825277	-10.684142
46635		12.976082	-29.806520	-10.685879
46636		12.910292	-29.789702	-10.688404
46637		12.853912	-29.773226	-10.693276
46638		12.801738	-29.751302	-10.690296
46639		12.745823	-29.718386	-10.684530
46640		12.687597	-29.668320	-10.665696
46641		12.631769	-29.594309	-10.629439
46642		12.576045	-29.483019	-10.570086
46643		12.526233	-29.343300	-10.486977
46644		12.478147	-29.190607	-10.386864
46645		12.422587	-29.048186	-10.291742
46646		12.349713	-28.923585	-10.201517
46647		12.258742	-28.827812	-10.134398
46648		12.135979	-28.753940	-10.079660
46649		11.987349	-28.707441	-10.042262
46650		11.823881	-28.671467	-10.014130
46651		11.666105	-28.631573	-9.993720
46652		11.510188	-28.577043	-9.973693
46653		11.360733	-28.505947	-9.945397
46654		11.224654	-28.423715	-9.899910
46655		11.102712	-28.342777	-9.852852
46656		10.992694	-28.265698	-9.795395
46657		10.905828	-28.189506	-9.742597
46658		10.823163	-28.111733	-9.694111
46659		10.750623	-28.033139	-9.655827
46660		10.681545	-27.959321	-9.629623
46661		10.604266	-27.888691	-9.623346
46662		10.535244	-27.829518	-9.633035
46663		10.481138	-27.783866	-9.658747
46664		10.433260	-27.745278	-9.683400
46665		10.409552	-27.715078	-9.706428
46666		10.413936	-27.681418	-9.718268
46667		10.440022	-27.651948	-9.724615
46668		10.467380	-27.622406	-9.726375
46669		10.492026	-27.597611	-9.736375
46670		10.514048	-27.582207	-9.756467
46671		10.527429	-27.578852	-9.784686
46672		10.512904	-27.586782	-9.816581
46673		10.481241	-27.606652	-9.845358
46674		10.440564	-27.635064	-9.868654
46675		10.405436	-27.662505	-9.889895
46676		10.389369	-27.687289	-9.901861
46677		10.380809	-27.706054	-9.916523
46678		10.365504	-27.720367	-9.926044
46679		10.347748	-27.736693	-9.933225
46680		10.326883	-27.755801	-9.925225
46681		10.306467	-27.767947	-9.910154
46682		10.294394	-27.779971	-9.890770
46683		10.283877	-27.789019	-9.876374
46684		10.264785	-27.798777	-9.865208
46685		10.224122	-27.817992	-9.867722
46686		10.159170	-27.841436	-9.880444
46687		10.092997	-27.866916	-9.910690
46688		10.025803	-27.891280	-9.946977
46689		9.966571	-27.916127	-9.978093
46690		9.931976	-27.938507	-9.990416
46691		9.929960	-27.955715	-9.993379
46692		9.964361	-27.958021	-9.986244
46693		10.018147	-27.952879	-9.975862
46694		10.071313	-27.945998	-9.961406
46695		10.106455	-27.947019	-9.950075
46696		10.122535	-27.952005	-9.940883
46697		10.133910	-27.971085	-9.950418
46698		10.139366	-28.001211	-9.967626
46699		10.146397	-28.039997	-9.998594
46700		10.150425	-28.083894	-10.029099
46701		10.159743	-28.128107	-10.057399
46702		10.179809	-28.170353	-10.066962
46703		10.219196	-28.209818	-10.074500
46704		10.271604	-28.250037	-10.083816
46705		10.325033	-28.294119	-10.100240
46706		10.378425	-28.340176	-10.121319
46707		10.443906	-28.387952	-10.154702
46708		10.519269	-28.439682	-10.191936
46709		10.600180	-28.494713	-10.230966
46710		10.690183	-28.553963	-10.269107
46711		10.797256	-28.616211	-10.319555
46712		10.926170	-28.682856	-10.380847
46713		11.091676	-28.763587	-10.451263
46714		11.314736	-28.857106	-10.524190
46715		11.620044	-28.944424	-10.601091
46716		12.033780	-29.006616	-10.669794
46717		12.595982	-29.018665	-10.731157
46718		13.337144	-28.960037	-10.786132
46719		14.273280	-28.827715	-10.829854
46720		15.392726	-28.637620	-10.864977
46721		16.677144	-28.409025	-10.896547
46722		18.042519	-28.170850	-10.907902
46723		19.375353	-27.949987	-10.918586
46724		20.577899	-27.756484	-10.943313
46725		21.631572	-27.605291	-10.998100
46726		22.554022	-27.493672	-11.080217
46727		23.391084	-27.407005	-11.202341
46728		24.217614	-27.333253	-11.359927
46729		25.090884	-27.272247	-11.549474
46730		26.014094	-27.222649	-11.750320
46731		26.983565	-27.171521	-11.948489
46732		27.999769	-27.107275	-12.125467
46733		29.064141	-27.012643	-12.274180
46734		30.170867	-26.887130	-12.385445
46735		31.299086	-26.732981	-12.459118
46736		32.416687	-26.559042	-12.496863
46737		33.510068	-26.362382	-12.511338
46738		34.588791	-26.146309	-12.514723
46739		35.674768	-25.921614	-12.525112
46740		36.759508	-25.710266	-12.545508
46741		37.833028	-25.535352	-12.588169
46742		38.870690	-25.398843	-12.657414
46743		39.840802	-25.297216	-12.753885
46744		40.724437	-25.216580	-12.864874
46745		41.534024	-25.150649	-12.975544
46746		42.291865	-25.098087	-13.090019
46747		43.013031	-25.054054	-13.209633
46748		43.711969	-25.012433	-13.323423
46749		44.400238	-24.974192	-13.436608
46750		45.111118	-24.929194	-13.543998
46751		45.873382	-24.867306	-13.650000
46752		46.697214	-24.778579	-13.732544
46753		47.567748	-24.649203	-13.779264
46754		48.477851	-24.476569	-13.768948
46755		49.425888	-24.280646	-13.721024
46756		50.391623	-24.070085	-13.641761
46757		51.372355	-23.864690	-13.541418
46758		52.374594	-23.677186	-13.446141
46759		53.365095	-23.506781	-13.381775
46760		54.290482	-23.345825	-13.350292
46761		55.135798	-23.209321	-13.366914
46762		55.884940	-23.099906	-13.421949
46763		56.557597	-23.022246	-13.509337
46764		57.186960	-22.975638	-13.613590
46765		57.797647	-22.941174	-13.743563
46766		58.396012	-22.907854	-13.898158
46767		58.995505	-22.885724	-14.088992
46768		59.579673	-22.877088	-14.317631
46769		60.160328	-22.886779	-14.596910
46770		60.753821	-22.912933	-14.935663
46771		61.334258	-22.933461	-15.298996
46772		61.892539	-22.947866	-15.644067
46773		62.424512	-22.948652	-15.955648
46774		62.954925	-22.934187	-16.221454
46775		63.500222	-22.895235	-16.444728
46776		64.045218	-22.827172	-16.620490
46777		64.591098	-22.736266	-16.763742
46778		65.135918	-22.638895	-16.872076
46779		65.667209	-22.541436	-16.961494
46780		66.173463	-22.453557	-17.043052
46781		66.662189	-22.373806	-17.116738
46782		67.153006	-22.295852	-17.178320
46783		67.674598	-22.212557	-17.244717
46784		68.237751	-22.110849	-17.318992
46785		68.834680	-21.986480	-17.387083
46786		69.459017	-21.838399	-17.437533
46787		70.114003	-21.663066	-17.459001
46788		70.798246	-21.461252	-17.448314
46789		71.516733	-21.235305	-17.403432
46790		72.276229	-20.988295	-17.321329
46791		73.088646	-20.723958	-17.207833
46792		73.954996	-20.432726	-17.053356
46793		74.866910	-20.113978	-16.860692
46794		75.813911	-19.763604	-16.610374
46795		76.788488	-19.384789	-16.318555
46796		77.794083	-18.982823	-15.990560
46797		78.831914	-18.550625	-15.606232
46798		79.935278	-18.094488	-15.120895
46799		81.121000	-17.597625	-14.519168
46800		82.391512	-17.053156	-13.771290
46801		83.716155	-16.457174	-12.920736
46802		85.058806	-15.823740	-12.027860
46803		86.350030	-15.192472	-11.186845
46804		87.479414	-14.610567	-10.515593
46805		88.353025	-14.112845	-10.054246
46806		88.952247	-13.718561	-9.806754
46807		89.359167	-13.424150	-9.724778
46808		89.691564	-13.210356	-9.728511
46809		90.034895	-13.033840	-9.751670
46810		90.425986	-12.862775	-9.742157
46811		90.864969	-12.681860	-9.658620
46812		91.325719	-12.475377	-9.494050
46813		91.769326	-12.247071	-9.249148
46814		92.203172	-12.015771	-8.958330
46815		92.647835	-11.796130	-8.675373
46816		93.086563	-11.598059	-8.412716
46817		93.502143	-11.423323	-8.189991
46818		93.877243	-11.274683	-8.008199
46819		94.205655	-11.144728	-7.862011
46820		94.500867	-11.026243	-7.728258
46821		94.781360	-10.917485	-7.576567
46822		95.035133	-10.812357	-7.390563
46823		95.264111	-10.702478	-7.160934
46824		95.483105	-10.583411	-6.900978
46825		95.720942	-10.457903	-6.637620
46826		95.995948	-10.333905	-6.399247
46827		96.321041	-10.210042	-6.179409
46828		96.689635	-10.090051	-5.962978
46829		97.070937	-9.965709	-5.746686
46830		97.425430	-9.841734	-5.527469
46831		97.742385	-9.724372	-5.310690
46832		98.008917	-9.615960	-5.096661
46833		98.231020	-9.512881	-4.887786
46834		98.438871	-9.417788	-4.678207
46835		98.644387	-9.331480	-4.488665
46836		98.827143	-9.258977	-4.320769
46837		98.992493	-9.206426	-4.194140
46838		99.136682	-9.174929	-4.119390
46839		99.240096	-9.166282	-4.082774
46840		99.312083	-9.176672	-4.072976
46841		99.347492	-9.208048	-4.083653
46842		99.357546	-9.263875	-4.089610
46843		99.362447	-9.341304	-4.077089
46844		99.359964	-9.418649	-4.040798
46845		99.320277	-9.452069	-3.981711
46846		99.296280	-9.450405	-3.895381
46847		99.324274	-9.439907	-3.798061
46848		99.384076	-9.431215	-3.692939
46849		99.470324	-9.427754	-3.597919
46850		99.583146	-9.417953	-3.528879
46851		99.695880	-9.403049	-3.494167
46852		99.792722	-9.388837	-3.480713
46853		99.881937	-9.378763	-3.484365
46854		99.967883	-9.378090	-3.504066
46855		100.046516	-9.381934	-3.544078
46856		100.111574	-9.380455	-3.586186
46857		100.167466	-9.378889	-3.614613
46858		100.220598	-9.380655	-3.630749
46859		100.268801	-9.380907	-3.631706
46860		100.331721	-9.372465	-3.616046
46861		100.432992	-9.350689	-3.594603
46862		100.558471	-9.319317	-3.569847
46863		100.687504	-9.287098	-3.546051
46864		100.796439	-9.248934	-3.524125
46865		100.882604	-9.210501	-3.509338
46866		100.954616	-9.182434	-3.498242
46867		101.029187	-9.161039	-3.481934
46868		101.109736	-9.137825	-3.465482
46869		101.185370	-9.115832	-3.453116
46870		101.238845	-9.098639	-3.444922
46871		101.268972	-9.089942	-3.431549
46872		101.295317	-9.081632	-3.413991
46873		101.327948	-9.073865	-3.401104
46874		101.352077	-9.067777	-3.383591
46875		101.361249	-9.067332	-3.359088
46876		101.352886	-9.055746	-3.321677
46877		101.344340	-9.036379	-3.269106
46878		101.348698	-9.011772	-3.209898
46879		101.343684	-8.985018	-3.150241
46880		101.310482	-8.961804	-3.082927
46881		101.252471	-8.941134	-3.012300
46882		101.169465	-8.909918	-2.931565
46883		101.084234	-8.879816	-2.833600
46884		101.013106	-8.856791	-2.723076
46885		100.971858	-8.845360	-2.626152
46886		100.964778	-8.840799	-2.575523
46887		100.973322	-8.838431	-2.574781
46888		100.981029	-8.835434	-2.609439
46889		100.991140	-8.838981	-2.667733
46890		101.018364	-8.849737	-2.736680
46891		101.053559	-8.866538	-2.806001
46892		101.085152	-8.887018	-2.866037
46893		101.097086	-8.898585	-2.909285
46894		101.086055	-8.900586	-2.927152
46895		101.079232	-8.906999	-2.930858
46896		101.084970	-8.917507	-2.928104
46897		101.094188	-8.926407	-2.919459
46898		101.093583	-8.918628	-2.915527
46899		101.080155	-8.892174	-2.931812
46900		101.074336	-8.871208	-2.957454
46901		101.062213	-8.862955	-2.979491
46902		101.040703	-8.862954	-2.985174
46903		101.020931	-8.856828	-2.981026
46904		101.004934	-8.845916	-2.969560
46905		100.982648	-8.832877	-2.958920
46906		100.941494	-8.827824	-2.948719
46907		100.889781	-8.830828	-2.944239
46908		100.833113	-8.844415	-2.943032
46909		100.783845	-8.855317	-2.944963
46910		100.765510	-8.868322	-2.956987
46911		100.762402	-8.888806	-2.974629
46912		100.754545	-8.914431	-2.985793
46913		100.744141	-8.955542	-2.992738
46914		100.732405	-9.004889	-2.995038
46915		100.687877	-9.038152	-2.989319
46916		100.612865	-9.043815	-2.990022
46917		100.547107	-9.038964	-3.012229
46918		100.479607	-9.034120	-3.052056
46919		100.389363	-9.033242	-3.099487
46920		100.271197	-9.037172	-3.150469
46921		100.147988	-9.042518	-3.198547
46922		100.033664	-9.047416	-3.243357
46923		99.932684	-9.054517	-3.284189
46924		99.844976	-9.065591	-3.311192
46925		99.769644	-9.082765	-3.325013
46926		99.696522	-9.100764	-3.320263
46927		99.619919	-9.115238	-3.300666
46928		99.532700	-9.123693	-3.267617
46929		99.428013	-9.126848	-3.216769
46930		99.304419	-9.130111	-3.164098
46931		99.153466	-9.128552	-3.108360
46932		98.966723	-9.130141	-3.052535
46933		98.742615	-9.139545	-2.993742
46934		98.486399	-9.155611	-2.940968
46935		98.201826	-9.179247	-2.895207
46936		97.886040	-9.203710	-2.846470
46937		97.544628	-9.232661	-2.801002
46938		97.179130	-9.265818	-2.764405
46939		96.761643	-9.304963	-2.747476
46940		96.269198	-9.353451	-2.747370
46941		95.703614	-9.407395	-2.774265
46942		95.068424	-9.466175	-2.837187
46943		94.352131	-9.532340	-2.949604
46944		93.560991	-9.617768	-3.102132
46945		92.723857	-9.729251	-3.302848
46946		91.869171	-9.872074	-3.524645
46947		91.007585	-10.032522	-3.744356
46948		90.137398	-10.187507	-3.952732
46949		89.268606	-10.327133	-4.143363
46950		88.426609	-10.454184	-4.313217
46951		87.624831	-10.559986	-4.470281
46952		86.856480	-10.646133	-4.621108
46953		86.138595	-10.724226	-4.782716
46954		85.444066	-10.804508	-4.961050
46955		84.766008	-10.892097	-5.145681
46956		84.106740	-10.984154	-5.329078
46957		83.488553	-11.070070	-5.509254
46958		82.929640	-11.143138	-5.676162
46959		82.428824	-11.201720	-5.822342
46960		81.972016	-11.246234	-5.947103
46961		81.540180	-11.287974	-6.048893
46962		81.122280	-11.321560	-6.133871
46963		80.698828	-11.342909	-6.213147
46964		80.262448	-11.352929	-6.296968
46965		79.815389	-11.353028	-6.398988
46966		79.341232	-11.348363	-6.536992
46967		78.824687	-11.355038	-6.717226
46968		78.251828	-11.382406	-6.934540
46969		77.620323	-11.425569	-7.177027
46970		76.964864	-11.472265	-7.427389
46971		76.327543	-11.533013	-7.679549
46972		75.710860	-11.598300	-7.924508
46973		75.113918	-11.669897	-8.149118
46974		74.522954	-11.750664	-8.362515
46975		73.917219	-11.843879	-8.568938
46976		73.283699	-11.951709	-8.778430
46977		72.598842	-12.072473	-9.006789
46978		71.845641	-12.213135	-9.252462
46979		71.021112	-12.378361	-9.528829
46980		70.115036	-12.566121	-9.838029
46981		69.131092	-12.770367	-10.183065
46982		68.084230	-12.997318	-10.576332
46983		66.973490	-13.249705	-11.018137
46984		65.779654	-13.536347	-11.533485
46985		64.484959	-13.852414	-12.098279
46986		63.115275	-14.187315	-12.698698
46987		61.729942	-14.530288	-13.309714
46988		60.373037	-14.864556	-13.921962
46989		59.072709	-15.176862	-14.537570
46990		57.832713	-15.465151	-15.140993
46991		56.677544	-15.743803	-15.730329
46992		55.629636	-16.016346	-16.288362
46993		54.705163	-16.273682	-16.779568
46994		53.910667	-16.497127	-17.197633
46995		53.269674	-16.664460	-17.535871
46996		52.783617	-16.768430	-17.780255
46997		52.422154	-16.808474	-17.938384
46998		52.142773	-16.803069	-18.019125
46999		51.866149	-16.775172	-18.073856
47000		51.554531	-16.756664	-18.135815
47001		51.185069	-16.759099	-18.235682
47002		50.725087	-16.781824	-18.372036
47003		50.208272	-16.842553	-18.551505
47004		49.666890	-16.934623	-18.755674
47005		49.157054	-17.049109	-18.972695
47006		48.714091	-17.182208	-19.185800
47007		48.318252	-17.320965	-19.383418
47008		47.947479	-17.458527	-19.540957
47009		47.591076	-17.577119	-19.667875
47010		47.260333	-17.674545	-19.757321
47011		46.946080	-17.747380	-19.850369
47012		46.609188	-17.812456	-19.965964
47013		46.237985	-17.889879	-20.111087
47014		45.814661	-17.990938	-20.271136
47015		45.351672	-18.122122	-20.451596
47016		44.865410	-18.275165	-20.637291
47017		44.394522	-18.437499	-20.826876
47018		43.974781	-18.587607	-21.010115
47019		43.627465	-18.705458	-21.191515
47020		43.350935	-18.781481	-21.351318
47021		43.137341	-18.820211	-21.486044
47022		42.966651	-18.827140	-21.588256
47023		42.833919	-18.809317	-21.673430
47024		42.732773	-18.776200	-21.740851
47025		42.624035	-18.736806	-21.830414
47026		42.451116	-18.706776	-21.943521
47027		42.197287	-18.692438	-22.091779
47028		41.859030	-18.697713	-22.266434
47029		41.467994	-18.722106	-22.473440
47030		41.060051	-18.759020	-22.672301
47031		40.664938	-18.805794	-22.858057
47032		40.281584	-18.858169	-23.011625
47033		39.904502	-18.927280	-23.142980
47034		39.486855	-19.015404	-23.250894
47035		39.003997	-19.137394	-23.339308
47036		38.430919	-19.302134	-23.366592
47037		37.733507	-19.525208	-23.334145
47038		36.901855	-19.824247	-23.209311
47039		35.948052	-20.217275	-22.995308
47040		34.890059	-20.724014	-22.665085
47041		33.781958	-21.342373	-22.239672
47042		32.681398	-22.034977	-21.718006
47043		31.653351	-22.733244	-21.186937
47044		30.727992	-23.398550	-20.692859
47045		29.896634	-24.014669	-20.279534
47046		29.141320	-24.581557	-19.932158
47047		28.419959	-25.106115	-19.643247
47048		27.705629	-25.600949	-19.398186
47049		26.990009	-26.074728	-19.180017
47050		26.260674	-26.514713	-18.957547
47051		25.541120	-26.929748	-18.700687
47052		24.846505	-27.312645	-18.396315
47053		24.202663	-27.651769	-18.077142
47054		23.640121	-27.946040	-17.750470
47055		23.165075	-28.195846	-17.436694
47056		22.784398	-28.401326	-17.170638
47057		22.478803	-28.572417	-16.971426
47058		22.199796	-28.709962	-16.818048
47059		21.922948	-28.815835	-16.699331
47060		21.629142	-28.901177	-16.600840
47061		21.320893	-28.970214	-16.517605
47062		21.000376	-29.039674	-16.426407
47063		20.663704	-29.127884	-16.311568
47064		20.305485	-29.234766	-16.165745
47065		19.952850	-29.349894	-16.024915
47066		19.624059	-29.464391	-15.917471
47067		19.329954	-29.589764	-15.855586
47068		19.047869	-29.732292	-15.829189
47069		18.760962	-29.885832	-15.828978
47070		18.471679	-30.050704	-15.831447
47071		18.166973	-30.218295	-15.824213
47072		17.855683	-30.380092	-15.782951
47073		17.535045	-30.528102	-15.695102
47074		17.204181	-30.660366	-15.547452
47075		16.862956	-30.778245	-15.340614
47076		16.508323	-30.888933	-15.081257
47077		16.142262	-30.999656	-14.796832
47078		15.773936	-31.127352	-14.494701
47079		15.398280	-31.275188	-14.196867
47080		15.022790	-31.425874	-13.909492
47081		14.657073	-31.575611	-13.646637
47082		14.302461	-31.719784	-13.394849
47083		13.951764	-31.852716	-13.145492
47084		13.596899	-31.975462	-12.877138
47085		13.239629	-32.081841	-12.580254
47086		12.880891	-32.167746	-12.230531
47087		12.532096	-32.235087	-11.831082
47088		12.192420	-32.269073	-11.371107
47089		11.879331	-32.284067	-10.878180
47090		11.583633	-32.293932	-10.359063
47091		11.299565	-32.299949	-9.847128
47092		11.027263	-32.309227	-9.356638
47093		10.776214	-32.317497	-8.904165
47094		10.539999	-32.313036	-8.491329
47095		10.319529	-32.295109	-8.120100
47096		10.100217	-32.255163	-7.770267
47097		9.890782	-32.197913	-7.442809
47098		9.697253	-32.130176	-7.141168
47099		9.498444	-32.055554	-6.867587
47100		9.289323	-31.980277	-6.617641
47101		9.080295	-31.918510	-6.397200
47102		8.863939	-31.874041	-6.200580
47103		8.651361	-31.844014	-6.030350
47104		8.452481	-31.819208	-5.879103
47105		8.281762	-31.794522	-5.753086
47106		8.155170	-31.778636	-5.644252
47107		8.063507	-31.771295	-5.560474
47108		8.004280	-31.773007	-5.491003
47109		7.957797	-31.777335	-5.431705
47110		7.917707	-31.784234	-5.377926
47111		7.887858	-31.787351	-5.330103
47112		7.868354	-31.773105	-5.293775
47113		7.863003	-31.755562	-5.264410
47114		7.851217	-31.734783	-5.238084
47115		7.833948	-31.700619	-5.221112
47116		7.815576	-31.659621	-5.213138
47117		7.797016	-31.612198	-5.211075
47118		7.785521	-31.565039	-5.210482
47119		7.798257	-31.523443	-5.210221
47120		7.818487	-31.491665	-5.213384
47121		7.820051	-31.475433	-5.226083
47122		7.816275	-31.467745	-5.241424
47123		7.810200	-31.468549	-5.273069
47124		7.793696	-31.471420	-5.309770
47125		7.781945	-31.467899	-5.344480
47126		7.785167	-31.450678	-5.371651
47127		7.802242	-31.425405	-5.390822
47128		7.808321	-31.402739	-5.404240
47129		7.797474	-31.388032	-5.422105
47130		7.786649	-31.373602	-5.442540
47131		7.794656	-31.373587	-5.471009
47132		7.796841	-31.390577	-5.504870
47133		7.788175	-31.426013	-5.541327
47134		7.776942	-31.469956	-5.580113
47135		7.781269	-31.519613	-5.626247
47136		7.805928	-31.579890	-5.683566
47137		7.831723	-31.644830	-5.742207
47138		7.850781	-31.703511	-5.790044
47139		7.869069	-31.738506	-5.824984
47140		7.896626	-31.757879	-5.852600
47141		7.926614	-31.773171	-5.881092
47142		7.944004	-31.784156	-5.904713
47143		7.951210	-31.792418	-5.921458
47144		7.961331	-31.801833	-5.929201
47145		7.979557	-31.827654	-5.939737
47146		7.993588	-31.866913	-5.959590
47147		8.006471	-31.914043	-5.983845
47148		8.028160	-31.959430	-6.009630
47149		8.078956	-31.995437	-6.036720
47150		8.158358	-32.028489	-6.075055
47151		8.236357	-32.065009	-6.124258
47152		8.304235	-32.109066	-6.179621
47153		8.370235	-32.164413	-6.234809
47154		8.455937	-32.228751	-6.290591
47155		8.568050	-32.302305	-6.365218
47156		8.698736	-32.378180	-6.454812
47157		8.860308	-32.465726	-6.571190
47158		9.046793	-32.577207	-6.708231
47159		9.238563	-32.706427	-6.858071
47160		9.439207	-32.846331	-7.025218
47161		9.677148	-32.994882	-7.217457
47162		9.986749	-33.144766	-7.440079
47163		10.393069	-33.287469	-7.684507
47164		10.905578	-33.416314	-7.938463
47165		11.520945	-33.530986	-8.197230
47166		12.231690	-33.632822	-8.460255
47167		13.027656	-33.727626	-8.742363
47168		13.870294	-33.816986	-9.030562
47169		14.746717	-33.908978	-9.343483
47170		15.642639	-34.002456	-9.674865
47171		16.561404	-34.104180	-10.028718
47172		17.484897	-34.206076	-10.388870
47173		18.412659	-34.306517	-10.758999
47174		19.353618	-34.399322	-11.141662
47175		20.323102	-34.477073	-11.542959
47176		21.337987	-34.536031	-11.958889
47177		22.407200	-34.571262	-12.387241
47178		23.554715	-34.578444	-12.818475
47179		24.797793	-34.552683	-13.247316
47180		26.134136	-34.498742	-13.668088
47181		27.546866	-34.415915	-14.092056
47182		28.996192	-34.302832	-14.505733
47183		30.464042	-34.166418	-14.912626
47184		31.923656	-34.008375	-15.306958
47185		33.371744	-33.823677	-15.694298
47186		34.827882	-33.596344	-16.042948
47187		36.295337	-33.345174	-16.359027
47188		37.745655	-33.070752	-16.638581
47189		39.166152	-32.794809	-16.892504
47190		40.566359	-32.529450	-17.117423
47191		41.942578	-32.276624	-17.317613
47192		43.300033	-32.028002	-17.508570
47193		44.626961	-31.774384	-17.707622
47194		45.934428	-31.508795	-17.911298
47195		47.234422	-31.233487	-18.127127
47196		48.527898	-30.950411	-18.319292
47197		49.831243	-30.654484	-18.473938
47198		51.135973	-30.337030	-18.576455
47199		52.447727	-29.987839	-18.628312
47200		53.788318	-29.599414	-18.615152
47201		55.174420	-29.168911	-18.554341
47202		56.609261	-28.704449	-18.438759
47203		58.053585	-28.205477	-18.286824
47204		59.489254	-27.685947	-18.116484
47205		60.884568	-27.156855	-17.930658
47206		62.235895	-26.634216	-17.724963
47207		63.558012	-26.129561	-17.521123
47208		64.850406	-25.641377	-17.313779
47209		66.120310	-25.159118	-17.117716
47210		67.374854	-24.688598	-16.941937
47211		68.602677	-24.240308	-16.797075
47212		69.777692	-23.823907	-16.667972
47213		70.878892	-23.450027	-16.563920
47214		71.882769	-23.122298	-16.466919
47215		72.797539	-22.849174	-16.374837
47216		73.618284	-22.636835	-16.289121
47217		74.370164	-22.494993	-16.214935
47218		75.066117	-22.427880	-16.158165
47219		75.702673	-22.422858	-16.129161
47220		76.276337	-22.464722	-16.130298
47221		76.798495	-22.525463	-16.169692
47222		77.313867	-22.586426	-16.249126
47223		77.862612	-22.622387	-16.363109
47224		78.443253	-22.615471	-16.476829
47225		79.048823	-22.556267	-16.579988
47226		79.671016	-22.439808	-16.644780
47227		80.319857	-22.278944	-16.668954
47228		81.003551	-22.077568	-16.646672
47229		81.713665	-21.846680	-16.574811
47230		82.440742	-21.595032	-16.445442
47231		83.162486	-21.322468	-16.262048
47232		83.870388	-21.025655	-16.036765
47233		84.566719	-20.714929	-15.785911
47234		85.249910	-20.395025	-15.527988
47235		85.909075	-20.078983	-15.274329
47236		86.541785	-19.769051	-15.031366
47237		87.158544	-19.464081	-14.802805
47238		87.769076	-19.157946	-14.581920
47239		88.395423	-18.845573	-14.361129
47240		89.030540	-18.523567	-14.135393
47241		89.661884	-18.187859	-13.890796
47242		90.273917	-17.842754	-13.620728
47243		90.868703	-17.489108	-13.316363
47244		91.436022	-17.136826	-12.977251
47245		91.993553	-16.794278	-12.625704
47246		92.574483	-16.471136	-12.279366
47247		93.178620	-16.163824	-11.959833
47248		93.801118	-15.872897	-11.678784
47249		94.442834	-15.595726	-11.433017
47250		95.090925	-15.325350	-11.219780
47251		95.724699	-15.049003	-11.028459
47252		96.332484	-14.772327	-10.843076
47253		96.920986	-14.497780	-10.662156
47254		97.481814	-14.223385	-10.472739
47255		98.010772	-13.953631	-10.263562
47256		98.509821	-13.684035	-10.040817
47257		99.003169	-13.418274	-9.827208
47258		99.529375	-13.169912	-9.635481
47259		100.124773	-12.935122	-9.482682
47260		100.794560	-12.709286	-9.368255
47261		101.491548	-12.478242	-9.292051
47262		102.177957	-12.246955	-9.242233
47263		102.802802	-12.005668	-9.218810
47264		103.377842	-11.767573	-9.201662
47265		103.918638	-11.537679	-9.180843
47266		104.468903	-11.320905	-9.139426
47267		105.035958	-11.109747	-9.078423
47268		105.612352	-10.903557	-8.991947
47269		106.176235	-10.696052	-8.889894
47270		106.727911	-10.481408	-8.779992
47271		107.288827	-10.260596	-8.646109
47272		107.872417	-10.028700	-8.490385
47273		108.462828	-9.786184	-8.310153
47274		109.021605	-9.544900	-8.101349
47275		109.536033	-9.317914	-7.868694
47276		110.013240	-9.108889	-7.630069
47277		110.455723	-8.916310	-7.390595
47278		110.882648	-8.741114	-7.147248
47279		111.311019	-8.572403	-6.901069
47280		111.745097	-8.408923	-6.647429
47281		112.187536	-8.248347	-6.404695
47282		112.618357	-8.088661	-6.174114
47283		113.013290	-7.929638	-5.957867
47284		113.371197	-7.782882	-5.741280
47285		113.714611	-7.648763	-5.512353
47286		114.071067	-7.523747	-5.255539
47287		114.472596	-7.408212	-4.962613
47288		114.910277	-7.284379	-4.635488
47289		115.367820	-7.150253	-4.272310
47290		115.827654	-6.997531	-3.893002
47291		116.296569	-6.834607	-3.518622
47292		116.766211	-6.660761	-3.157144
47293		117.230177	-6.490023	-2.809263
47294		117.675129	-6.332563	-2.474192
47295		118.097797	-6.194803	-2.152875
47296		118.493286	-6.076424	-1.844491
47297		118.870609	-5.981232	-1.542862
47298		119.243794	-5.910477	-1.253568
47299		119.624002	-5.861558	-0.971074
47300		120.006364	-5.833077	-0.692343
47301		120.381959	-5.817885	-0.420684
47302		120.754401	-5.811264	-0.158356
47303		121.088039	-5.785626	0.078677
47304		121.363262	-5.741432	0.295003
47305		121.584708	-5.687940	0.469439
47306		121.755938	-5.630732	0.594976
47307		121.866590	-5.583397	0.676980
47308		121.910372	-5.547960	0.716222
47309		121.908087	-5.521371	0.712785
47310		121.876297	-5.509212	0.679006
47311		121.829682	-5.510617	0.637564
47312		121.785193	-5.527079	0.603315
47313		121.757389	-5.545959	0.578250
47314		121.742500	-5.570215	0.563408
47315		121.726300	-5.596165	0.558006
47316		121.704452	-5.617349	0.553049
47317		121.679751	-5.641274	0.545425
47318		121.658158	-5.662249	0.529572
47319		121.644225	-5.682419	0.504849
47320		121.617791	-5.698557	0.469309
47321		121.575162	-5.712825	0.419113
47322		121.521939	-5.728028	0.360295
47323		121.467403	-5.744778	0.298809
47324		121.420113	-5.751061	0.247514
47325		121.390899	-5.753404	0.205443
47326		121.374419	-5.752813	0.174775
47327		121.362729	-5.756354	0.158668
47328		121.353546	-5.761586	0.167043
47329		121.353250	-5.756944	0.187545
47330		121.357838	-5.742960	0.210065
47331		121.355659	-5.732304	0.227249
47332		121.337418	-5.730490	0.238700
47333		121.309529	-5.742719	0.243692
47334		121.270736	-5.757995	0.248785
47335		121.221886	-5.762711	0.260069
47336		121.180327	-5.763918	0.271505
47337		121.146807	-5.769812	0.291778
47338		121.116664	-5.785203	0.319264
47339		121.089339	-5.801941	0.363299
47340		121.062106	-5.813060	0.417247
47341		121.033977	-5.823843	0.480875
47342		121.004877	-5.837322	0.550181
47343		120.984415	-5.854266	0.614313
47344		120.966622	-5.874365	0.673229
47345		120.956970	-5.887680	0.724667
47346		120.950813	-5.902972	0.762584
47347		120.944957	-5.918695	0.793212
47348		120.932686	-5.936744	0.825929
47349		120.919320	-5.953395	0.858259
47350		120.911631	-5.963591	0.887540
47351		120.910423	-5.970377	0.910397
47352		120.906210	-5.975945	0.932098
47353		120.900449	-5.982177	0.944210
47354		120.882079	-5.992450	0.947582
47355		120.844663	-6.003481	0.940914
47356		120.778766	-6.017324	0.912810
47357		120.673222	-6.032299	0.859975
47358		120.517491	-6.048596	0.770232
47359		120.308465	-6.070773	0.638914
47360		120.054943	-6.098957	0.472043
47361		119.763469	-6.138581	0.273671
47362		119.428062	-6.185476	0.040025
47363		119.021691	-6.250146	-0.219206
47364		118.562865	-6.336861	-0.501731
47365		118.069012	-6.444358	-0.804733
47366		117.541145	-6.573800	-1.111896
47367		116.987812	-6.722660	-1.413839
47368		116.424268	-6.880944	-1.701496
47369		115.852129	-7.051940	-1.967844
47370		115.279351	-7.227463	-2.207573
47371		114.709078	-7.398339	-2.420664
47372		114.136886	-7.569318	-2.611136
47373		113.566350	-7.735530	-2.783310
47374		113.014501	-7.897335	-2.941702
47375		112.499965	-8.053711	-3.092141
47376		112.038839	-8.202226	-3.236533
47377		111.625192	-8.345848	-3.380204
47378		111.249927	-8.472468	-3.522747
47379		110.902731	-8.583521	-3.670341
47380		110.579803	-8.680596	-3.822961
47381		110.278245	-8.762881	-3.978584
47382		109.988722	-8.832162	-4.131554
47383		109.702278	-8.895359	-4.280099
47384		109.407748	-8.951700	-4.425460
47385		109.108965	-9.009493	-4.577790
47386		108.794321	-9.076515	-4.742767
47387		108.445207	-9.151240	-4.931027
47388		108.053362	-9.238639	-5.140465
47389		107.618031	-9.339116	-5.376489
47390		107.128815	-9.456781	-5.635064
47391		106.585695	-9.593831	-5.919667
47392		105.983891	-9.752495	-6.235296
47393		105.291220	-9.934527	-6.590608
47394		104.494352	-10.133315	-6.981994
47395		103.597903	-10.354222	-7.397536
47396		102.603059	-10.608841	-7.826930
47397		101.530883	-10.897263	-8.258499
47398		100.396418	-11.220682	-8.667119
47399		99.216065	-11.574862	-9.051178
47400		98.007709	-11.949137	-9.412986
47401		96.768091	-12.338949	-9.757714
47402		95.479196	-12.745916	-10.094110
47403		94.118340	-13.165025	-10.434795
47404		92.662605	-13.599799	-10.791412
47405		91.115466	-14.049389	-11.163088
47406		89.515076	-14.513713	-11.549717
47407		87.891520	-14.996536	-11.953976
47408		86.255149	-15.499836	-12.371313
47409		84.636504	-16.029494	-12.801574
47410		83.043459	-16.588045	-13.235205
47411		81.485180	-17.179479	-13.658285
47412		79.944342	-17.824238	-14.062106
47413		78.381756	-18.530085	-14.441271
47414		76.766047	-19.291228	-14.794725
47415		75.088710	-20.108164	-15.124969
47416		73.316798	-20.964303	-15.430059
47417		71.404777	-21.830203	-15.721738
47418		69.384625	-22.690445	-15.994128
47419		67.278302	-23.529284	-16.241490
47420		65.114232	-24.333015	-16.454760
47421		62.925292	-25.116847	-16.644164
47422		60.663540	-25.889712	-16.823381
47423		58.312916	-26.649347	-17.000696
47424		55.910933	-27.396509	-17.147600
47425		53.499250	-28.104284	-17.249242
47426		51.121695	-28.749620	-17.294303
47427		48.821913	-29.320545	-17.293695
47428		46.606856	-29.789601	-17.249041
47429		44.510324	-30.144135	-17.184628
47430		42.565927	-30.381995	-17.074210
47431		40.778927	-30.515219	-16.931946
47432		39.127019	-30.557136	-16.754709
47433		37.598051	-30.542619	-16.535065
47434		36.153386	-30.498002	-16.274142
47435		34.744600	-30.425395	-15.970999
47436		33.355531	-30.333523	-15.628541
47437		31.989549	-30.223573	-15.274658
47438		30.650713	-30.092020	-14.906087
47439		29.335638	-29.935787	-14.523818
47440		28.030643	-29.732792	-14.104767
47441		26.723197	-29.458489	-13.653308
47442		25.443275	-29.116089	-13.171937
47443		24.224771	-28.729846	-12.708242
47444		23.123253	-28.355121	-12.289462
47445		22.171577	-28.028169	-11.948724
47446		21.368514	-27.775860	-11.687797
47447		20.698381	-27.624640	-11.498298
47448		20.110846	-27.583711	-11.376211
47449		19.549394	-27.630007	-11.296127
47450		18.986132	-27.739510	-11.234438
47451		18.395510	-27.882424	-11.171975
47452		17.768644	-28.031676	-11.091562
47453		17.109977	-28.187930	-10.997050
47454		16.437817	-28.336592	-10.884279
47455		15.803319	-28.478808	-10.790490
47456		15.251605	-28.617863	-10.727209
47457		14.777479	-28.768778	-10.707295
47458		14.361110	-28.929539	-10.711869
47459		13.986766	-29.101564	-10.733170
47460		13.640843	-29.273510	-10.745358
47461		13.305077	-29.440773	-10.742515
47462		12.959424	-29.594708	-10.702872
47463		12.615338	-29.738903	-10.627696
47464		12.289859	-29.873506	-10.561309
47465		12.000199	-30.005378	-10.519629
47466		11.749401	-30.160491	-10.495306
47467		11.500685	-30.339581	-10.489594
47468		11.227932	-30.539865	-10.488232
47469		10.937237	-30.754242	-10.491595
47470		10.635060	-30.967679	-10.491107
47471		10.335638	-31.165158	-10.476052
47472		10.048436	-31.337520	-10.428657
47473		9.775380	-31.493316	-10.361196
47474		9.523530	-31.644008	-10.284350
47475		9.274307	-31.795157	-10.217449
47476		9.025764	-31.937517	-10.166584
47477		8.797774	-32.077172	-10.141136
47478		8.574915	-32.206015	-10.133354
47479		8.345343	-32.334485	-10.128817
47480		8.091775	-32.482218	-10.119187
47481		7.790486	-32.640532	-10.100023
47482		7.463234	-32.815203	-10.079840
47483		7.135326	-32.987060	-10.070606
47484		6.810775	-33.147840	-10.064374
47485		6.497535	-33.290299	-10.059248
47486		6.212468	-33.421283	-10.049533
47487		5.958386	-33.539044	-10.037863
47488		5.726502	-33.636335	-10.017621
47489		5.521380	-33.720484	-10.001908
47490		5.315976	-33.820113	-9.974866
47491		5.083229	-33.930749	-9.949129
47492		4.824277	-34.058940	-9.921696
47493		4.544925	-34.209650	-9.907948
47494		4.245269	-34.367959	-9.900982
47495		3.953179	-34.529850	-9.893434
47496		3.678068	-34.682245	-9.876862
47497		3.434643	-34.820076	-9.847709
47498		3.246146	-34.945248	-9.808791
47499		3.103511	-35.058529	-9.777442
47500		2.971611	-35.166015	-9.749924
47501		2.830782	-35.272162	-9.727341
47502		2.663693	-35.371794	-9.700601
47503		2.495470	-35.464523	-9.676610
47504		2.322237	-35.554046	-9.646851
47505		2.140217	-35.645874	-9.615368
47506		1.944804	-35.738920	-9.577781
47507		1.747018	-35.823178	-9.533935
47508		1.570566	-35.893511	-9.484506
47509		1.421575	-35.952284	-9.438570
47510		1.274231	-36.007108	-9.394271
47511		1.114462	-36.060832	-9.363502
47512		0.952969	-36.121191	-9.336911
47513		0.792224	-36.189441	-9.314855
47514		0.628313	-36.262702	-9.282641
47515		0.473341	-36.326356	-9.247878
47516		0.330270	-36.376539	-9.201610
47517		0.218649	-36.417933	-9.152464
47518		0.130375	-36.453494	-9.093618
47519		0.072616	-36.475365	-9.024558
47520		0.056973	-36.479759	-8.939222
47521		0.089946	-36.459673	-8.841077
47522		0.167467	-36.433599	-8.724770
47523		0.284425	-36.404103	-8.603130
47524		0.430992	-36.369511	-8.486289
47525		0.597069	-36.340212	-8.388692
47526		0.742660	-36.321713	-8.296592
47527		0.859078	-36.309125	-8.212615
47528		0.950389	-36.297860	-8.138492
47529		1.028566	-36.279910	-8.078192
47530		1.074178	-36.252049	-8.025385
47531		1.087250	-36.222754	-7.977208
47532		1.073758	-36.198216	-7.921115
47533		1.054828	-36.187629	-7.852245
47534		1.041303	-36.200150	-7.768674
47535		1.024087	-36.239448	-7.686810
47536		0.986705	-36.294668	-7.613870
47537		0.946354	-36.369740	-7.553295
47538		0.907954	-36.453847	-7.500193
47539		0.871720	-36.542814	-7.446420
47540		0.832393	-36.627281	-7.383561
47541		0.788815	-36.702580	-7.320560
47542		0.738747	-36.761332	-7.262143
47543		0.681543	-36.803054	-7.215265
47544		0.626055	-36.825721	-7.172248
47545		0.579776	-36.833581	-7.135595
47546		0.540501	-36.829788	-7.094119
47547		0.512193	-36.814220	-7.049512
47548		0.483805	-36.798064	-7.001201
47549		0.443058	-36.787192	-6.949268
47550		0.386866	-36.780954	-6.895837
47551		0.319470	-36.773749	-6.844830
47552		0.248086	-36.758307	-6.798835
47553		0.194431	-36.733648	-6.754858
47554		0.170412	-36.695075	-6.717102
47555		0.178905	-36.644704	-6.691150
47556		0.205156	-36.584979	-6.665976
47557		0.228211	-36.537869	-6.636268
47558		0.241090	-36.518278	-6.606114
47559		0.252043	-36.524409	-6.583456
47560		0.273619	-36.542849	-6.558697
47561		0.318543	-36.568316	-6.533494
47562		0.372270	-36.595845	-6.498735
47563		0.411207	-36.627041	-6.466578
47564		0.450737	-36.661242	-6.435477
47565		0.518299	-36.686441	-6.412601
47566		0.601514	-36.700563	-6.394074
47567		0.672176	-36.716068	-6.373067
47568		0.723942	-36.741741	-6.354180
47569		0.766616	-36.777825	-6.344697
47570		0.801443	-36.815342	-6.347995
47571		0.836441	-36.848117	-6.359697
47572		0.873703	-36.872566	-6.368583
47573		0.920752	-36.885657	-6.377701
47574		0.981248	-36.896927	-6.374544
47575		1.065325	-36.916743	-6.360768
47576		1.184357	-36.942983	-6.336620
47577		1.338900	-36.976116	-6.307867
47578		1.512488	-37.012585	-6.272923
47579		1.692082	-37.052568	-6.235423
47580		1.875553	-37.087672	-6.196020
47581		2.061627	-37.122543	-6.157352
47582		2.261020	-37.159174	-6.121540
47583		2.476125	-37.204916	-6.092286
47584		2.685234	-37.263650	-6.068142
47585		2.888254	-37.347769	-6.051047
47586		3.096021	-37.454218	-6.044071
47587		3.315823	-37.578049	-6.054638
47588		3.553423	-37.717427	-6.068333
47589		3.825556	-37.867825	-6.077157
47590		4.168403	-38.018590	-6.089627
47591		4.601903	-38.152316	-6.115731
47592		5.134105	-38.257426	-6.157028
47593		5.750920	-38.340174	-6.198013
47594		6.419630	-38.418058	-6.228074
47595		7.086783	-38.503967	-6.246566
47596		7.696486	-38.610075	-6.267384
47597		8.239990	-38.743971	-6.312160
47598		8.717470	-38.907457	-6.383181
47599		9.152327	-39.092112	-6.480910
47600		9.594485	-39.288595	-6.602463
47601		10.096209	-39.474341	-6.740574
47602		10.688670	-39.640302	-6.896846
47603		11.384226	-39.781665	-7.064265
47604		12.165981	-39.898328	-7.240070
47605		12.990839	-39.995920	-7.423905
47606		13.813823	-40.081923	-7.610120
47607		14.605160	-40.166728	-7.804163
47608		15.316478	-40.256817	-7.996986
47609		15.950555	-40.363808	-8.202046
47610		16.516759	-40.485733	-8.415143
47611		17.047152	-40.612652	-8.659091
47612		17.568734	-40.728525	-8.931766
47613		18.095939	-40.824232	-9.222394
47614		18.637130	-40.891204	-9.513384
47615		19.195349	-40.926392	-9.795934
47616		19.763581	-40.924998	-10.061613
47617		20.345223	-40.896983	-10.309818
47618		20.936622	-40.858055	-10.536527
47619		21.535709	-40.817595	-10.750983
47620		22.177105	-40.777128	-10.964696
47621		22.877118	-40.728749	-11.200585
47622		23.638627	-40.675353	-11.456417
47623		24.453342	-40.616422	-11.733182
47624		25.295066	-40.542702	-12.028930
47625		26.150263	-40.442273	-12.332564
47626		27.035403	-40.307472	-12.624190
47627		27.980747	-40.121986	-12.896380
47628		29.010041	-39.899493	-13.148437
47629		30.124117	-39.646172	-13.397221
47630		31.308586	-39.368334	-13.633210
47631		32.541332	-39.071705	-13.865351
47632		33.787395	-38.771460	-14.091959
47633		35.009780	-38.475694	-14.322100
47634		36.192875	-38.189529	-14.551163
47635		37.332122	-37.906065	-14.779213
47636		38.440663	-37.625134	-15.002320
47637		39.524875	-37.339230	-15.232810
47638		40.611390	-37.054498	-15.472203
47639		41.729767	-36.774432	-15.730429
47640		42.887049	-36.487101	-15.987560
47641		44.094141	-36.180171	-16.241407
47642		45.332513	-35.857403	-16.479539
47643		46.571236	-35.514900	-16.693677
47644		47.780234	-35.154487	-16.872429
47645		48.942966	-34.778950	-17.022910
47646		50.056990	-34.393575	-17.144926
47647		51.130111	-33.997496	-17.257302
47648		52.182782	-33.580701	-17.353266
47649		53.245698	-33.137286	-17.440183
47650		54.326938	-32.665079	-17.514642
47651		55.433114	-32.173821	-17.589370
47652		56.577477	-31.668330	-17.660727
47653		57.780354	-31.157873	-17.732860
47654		59.029322	-30.642802	-17.803213
47655		60.305833	-30.115662	-17.855617
47656		61.591738	-29.571219	-17.872061
47657		62.882559	-29.005814	-17.860099
47658		64.155654	-28.430441	-17.805785
47659		65.413073	-27.856133	-17.721305
47660		66.647284	-27.288713	-17.617285
47661		67.831914	-26.724304	-17.494673
47662		68.978637	-26.170333	-17.347256
47663		70.096644	-25.635579	-17.198839
47664		71.174045	-25.121619	-17.034627
47665		72.212643	-24.626299	-16.855896
47666		73.225117	-24.150820	-16.672879
47667		74.218602	-23.696874	-16.486890
47668		75.183846	-23.259238	-16.285046
47669		76.130916	-22.838561	-16.076402
47670		77.042593	-22.427811	-15.855417
47671		77.904885	-22.019004	-15.616068
47672		78.723915	-21.614484	-15.357030
47673		79.508890	-21.211017	-15.079386
47674		80.257797	-20.817291	-14.773215
47675		80.997502	-20.431360	-14.453802
47676		81.750789	-20.062433	-14.133456
47677		82.539892	-19.718100	-13.836197
47678		83.357404	-19.389569	-13.576376
47679		84.194056	-19.068129	-13.353428
47680		85.038313	-18.747451	-13.163943
47681		85.881630	-18.427664	-13.000873
47682		86.683937	-18.105350	-12.833749
47683		87.438111	-17.784668	-12.650820
47684		88.154239	-17.467905	-12.446216
47685		88.844740	-17.154940	-12.229056
47686		89.501129	-16.843188	-11.995516
47687		90.123657	-16.537202	-11.755459
47688		90.715060	-16.241276	-11.508705
47689		91.290532	-15.956322	-11.274199
47690		91.865200	-15.682922	-11.053690
47691		92.453614	-15.420856	-10.847672
47692		93.051710	-15.166610	-10.650357
47693		93.670415	-14.919923	-10.453604
47694		94.290736	-14.679049	-10.249246
47695		94.899959	-14.437341	-10.035310
47696		95.482603	-14.193200	-9.819650
47697		96.041018	-13.945034	-9.607595
47698		96.569041	-13.699444	-9.398304
47699		97.083638	-13.462232	-9.192285
47700		97.587410	-13.237146	-8.986922
47701		98.080371	-13.025838	-8.788669
47702		98.559686	-12.823550	-8.597226
47703		99.015438	-12.624412	-8.418230
47704		99.447965	-12.426142	-8.248832
47705		99.865153	-12.230524	-8.093593
47706		100.265694	-12.045916	-7.953136
47707		100.652149	-11.869922	-7.837181
47708		101.018556	-11.708516	-7.749837
47709		101.366100	-11.566281	-7.679696
47710		101.688941	-11.433937	-7.619652
47711		101.986686	-11.301383	-7.571334
47712		102.260072	-11.169090	-7.528143
47713		102.510360	-11.040685	-7.498500
47714		102.740748	-10.914202	-7.473334
47715		102.948110	-10.793949	-7.465028
47716		103.135305	-10.682005	-7.474989
47717		103.302450	-10.583623	-7.495741
47718		103.466761	-10.501509	-7.514450
47719		103.647898	-10.426167	-7.525606
47720		103.839695	-10.357874	-7.524170
47721		104.035026	-10.288221	-7.500429
47722		104.261818	-10.212721	-7.440645
47723		104.542446	-10.124110	-7.355770
47724		104.855866	-10.019422	-7.248481
47725		105.184061	-9.910807	-7.120831
47726		105.505315	-9.809227	-6.983142
47727		105.805939	-9.719518	-6.853806
47728		106.079856	-9.637602	-6.741699
47729		106.345884	-9.567536	-6.655985
47730		106.617103	-9.504009	-6.585767
47731		106.900499	-9.442538	-6.518650
47732		107.189782	-9.375411	-6.455689
47733		107.474500	-9.302776	-6.397086
47734		107.743040	-9.232794	-6.343183
47735		107.997220	-9.173848	-6.297107
47736		108.231171	-9.133337	-6.255563
47737		108.455264	-9.113636	-6.220846
47738		108.678961	-9.105217	-6.170987
47739		108.936161	-9.107799	-6.102897
47740		109.230063	-9.122120	-6.002950
47741		109.542372	-9.133148	-5.870462
47742		109.872304	-9.138946	-5.712683
47743		110.197760	-9.127487	-5.538159
47744		110.495343	-9.095205	-5.358778
47745		110.759955	-9.055082	-5.190378
47746		110.986048	-9.006552	-5.043212
47747		111.183446	-8.964720	-4.927675
47748		111.351098	-8.928162	-4.844305
47749		111.480976	-8.898080	-4.792843
47750		111.555978	-8.879793	-4.768497
47751		111.592432	-8.872130	-4.777574
47752		111.583563	-8.866651	-4.801995
47753		111.566259	-8.877889	-4.806498
47754		111.581241	-8.884845	-4.793056
47755		111.630905	-8.890717	-4.762206
47756		111.687070	-8.899227	-4.715588
47757		111.744547	-8.911729	-4.663431
47758		111.793237	-8.925824	-4.606854
47759		111.835150	-8.935828	-4.551410
47760		111.869241	-8.933740	-4.512897
47761		111.890993	-8.924815	-4.497504
47762		111.894878	-8.920547	-4.508815
47763		111.876847	-8.922558	-4.539022
47764		111.844234	-8.923935	-4.571079
47765		111.816790	-8.924940	-4.601836
47766		111.802478	-8.923402	-4.635478
47767		111.793520	-8.925600	-4.668750
47768		111.789117	-8.926856	-4.695742
47769		111.800714	-8.928385	-4.714213
47770		111.818785	-8.928781	-4.727410
47771		111.836196	-8.925194	-4.734137
47772		111.834825	-8.920229	-4.738687
47773		111.822034	-8.915804	-4.744958
47774		111.807776	-8.907454	-4.759293
47775		111.806470	-8.896253	-4.783167
47776		111.806516	-8.890935	-4.811889
47777		111.800696	-8.893681	-4.840776
47778		111.783308	-8.896347	-4.868394
47779		111.755013	-8.901350	-4.891649
47780		111.718193	-8.904061	-4.918506
47781		111.681576	-8.910436	-4.955255
47782		111.642358	-8.922310	-5.002940
47783		111.592276	-8.935932	-5.058779
47784		111.525921	-8.939069	-5.122427
47785		111.455255	-8.933741	-5.185482
47786		111.400684	-8.927625	-5.254054
47787		111.355575	-8.927805	-5.319430
47788		111.313743	-8.934096	-5.372434
47789		111.278126	-8.942609	-5.411911
47790		111.247704	-8.954817	-5.435499
47791		111.229839	-8.971691	-5.446990
47792		111.222343	-8.987959	-5.454081
47793		111.224048	-8.994354	-5.460748
47794		111.226173	-8.989428	-5.476716
47795		111.225850	-8.985527	-5.504357
47796		111.220117	-8.981018	-5.536975
47797		111.210953	-8.975112	-5.567097
47798		111.205170	-8.970409	-5.594037
47799		111.201077	-8.968821	-5.617270
47800		111.188408	-8.975649	-5.630292
47801		111.173262	-8.988102	-5.638901
47802		111.150436	-8.999039	-5.649465
47803		111.132613	-8.995857	-5.670434
47804		111.118304	-8.990454	-5.708787
47805		111.100578	-8.987295	-5.760547
47806		111.066753	-8.992057	-5.823140
47807		111.003731	-8.995785	-5.898080
47808		110.910962	-9.002869	-5.983918
47809		110.805182	-9.015138	-6.076903
47810		110.698903	-9.034487	-6.174973
47811		110.590213	-9.057719	-6.276588
47812		110.477454	-9.078882	-6.373257
47813		110.363215	-9.104744	-6.470552
47814		110.243184	-9.133068	-6.569660
47815		110.113770	-9.165185	-6.675833
47816		109.946986	-9.196609	-6.794632
47817		109.737337	-9.232373	-6.941660
47818		109.465105	-9.265743	-7.137759
47819		109.127331	-9.305386	-7.392144
47820		108.726206	-9.345620	-7.703224
