// General information: 
//  MT Manager version: 2022.2.0 
//  XDA version: 2022.2.0 build 7381 rev 124627 built on 2023-07-19
// Device information: 
//  DeviceId: 00B447F1
//  ProductCode: MTW2-3A7G6
//  Firmware Version: 4.3.5
//  Hardware Version: 2.0.0
// Device settings: 
//  Filter Profile: human(46.1)
//  Option Flags: Orientation Smoother Disabled, Position/Velocity Smoother Disabled, Continuous Zero Rotation Update Disabled, AHS Disabled, ICC Disabled
// Coordinate system: ENU
PacketCounter	SampleTimeFine	Roll	Pitch	Yaw
44706		47.495460	32.502556	-13.344584
44707		47.516401	32.500554	-13.386530
44708		47.535210	32.507532	-13.419005
44709		47.547424	32.513298	-13.440909
44710		47.551691	32.518486	-13.446928
44711		47.530046	32.517482	-13.440616
44712		47.492509	32.511114	-13.414986
44713		47.433152	32.489143	-13.391900
44714		47.364760	32.462404	-13.371615
44715		47.312931	32.437390	-13.349579
44716		47.297729	32.405091	-13.338455
44717		47.303050	32.348593	-13.367143
44718		47.374674	32.285801	-13.474456
44719		47.534694	32.262360	-13.631792
44720		47.725740	32.287606	-13.756216
44721		47.837009	32.323534	-13.809919
44722		47.859583	32.356643	-13.789111
44723		47.804763	32.384505	-13.710651
44724		47.719880	32.395317	-13.635814
44725		47.645707	32.380095	-13.612745
44726		47.560872	32.362970	-13.613611
44727		47.471967	32.339828	-13.626851
44728		47.397094	32.321280	-13.626051
44729		47.350528	32.310731	-13.586550
44730		47.337399	32.312822	-13.507095
44731		47.345216	32.317279	-13.414571
44732		47.351341	32.321454	-13.335996
44733		47.322912	32.325940	-13.270489
44734		47.273728	32.332258	-13.221096
44735		47.218790	32.330688	-13.197935
44736		47.178654	32.318944	-13.203295
44737		47.172949	32.299699	-13.227312
44738		47.206990	32.282130	-13.256211
44739		47.269310	32.273840	-13.277178
44740		47.342737	32.275594	-13.284520
44741		47.397667	32.275963	-13.282863
44742		47.422982	32.275099	-13.279799
44743		47.424496	32.269878	-13.284414
44744		47.419455	32.266327	-13.296452
44745		47.417805	32.267887	-13.306151
44746		47.421018	32.268601	-13.315657
44747		47.430727	32.268865	-13.325425
44748		47.450023	32.270889	-13.330991
44749		47.467573	32.273413	-13.330836
44750		47.482227	32.278830	-13.330641
44751		47.504245	32.280965	-13.330917
44752		47.526313	32.284151	-13.327651
44753		47.539434	32.281681	-13.315202
44754		47.541338	32.275506	-13.311685
44755		47.542069	32.266727	-13.313188
44756		47.546169	32.262677	-13.316299
44757		47.546111	32.257474	-13.316513
44758		47.549718	32.252050	-13.316245
44759		47.555661	32.245932	-13.314349
44760		47.564746	32.240895	-13.314656
44761		47.572169	32.231884	-13.316727
44762		47.579943	32.224394	-13.324562
44763		47.584008	32.216379	-13.333923
44764		47.591306	32.210220	-13.344097
44765		47.593924	32.203505	-13.354789
44766		47.596823	32.201431	-13.360889
44767		47.593691	32.200852	-13.367532
44768		47.589593	32.198925	-13.375496
44769		47.583595	32.195898	-13.384739
44770		47.578585	32.193327	-13.387665
44771		47.572210	32.191186	-13.390886
44772		47.568626	32.191604	-13.393116
44773		47.566292	32.191133	-13.398136
44774		47.565671	32.190104	-13.408595
44775		47.559103	32.184725	-13.424207
44776		47.560217	32.180168	-13.437307
44777		47.565336	32.173587	-13.450489
44778		47.572096	32.174605	-13.458490
44779		47.573311	32.173080	-13.459063
44780		47.568153	32.174254	-13.455766
44781		47.555277	32.174084	-13.447617
44782		47.539773	32.174655	-13.438551
44783		47.527557	32.171504	-13.436436
44784		47.523601	32.171076	-13.442116
44785		47.526728	32.170252	-13.448737
44786		47.537976	32.168915	-13.450556
44787		47.547594	32.168937	-13.445896
44788		47.553068	32.168099	-13.440344
44789		47.551525	32.162963	-13.435670
44790		47.542917	32.158959	-13.429273
44791		47.534461	32.151794	-13.427810
44792		47.535830	32.147548	-13.430628
44793		47.534947	32.146655	-13.429808
44794		47.533290	32.144454	-13.428400
44795		47.537783	32.141833	-13.426723
44796		47.546043	32.139613	-13.426567
44797		47.551620	32.136215	-13.430002
44798		47.562157	32.136869	-13.435328
44799		47.569327	32.137711	-13.444080
44800		47.575701	32.135183	-13.449812
44801		47.573461	32.125475	-13.454405
44802		47.567744	32.109964	-13.457299
44803		47.555228	32.088725	-13.460984
44804		47.540234	32.068152	-13.466494
44805		47.529047	32.046896	-13.477041
44806		47.529947	32.033687	-13.491214
44807		47.531524	32.021048	-13.507705
44808		47.541834	32.014408	-13.516984
44809		47.537565	32.005775	-13.527706
44810		47.527310	31.998462	-13.532255
44811		47.505026	31.989663	-13.527207
44812		47.473769	31.983390	-13.516270
44813		47.444216	31.974977	-13.502663
44814		47.421331	31.966520	-13.489709
44815		47.396313	31.952508	-13.484698
44816		47.375953	31.939246	-13.494756
44817		47.363883	31.927231	-13.504334
44818		47.355596	31.919988	-13.510938
44819		47.342727	31.912540	-13.509937
44820		47.328519	31.906628	-13.505212
44821		47.315341	31.896345	-13.500672
44822		47.307413	31.882972	-13.497502
44823		47.296638	31.864111	-13.499391
44824		47.292650	31.846622	-13.499753
44825		47.288576	31.825179	-13.508390
44826		47.291678	31.814695	-13.508107
44827		47.291999	31.806901	-13.505187
44828		47.296612	31.799577	-13.499103
44829		47.299700	31.790014	-13.489604
44830		47.295615	31.782478	-13.469053
44831		47.277419	31.773851	-13.446132
44832		47.259853	31.768948	-13.423560
44833		47.243193	31.760594	-13.397288
44834		47.233923	31.747122	-13.370382
44835		47.225932	31.729256	-13.346107
44836		47.223628	31.709612	-13.326962
44837		47.228629	31.690485	-13.307079
44838		47.240874	31.681406	-13.282619
44839		47.243825	31.676733	-13.252779
44840		47.234873	31.675750	-13.216331
44841		47.209295	31.669759	-13.183351
44842		47.183213	31.662228	-13.155370
44843		47.163867	31.650194	-13.127171
44844		47.147530	31.639778	-13.099890
44845		47.129474	31.627207	-13.066585
44846		47.117344	31.618781	-13.030963
44847		47.111327	31.611492	-12.994847
44848		47.107659	31.606276	-12.968631
44849		47.102992	31.601392	-12.950117
44850		47.093890	31.599093	-12.932985
44851		47.085009	31.595980	-12.919467
44852		47.086060	31.592387	-12.898474
44853		47.082904	31.585590	-12.874063
44854		47.078514	31.576723	-12.847891
44855		47.070691	31.567511	-12.823034
44856		47.067082	31.560703	-12.801913
44857		47.072037	31.555199	-12.782987
44858		47.078557	31.558216	-12.770027
44859		47.085107	31.562398	-12.764945
44860		47.095822	31.568225	-12.764634
44861		47.105653	31.571075	-12.765543
44862		47.121989	31.573898	-12.758971
44863		47.135055	31.572991	-12.746735
44864		47.146747	31.574329	-12.729838
44865		47.148986	31.577123	-12.711768
44866		47.147431	31.581066	-12.695650
44867		47.139303	31.581524	-12.682102
44868		47.131926	31.584251	-12.668825
44869		47.122391	31.586122	-12.656258
44870		47.112907	31.587865	-12.647153
44871		47.105204	31.585280	-12.641552
44872		47.108842	31.582903	-12.633932
44873		47.118407	31.576061	-12.619373
44874		47.125049	31.571989	-12.602935
44875		47.119876	31.563509	-12.587166
44876		47.108300	31.556808	-12.566862
44877		47.087707	31.550299	-12.543614
44878		47.068474	31.543809	-12.521812
44879		47.047282	31.536380	-12.503962
44880		47.028155	31.525394	-12.489476
44881		47.009023	31.512179	-12.477711
44882		47.000069	31.496942	-12.461603
44883		46.995426	31.476310	-12.443396
44884		46.996285	31.457695	-12.418920
44885		46.990563	31.436627	-12.387621
44886		46.975577	31.416444	-12.352819
44887		46.953065	31.395818	-12.317013
44888		46.924520	31.374494	-12.288638
44889		46.897022	31.349415	-12.269538
44890		46.872971	31.320093	-12.256485
44891		46.850134	31.287300	-12.242175
44892		46.842886	31.248552	-12.223416
44893		46.851211	31.209080	-12.193314
44894		46.862323	31.179365	-12.153642
44895		46.857268	31.153494	-12.115920
44896		46.843277	31.128815	-12.089485
44897		46.817422	31.101174	-12.063409
44898		46.789398	31.071660	-12.046190
44899		46.770627	31.041945	-12.036660
44900		46.763235	31.012678	-12.037228
44901		46.770779	30.977032	-12.050008
44902		46.798251	30.944941	-12.059665
44903		46.838321	30.909731	-12.061213
44904		46.884717	30.881569	-12.053911
44905		46.922829	30.855327	-12.036183
44906		46.944577	30.835041	-12.018315
44907		46.948971	30.811408	-12.005162
44908		46.946276	30.789142	-11.997484
44909		46.942346	30.767431	-11.996170
44910		46.943844	30.746500	-12.003348
44911		46.955325	30.724096	-12.013478
44912		46.983559	30.704205	-12.024399
44913		47.024483	30.689174	-12.024005
44914		47.065113	30.675712	-12.014099
44915		47.088241	30.663928	-12.006127
44916		47.106866	30.653990	-11.995464
44917		47.115419	30.641899	-11.988583
44918		47.118320	30.633644	-11.982199
44919		47.118464	30.625910	-11.981468
44920		47.123419	30.616043	-11.987297
44921		47.130159	30.607048	-11.997543
44922		47.143441	30.596777	-12.013323
44923		47.167617	30.583743	-12.030456
44924		47.199358	30.575643	-12.038930
44925		47.224217	30.570957	-12.038230
44926		47.244437	30.570428	-12.029185
44927		47.254569	30.570032	-12.017584
44928		47.258260	30.573413	-12.008370
44929		47.256374	30.575684	-12.006821
44930		47.263565	30.580944	-12.018157
44931		47.274765	30.584283	-12.036753
44932		47.297226	30.589063	-12.051204
44933		47.329034	30.589019	-12.058401
44934		47.363474	30.590754	-12.054264
44935		47.384822	30.591972	-12.040758
44936		47.389680	30.594087	-12.027483
44937		47.388179	30.593745	-12.015692
44938		47.385639	30.592992	-12.010981
44939		47.380835	30.594963	-12.010927
44940		47.384031	30.598814	-12.010215
44941		47.389986	30.598586	-12.010442
44942		47.401210	30.597155	-12.012363
44943		47.413522	30.595376	-12.007178
44944		47.424077	30.594726	-12.004651
44945		47.430440	30.593430	-11.993222
44946		47.429747	30.597367	-11.978203
44947		47.422841	30.597377	-11.965078
44948		47.415597	30.596367	-11.957980
44949		47.410092	30.591175	-11.956124
44950		47.404539	30.586494	-11.956755
44951		47.400926	30.577701	-11.961114
44952		47.399881	30.570397	-11.963580
44953		47.401346	30.562804	-11.961507
44954		47.404670	30.561043	-11.955131
44955		47.401327	30.558844	-11.956122
44956		47.397333	30.558655	-11.953802
44957		47.391106	30.556292	-11.950813
44958		47.387606	30.556123	-11.949011
44959		47.384317	30.554605	-11.949139
44960		47.385175	30.553242	-11.949190
44961		47.380688	30.549457	-11.952259
44962		47.378045	30.544146	-11.957129
44963		47.376294	30.536249	-11.959299
44964		47.381517	30.530137	-11.959501
44965		47.386062	30.524218	-11.958624
44966		47.390328	30.518690	-11.961734
44967		47.394521	30.511008	-11.970037
44968		47.399754	30.505395	-11.979258
44969		47.407535	30.499579	-11.983788
44970		47.416328	30.495109	-11.985363
44971		47.419974	30.489060	-11.987085
44972		47.419882	30.484726	-11.988343
44973		47.415593	30.478721	-11.991552
44974		47.419293	30.472295	-12.000347
44975		47.427490	30.468464	-12.009191
44976		47.438533	30.464646	-12.019579
44977		47.452024	30.459086	-12.027636
44978		47.463806	30.451679	-12.039641
44979		47.473834	30.442771	-12.056616
44980		47.487831	30.438947	-12.075191
44981		47.506660	30.435748	-12.088136
44982		47.528272	30.434731	-12.100958
44983		47.554261	30.434849	-12.116406
44984		47.588015	30.438068	-12.136025
44985		47.623283	30.440539	-12.170262
44986		47.662729	30.451535	-12.210787
44987		47.704540	30.463455	-12.257109
44988		47.747472	30.478396	-12.292811
44989		47.780815	30.492400	-12.318930
44990		47.807115	30.502300	-12.339227
44991		47.827315	30.508335	-12.361013
44992		47.850841	30.513755	-12.380434
44993		47.877272	30.515848	-12.404623
44994		47.900018	30.524604	-12.432570
44995		47.920193	30.536360	-12.454132
44996		47.939152	30.554567	-12.467762
44997		47.944826	30.574881	-12.481820
44998		47.945700	30.592669	-12.493159
44999		47.946484	30.607100	-12.502039
45000		47.954617	30.618879	-12.513840
45001		47.967341	30.630517	-12.523105
45002		47.985187	30.646675	-12.528928
45003		48.004680	30.659473	-12.536553
45004		48.019301	30.675435	-12.541540
45005		48.028709	30.692615	-12.550399
45006		48.039637	30.716712	-12.565312
45007		48.057206	30.745482	-12.589346
45008		48.087173	30.778115	-12.628996
45009		48.141939	30.813079	-12.677159
45010		48.224373	30.856814	-12.725385
45011		48.324880	30.903723	-12.758056
45012		48.423767	30.952884	-12.771274
45013		48.505864	30.995118	-12.766441
45014		48.568377	31.031567	-12.759323
45015		48.599469	31.056012	-12.758032
45016		48.616005	31.078348	-12.769491
45017		48.628407	31.102687	-12.784459
45018		48.634109	31.134824	-12.807658
45019		48.633401	31.162824	-12.844881
45020		48.635443	31.190790	-12.883180
45021		48.638981	31.215596	-12.915524
45022		48.645351	31.243504	-12.936440
45023		48.662268	31.265818	-12.956948
45024		48.690020	31.282920	-12.976942
45025		48.713695	31.299202	-12.997809
45026		48.748338	31.314692	-13.013160
45027		48.779510	31.327262	-13.030730
45028		48.816316	31.338488	-13.050409
45029		48.854379	31.344768	-13.081396
45030		48.891908	31.356587	-13.108358
45031		48.924715	31.374349	-13.122017
45032		48.937441	31.392157	-13.131572
45033		48.943175	31.403383	-13.143754
45034		48.947293	31.415592	-13.155331
45035		48.954968	31.418946	-13.167911
45036		48.965340	31.424378	-13.180039
45037		48.976974	31.430182	-13.189938
45038		48.992522	31.437533	-13.194738
45039		49.008973	31.440876	-13.199795
45040		49.023778	31.444598	-13.204691
45041		49.034058	31.444611	-13.212495
45042		49.040964	31.448652	-13.213078
45043		49.039153	31.448759	-13.214326
45044		49.031959	31.446879	-13.216358
45045		49.020351	31.442256	-13.215182
45046		49.008645	31.438830	-13.209742
45047		48.997852	31.434398	-13.201918
45048		48.993628	31.433154	-13.183820
45049		48.989983	31.428707	-13.163102
45050		48.986630	31.426637	-13.152288
45051		48.987904	31.418370	-13.158845
45052		49.003277	31.410346	-13.178485
45053		49.035271	31.403491	-13.207332
45054		49.078149	31.402022	-13.234388
45055		49.118218	31.402224	-13.254870
45056		49.145683	31.409517	-13.263011
45057		49.157301	31.416948	-13.267104
45058		49.155115	31.423204	-13.271410
45059		49.144079	31.424843	-13.278802
45060		49.136743	31.425644	-13.288763
45061		49.133092	31.429187	-13.297927
45062		49.131832	31.441927	-13.302664
45063		49.126955	31.459024	-13.305257
45064		49.124616	31.474516	-13.311787
45065		49.123749	31.485380	-13.318975
45066		49.125324	31.496114	-13.325146
45067		49.119960	31.502577	-13.327222
45068		49.114024	31.507998	-13.326253
45069		49.105992	31.510780	-13.321539
45070		49.097680	31.514565	-13.323090
45071		49.096498	31.513938	-13.329711
45072		49.098106	31.515193	-13.343877
45073		49.102377	31.516152	-13.363772
45074		49.119269	31.519031	-13.379783
45075		49.140784	31.523852	-13.397241
45076		49.158846	31.529003	-13.410852
45077		49.165890	31.531852	-13.415706
45078		49.163617	31.535480	-13.409281
45079		49.149030	31.533063	-13.398987
45080		49.131716	31.530856	-13.387891
45081		49.113983	31.526726	-13.382052
45082		49.103386	31.526709	-13.387262
45083		49.102802	31.523926	-13.399922
45084		49.108183	31.522469	-13.417690
45085		49.122275	31.523446	-13.430721
45086		49.141381	31.528131	-13.436293
45087		49.157164	31.528876	-13.431016
45088		49.162264	31.526635	-13.419917
45089		49.161593	31.520591	-13.418035
45090		49.158221	31.516751	-13.422539
45091		49.157875	31.513851	-13.438112
45092		49.164292	31.510145	-13.463157
45093		49.176390	31.504984	-13.488933
45094		49.199179	31.500149	-13.514031
45095		49.228806	31.492488	-13.540630
45096		49.266320	31.487266	-13.560284
45097		49.295528	31.482820	-13.569516
45098		49.310292	31.478601	-13.577298
45099		49.311162	31.474567	-13.584332
45100		49.301750	31.470262	-13.592853
45101		49.290155	31.466666	-13.609664
45102		49.285245	31.468052	-13.631289
45103		49.288570	31.472489	-13.651956
45104		49.292194	31.478093	-13.668727
45105		49.298138	31.482268	-13.677015
45106		49.304255	31.483187	-13.686766
45107		49.313141	31.481844	-13.689713
45108		49.323478	31.481740	-13.693378
45109		49.328920	31.482342	-13.700113
45110		49.331472	31.485296	-13.705110
45111		49.327378	31.488183	-13.709895
45112		49.324272	31.492226	-13.714323
45113		49.317525	31.492817	-13.720027
45114		49.317691	31.490475	-13.730968
45115		49.322862	31.486707	-13.739380
45116		49.327859	31.484853	-13.742462
45117		49.324759	31.481521	-13.739617
45118		49.320465	31.481426	-13.734560
45119		49.310716	31.484209	-13.730621
45120		49.299883	31.483622	-13.729063
45121		49.289161	31.479844	-13.729966
45122		49.286902	31.477532	-13.733217
45123		49.288170	31.480942	-13.730435
45124		49.281272	31.487072	-13.727303
45125		49.269178	31.488848	-13.729823
45126		49.266094	31.485698	-13.735996
45127		49.276126	31.479391	-13.743677
45128		49.291685	31.478924	-13.746244
45129		49.292803	31.478858	-13.738420
45130		49.279665	31.483454	-13.723466
45131		49.259632	31.483712	-13.709738
45132		49.250714	31.481832	-13.707429
45133		49.252812	31.475884	-13.711131
45134		49.257701	31.475574	-13.709111
45135		49.254379	31.476786	-13.700173
45136		49.245531	31.479310	-13.693299
45137		49.237597	31.478683	-13.687098
45138		49.235680	31.480846	-13.683488
45139		49.234401	31.479818	-13.682850
45140		49.232099	31.480417	-13.683820
45141		49.226565	31.478998	-13.686141
45142		49.223057	31.480233	-13.687230
45143		49.220714	31.482712	-13.687815
45144		49.216485	31.483982	-13.685578
45145		49.211288	31.484770	-13.688139
45146		49.205197	31.485040	-13.692896
45147		49.206175	31.484002	-13.696606
45148		49.211357	31.485003	-13.700211
45149		49.213006	31.486196	-13.701054
45150		49.215664	31.490016	-13.699802
45151		49.218531	31.491406	-13.699936
45152		49.217841	31.494171	-13.704129
45153		49.215908	31.495001	-13.711888
45154		49.211348	31.492413	-13.720472
45155		49.201912	31.492942	-13.725683
45156		49.197917	31.494775	-13.730220
45157		49.194152	31.497829	-13.732719
45158		49.193032	31.504977	-13.731836
45159		49.188107	31.508007	-13.729803
45160		49.185882	31.513625	-13.730175
45161		49.183079	31.511659	-13.733781
45162		49.181181	31.518097	-13.730717
45163		49.176748	31.521147	-13.729382
45164		49.175616	31.524636	-13.731920
45165		49.174404	31.527154	-13.732007
45166		49.169733	31.529151	-13.728118
45167		49.159094	31.528399	-13.721437
45168		49.150556	31.528084	-13.714558
45169		49.142679	31.527469	-13.708120
45170		49.138212	31.528175	-13.699119
45171		49.135371	31.525675	-13.699190
45172		49.139336	31.523651	-13.706328
45173		49.141763	31.522016	-13.712935
45174		49.137317	31.523957	-13.711857
45175		49.122180	31.522973	-13.705521
45176		49.104935	31.522274	-13.692179
45177		49.083708	31.519576	-13.682390
45178		49.067016	31.519641	-13.668422
45179		49.051803	31.516633	-13.655457
45180		49.038888	31.513371	-13.641115
45181		49.030831	31.509342	-13.630173
45182		49.034674	31.505206	-13.635627
45183		49.047146	31.504635	-13.650783
45184		49.060982	31.508310	-13.654611
45185		49.061814	31.511142	-13.647504
45186		49.054368	31.511739	-13.635416
45187		49.043131	31.511962	-13.619074
45188		49.032198	31.511814	-13.599423
45189		49.021559	31.507003	-13.587635
45190		49.018793	31.504050	-13.586404
45191		49.032392	31.505876	-13.595412
45192		49.054855	31.512711	-13.608525
45193		49.071943	31.520690	-13.610408
45194		49.075783	31.527396	-13.610720
45195		49.073113	31.530764	-13.604558
45196		49.065920	31.535579	-13.595826
45197		49.056213	31.540756	-13.585583
45198		49.045246	31.548898	-13.577230
45199		49.031477	31.557252	-13.570204
45200		49.018595	31.566683	-13.562614
45201		49.007928	31.576066	-13.552196
45202		49.001766	31.588225	-13.537672
45203		48.991094	31.599904	-13.520434
45204		48.976562	31.610079	-13.507360
45205		48.960573	31.618463	-13.495947
45206		48.947579	31.626399	-13.490653
45207		48.943115	31.633060	-13.491875
45208		48.943450	31.640119	-13.497648
45209		48.950526	31.647459	-13.499892
45210		48.958785	31.655992	-13.494634
45211		48.969369	31.665765	-13.488908
45212		48.983423	31.675311	-13.485865
45213		48.993765	31.679911	-13.491661
45214		48.999919	31.684461	-13.497962
45215		49.001474	31.691475	-13.500101
45216		49.004579	31.701730	-13.498772
45217		49.011567	31.706275	-13.495048
45218		49.017731	31.713239	-13.490008
45219		49.023731	31.718511	-13.485071
45220		49.033698	31.725796	-13.476226
45221		49.039668	31.732613	-13.465006
45222		49.044430	31.743292	-13.449897
45223		49.043527	31.751975	-13.434139
45224		49.045233	31.765322	-13.418773
45225		49.051293	31.780190	-13.400312
45226		49.056325	31.794453	-13.384583
45227		49.061416	31.799701	-13.377494
45228		49.075426	31.800683	-13.373332
45229		49.093299	31.798951	-13.364206
45230		49.113124	31.802717	-13.346944
45231		49.126293	31.807402	-13.325257
45232		49.123767	31.813348	-13.309802
45233		49.125342	31.813610	-13.294676
45234		49.131953	31.817953	-13.279385
45235		49.142472	31.817346	-13.261197
45236		49.148013	31.814363	-13.251730
45237		49.151094	31.805917	-13.246118
45238		49.158761	31.800961	-13.234739
45239		49.164201	31.792787	-13.223058
45240		49.167270	31.786183	-13.209352
45241		49.166348	31.773336	-13.198862
45242		49.170442	31.760338	-13.186791
45243		49.181121	31.746026	-13.179106
45244		49.193722	31.734697	-13.178581
45245		49.198545	31.723373	-13.183464
45246		49.204152	31.716460	-13.190449
45247		49.211697	31.708690	-13.197902
45248		49.235512	31.704359	-13.200674
45249		49.261844	31.692875	-13.199949
45250		49.280947	31.681884	-13.201014
45251		49.291090	31.664349	-13.204607
45252		49.302411	31.642839	-13.209415
45253		49.318164	31.620668	-13.217013
45254		49.337816	31.600357	-13.221512
45255		49.355760	31.580532	-13.223232
45256		49.367906	31.559837	-13.225140
45257		49.378615	31.533174	-13.227524
45258		49.387577	31.505980	-13.224175
45259		49.389141	31.476095	-13.216592
45260		49.385969	31.449775	-13.206019
45261		49.379721	31.426069	-13.193025
45262		49.372736	31.401825	-13.174913
45263		49.361893	31.375038	-13.155331
45264		49.351936	31.347778	-13.136424
45265		49.340968	31.320296	-13.118931
45266		49.331907	31.295225	-13.099914
45267		49.323459	31.271343	-13.086032
45268		49.320889	31.250143	-13.070275
45269		49.318020	31.228174	-13.050465
45270		49.307958	31.203164	-13.025342
45271		49.294048	31.172832	-12.996671
45272		49.278152	31.139734	-12.966006
45273		49.254995	31.108992	-12.930451
45274		49.224174	31.083065	-12.891626
45275		49.185679	31.060175	-12.850792
45276		49.144422	31.041479	-12.813509
45277		49.100883	31.021752	-12.779936
45278		49.060779	31.002085	-12.757765
45279		49.024552	30.980717	-12.749790
45280		48.998210	30.962109	-12.748213
45281		48.989250	30.945768	-12.746534
45282		48.998821	30.931470	-12.740217
45283		49.015926	30.920614	-12.720632
45284		49.019263	30.912915	-12.689523
45285		48.997053	30.905967	-12.648797
45286		48.953372	30.895213	-12.600963
45287		48.894598	30.881411	-12.548375
45288		48.822523	30.866945	-12.497750
45289		48.742272	30.854602	-12.450720
45290		48.661305	30.847311	-12.408253
45291		48.582537	30.841261	-12.367553
45292		48.517392	30.832510	-12.334794
45293		48.468686	30.819372	-12.306107
45294		48.439203	30.805404	-12.278840
45295		48.419556	30.789700	-12.247914
45296		48.399916	30.777839	-12.215724
45297		48.372949	30.764071	-12.178470
45298		48.337547	30.747719	-12.146166
45299		48.298176	30.729591	-12.112912
45300		48.259969	30.712228	-12.086506
45301		48.228680	30.692897	-12.062179
45302		48.204945	30.676266	-12.040527
45303		48.191145	30.657742	-12.023671
45304		48.187174	30.636369	-12.009090
45305		48.187359	30.613613	-11.996058
45306		48.186784	30.594638	-11.978893
45307		48.182989	30.575474	-11.958241
45308		48.175385	30.559049	-11.936699
45309		48.157293	30.546916	-11.912794
45310		48.136469	30.536207	-11.889707
45311		48.112682	30.524324	-11.871806
45312		48.093740	30.514891	-11.860892
45313		48.080017	30.505369	-11.861616
45314		48.076474	30.498762	-11.860437
45315		48.086630	30.489195	-11.861817
45316		48.105237	30.480316	-11.859067
45317		48.123797	30.471462	-11.849526
45318		48.132803	30.464519	-11.830851
45319		48.125291	30.458787	-11.806892
45320		48.101888	30.453813	-11.776736
45321		48.068389	30.452450	-11.747031
45322		48.031706	30.448802	-11.719840
45323		47.996691	30.444914	-11.700634
45324		47.972957	30.440978	-11.687918
45325		47.957160	30.438642	-11.680632
45326		47.956410	30.432926	-11.678615
45327		47.963685	30.427612	-11.677063
45328		47.981007	30.421535	-11.673305
45329		47.997191	30.415339	-11.667252
45330		48.014181	30.408665	-11.656795
45331		48.020393	30.403514	-11.639405
45332		48.013537	30.399862	-11.625063
45333		48.006193	30.394565	-11.614201
45334		48.005731	30.389653	-11.608790
45335		48.005761	30.383958	-11.602518
45336		47.998493	30.380820	-11.596635
45337		47.991450	30.376159	-11.587747
45338		47.990334	30.372759	-11.576783
45339		47.994517	30.365902	-11.569082
45340		47.999703	30.360708	-11.558080
45341		47.998086	30.355692	-11.545737
45342		47.992243	30.351967	-11.537475
45343		47.989626	30.343930	-11.537077
45344		47.994219	30.339934	-11.535670
45345		47.995618	30.341423	-11.536429
45346		47.994908	30.339257	-11.536086
45347		47.993594	30.336862	-11.539308
45348		47.995467	30.332614	-11.542651
45349		48.000148	30.327698	-11.544172
45350		48.001126	30.324901	-11.544230
45351		47.997010	30.322474	-11.542631
45352		47.996115	30.320990	-11.543426
45353		47.999862	30.316751	-11.542784
45354		47.998782	30.315950	-11.544716
45355		47.991909	30.312550	-11.548866
45356		47.992173	30.309571	-11.555725
45357		47.998300	30.303343	-11.565584
45358		48.002812	30.297755	-11.571483
45359		48.000967	30.294676	-11.569985
45360		47.993692	30.294348	-11.566899
45361		47.981907	30.292073	-11.569394
45362		47.973394	30.287885	-11.575973
45363		47.970298	30.284611	-11.581330
45364		47.971751	30.283790	-11.590871
45365		47.972559	30.279205	-11.602550
45366		47.983192	30.275313	-11.612343
45367		47.999530	30.270277	-11.620048
45368		48.008660	30.266333	-11.628304
45369		48.009737	30.266304	-11.628443
45370		48.004649	30.265364	-11.626271
45371		47.993839	30.265386	-11.628060
45372		47.984614	30.264775	-11.633012
45373		47.975752	30.260479	-11.641130
45374		47.968800	30.257083	-11.648115
45375		47.962078	30.251554	-11.652876
45376		47.963723	30.247241	-11.658480
45377		47.972213	30.240314	-11.668469
45378		47.978626	30.239880	-11.673047
45379		47.980460	30.236996	-11.673969
45380		47.971308	30.237979	-11.671619
45381		47.956219	30.240028	-11.669869
45382		47.939975	30.241977	-11.670438
45383		47.925867	30.240325	-11.673260
45384		47.921865	30.237246	-11.673230
45385		47.919373	30.235704	-11.676868
45386		47.925052	30.232382	-11.680399
45387		47.928206	30.229398	-11.690068
45388		47.934554	30.224557	-11.699145
45389		47.940730	30.218868	-11.708969
45390		47.948868	30.214888	-11.716192
45391		47.953072	30.206316	-11.726102
45392		47.956364	30.197820	-11.730433
45393		47.953770	30.188974	-11.731233
45394		47.947579	30.183702	-11.727491
45395		47.935221	30.176525	-11.729481
45396		47.920459	30.171198	-11.738325
45397		47.906592	30.167844	-11.751191
45398		47.900143	30.166402	-11.767643
45399		47.894305	30.167014	-11.785377
45400		47.898141	30.164030	-11.800853
45401		47.903523	30.159761	-11.816964
45402		47.912583	30.160791	-11.826894
45403		47.918315	30.159557	-11.831919
45404		47.921267	30.159749	-11.831781
45405		47.920602	30.159080	-11.828031
45406		47.914508	30.158104	-11.824832
45407		47.906868	30.156881	-11.824507
45408		47.899198	30.156191	-11.836030
45409		47.901011	30.154065	-11.873776
45410		47.925920	30.159345	-11.925355
45411		47.965292	30.170700	-11.996737
45412		48.022651	30.192427	-12.069323
45413		48.084587	30.221034	-12.132848
45414		48.147807	30.254419	-12.181290
45415		48.204115	30.283931	-12.223148
45416		48.259819	30.307782	-12.261644
45417		48.304208	30.326587	-12.304422
45418		48.342522	30.339994	-12.347980
45419		48.378669	30.358208	-12.390136
45420		48.416316	30.375819	-12.435990
45421		48.459527	30.392958	-12.486253
45422		48.507456	30.411834	-12.533910
45423		48.565741	30.435840	-12.572620
45424		48.629078	30.460451	-12.596270
45425		48.678543	30.484586	-12.607688
45426		48.701106	30.510938	-12.608876
45427		48.707153	30.531387	-12.606897
45428		48.702995	30.549858	-12.603997
45429		48.691492	30.562781	-12.605517
45430		48.676856	30.576896	-12.610422
45431		48.669286	30.589955	-12.616948
45432		48.674318	30.607187	-12.628330
45433		48.689221	30.622068	-12.637625
45434		48.706282	30.640790	-12.644994
45435		48.726019	30.656081	-12.650294
45436		48.744333	30.672214	-12.648546
45437		48.759742	30.687678	-12.642132
45438		48.766560	30.703190	-12.638716
45439		48.766260	30.716681	-12.644736
45440		48.771752	30.726728	-12.658351
45441		48.784722	30.734457	-12.670895
45442		48.804160	30.744571	-12.684797
45443		48.831919	30.750245	-12.697004
45444		48.865526	30.756948	-12.707247
45445		48.898041	30.763700	-12.716094
45446		48.928266	30.768967	-12.717683
45447		48.949244	30.774680	-12.710159
45448		48.951486	30.779301	-12.702190
45449		48.946108	30.784971	-12.695092
45450		48.935709	30.786506	-12.697982
45451		48.929438	30.789534	-12.706687
45452		48.934887	30.792394	-12.722033
45453		48.945777	30.795546	-12.737610
45454		48.963227	30.799140	-12.750052
45455		48.986851	30.803218	-12.755877
45456		49.009625	30.808856	-12.753700
45457		49.024654	30.812731	-12.751491
45458		49.032158	30.813825	-12.754827
45459		49.035640	30.814660	-12.763397
45460		49.045165	30.815712	-12.773844
45461		49.059869	30.816283	-12.787555
45462		49.079058	30.816342	-12.802659
45463		49.101861	30.815958	-12.815022
45464		49.125592	30.817125	-12.823470
45465		49.145717	30.821166	-12.825508
45466		49.157082	30.823922	-12.827879
45467		49.162496	30.827897	-12.826362
45468		49.163155	30.830767	-12.829253
45469		49.162438	30.832209	-12.834770
45470		49.166611	30.835195	-12.841242
45471		49.175781	30.835609	-12.849595
45472		49.191126	30.837649	-12.862258
45473		49.206971	30.841421	-12.868073
45474		49.219238	30.842727	-12.873739
45475		49.230537	30.842111	-12.873709
45476		49.240073	30.840474	-12.876301
45477		49.249160	30.837488	-12.878398
45478		49.258142	30.835093	-12.881617
45479		49.267838	30.834913	-12.885481
45480		49.278932	30.834067	-12.888472
45481		49.287577	30.834589	-12.891476
45482		49.295902	30.829954	-12.897597
45483		49.308727	30.828471	-12.899807
45484		49.325036	30.827110	-12.906778
45485		49.342267	30.825074	-12.915445
45486		49.360484	30.822297	-12.926740
45487		49.379919	30.823278	-12.938141
45488		49.400161	30.824210	-12.948070
45489		49.418560	30.826479	-12.962405
45490		49.440320	30.833797	-12.978305
45491		49.464367	30.839072	-13.000159
45492		49.487030	30.844941	-13.019359
45493		49.503306	30.849151	-13.036226
45494		49.517480	30.851732	-13.054071
45495		49.529156	30.852193	-13.070482
45496		49.537507	30.853791	-13.086115
45497		49.539743	30.856758	-13.098985
45498		49.539655	30.855809	-13.112125
45499		49.537520	30.854785	-13.128171
45500		49.536688	30.853756	-13.143077
45501		49.537222	30.851574	-13.156179
45502		49.538577	30.850036	-13.166927
45503		49.538026	30.849932	-13.177835
45504		49.540344	30.851330	-13.187330
45505		49.547301	30.851730	-13.190619
45506		49.552022	30.855478	-13.196468
45507		49.556767	30.856534	-13.198889
45508		49.558353	30.858808	-13.198879
45509		49.552019	30.858506	-13.201437
45510		49.547507	30.858886	-13.207697
45511		49.550689	30.861814	-13.217642
45512		49.558495	30.866294	-13.230488
45513		49.572440	30.872738	-13.235977
45514		49.581122	30.879626	-13.238574
45515		49.583387	30.884825	-13.239593
45516		49.582239	30.890490	-13.240954
45517		49.580017	30.894689	-13.242709
45518		49.578961	30.898193	-13.245209
45519		49.576254	30.900313	-13.248345
45520		49.573179	30.900108	-13.252216
45521		49.569012	30.894254	-13.255150
45522		49.565510	30.891979	-13.254582
45523		49.560670	30.885371	-13.259641
45524		49.556944	30.882925	-13.266416
45525		49.552168	30.880514	-13.272319
45526		49.550846	30.880419	-13.275446
45527		49.550255	30.883347	-13.278887
45528		49.546733	30.887509	-13.277694
45529		49.540375	30.890197	-13.277680
45530		49.540450	30.892422	-13.276138
45531		49.542225	30.893382	-13.275105
45532		49.544338	30.892879	-13.272818
45533		49.545603	30.890923	-13.274173
45534		49.549437	30.889681	-13.277346
45535		49.557064	30.888644	-13.281241
45536		49.564760	30.889061	-13.283440
45537		49.569731	30.889525	-13.284429
45538		49.574601	30.889165	-13.282422
45539		49.572846	30.887846	-13.280280
45540		49.573448	30.887294	-13.276460
45541		49.571560	30.885933	-13.275260
45542		49.571027	30.883016	-13.278898
45543		49.576391	30.881802	-13.283338
45544		49.580300	30.884835	-13.287024
45545		49.585975	30.888147	-13.289353
45546		49.593578	30.890724	-13.290413
45547		49.596549	30.891057	-13.289430
45548		49.597801	30.892743	-13.282707
45549		49.594241	30.893569	-13.279571
45550		49.592104	30.892765	-13.280538
45551		49.588555	30.893332	-13.282940
45552		49.583991	30.892971	-13.290344
45553		49.580409	30.889909	-13.296447
45554		49.585059	30.889377	-13.301781
45555		49.591284	30.886256	-13.305075
45556		49.600684	30.886041	-13.307666
45557		49.610516	30.888093	-13.309232
45558		49.619676	30.887815	-13.314100
45559		49.628995	30.885511	-13.319067
45560		49.635588	30.884411	-13.322519
45561		49.636426	30.886053	-13.324496
45562		49.635919	30.886672	-13.329786
45563		49.635965	30.886661	-13.335432
45564		49.642198	30.886810	-13.346225
45565		49.650243	30.887930	-13.354856
45566		49.655998	30.888913	-13.358935
45567		49.656611	30.888308	-13.365415
45568		49.660061	30.888424	-13.370867
45569		49.665593	30.888700	-13.377535
45570		49.672906	30.886830	-13.385424
45571		49.668386	30.886587	-13.392233
45572		49.664206	30.884870	-13.397363
45573		49.664311	30.882705	-13.404681
45574		49.674697	30.885315	-13.411082
45575		49.684514	30.886551	-13.413733
45576		49.684558	30.887927	-13.418396
45577		49.686366	30.889554	-13.422111
45578		49.696081	30.893676	-13.422936
45579		49.699459	30.899040	-13.423991
45580		49.698496	30.904025	-13.424217
45581		49.693493	30.907406	-13.426958
45582		49.690034	30.912202	-13.429696
45583		49.685567	30.917161	-13.431338
45584		49.685492	30.927128	-13.434236
45585		49.688770	30.937398	-13.441938
45586		49.693848	30.955219	-13.457170
45587		49.704339	30.976446	-13.465330
45588		49.713408	31.001891	-13.467681
45589		49.715161	31.026392	-13.466110
45590		49.711769	31.049052	-13.466973
45591		49.703354	31.068035	-13.471014
45592		49.691717	31.087362	-13.473347
45593		49.673531	31.109312	-13.476765
45594		49.657720	31.126171	-13.483518
45595		49.644382	31.141783	-13.494431
45596		49.638557	31.158437	-13.502395
45597		49.634976	31.171179	-13.508846
45598		49.631822	31.180180	-13.514913
45599		49.626629	31.187733	-13.520511
45600		49.623344	31.191839	-13.522130
45601		49.616732	31.194205	-13.530364
45602		49.605886	31.196875	-13.545761
45603		49.595397	31.196713	-13.565790
45604		49.591080	31.196057	-13.586158
45605		49.589703	31.196404	-13.604311
45606		49.596138	31.199275	-13.620687
45607		49.608787	31.204897	-13.634208
45608		49.624707	31.211318	-13.642782
45609		49.636432	31.214832	-13.651481
45610		49.647865	31.214570	-13.661154
45611		49.657454	31.217862	-13.668784
45612		49.666137	31.220979	-13.679848
45613		49.675309	31.222083	-13.693202
45614		49.682245	31.224971	-13.710091
45615		49.690876	31.226800	-13.722881
45616		49.698797	31.229952	-13.730644
45617		49.705888	31.234748	-13.734193
45618		49.707862	31.235553	-13.736975
45619		49.710120	31.236482	-13.742360
45620		49.715769	31.239621	-13.745293
45621		49.721592	31.241529	-13.748037
45622		49.726884	31.243236	-13.750458
45623		49.731567	31.242097	-13.756106
45624		49.742684	31.241261	-13.759053
45625		49.757358	31.238069	-13.757835
45626		49.767995	31.230910	-13.755821
45627		49.777502	31.217375	-13.754945
45628		49.787149	31.200236	-13.750883
45629		49.793715	31.181807	-13.740601
45630		49.796136	31.162335	-13.727759
45631		49.795062	31.132214	-13.716058
45632		49.785229	31.099215	-13.704653
45633		49.772611	31.059249	-13.689805
45634		49.756295	31.016707	-13.674665
45635		49.734358	30.974052	-13.659808
45636		49.712871	30.932640	-13.644619
45637		49.693770	30.895076	-13.629923
45638		49.675804	30.863720	-13.619322
45639		49.664822	30.837711	-13.612277
45640		49.658470	30.817531	-13.608239
45641		49.655765	30.799282	-13.600073
45642		49.650881	30.782906	-13.589099
45643		49.639373	30.765080	-13.573674
45644		49.623419	30.744594	-13.559937
45645		49.605812	30.721267	-13.543999
45646		49.579169	30.695315	-13.525214
45647		49.547737	30.667894	-13.500549
45648		49.517901	30.636936	-13.474252
45649		49.488923	30.606330	-13.445018
45650		49.454196	30.577320	-13.415253
45651		49.414400	30.548861	-13.385642
45652		49.376386	30.523333	-13.351671
45653		49.335067	30.496487	-13.313523
45654		49.292399	30.470183	-13.271031
45655		49.245579	30.446333	-13.218035
45656		49.194399	30.426497	-13.153896
45657		49.135167	30.410689	-13.088417
45658		49.067989	30.393538	-13.024741
45659		48.996693	30.378353	-12.967123
45660		48.927090	30.366477	-12.916557
45661		48.864071	30.356260	-12.877388
45662		48.812946	30.351339	-12.847367
45663		48.777580	30.348135	-12.820676
45664		48.750285	30.344366	-12.797239
45665		48.730388	30.341234	-12.772345
45666		48.715667	30.336040	-12.747659
45667		48.698102	30.334300	-12.726201
45668		48.677047	30.333695	-12.704373
45669		48.653819	30.332357	-12.683176
45670		48.625109	30.331960	-12.664917
45671		48.597231	30.331786	-12.644415
45672		48.569297	30.332214	-12.623278
45673		48.538707	30.332698	-12.601370
45674		48.505728	30.329314	-12.578514
45675		48.468110	30.327976	-12.555875
45676		48.429907	30.324248	-12.535226
45677		48.396937	30.317932	-12.521233
45678		48.373073	30.311167	-12.510914
45679		48.357073	30.304307	-12.500843
45680		48.348629	30.296894	-12.493457
45681		48.341068	30.289815	-12.483004
45682		48.331516	30.284538	-12.473484
45683		48.324835	30.276764	-12.460712
45684		48.316975	30.268063	-12.448789
45685		48.307477	30.259421	-12.437048
45686		48.297410	30.251334	-12.424224
45687		48.284265	30.243160	-12.414912
45688		48.273426	30.234244	-12.404964
45689		48.261311	30.223986	-12.393081
45690		48.247170	30.214163	-12.383462
45691		48.235974	30.206250	-12.371136
45692		48.229297	30.196899	-12.359093
45693		48.226615	30.185042	-12.349089
45694		48.232924	30.169135	-12.341918
45695		48.241218	30.153624	-12.332056
45696		48.246601	30.135513	-12.324988
45697		48.252916	30.116349	-12.310281
45698		48.253369	30.101919	-12.287477
45699		48.245274	30.090368	-12.253066
45700		48.227012	30.080950	-12.217003
45701		48.200867	30.074122	-12.179925
45702		48.164985	30.070829	-12.146711
45703		48.127635	30.070281	-12.120824
45704		48.099800	30.064885	-12.104156
45705		48.082965	30.060082	-12.094989
45706		48.081564	30.053737	-12.088572
45707		48.092998	30.048229	-12.082287
45708		48.111987	30.045149	-12.075535
45709		48.129885	30.042194	-12.069076
45710		48.137955	30.040027	-12.058929
45711		48.134636	30.037526	-12.046398
45712		48.127144	30.034649	-12.030519
45713		48.114194	30.032931	-12.018819
45714		48.098938	30.031698	-12.006498
45715		48.084664	30.031345	-11.995561
45716		48.075023	30.031025	-11.987716
45717		48.069032	30.028162	-11.980107
45718		48.070133	30.027600	-11.976793
45719		48.076043	30.022432	-11.975076
45720		48.083024	30.019937	-11.976215
45721		48.089358	30.013217	-11.977387
45722		48.094776	30.009931	-11.978123
45723		48.096660	30.008088	-11.980215
45724		48.102934	30.003458	-11.979194
45725		48.098660	29.995439	-11.981663
45726		48.093542	29.990858	-11.982881
45727		48.088504	29.984918	-11.985510
45728		48.091554	29.979272	-11.989836
45729		48.094293	29.972160	-11.999611
45730		48.105255	29.964642	-12.010428
45731		48.119328	29.955981	-12.019953
45732		48.136140	29.947386	-12.029084
45733		48.149878	29.938822	-12.036244
45734		48.159030	29.931306	-12.042775
45735		48.166575	29.923808	-12.049584
45736		48.172135	29.913838	-12.060941
45737		48.174707	29.905278	-12.073935
45738		48.179190	29.900245	-12.085947
45739		48.188272	29.891345	-12.101158
45740		48.198525	29.883745	-12.113731
45741		48.208051	29.878572	-12.120903
45742		48.212029	29.875127	-12.125141
45743		48.209561	29.873797	-12.125690
45744		48.201698	29.869075	-12.126614
45745		48.193889	29.863088	-12.129212
45746		48.190634	29.859248	-12.133595
45747		48.188594	29.855603	-12.137867
45748		48.187198	29.852503	-12.145418
45749		48.188246	29.846847	-12.154289
45750		48.195491	29.841953	-12.166589
45751		48.204920	29.836111	-12.175507
45752		48.218310	29.829642	-12.177721
45753		48.222676	29.827261	-12.177972
45754		48.225612	29.820985	-12.178408
45755		48.225105	29.816219	-12.179338
45756		48.223932	29.811131	-12.180728
45757		48.218706	29.804501	-12.186197
45758		48.216942	29.799961	-12.193227
45759		48.222073	29.796067	-12.198616
45760		48.225465	29.793170	-12.208494
45761		48.233211	29.790845	-12.214191
45762		48.246010	29.784924	-12.222050
45763		48.255456	29.779135	-12.225068
45764		48.262608	29.775962	-12.225093
45765		48.264662	29.772609	-12.227279
45766		48.261960	29.769530	-12.231047
45767		48.259209	29.766658	-12.236204
45768		48.262157	29.760830	-12.247807
45769		48.269371	29.754109	-12.257593
45770		48.283564	29.749659	-12.266993
45771		48.299869	29.746399	-12.271708
45772		48.314724	29.742889	-12.273228
45773		48.326725	29.740364	-12.269594
45774		48.328996	29.739159	-12.266181
45775		48.324686	29.737836	-12.262801
45776		48.320774	29.739068	-12.263326
45777		48.315167	29.737410	-12.268127
45778		48.313312	29.735043	-12.274045
45779		48.316142	29.730331	-12.281083
45780		48.318506	29.729011	-12.282685
45781		48.318746	29.730709	-12.281390
45782		48.316400	29.730677	-12.278418
45783		48.312283	29.730709	-12.277628
45784		48.306979	29.730470	-12.276616
45785		48.302644	29.724692	-12.278034
45786		48.297544	29.726573	-12.278672
45787		48.292624	29.725798	-12.281293
45788		48.288675	29.726285	-12.282939
45789		48.285431	29.727776	-12.283324
45790		48.283153	29.731289	-12.282012
45791		48.277847	29.732764	-12.280593
45792		48.273633	29.734046	-12.278357
45793		48.266798	29.733897	-12.277114
45794		48.258646	29.735687	-12.274700
45795		48.250226	29.736841	-12.277084
45796		48.244446	29.739385	-12.278346
45797		48.238877	29.742185	-12.278433
45798		48.232795	29.744779	-12.276935
45799		48.224079	29.746729	-12.275787
45800		48.218506	29.749338	-12.274798
45801		48.212672	29.749330	-12.274544
45802		48.206284	29.754027	-12.274190
45803		48.200429	29.756926	-12.271268
45804		48.194310	29.758773	-12.270892
45805		48.192729	29.758889	-12.272841
45806		48.193668	29.755351	-12.274020
45807		48.194416	29.753428	-12.277006
45808		48.199292	29.749383	-12.278362
45809		48.201182	29.745317	-12.283207
45810		48.201063	29.743056	-12.288394
45811		48.198520	29.741519	-12.296288
45812		48.197043	29.740584	-12.302721
45813		48.192982	29.740663	-12.307206
45814		48.190761	29.743308	-12.312033
45815		48.190587	29.743366	-12.316942
45816		48.198621	29.743700	-12.321891
45817		48.201981	29.742630	-12.325954
45818		48.206147	29.744963	-12.328487
45819		48.210125	29.746168	-12.329629
45820		48.212459	29.750559	-12.331779
45821		48.209314	29.755595	-12.333677
45822		48.207163	29.759731	-12.336264
45823		48.204168	29.760434	-12.340920
45824		48.203878	29.758850	-12.347239
45825		48.213928	29.753724	-12.355541
45826		48.229800	29.747892	-12.366432
45827		48.248373	29.744770	-12.371124
45828		48.264761	29.743360	-12.378055
45829		48.280163	29.743646	-12.383341
45830		48.290682	29.744920	-12.384699
45831		48.297714	29.744059	-12.385293
45832		48.300284	29.742804	-12.384639
45833		48.299229	29.743077	-12.386784
45834		48.296701	29.739319	-12.389420
45835		48.296536	29.736438	-12.397387
45836		48.301342	29.732954	-12.404891
45837		48.308971	29.731977	-12.411199
45838		48.322102	29.728358	-12.413431
45839		48.330739	29.726309	-12.409979
45840		48.334303	29.731099	-12.398614
45841		48.323837	29.733869	-12.391580
45842		48.308814	29.736706	-12.389839
45843		48.300089	29.741283	-12.398134
45844		48.307342	29.748553	-12.410401
45845		48.328495	29.755257	-12.425460
45846		48.355351	29.762156	-12.437488
45847		48.381752	29.769419	-12.443702
45848		48.403897	29.782008	-12.446683
45849		48.414855	29.795670	-12.450375
45850		48.418958	29.809422	-12.453997
45851		48.412646	29.819362	-12.455045
45852		48.398635	29.828685	-12.453761
45853		48.383209	29.837549	-12.451805
45854		48.366142	29.846780	-12.447478
45855		48.350584	29.854967	-12.441779
45856		48.335149	29.860022	-12.436188
45857		48.320341	29.865487	-12.425282
45858		48.305378	29.869810	-12.421324
45859		48.293024	29.873937	-12.415268
45860		48.280233	29.876895	-12.413333
45861		48.269446	29.879362	-12.416026
45862		48.262318	29.879567	-12.421908
45863		48.260333	29.881546	-12.432487
45864		48.269001	29.884565	-12.445733
45865		48.276416	29.884809	-12.459066
45866		48.284539	29.887068	-12.472925
45867		48.291369	29.887262	-12.492220
45868		48.303430	29.884609	-12.510720
45869		48.314619	29.885957	-12.524206
45870		48.320332	29.886718	-12.535516
45871		48.322249	29.887647	-12.546993
45872		48.325337	29.888890	-12.561913
45873		48.332919	29.889021	-12.585298
45874		48.347508	29.896985	-12.613586
45875		48.365026	29.904697	-12.642320
45876		48.380283	29.914042	-12.673893
45877		48.395744	29.922929	-12.705402
45878		48.416782	29.934118	-12.733048
45879		48.434103	29.948408	-12.751283
45880		48.452116	29.962183	-12.755207
45881		48.461359	29.975709	-12.759224
45882		48.466348	29.985194	-12.763335
45883		48.470791	29.995850	-12.761837
45884		48.474836	30.011199	-12.758210
45885		48.473879	30.030129	-12.752390
45886		48.465911	30.052067	-12.744932
45887		48.455643	30.074155	-12.739691
45888		48.451353	30.098424	-12.732422
45889		48.451376	30.124601	-12.726734
45890		48.447583	30.150921	-12.723884
45891		48.437701	30.174902	-12.724394
45892		48.432620	30.197585	-12.721128
45893		48.425456	30.219197	-12.713406
45894		48.415410	30.237522	-12.702274
45895		48.400875	30.250895	-12.686603
45896		48.380195	30.261604	-12.671549
45897		48.354103	30.269296	-12.659366
45898		48.322996	30.275672	-12.652112
45899		48.299312	30.281233	-12.646006
45900		48.283216	30.285631	-12.636086
45901		48.267694	30.289012	-12.623136
45902		48.254049	30.290822	-12.607933
45903		48.241298	30.291537	-12.592205
45904		48.230295	30.291256	-12.580642
45905		48.218464	30.288033	-12.582210
45906		48.212232	30.288378	-12.584129
45907		48.210794	30.289174	-12.589886
45908		48.214128	30.293573	-12.593050
45909		48.220309	30.295380	-12.600132
45910		48.231433	30.296538	-12.606957
45911		48.240093	30.294837	-12.615089
45912		48.253999	30.294099	-12.618270
45913		48.264226	30.293360	-12.626387
45914		48.275506	30.295883	-12.635992
45915		48.283013	30.295531	-12.648896
45916		48.292241	30.293599	-12.660951
45917		48.305697	30.292229	-12.671145
45918		48.320738	30.292140	-12.679242
45919		48.336172	30.291036	-12.686013
45920		48.355167	30.290442	-12.694259
45921		48.373924	30.290034	-12.706617
45922		48.392278	30.284408	-12.714935
45923		48.406339	30.278784	-12.723283
45924		48.421875	30.274312	-12.736369
45925		48.439616	30.270268	-12.751268
45926		48.456876	30.267949	-12.767530
45927		48.483665	30.266375	-12.784864
45928		48.524183	30.266579	-12.807103
45929		48.568406	30.270185	-12.829965
45930		48.613072	30.278426	-12.853437
45931		48.658670	30.285369	-12.882114
45932		48.700930	30.296942	-12.909738
45933		48.741889	30.308095	-12.935612
45934		48.773459	30.317755	-12.959871
45935		48.798125	30.329556	-12.979932
45936		48.825617	30.340705	-12.992859
45937		48.843244	30.350175	-13.007005
45938		48.854247	30.355540	-13.016632
45939		48.859801	30.358778	-13.028657
45940		48.867610	30.363870	-13.042535
45941		48.874544	30.367145	-13.057443
45942		48.882466	30.374465	-13.067944
45943		48.888269	30.380569	-13.074663
45944		48.893273	30.386384	-13.082117
45945		48.893909	30.389558	-13.087274
45946		48.897979	30.390398	-13.092047
45947		48.904474	30.393789	-13.100104
45948		48.920847	30.398065	-13.107492
45949		48.929842	30.398694	-13.115776
45950		48.928705	30.395556	-13.126148
45951		48.932212	30.391484	-13.137905
45952		48.944243	30.390446	-13.149128
45953		48.961445	30.392961	-13.157501
45954		48.977792	30.390064	-13.166603
45955		48.990459	30.387914	-13.180215
45956		49.002084	30.384701	-13.192053
45957		49.006968	30.381418	-13.206098
45958		49.009585	30.376100	-13.226162
45959		49.016169	30.370538	-13.248147
45960		49.026608	30.366365	-13.267389
45961		49.040548	30.367087	-13.282373
45962		49.052211	30.373833	-13.295284
45963		49.057606	30.377019	-13.309070
45964		49.060381	30.379062	-13.320133
45965		49.061667	30.382169	-13.330143
45966		49.058225	30.384592	-13.341295
45967		49.055103	30.384479	-13.353836
45968		49.054564	30.381231	-13.369747
45969		49.057022	30.377009	-13.386748
45970		49.067801	30.377915	-13.403136
45971		49.085672	30.380216	-13.416615
45972		49.101791	30.383687	-13.427397
45973		49.107076	30.384931	-13.432934
45974		49.103717	30.384018	-13.435140
45975		49.093796	30.382984	-13.438059
45976		49.085976	30.385344	-13.442396
45977		49.079376	30.388125	-13.447437
45978		49.075529	30.392759	-13.454708
45979		49.075047	30.397343	-13.458399
45980		49.077262	30.400235	-13.462804
45981		49.079859	30.401328	-13.467277
45982		49.082252	30.403545	-13.470546
45983		49.077744	30.404232	-13.473670
45984		49.069839	30.402321	-13.477477
45985		49.061899	30.400889	-13.477529
45986		49.051776	30.399593	-13.480447
45987		49.045708	30.399669	-13.482743
45988		49.044058	30.398122	-13.485332
45989		49.046839	30.396386	-13.490926
45990		49.049663	30.394349	-13.494166
45991		49.051203	30.392639	-13.495185
45992		49.048532	30.391064	-13.496761
45993		49.052082	30.393064	-13.496352
45994		49.059271	30.392699	-13.499127
45995		49.064333	30.394748	-13.500420
45996		49.062277	30.395419	-13.499125
45997		49.055399	30.394676	-13.499227
45998		49.051351	30.394421	-13.502063
45999		49.052572	30.395535	-13.503517
46000		49.058632	30.397303	-13.504163
46001		49.057608	30.397586	-13.506431
46002		49.055849	30.398201	-13.507904
46003		49.059786	30.397928	-13.511765
46004		49.064791	30.398923	-13.512525
46005		49.066156	30.399439	-13.513033
46006		49.065784	30.401515	-13.516034
46007		49.068029	30.401887	-13.519286
46008		49.074090	30.403654	-13.519932
46009		49.072232	30.409686	-13.519060
46010		49.070840	30.411732	-13.521049
46011		49.074251	30.411522	-13.524416
46012		49.079767	30.412531	-13.525681
46013		49.076341	30.413593	-13.523013
46014		49.071588	30.415611	-13.519202
46015		49.062961	30.419194	-13.515545
46016		49.051191	30.424410	-13.511345
46017		49.035236	30.429741	-13.506258
46018		49.020808	30.432655	-13.502910
46019		49.010193	30.434620	-13.503989
46020		49.006437	30.438699	-13.505104
46021		49.007070	30.444016	-13.508300
46022		49.008309	30.450396	-13.513356
46023		49.009205	30.454783	-13.520700
46024		49.012441	30.457697	-13.526115
46025		49.011510	30.462283	-13.528737
46026		49.006991	30.465531	-13.532736
46027		49.005669	30.468602	-13.535279
46028		49.006102	30.470631	-13.541555
46029		49.004329	30.473596	-13.548794
46030		49.003313	30.475454	-13.558583
46031		49.003764	30.479060	-13.571126
46032		49.004037	30.482919	-13.588609
46033		48.997802	30.491188	-13.601494
46034		48.997369	30.497320	-13.612331
46035		48.988455	30.506756	-13.628455
46036		48.979989	30.517204	-13.647981
46037		48.973579	30.528016	-13.665815
46038		48.969322	30.538773	-13.682097
46039		48.969047	30.546558	-13.697571
46040		48.969078	30.551951	-13.710047
46041		48.976641	30.558165	-13.721618
46042		48.993978	30.562139	-13.742318
46043		49.018122	30.568897	-13.767383
46044		49.044636	30.571973	-13.787098
46045		49.058339	30.572838	-13.793303
46046		49.055720	30.579916	-13.790942
46047		49.044878	30.588155	-13.793313
46048		49.032080	30.592857	-13.805496
46049		49.024250	30.593835	-13.819145
46050		49.016215	30.594069	-13.821864
46051		49.007691	30.592641	-13.816690
46052		48.993495	30.591961	-13.814474
46053		48.977079	30.591434	-13.814292
46054		48.965369	30.592103	-13.819647
46055		48.958927	30.595484	-13.828083
46056		48.954997	30.603736	-13.832030
46057		48.947870	30.610889	-13.832026
46058		48.940535	30.622768	-13.826820
46059		48.928114	30.630561	-13.817217
46060		48.912554	30.636330	-13.810671
46061		48.899362	30.640394	-13.807128
46062		48.885194	30.645991	-13.809395
46063		48.878728	30.654526	-13.807170
46064		48.871941	30.664391	-13.798555
46065		48.863895	30.668983	-13.787883
46066		48.848622	30.676314	-13.776835
46067		48.840611	30.680049	-13.766841
46068		48.836826	30.682969	-13.757903
46069		48.835143	30.687945	-13.745000
46070		48.830807	30.694501	-13.732202
46071		48.821515	30.705434	-13.716366
46072		48.808322	30.715190	-13.698938
46073		48.793256	30.722326	-13.682889
46074		48.777700	30.729716	-13.669085
46075		48.759090	30.734229	-13.663131
46076		48.743900	30.741419	-13.657132
46077		48.732880	30.747701	-13.652234
46078		48.725710	30.753758	-13.651516
46079		48.720315	30.760267	-13.651863
46080		48.718502	30.767282	-13.652797
46081		48.713471	30.773210	-13.650090
46082		48.702654	30.782072	-13.643619
46083		48.685982	30.789480	-13.637893
46084		48.665102	30.797789	-13.631420
46085		48.644223	30.805934	-13.621853
46086		48.622580	30.810641	-13.615467
46087		48.604200	30.812405	-13.604535
46088		48.584535	30.811775	-13.589522
46089		48.559234	30.809888	-13.572758
46090		48.534945	30.805625	-13.551532
46091		48.507971	30.795913	-13.531438
46092		48.481647	30.783301	-13.499779
46093		48.453695	30.769658	-13.460004
46094		48.424119	30.752100	-13.420855
46095		48.403347	30.726797	-13.382642
46096		48.376885	30.699252	-13.350397
46097		48.348258	30.673165	-13.323949
46098		48.329912	30.649482	-13.296409
46099		48.314609	30.631076	-13.275095
46100		48.301729	30.611720	-13.255916
46101		48.290413	30.592120	-13.235124
46102		48.279558	30.574444	-13.210695
46103		48.274050	30.554493	-13.182697
46104		48.267292	30.534896	-13.158378
46105		48.258419	30.515445	-13.135211
46106		48.250305	30.493505	-13.115509
46107		48.242251	30.473907	-13.101112
46108		48.236958	30.462788	-13.081695
46109		48.230798	30.453370	-13.060583
46110		48.225358	30.448061	-13.036729
46111		48.212994	30.444917	-13.009549
46112		48.184504	30.445473	-12.985975
46113		48.145607	30.444448	-12.958370
46114		48.098210	30.440503	-12.931807
46115		48.051818	30.431832	-12.908250
46116		48.016139	30.422654	-12.887658
46117		47.984204	30.416136	-12.868955
46118		47.955435	30.410723	-12.854330
46119		47.931930	30.404412	-12.841146
46120		47.921059	30.397053	-12.829038
46121		47.910303	30.384274	-12.818111
46122		47.902000	30.374957	-12.804599
46123		47.897326	30.362393	-12.794461
46124		47.897931	30.351355	-12.783329
46125		47.896962	30.341307	-12.772691
46126		47.896598	30.333758	-12.762240
46127		47.899308	30.326586	-12.757093
46128		47.908318	30.318608	-12.754564
46129		47.917593	30.306740	-12.750052
46130		47.919736	30.296137	-12.751602
46131		47.923417	30.286868	-12.744337
46132		47.929459	30.276643	-12.739890
46133		47.936766	30.268187	-12.734979
46134		47.941470	30.260021	-12.730687
46135		47.941754	30.251136	-12.729219
46136		47.945837	30.242748	-12.731690
46137		47.956717	30.235072	-12.735378
46138		47.967043	30.224683	-12.744988
46139		47.976653	30.217451	-12.755742
46140		47.984385	30.208277	-12.767868
46141		47.991339	30.197909	-12.780431
46142		47.999557	30.185973	-12.790265
46143		48.006705	30.175714	-12.800676
46144		48.010659	30.164341	-12.807620
46145		48.014614	30.156177	-12.814071
46146		48.013748	30.151038	-12.818202
46147		48.013037	30.146140	-12.823401
46148		48.014219	30.141054	-12.829546
46149		48.017671	30.133380	-12.841017
46150		48.024948	30.122561	-12.859881
46151		48.032583	30.110539	-12.884978
46152		48.046013	30.101909	-12.913797
46153		48.067407	30.095444	-12.941984
46154		48.096978	30.087118	-12.965759
46155		48.126410	30.082662	-12.971429
46156		48.142970	30.077390	-12.963129
46157		48.142826	30.072643	-12.943788
46158		48.129092	30.071168	-12.919733
46159		48.103081	30.071489	-12.896232
46160		48.075470	30.071874	-12.880898
46161		48.049551	30.075388	-12.871203
46162		48.035155	30.078285	-12.867868
46163		48.034134	30.077805	-12.871714
46164		48.041085	30.075852	-12.878932
46165		48.052218	30.070203	-12.884098
46166		48.068591	30.064508	-12.890310
46167		48.085248	30.059189	-12.895919
46168		48.100550	30.057122	-12.897798
46169		48.113047	30.055389	-12.896114
46170		48.119762	30.058106	-12.888877
46171		48.113309	30.058973	-12.883547
46172		48.100789	30.060571	-12.879451
46173		48.085015	30.060909	-12.872563
46174		48.068271	30.059415	-12.868904
46175		48.056135	30.058478	-12.866308
46176		48.054204	30.056968	-12.866102
46177		48.051530	30.054378	-12.865886
46178		48.056973	30.051100	-12.866568
46179		48.065802	30.048996	-12.868739
46180		48.078357	30.042383	-12.874793
46181		48.088967	30.036100	-12.880155
46182		48.096086	30.031444	-12.882331
46183		48.105753	30.026617	-12.884276
46184		48.114779	30.021402	-12.884579
46185		48.115069	30.014659	-12.886897
46186		48.114983	30.011100	-12.887050
46187		48.118074	30.010313	-12.883210
46188		48.123130	30.012035	-12.882836
46189		48.125372	30.012589	-12.880725
46190		48.120538	30.012359	-12.880272
46191		48.113204	30.011696	-12.879894
46192		48.111707	30.013111	-12.877980
46193		48.108975	30.010421	-12.878573
46194		48.106875	30.009585	-12.879502
46195		48.104123	30.007664	-12.879434
46196		48.102053	30.007574	-12.879248
46197		48.099276	30.006325	-12.878910
46198		48.099969	30.006374	-12.878990
46199		48.097328	30.005295	-12.876821
46200		48.097194	30.005391	-12.873644
46201		48.097610	30.001556	-12.871672
46202		48.101749	30.001086	-12.871387
46203		48.103474	30.001527	-12.869081
46204		48.098639	30.001297	-12.868629
46205		48.092211	30.001201	-12.870265
46206		48.091344	30.002494	-12.873857
46207		48.093664	30.002141	-12.878054
46208		48.091119	30.004812	-12.880156
46209		48.089198	30.005129	-12.880910
46210		48.086506	30.007188	-12.879124
46211		48.082803	30.008120	-12.880286
46212		48.077433	30.009159	-12.884353
46213		48.071477	30.008384	-12.887610
46214		48.066078	30.008675	-12.892793
46215		48.063329	30.007405	-12.898112
46216		48.060664	30.007091	-12.904675
46217		48.058905	30.004228	-12.913310
46218		48.058996	29.998904	-12.925693
46219		48.057292	29.992426	-12.937536
46220		48.052569	29.986906	-12.947640
46221		48.046028	29.981693	-12.955852
46222		48.037976	29.979674	-12.961862
46223		48.021381	29.977284	-12.978963
46224		48.007191	29.976029	-12.996209
46225		48.002278	29.971391	-13.010769
46226		48.004828	29.966263	-13.020660
46227		48.007438	29.961495	-13.032550
46228		48.005011	29.958867	-13.045205
46229		48.002173	29.955814	-13.059860
46230		47.998639	29.950914	-13.074849
46231		47.997269	29.942832	-13.091275
46232		48.001180	29.932506	-13.110467
46233		48.010845	29.919844	-13.133821
46234		48.024518	29.907742	-13.158664
46235		48.042262	29.899097	-13.181396
46236		48.053831	29.892628	-13.204819
46237		48.061620	29.886523	-13.223181
46238		48.066741	29.882732	-13.240608
46239		48.069491	29.879205	-13.262162
46240		48.072500	29.877158	-13.288731
46241		48.078805	29.876806	-13.323594
46242		48.089887	29.879677	-13.367171
46243		48.107143	29.883254	-13.412987
46244		48.134268	29.886231	-13.458791
46245		48.165515	29.888869	-13.512128
46246		48.203707	29.896468	-13.566834
46247		48.242091	29.910984	-13.620744
46248		48.278795	29.928722	-13.667853
46249		48.308625	29.949481	-13.709962
46250		48.334266	29.969253	-13.740401
46251		48.349561	29.985361	-13.768388
46252		48.360314	29.999585	-13.789778
46253		48.367510	30.013330	-13.810684
46254		48.377959	30.028368	-13.828207
46255		48.387168	30.043846	-13.843479
46256		48.399269	30.062666	-13.856937
46257		48.407459	30.080108	-13.874976
46258		48.416221	30.099281	-13.893811
46259		48.432821	30.116276	-13.918539
46260		48.455958	30.131035	-13.944749
46261		48.480366	30.146428	-13.965697
46262		48.507279	30.162490	-13.979783
46263		48.534407	30.177534	-13.989974
46264		48.553609	30.189503	-14.007097
46265		48.571717	30.198927	-14.023941
46266		48.589905	30.202949	-14.042820
46267		48.614288	30.208346	-14.063178
46268		48.646462	30.213702	-14.087255
46269		48.683811	30.219716	-14.112517
46270		48.724659	30.226939	-14.137900
46271		48.770421	30.237165	-14.158449
46272		48.819015	30.249216	-14.179651
46273		48.866489	30.260286	-14.198902
46274		48.910752	30.271397	-14.219443
46275		48.951639	30.279302	-14.234623
46276		48.988719	30.288205	-14.244201
46277		49.019575	30.295109	-14.253366
46278		49.048996	30.299407	-14.259857
46279		49.073491	30.303850	-14.267856
46280		49.100243	30.305093	-14.276311
46281		49.123769	30.307754	-14.290905
46282		49.153750	30.309678	-14.306275
46283		49.187893	30.314565	-14.318835
46284		49.224120	30.319985	-14.323466
46285		49.254281	30.324947	-14.324408
46286		49.283532	30.325109	-14.325332
46287		49.309206	30.326944	-14.323840
46288		49.330871	30.329531	-14.325020
46289		49.349770	30.334035	-14.320497
46290		49.361668	30.341160	-14.318808
46291		49.371969	30.344365	-14.317471
46292		49.386198	30.347966	-14.318891
46293		49.404494	30.351457	-14.322184
46294		49.425354	30.356850	-14.322877
46295		49.450445	30.365023	-14.320658
46296		49.467356	30.371660	-14.320095
46297		49.482200	30.378800	-14.314095
46298		49.491682	30.384433	-14.309869
46299		49.501222	30.389647	-14.303061
46300		49.508079	30.393725	-14.298566
46301		49.514964	30.396772	-14.298025
46302		49.521079	30.400020	-14.296409
46303		49.532062	30.401851	-14.295375
46304		49.546557	30.406997	-14.292277
46305		49.563293	30.411036	-14.293659
46306		49.576935	30.415481	-14.288419
46307		49.588006	30.418233	-14.279792
46308		49.593789	30.418766	-14.272633
46309		49.593228	30.421523	-14.267716
46310		49.590651	30.422930	-14.264820
46311		49.591210	30.426240	-14.265386
46312		49.595805	30.429114	-14.274554
46313		49.605904	30.431276	-14.283078
46314		49.621518	30.435566	-14.287120
46315		49.637442	30.436933	-14.288270
46316		49.650956	30.435629	-14.284747
46317		49.657450	30.433012	-14.282733
46318		49.663351	30.428286	-14.286212
46319		49.672010	30.424762	-14.292365
46320		49.682114	30.422367	-14.296489
46321		49.691392	30.418978	-14.301563
46322		49.698469	30.412864	-14.306043
46323		49.706530	30.408639	-14.313185
46324		49.715035	30.404721	-14.318056
46325		49.728112	30.401580	-14.318621
46326		49.742534	30.402454	-14.314991
46327		49.751977	30.402137	-14.308718
46328		49.753234	30.402419	-14.302058
46329		49.754088	30.400227	-14.293764
46330		49.754747	30.398270	-14.289979
46331		49.759133	30.397504	-14.290467
46332		49.767233	30.396538	-14.290334
46333		49.777658	30.395389	-14.292825
46334		49.789879	30.394526	-14.296714
46335		49.806128	30.394201	-14.302144
46336		49.822928	30.395061	-14.303285
46337		49.835129	30.391960	-14.300955
46338		49.837243	30.388874	-14.288639
46339		49.827627	30.387690	-14.276954
46340		49.816801	30.388894	-14.266020
46341		49.807296	30.396971	-14.254925
46342		49.794779	30.406703	-14.240762
46343		49.774691	30.416517	-14.226381
46344		49.752272	30.427101	-14.214979
46345		49.728940	30.433723	-14.208952
46346		49.714910	30.441066	-14.201688
46347		49.708208	30.445364	-14.201297
46348		49.711125	30.447585	-14.205059
46349		49.718376	30.446159	-14.211844
46350		49.730742	30.445907	-14.219613
46351		49.742108	30.442497	-14.226674
46352		49.756423	30.440390	-14.227536
46353		49.767636	30.440101	-14.226779
46354		49.774936	30.439913	-14.222252
46355		49.775065	30.438875	-14.220721
46356		49.774405	30.441749	-14.219842
46357		49.770990	30.444883	-14.221180
46358		49.767781	30.445346	-14.226187
46359		49.761747	30.443987	-14.230746
46360		49.759053	30.442430	-14.232357
46361		49.757958	30.441394	-14.237552
46362		49.762423	30.443653	-14.242820
46363		49.770923	30.444300	-14.252251
46364		49.778309	30.445278	-14.257765
46365		49.782354	30.445169	-14.261407
46366		49.785472	30.447459	-14.262911
46367		49.783860	30.449147	-14.265005
46368		49.783256	30.450414	-14.271397
46369		49.783728	30.452349	-14.274944
46370		49.781977	30.455744	-14.279213
46371		49.779962	30.457492	-14.285490
46372		49.775631	30.462854	-14.291148
46373		49.767401	30.469227	-14.292835
46374		49.754732	30.479308	-14.292121
46375		49.743023	30.488389	-14.291641
46376		49.730122	30.497657	-14.294316
46377		49.717698	30.508759	-14.293634
46378		49.705453	30.521742	-14.291189
46379		49.689239	30.532161	-14.289046
46380		49.672952	30.544171	-14.288740
46381		49.660435	30.556164	-14.287582
46382		49.649565	30.567824	-14.283886
46383		49.638308	30.576312	-14.279366
46384		49.627783	30.581509	-14.279024
46385		49.619869	30.582956	-14.282331
46386		49.613211	30.584673	-14.286607
46387		49.607756	30.582596	-14.291443
46388		49.605198	30.581647	-14.296951
46389		49.605953	30.582167	-14.298856
46390		49.606348	30.585802	-14.297861
46391		49.603679	30.589084	-14.297065
46392		49.593753	30.591395	-14.299470
46393		49.583799	30.592740	-14.300728
46394		49.577117	30.591689	-14.302227
46395		49.570908	30.589819	-14.302931
46396		49.565403	30.587380	-14.305422
46397		49.563416	30.582638	-14.312435
46398		49.570316	30.579219	-14.321923
46399		49.582533	30.577895	-14.330234
46400		49.591672	30.576955	-14.331076
46401		49.594184	30.576298	-14.327418
46402		49.594764	30.570094	-14.323097
46403		49.594211	30.565888	-14.314086
46404		49.589490	30.560969	-14.304764
46405		49.583151	30.555566	-14.298835
46406		49.580487	30.552722	-14.295420
46407		49.583476	30.551495	-14.287526
46408		49.583705	30.551751	-14.279860
46409		49.583584	30.552421	-14.273030
46410		49.584615	30.551889	-14.269750
46411		49.584052	30.552454	-14.267675
46412		49.582991	30.551130	-14.263515
46413		49.584424	30.549584	-14.260353
46414		49.586831	30.547735	-14.255807
46415		49.592768	30.547946	-14.251003
46416		49.595055	30.552301	-14.253145
46417		49.599655	30.551582	-14.251505
46418		49.598591	30.552283	-14.251248
46419		49.602099	30.550014	-14.250973
46420		49.609405	30.551854	-14.250330
46421		49.618314	30.555842	-14.245564
46422		49.622411	30.559760	-14.240799
46423		49.620305	30.561630	-14.236195
46424		49.623540	30.561760	-14.238811
46425		49.634136	30.562789	-14.237556
46426		49.643850	30.565361	-14.240548
46427		49.650341	30.567587	-14.239888
46428		49.654352	30.569280	-14.238496
46429		49.658001	30.569264	-14.240039
46430		49.667716	30.569808	-14.239130
46431		49.676037	30.570742	-14.238209
46432		49.676550	30.572222	-14.238329
46433		49.678503	30.572964	-14.233406
46434		49.680220	30.573797	-14.233394
46435		49.680100	30.572695	-14.234614
46436		49.681301	30.573515	-14.234102
46437		49.681797	30.573330	-14.233813
46438		49.682624	30.572726	-14.232792
46439		49.684580	30.574727	-14.232698
46440		49.690685	30.579236	-14.236082
46441		49.697158	30.584106	-14.238853
46442		49.708654	30.589547	-14.243858
46443		49.716916	30.597412	-14.248330
46444		49.727498	30.607816	-14.251728
46445		49.739764	30.617909	-14.259220
46446		49.753383	30.626906	-14.267871
46447		49.769245	30.635080	-14.275056
46448		49.784039	30.642689	-14.284698
46449		49.795900	30.648994	-14.300529
46450		49.810895	30.658697	-14.311809
46451		49.827640	30.667530	-14.320980
46452		49.839712	30.676487	-14.328123
46453		49.844334	30.685502	-14.334136
46454		49.845445	30.693267	-14.339177
46455		49.843938	30.701313	-14.345385
46456		49.846747	30.712812	-14.346295
46457		49.848638	30.726030	-14.347051
46458		49.851559	30.735376	-14.349080
46459		49.853180	30.744442	-14.350613
46460		49.854758	30.753818	-14.348880
46461		49.853672	30.763400	-14.348875
46462		49.851194	30.773840	-14.353193
46463		49.847054	30.786639	-14.358447
46464		49.841471	30.799028	-14.363670
46465		49.833883	30.814696	-14.366209
46466		49.824368	30.829076	-14.369080
46467		49.813265	30.843114	-14.368757
46468		49.800714	30.858895	-14.366384
46469		49.789215	30.871549	-14.365682
46470		49.778879	30.883943	-14.361401
46471		49.766795	30.896757	-14.354813
46472		49.754461	30.910578	-14.346285
46473		49.739271	30.923050	-14.343347
46474		49.721451	30.938502	-14.343290
46475		49.712390	30.959554	-14.349755
46476		49.710975	30.984991	-14.350536
46477		49.709941	31.006846	-14.342879
46478		49.705285	31.024050	-14.327295
46479		49.699605	31.039708	-14.303987
46480		49.695222	31.055695	-14.281101
46481		49.686387	31.071610	-14.272780
46482		49.669722	31.078545	-14.275463
46483		49.660467	31.086990	-14.279211
46484		49.656638	31.097435	-14.279802
46485		49.657079	31.109078	-14.285232
46486		49.659926	31.126062	-14.291719
46487		49.663919	31.145065	-14.293633
46488		49.669077	31.162486	-14.287524
46489		49.664467	31.177130	-14.277936
46490		49.650279	31.192968	-14.269104
46491		49.638755	31.203780	-14.258999
46492		49.627965	31.214855	-14.249229
46493		49.615794	31.225574	-14.240258
46494		49.600970	31.236424	-14.231538
46495		49.584328	31.243931	-14.225448
46496		49.567225	31.250301	-14.221507
46497		49.562025	31.257510	-14.220106
46498		49.563159	31.261202	-14.217342
46499		49.565663	31.264676	-14.215872
46500		49.570052	31.265016	-14.212169
46501		49.572945	31.264313	-14.210914
46502		49.578469	31.262532	-14.209323
46503		49.583708	31.261817	-14.207457
46504		49.592575	31.260916	-14.205461
46505		49.596942	31.261563	-14.205306
46506		49.604375	31.262837	-14.198433
46507		49.606812	31.263531	-14.189216
46508		49.604376	31.258741	-14.179640
46509		49.599924	31.242195	-14.171647
46510		49.592388	31.205815	-14.171228
46511		49.585536	31.155460	-14.181702
46512		49.584405	31.105778	-14.187285
46513		49.585689	31.068061	-14.188368
46514		49.598693	31.045347	-14.189356
46515		49.619526	31.036794	-14.191954
46516		49.639814	31.037949	-14.186377
46517		49.648157	31.041998	-14.170715
46518		49.635234	31.044753	-14.150602
46519		49.611015	31.048171	-14.127613
46520		49.582838	31.048717	-14.109882
46521		49.560968	31.044091	-14.100086
46522		49.551930	31.033052	-14.100837
46523		49.557372	31.022123	-14.113171
46524		49.578927	31.010701	-14.130994
46525		49.603925	30.996990	-14.148481
46526		49.631042	30.981041	-14.160088
46527		49.655102	30.963313	-14.168026
46528		49.665839	30.945253	-14.175995
46529		49.665934	30.928630	-14.173538
46530		49.652236	30.910358	-14.171520
46531		49.635243	30.892251	-14.172321
46532		49.617040	30.874481	-14.169701
46533		49.597665	30.857802	-14.164245
46534		49.584213	30.840329	-14.158823
46535		49.578167	30.821520	-14.152118
46536		49.572668	30.804292	-14.151910
46537		49.572910	30.786632	-14.142928
46538		49.566609	30.766139	-14.130537
46539		49.555245	30.743729	-14.117853
46540		49.533659	30.720599	-14.096630
46541		49.502945	30.696919	-14.068874
46542		49.464639	30.670989	-14.042324
46543		49.416187	30.646465	-14.017941
46544		49.361507	30.624808	-13.987096
46545		49.307428	30.602164	-13.960757
46546		49.264014	30.582911	-13.939752
46547		49.231142	30.568624	-13.925559
46548		49.211711	30.558186	-13.910137
46549		49.199084	30.549110	-13.896819
46550		49.191478	30.540555	-13.885617
46551		49.184181	30.534541	-13.872429
46552		49.177027	30.527607	-13.854477
46553		49.165640	30.520918	-13.837005
46554		49.150171	30.511245	-13.826704
46555		49.137324	30.505572	-13.824329
46556		49.131166	30.504532	-13.826328
46557		49.133698	30.504930	-13.834341
46558		49.140625	30.509913	-13.847102
46559		49.149719	30.513916	-13.865745
46560		49.166933	30.522768	-13.885130
46561		49.190153	30.533700	-13.902225
46562		49.215021	30.546691	-13.913467
46563		49.231415	30.558293	-13.924355
46564		49.243211	30.567283	-13.928734
46565		49.248501	30.572028	-13.932777
46566		49.250467	30.575680	-13.933278
46567		49.247610	30.580996	-13.933165
46568		49.245449	30.586576	-13.933579
46569		49.239048	30.590845	-13.936453
46570		49.235247	30.594167	-13.938736
46571		49.233055	30.593643	-13.943846
46572		49.237368	30.594520	-13.946317
46573		49.243330	30.594549	-13.941924
46574		49.242977	30.593298	-13.936011
46575		49.240638	30.590914	-13.932302
46576		49.232652	30.586268	-13.933415
46577		49.225924	30.585140	-13.927234
46578		49.220293	30.582832	-13.924721
46579		49.214631	30.581622	-13.925289
46580		49.211249	30.580712	-13.927534
46581		49.208894	30.579633	-13.928813
46582		49.206774	30.579558	-13.928680
46583		49.209162	30.577284	-13.928835
46584		49.214498	30.576162	-13.928402
46585		49.221758	30.571048	-13.933800
46586		49.227960	30.570619	-13.935498
46587		49.230108	30.570286	-13.942293
46588		49.234335	30.568940	-13.948125
46589		49.238029	30.568745	-13.950471
46590		49.236331	30.569551	-13.944708
46591		49.225482	30.568329	-13.934391
46592		49.214524	30.565293	-13.923013
46593		49.200200	30.562500	-13.909296
46594		49.185576	30.559923	-13.900570
46595		49.177091	30.556612	-13.891332
46596		49.174536	30.553632	-13.892928
46597		49.182600	30.551452	-13.898792
46598		49.195618	30.553394	-13.903601
46599		49.208485	30.558649	-13.904521
46600		49.218834	30.563422	-13.904610
46601		49.234168	30.567526	-13.898204
46602		49.255460	30.569433	-13.892574
46603		49.277888	30.577588	-13.884332
46604		49.289104	30.586135	-13.877052
46605		49.286748	30.594595	-13.868070
46606		49.279509	30.602275	-13.860138
46607		49.275188	30.608953	-13.856337
46608		49.276595	30.616216	-13.852983
46609		49.276098	30.619472	-13.854026
46610		49.278223	30.620423	-13.849493
46611		49.281044	30.621126	-13.841609
46612		49.279304	30.619164	-13.833073
46613		49.271629	30.614690	-13.822054
46614		49.259324	30.607321	-13.811415
46615		49.246127	30.600882	-13.801696
46616		49.234447	30.597766	-13.792086
46617		49.222651	30.592271	-13.783992
46618		49.213148	30.587052	-13.777482
46619		49.205392	30.581535	-13.774873
46620		49.199727	30.578489	-13.773486
46621		49.197539	30.573976	-13.770468
46622		49.199722	30.570011	-13.764271
46623		49.200143	30.565014	-13.757767
46624		49.198445	30.559421	-13.752583
46625		49.197551	30.554247	-13.748639
46626		49.201518	30.548041	-13.750049
46627		49.198256	30.543983	-13.752304
46628		49.191389	30.541585	-13.751054
46629		49.183834	30.537407	-13.751107
46630		49.179096	30.530140	-13.750181
46631		49.173863	30.527646	-13.747567
46632		49.169047	30.523269	-13.744412
46633		49.164875	30.518085	-13.738868
46634		49.163281	30.510342	-13.734791
46635		49.156155	30.505011	-13.730943
46636		49.148750	30.500576	-13.725299
46637		49.140554	30.497260	-13.718942
46638		49.131645	30.495554	-13.714578
46639		49.118359	30.491309	-13.709357
46640		49.101307	30.486208	-13.711513
46641		49.092252	30.480445	-13.717385
46642		49.084744	30.477640	-13.730135
46643		49.087445	30.475827	-13.739051
46644		49.089691	30.477933	-13.744536
46645		49.091860	30.479264	-13.743297
46646		49.087450	30.478330	-13.744542
46647		49.075589	30.477544	-13.744858
46648		49.061226	30.478544	-13.735546
46649		49.039515	30.478282	-13.725626
46650		49.016579	30.478090	-13.718978
46651		48.990239	30.477605	-13.710841
46652		48.958297	30.478426	-13.703006
46653		48.931696	30.477142	-13.692288
46654		48.913625	30.475836	-13.682853
46655		48.896387	30.472789	-13.676549
46656		48.883987	30.470867	-13.673700
46657		48.874723	30.470848	-13.675699
46658		48.868757	30.471153	-13.680462
46659		48.861832	30.468158	-13.691185
46660		48.860888	30.467966	-13.697038
46661		48.859991	30.466052	-13.702323
46662		48.858694	30.465179	-13.706545
46663		48.856525	30.464762	-13.711510
46664		48.850995	30.462852	-13.720121
46665		48.849500	30.465765	-13.726938
46666		48.848336	30.464758	-13.736158
46667		48.847931	30.465649	-13.745344
46668		48.849606	30.466253	-13.752566
46669		48.849920	30.468709	-13.758172
46670		48.850530	30.468549	-13.765516
46671		48.850106	30.468715	-13.775718
46672		48.853747	30.470239	-13.778813
46673		48.852178	30.470541	-13.782744
46674		48.849380	30.471114	-13.783242
46675		48.839831	30.471854	-13.781341
46676		48.828707	30.472780	-13.780020
46677		48.817292	30.474783	-13.778818
46678		48.811495	30.473136	-13.777434
46679		48.806835	30.471155	-13.780454
46680		48.808681	30.469812	-13.781526
46681		48.810275	30.470337	-13.781385
46682		48.809934	30.471101	-13.779370
46683		48.809103	30.470192	-13.776407
46684		48.803824	30.468556	-13.775520
46685		48.797534	30.466688	-13.771517
46686		48.788220	30.462810	-13.767754
46687		48.777161	30.453492	-13.768452
46688		48.769135	30.446073	-13.766762
46689		48.757431	30.440478	-13.758131
46690		48.746617	30.436775	-13.745629
46691		48.731303	30.433140	-13.737414
46692		48.717132	30.429085	-13.731427
46693		48.705630	30.423398	-13.727136
46694		48.697986	30.417399	-13.725956
46695		48.692270	30.408419	-13.723474
46696		48.690574	30.402827	-13.718264
46697		48.689835	30.394876	-13.715391
46698		48.691467	30.391441	-13.714811
46699		48.694487	30.386440	-13.710939
46700		48.694371	30.381623	-13.706105
46701		48.692610	30.376659	-13.698911
46702		48.688647	30.370947	-13.693963
46703		48.682302	30.364133	-13.689798
46704		48.677112	30.358325	-13.686105
46705		48.678188	30.351884	-13.680206
46706		48.683636	30.347324	-13.675844
46707		48.690024	30.341774	-13.672863
46708		48.698722	30.335870	-13.671466
46709		48.710465	30.330510	-13.671374
46710		48.720281	30.328129	-13.672637
46711		48.724967	30.327342	-13.677262
46712		48.732057	30.327592	-13.681068
46713		48.735686	30.325221	-13.686813
46714		48.739830	30.326011	-13.691515
46715		48.741382	30.325856	-13.692517
46716		48.740310	30.325792	-13.693367
46717		48.736063	30.326013	-13.695703
46718		48.727604	30.323360	-13.700184
46719		48.717464	30.316742	-13.706816
46720		48.703884	30.311613	-13.714665
46721		48.692419	30.304317	-13.718056
46722		48.682487	30.297457	-13.718245
46723		48.672575	30.289014	-13.717913
46724		48.661793	30.282204	-13.714859
46725		48.651730	30.275140	-13.714739
46726		48.647181	30.268462	-13.717644
46727		48.644056	30.263656	-13.725874
46728		48.642276	30.257638	-13.735136
46729		48.637841	30.253384	-13.745151
46730		48.636711	30.252363	-13.754348
46731		48.641024	30.250676	-13.764482
46732		48.645320	30.251326	-13.774174
46733		48.649130	30.253352	-13.779078
46734		48.646705	30.255872	-13.786207
46735		48.643579	30.258079	-13.793151
46736		48.640635	30.260588	-13.799784
46737		48.638404	30.263545	-13.808568
46738		48.641150	30.265432	-13.821779
46739		48.648880	30.265719	-13.842188
46740		48.663471	30.269487	-13.859606
46741		48.677844	30.273014	-13.877506
46742		48.694481	30.274813	-13.893015
46743		48.713267	30.277234	-13.906981
46744		48.728770	30.281908	-13.919288
46745		48.741569	30.288465	-13.926016
46746		48.747519	30.293391	-13.937754
46747		48.749475	30.297144	-13.949390
46748		48.748157	30.303184	-13.959186
46749		48.743900	30.311067	-13.965993
46750		48.737428	30.318482	-13.968598
46751		48.729468	30.322166	-13.970858
46752		48.727681	30.327884	-13.966798
46753		48.721734	30.333913	-13.962747
46754		48.716666	30.340231	-13.956843
46755		48.713554	30.348596	-13.949889
46756		48.712124	30.354990	-13.947460
46757		48.713755	30.361240	-13.947167
46758		48.716716	30.369284	-13.944232
46759		48.712270	30.376851	-13.940253
46760		48.705338	30.383942	-13.929004
46761		48.695983	30.391376	-13.917227
46762		48.690161	30.394849	-13.910294
46763		48.686328	30.393486	-13.916610
46764		48.683111	30.393685	-13.928846
46765		48.686063	30.400375	-13.938751
46766		48.685139	30.414437	-13.941295
46767		48.687106	30.427154	-13.936292
46768		48.680936	30.438351	-13.931093
46769		48.673302	30.444298	-13.927268
46770		48.667151	30.449103	-13.922607
46771		48.657217	30.454181	-13.920269
46772		48.648048	30.463157	-13.913193
46773		48.635470	30.473996	-13.902249
46774		48.621274	30.483463	-13.894099
46775		48.604678	30.488869	-13.890651
46776		48.595859	30.493921	-13.896888
46777		48.593676	30.499817	-13.901574
46778		48.595507	30.506126	-13.907119
46779		48.602371	30.508799	-13.915447
46780		48.613098	30.510390	-13.927719
46781		48.628943	30.510756	-13.938429
46782		48.648221	30.512819	-13.949138
46783		48.671588	30.514977	-13.956223
46784		48.690256	30.519921	-13.964228
46785		48.703648	30.522375	-13.968721
46786		48.712702	30.524819	-13.973399
46787		48.723583	30.525040	-13.976828
46788		48.730699	30.527298	-13.984519
46789		48.735964	30.529094	-13.992838
46790		48.742016	30.530588	-14.000652
46791		48.745343	30.530350	-14.007570
46792		48.756971	30.530839	-14.010825
46793		48.766216	30.531765	-14.013054
46794		48.771393	30.531304	-14.013728
46795		48.771103	30.528050	-14.020047
46796		48.766261	30.524198	-14.023011
46797		48.759822	30.517317	-14.026280
46798		48.749615	30.508158	-14.032091
46799		48.739634	30.491696	-14.035224
46800		48.727159	30.474017	-14.037933
46801		48.723659	30.453178	-14.036135
46802		48.727650	30.432710	-14.040793
46803		48.744348	30.410481	-14.048602
46804		48.764748	30.387528	-14.068591
46805		48.795615	30.365475	-14.094959
46806		48.845380	30.350558	-14.131592
46807		48.911052	30.339505	-14.180080
46808		48.983967	30.333237	-14.226308
46809		49.050755	30.328838	-14.260976
46810		49.098668	30.328435	-14.282864
46811		49.130470	30.328079	-14.293167
46812		49.146286	30.322267	-14.300975
46813		49.152108	30.312192	-14.309903
46814		49.153713	30.301419	-14.318249
46815		49.156422	30.292604	-14.329177
46816		49.167182	30.287073	-14.343139
46817		49.191330	30.284280	-14.353765
46818		49.221826	30.280681	-14.358772
46819		49.243658	30.280058	-14.360403
46820		49.261685	30.278208	-14.357392
46821		49.278075	30.276195	-14.352122
46822		49.290588	30.276310	-14.345294
46823		49.297602	30.278742	-14.338711
46824		49.303637	30.277702	-14.336529
46825		49.309479	30.281339	-14.335916
46826		49.313204	30.279232	-14.342350
46827		49.319508	30.281410	-14.344585
46828		49.327568	30.284787	-14.339934
46829		49.335004	30.290934	-14.330586
46830		49.333967	30.298426	-14.315292
46831		49.325523	30.301740	-14.303751
46832		49.319831	30.304553	-14.295684
46833		49.317273	30.307842	-14.294641
46834		49.324249	30.310246	-14.297349
46835		49.339257	30.313461	-14.302121
46836		49.355161	30.317736	-14.303789
46837		49.367958	30.320334	-14.302240
46838		49.379291	30.322358	-14.300546
46839		49.393465	30.324375	-14.296702
46840		49.399882	30.324748	-14.295027
46841		49.403240	30.325437	-14.294035
46842		49.406005	30.326272	-14.295008
46843		49.408799	30.327557	-14.299809
46844		49.413149	30.329164	-14.301152
46845		49.416302	30.330485	-14.301694
46846		49.420292	30.331413	-14.301411
46847		49.421880	30.336159	-14.303553
46848		49.427334	30.340547	-14.308655
46849		49.431312	30.341205	-14.313412
46850		49.437144	30.339346	-14.314592
46851		49.444803	30.337464	-14.312423
46852		49.449657	30.337803	-14.309259
46853		49.454651	30.337879	-14.309261
46854		49.459662	30.338087	-14.311088
46855		49.461057	30.338678	-14.313253
46856		49.459187	30.342714	-14.318652
46857		49.458241	30.341725	-14.323517
46858		49.459302	30.343938	-14.323015
46859		49.457635	30.341664	-14.317798
46860		49.453217	30.340199	-14.312937
46861		49.452428	30.337954	-14.310683
46862		49.458325	30.338313	-14.308510
46863		49.463115	30.337101	-14.305672
46864		49.467466	30.338708	-14.307014
46865		49.474267	30.340936	-14.309952
46866		49.481611	30.343476	-14.308159
46867		49.484986	30.345536	-14.312066
46868		49.486504	30.345539	-14.315413
46869		49.489232	30.348398	-14.312743
46870		49.486909	30.354103	-14.308172
46871		49.483670	30.357476	-14.308464
46872		49.483165	30.360195	-14.312594
46873		49.481380	30.364823	-14.314504
46874		49.479357	30.368450	-14.308792
46875		49.478020	30.370970	-14.307737
46876		49.484280	30.372008	-14.307186
46877		49.496533	30.373953	-14.306200
46878		49.502315	30.376458	-14.302917
46879		49.498337	30.377564	-14.301337
46880		49.494978	30.377401	-14.302474
46881		49.493409	30.379310	-14.304648
46882		49.493724	30.379960	-14.308133
46883		49.493593	30.380471	-14.308638
46884		49.493386	30.381112	-14.311629
46885		49.495754	30.380262	-14.317196
46886		49.504961	30.381293	-14.321864
46887		49.514579	30.382759	-14.326075
46888		49.522149	30.387384	-14.325913
46889		49.522384	30.390955	-14.324852
46890		49.517205	30.394318	-14.323408
46891		49.509710	30.400388	-14.317640
46892		49.501624	30.405775	-14.314862
46893		49.495372	30.409558	-14.316772
46894		49.493096	30.411435	-14.322785
46895		49.492131	30.413789	-14.331128
46896		49.496502	30.416672	-14.337468
46897		49.500898	30.417237	-14.344517
46898		49.512992	30.415503	-14.351633
46899		49.534926	30.415432	-14.358745
46900		49.555983	30.416292	-14.363685
46901		49.570389	30.417273	-14.365668
46902		49.579441	30.418430	-14.365341
46903		49.588482	30.420886	-14.362153
46904		49.595760	30.427044	-14.357004
46905		49.593610	30.431769	-14.356321
46906		49.583184	30.434830	-14.357169
46907		49.580174	30.438076	-14.355231
46908		49.582258	30.439567	-14.356836
46909		49.589091	30.443046	-14.358068
46910		49.597621	30.450031	-14.350540
46911		49.599430	30.457941	-14.339521
46912		49.598382	30.465207	-14.331453
46913		49.594553	30.470046	-14.323975
46914		49.589739	30.473546	-14.318039
46915		49.583576	30.476717	-14.313337
46916		49.581847	30.478803	-14.312607
46917		49.580358	30.481285	-14.313562
46918		49.578124	30.484641	-14.317341
46919		49.578148	30.486562	-14.320858
46920		49.583657	30.492418	-14.323707
46921		49.586363	30.498542	-14.330653
46922		49.579237	30.508656	-14.337771
46923		49.570756	30.517646	-14.347225
46924		49.560036	30.530440	-14.353652
46925		49.553336	30.544574	-14.362311
46926		49.550099	30.557580	-14.373417
46927		49.548452	30.564858	-14.384402
46928		49.557424	30.570714	-14.392962
46929		49.566771	30.574430	-14.397841
46930		49.576289	30.581035	-14.405775
46931		49.581108	30.587767	-14.420430
46932		49.591135	30.594921	-14.434983
46933		49.604436	30.600536	-14.450704
46934		49.621802	30.608035	-14.464931
46935		49.637567	30.613931	-14.472052
46936		49.653542	30.620190	-14.477538
46937		49.667465	30.626814	-14.484964
46938		49.680915	30.636512	-14.489623
46939		49.697815	30.647003	-14.491126
46940		49.713090	30.659013	-14.491651
46941		49.729994	30.677273	-14.490771
46942		49.755136	30.698925	-14.490607
46943		49.778090	30.722439	-14.492247
46944		49.795835	30.744092	-14.505779
46945		49.813006	30.768732	-14.527576
46946		49.831903	30.803558	-14.552039
46947		49.845912	30.842097	-14.581435
46948		49.851386	30.884896	-14.601366
46949		49.844151	30.926392	-14.610918
46950		49.822103	30.963404	-14.615324
46951		49.792444	30.991446	-14.617553
46952		49.764091	31.012838	-14.614477
46953		49.734921	31.029060	-14.611743
46954		49.706793	31.039798	-14.611490
46955		49.687330	31.049361	-14.609222
46956		49.674992	31.056454	-14.613719
46957		49.671777	31.064929	-14.627038
46958		49.676968	31.076118	-14.639938
46959		49.678707	31.087748	-14.645470
46960		49.673864	31.098870	-14.644002
46961		49.660865	31.103205	-14.638178
46962		49.640601	31.105916	-14.634763
46963		49.624322	31.106540	-14.631626
46964		49.616336	31.110499	-14.628903
46965		49.609488	31.112668	-14.632633
46966		49.602068	31.114292	-14.638774
46967		49.592220	31.115586	-14.645368
46968		49.588487	31.116749	-14.648816
46969		49.586872	31.117114	-14.653125
46970		49.583338	31.121624	-14.663237
46971		49.583600	31.122897	-14.670590
46972		49.583076	31.126333	-14.673630
46973		49.577130	31.125185	-14.671250
46974		49.560017	31.120322	-14.666349
46975		49.542931	31.114117	-14.660157
46976		49.525396	31.105096	-14.651966
46977		49.510635	31.093811	-14.645318
46978		49.489045	31.082564	-14.634288
46979		49.462958	31.069109	-14.617389
46980		49.431834	31.051980	-14.599186
46981		49.403985	31.032702	-14.582985
46982		49.380205	31.010088	-14.571106
46983		49.358109	30.986679	-14.559002
46984		49.342808	30.966651	-14.544381
46985		49.329724	30.948555	-14.533087
46986		49.326773	30.928168	-14.526403
46987		49.328328	30.911765	-14.526880
46988		49.329010	30.897811	-14.523087
46989		49.324504	30.882812	-14.513488
46990		49.316199	30.870826	-14.500220
46991		49.304308	30.858407	-14.488236
46992		49.295458	30.848205	-14.485620
46993		49.285606	30.841113	-14.489138
46994		49.283288	30.835858	-14.496853
46995		49.280580	30.841609	-14.507937
46996		49.279563	30.853406	-14.513819
46997		49.274979	30.865061	-14.513807
46998		49.265535	30.873209	-14.510149
46999		49.248118	30.877107	-14.510133
47000		49.239189	30.879424	-14.513655
47001		49.241291	30.875570	-14.525753
47002		49.241489	30.873247	-14.533714
47003		49.235132	30.873307	-14.540986
47004		49.231726	30.872390	-14.543265
47005		49.229398	30.870545	-14.545656
47006		49.226821	30.867570	-14.547274
47007		49.221111	30.864356	-14.544328
47008		49.208619	30.861188	-14.536589
47009		49.192331	30.858228	-14.531671
47010		49.178153	30.851330	-14.528037
47011		49.172724	30.845461	-14.519031
47012		49.165448	30.841130	-14.511201
47013		49.161353	30.835350	-14.499422
47014		49.158766	30.828582	-14.485996
47015		49.151504	30.821330	-14.473281
47016		49.145218	30.814275	-14.463655
47017		49.137241	30.804678	-14.455630
47018		49.127657	30.798226	-14.444184
47019		49.116287	30.786498	-14.431839
47020		49.105883	30.774472	-14.416590
47021		49.096279	30.763066	-14.396408
47022		49.081390	30.753027	-14.378373
47023		49.064836	30.740595	-14.361518
47024		49.052451	30.726381	-14.345394
47025		49.038101	30.712536	-14.330710
47026		49.027244	30.696345	-14.312168
47027		49.015632	30.677150	-14.290853
47028		49.001827	30.654599	-14.267656
47029		48.985911	30.629502	-14.250660
47030		48.970717	30.609310	-14.240984
47031		48.965164	30.596374	-14.234242
47032		48.963085	30.590869	-14.226324
47033		48.961622	30.584371	-14.223574
47034		48.958721	30.580927	-14.216316
47035		48.951860	30.575188	-14.203648
47036		48.948191	30.568385	-14.189249
47037		48.942994	30.559969	-14.173216
47038		48.933984	30.549365	-14.159463
47039		48.930200	30.537207	-14.150897
47040		48.934804	30.521752	-14.155497
47041		48.946126	30.508292	-14.170409
47042		48.966961	30.493883	-14.189168
47043		48.989932	30.481368	-14.206225
47044		49.009210	30.472987	-14.209624
47045		49.014806	30.465437	-14.205181
47046		49.012824	30.457252	-14.192253
47047		49.007128	30.447548	-14.170233
47048		48.991091	30.441844	-14.146778
47049		48.970839	30.433554	-14.127804
47050		48.947596	30.426415	-14.117998
47051		48.930634	30.423472	-14.114603
47052		48.923659	30.424705	-14.110068
47053		48.920927	30.428049	-14.104549
47054		48.916810	30.431625	-14.096895
47055		48.918780	30.430977	-14.087455
47056		48.920768	30.434277	-14.074618
47057		48.924472	30.432341	-14.066277
47058		48.923824	30.434850	-14.052090
47059		48.908578	30.439443	-14.033415
47060		48.874487	30.443448	-14.012163
47061		48.829598	30.445385	-13.986694
47062		48.780880	30.443798	-13.964434
47063		48.731919	30.441100	-13.945276
47064		48.691815	30.435581	-13.925854
47065		48.655971	30.427723	-13.911131
47066		48.630209	30.417641	-13.901061
47067		48.614239	30.403377	-13.892369
47068		48.608962	30.389946	-13.884248
47069		48.608100	30.377266	-13.874754
47070		48.604996	30.366835	-13.864160
47071		48.592766	30.355780	-13.854191
47072		48.570960	30.343690	-13.846400
47073		48.546607	30.334845	-13.837285
47074		48.522085	30.318997	-13.832574
47075		48.501476	30.302387	-13.827848
47076		48.490742	30.287078	-13.826467
47077		48.493306	30.272179	-13.825926
47078		48.501184	30.255566	-13.826193
47079		48.514031	30.237374	-13.828439
47080		48.527742	30.223831	-13.829692
47081		48.537466	30.209306	-13.824882
47082		48.534189	30.193151	-13.815951
47083		48.523420	30.179916	-13.805109
47084		48.506670	30.168270	-13.790032
47085		48.484010	30.156877	-13.776073
47086		48.460134	30.145480	-13.765168
47087		48.439984	30.131742	-13.758561
47088		48.426871	30.118459	-13.756345
47089		48.422363	30.107328	-13.755911
47090		48.425838	30.095452	-13.756169
47091		48.433194	30.088606	-13.756828
47092		48.446815	30.078687	-13.754787
47093		48.460494	30.068550	-13.750685
47094		48.473171	30.063059	-13.741017
47095		48.479181	30.057053	-13.729532
47096		48.474576	30.050073	-13.719130
47097		48.464892	30.044810	-13.705380
47098		48.448088	30.043709	-13.692561
47099		48.429264	30.040902	-13.677530
47100		48.412051	30.037640	-13.665304
47101		48.399379	30.033756	-13.651642
47102		48.385631	30.029958	-13.639006
47103		48.373257	30.023267	-13.625059
47104		48.367671	30.019233	-13.609241
47105		48.364723	30.017336	-13.592011
47106		48.356197	30.013846	-13.577097
47107		48.347561	30.012195	-13.566553
47108		48.345491	30.008892	-13.555312
47109		48.342335	30.006531	-13.548177
47110		48.337718	30.005192	-13.538354
47111		48.331795	30.003603	-13.529625
47112		48.322835	30.001902	-13.525299
47113		48.315739	29.999405	-13.518628
47114		48.305282	29.999687	-13.516705
47115		48.302127	29.998711	-13.514728
47116		48.303650	29.998153	-13.511940
47117		48.304696	29.995956	-13.508531
47118		48.305676	29.994647	-13.506359
47119		48.306554	29.992451	-13.505078
47120		48.312551	29.989891	-13.505078
47121		48.318644	29.987906	-13.501707
47122		48.320952	29.984538	-13.499369
47123		48.323196	29.981704	-13.495804
47124		48.323258	29.978966	-13.492626
47125		48.323755	29.977457	-13.487968
47126		48.319830	29.975247	-13.484709
47127		48.310914	29.970943	-13.488662
47128		48.306731	29.964952	-13.493171
47129		48.306708	29.963727	-13.502773
47130		48.307694	29.961463	-13.508905
47131		48.309207	29.961851	-13.511050
47132		48.307886	29.964592	-13.511938
47133		48.307667	29.967256	-13.511600
47134		48.308008	29.968087	-13.507852
47135		48.300772	29.968879	-13.505843
47136		48.294957	29.967234	-13.504472
47137		48.289988	29.964546	-13.506970
47138		48.284383	29.963503	-13.509453
47139		48.279769	29.961559	-13.513609
47140		48.277853	29.961323	-13.518430
47141		48.274381	29.960871	-13.520991
47142		48.270122	29.958511	-13.522200
47143		48.265443	29.955912	-13.520580
47144		48.262322	29.951635	-13.516661
47145		48.256263	29.950403	-13.516459
47146		48.248857	29.947987	-13.514716
47147		48.246270	29.946257	-13.513987
47148		48.245658	29.944176	-13.511443
47149		48.242464	29.943135	-13.510888
47150		48.241423	29.943798	-13.510625
47151		48.237880	29.947061	-13.508670
47152		48.229636	29.945228	-13.509798
47153		48.227507	29.944160	-13.510188
47154		48.224727	29.944721	-13.510684
47155		48.220514	29.945699	-13.513283
47156		48.214796	29.946805	-13.514683
47157		48.211912	29.947849	-13.514273
47158		48.212218	29.947196	-13.512735
47159		48.212400	29.946411	-13.511246
47160		48.210851	29.947806	-13.509385
47161		48.211600	29.947081	-13.502067
47162		48.210200	29.947809	-13.499077
47163		48.211554	29.944905	-13.499584
47164		48.213041	29.942862	-13.499007
47165		48.210009	29.942679	-13.495186
47166		48.208592	29.942665	-13.493302
47167		48.208791	29.944512	-13.495265
47168		48.206582	29.945607	-13.502340
47169		48.205280	29.948702	-13.508813
47170		48.206042	29.950734	-13.512774
47171		48.207593	29.953848	-13.519217
47172		48.212097	29.958912	-13.522197
47173		48.214613	29.961449	-13.523880
47174		48.218034	29.965011	-13.528087
47175		48.221079	29.966573	-13.538652
47176		48.224180	29.969026	-13.555628
47177		48.227844	29.973393	-13.576464
47178		48.238474	29.976791	-13.596982
47179		48.242979	29.982331	-13.619663
47180		48.252934	29.986385	-13.640820
47181		48.256681	29.990661	-13.667198
47182		48.268286	29.996748	-13.693710
47183		48.282060	30.001151	-13.729151
47184		48.299379	30.010753	-13.764975
47185		48.320793	30.016591	-13.808584
47186		48.345997	30.027071	-13.850679
47187		48.374384	30.041199	-13.888624
47188		48.401699	30.054166	-13.922172
47189		48.425802	30.067405	-13.958854
47190		48.448632	30.081404	-13.997931
47191		48.475231	30.095959	-14.037197
47192		48.504554	30.113339	-14.068307
47193		48.532232	30.128322	-14.100689
47194		48.561922	30.140961	-14.125629
47195		48.579967	30.155071	-14.145275
47196		48.594751	30.165886	-14.160906
47197		48.605882	30.174413	-14.173990
47198		48.613638	30.183543	-14.187687
47199		48.616052	30.192941	-14.202682
47200		48.622045	30.201223	-14.218252
47201		48.628294	30.215953	-14.228473
47202		48.635886	30.226712	-14.234987
47203		48.641855	30.241735	-14.233612
47204		48.642837	30.254675	-14.228178
47205		48.637619	30.266431	-14.222764
47206		48.625120	30.277272	-14.218959
47207		48.610628	30.287844	-14.217903
47208		48.603654	30.295964	-14.218965
47209		48.602690	30.303271	-14.229197
47210		48.609198	30.312521	-14.236944
47211		48.621087	30.322750	-14.237628
47212		48.628229	30.330085	-14.239739
47213		48.636085	30.335922	-14.240227
47214		48.647660	30.339260	-14.241221
47215		48.658359	30.339675	-14.241091
47216		48.670735	30.340210	-14.242528
47217		48.685829	30.335771	-14.242702
47218		48.709079	30.331976	-14.240574
47219		48.732080	30.325130	-14.236324
47220		48.756195	30.321490	-14.230213
47221		48.780279	30.316950	-14.223610
47222		48.803137	30.311725	-14.220981
47223		48.820093	30.308918	-14.217549
47224		48.827522	30.308021	-14.211824
47225		48.827941	30.314719	-14.198727
47226		48.822137	30.322848	-14.177999
47227		48.806430	30.331682	-14.159477
47228		48.790305	30.338530	-14.142228
47229		48.772711	30.346608	-14.126265
47230		48.761995	30.352882	-14.112794
47231		48.758495	30.360111	-14.098137
47232		48.754971	30.367392	-14.085453
47233		48.754312	30.375353	-14.069955
47234		48.753476	30.384897	-14.056392
47235		48.756038	30.392264	-14.044271
47236		48.761909	30.397699	-14.036527
47237		48.766506	30.401544	-14.030476
47238		48.771644	30.405416	-14.026700
47239		48.775422	30.409104	-14.024321
47240		48.781709	30.416689	-14.015974
47241		48.785995	30.423391	-14.004295
47242		48.788630	30.431647	-13.991405
47243		48.787525	30.438738	-13.983124
47244		48.787920	30.441784	-13.976045
47245		48.789667	30.444629	-13.972398
47246		48.797003	30.445649	-13.972778
47247		48.808679	30.445243	-13.975271
47248		48.822776	30.444372	-13.978139
47249		48.839582	30.442713	-13.976265
47250		48.853215	30.444046	-13.975311
47251		48.863108	30.443724	-13.971571
47252		48.864687	30.445380	-13.965452
47253		48.861863	30.447989	-13.962551
47254		48.863427	30.448700	-13.964755
47255		48.869688	30.448676	-13.970797
47256		48.883792	30.447595	-13.980877
47257		48.899752	30.445729	-13.988836
47258		48.923106	30.444411	-13.996662
47259		48.943991	30.441262	-14.007501
47260		48.966952	30.438529	-14.014823
47261		48.985930	30.436977	-14.013317
47262		48.994634	30.437616	-14.004097
47263		48.989314	30.436858	-13.993227
47264		48.977548	30.436538	-13.986539
47265		48.967552	30.435273	-13.985510
47266		48.968591	30.435977	-13.987225
47267		48.975652	30.433823	-13.987937
47268		48.985858	30.431335	-13.991843
47269		48.999712	30.429047	-13.991394
47270		49.019642	30.425048	-13.988551
47271		49.042182	30.416068	-13.986078
47272		49.068595	30.407547	-13.978003
47273		49.092542	30.396637	-13.966626
47274		49.108458	30.382836	-13.954313
47275		49.121728	30.374886	-13.946128
47276		49.129827	30.367658	-13.939217
47277		49.134715	30.360806	-13.935390
47278		49.138846	30.354656	-13.934514
47279		49.146702	30.350644	-13.933227
47280		49.157247	30.348284	-13.932668
47281		49.168817	30.345186	-13.925356
47282		49.180504	30.340892	-13.919670
47283		49.189656	30.337734	-13.908568
47284		49.198434	30.335467	-13.901575
47285		49.208876	30.333712	-13.900047
47286		49.219499	30.333364	-13.903360
47287		49.232442	30.331768	-13.906004
47288		49.243995	30.327948	-13.908657
47289		49.254331	30.324831	-13.903619
47290		49.261720	30.317515	-13.898476
47291		49.267644	30.312792	-13.892855
47292		49.270862	30.305950	-13.889888
47293		49.277920	30.299116	-13.887539
47294		49.287115	30.293172	-13.886610
47295		49.295166	30.287713	-13.884885
47296		49.305348	30.285398	-13.881609
47297		49.311658	30.281861	-13.883961
47298		49.318956	30.281391	-13.886577
47299		49.326812	30.279404	-13.889647
47300		49.338150	30.279860	-13.890103
47301		49.348149	30.281036	-13.883611
47302		49.358179	30.280307	-13.873143
47303		49.361929	30.280541	-13.861454
47304		49.358993	30.283449	-13.853670
47305		49.354013	30.285292	-13.850160
47306		49.345353	30.288471	-13.850284
47307		49.335824	30.290123	-13.847332
47308		49.330678	30.289320	-13.843159
47309		49.326990	30.289155	-13.839641
47310		49.322667	30.291917	-13.835355
47311		49.321502	30.293352	-13.827946
47312		49.323832	30.296347	-13.825060
47313		49.326875	30.298581	-13.819565
47314		49.328300	30.300887	-13.814575
47315		49.325978	30.297078	-13.812754
47316		49.323443	30.295584	-13.812144
47317		49.322869	30.293203	-13.814885
47318		49.325454	30.292467	-13.820295
47319		49.329483	30.291695	-13.827341
47320		49.333142	30.291711	-13.832617
47321		49.336233	30.292383	-13.828907
47322		49.336519	30.291731	-13.827393
47323		49.337865	30.292953	-13.830695
47324		49.346874	30.295996	-13.836410
47325		49.357737	30.298305	-13.839918
47326		49.360005	30.299094	-13.840373
47327		49.358314	30.298877	-13.840707
47328		49.363612	30.296228	-13.842465
47329		49.375495	30.295593	-13.851113
47330		49.388465	30.296620	-13.859120
47331		49.388998	30.298351	-13.865249
47332		49.380968	30.299400	-13.866970
47333		49.371234	30.300221	-13.867531
47334		49.365646	30.301432	-13.866735
47335		49.363665	30.303290	-13.868338
47336		49.358351	30.307320	-13.868052
47337		49.346750	30.308866	-13.863033
47338		49.334526	30.310579	-13.859728
47339		49.328307	30.312179	-13.864962
47340		49.331990	30.317825	-13.870769
47341		49.336217	30.324703	-13.873559
47342		49.330923	30.329466	-13.872163
47343		49.319863	30.331630	-13.873850
47344		49.314799	30.332847	-13.873546
47345		49.309875	30.336067	-13.874977
47346		49.303317	30.339277	-13.877069
47347		49.293124	30.342903	-13.880090
47348		49.284650	30.345957	-13.885193
47349		49.280518	30.352390	-13.888251
47350		49.273580	30.359813	-13.890382
47351		49.264288	30.366159	-13.893877
47352		49.253830	30.372662	-13.898667
47353		49.251936	30.380017	-13.900565
47354		49.252117	30.386397	-13.899601
47355		49.247864	30.389613	-13.899534
47356		49.247181	30.390961	-13.900907
47357		49.248548	30.392244	-13.903993
47358		49.250182	30.394239	-13.911174
47359		49.250010	30.399448	-13.922501
47360		49.251432	30.404797	-13.935800
47361		49.249655	30.413520	-13.949209
47362		49.245065	30.422127	-13.963253
47363		49.234904	30.433257	-13.972255
47364		49.224344	30.441699	-13.983168
47365		49.211485	30.451998	-13.992174
47366		49.197625	30.466675	-14.001834
47367		49.188096	30.481518	-14.005619
47368		49.181656	30.493822	-14.009922
47369		49.177199	30.506579	-14.016713
47370		49.173967	30.515515	-14.020065
47371		49.167371	30.521391	-14.025018
47372		49.161150	30.524525	-14.029863
47373		49.153963	30.528220	-14.030615
47374		49.154477	30.528913	-14.031841
47375		49.154094	30.529349	-14.035619
47376		49.159086	30.528235	-14.032399
47377		49.161145	30.528946	-14.027528
47378		49.163111	30.527307	-14.013043
47379		49.164240	30.524132	-13.995365
47380		49.162944	30.519690	-13.975195
47381		49.157737	30.514132	-13.954768
47382		49.150005	30.510796	-13.935964
47383		49.138930	30.509907	-13.919495
47384		49.125459	30.512642	-13.901964
47385		49.111428	30.514492	-13.884589
47386		49.096923	30.512131	-13.871631
47387		49.081386	30.510933	-13.862299
47388		49.069196	30.509216	-13.855147
47389		49.062398	30.508916	-13.848538
47390		49.057100	30.508779	-13.845506
47391		49.057127	30.510828	-13.843429
47392		49.065725	30.512639	-13.841412
47393		49.075468	30.513735	-13.838916
47394		49.083917	30.516213	-13.838026
47395		49.090152	30.516125	-13.845514
47396		49.099708	30.518973	-13.858899
47397		49.111321	30.525245	-13.870375
47398		49.120645	30.531634	-13.882677
47399		49.129112	30.535816	-13.892763
47400		49.137516	30.541711	-13.895755
47401		49.141695	30.542522	-13.892654
47402		49.144075	30.542093	-13.885880
47403		49.145681	30.535826	-13.880080
47404		49.148268	30.526234	-13.873846
47405		49.153532	30.513643	-13.871966
47406		49.160685	30.498247	-13.879026
47407		49.177796	30.488046	-13.889320
47408		49.200834	30.481840	-13.892703
47409		49.225669	30.473471	-13.889104
47410		49.242626	30.459464	-13.884963
47411		49.255975	30.438059	-13.882669
47412		49.264333	30.413883	-13.876871
47413		49.263911	30.387901	-13.868008
47414		49.253938	30.365992	-13.855085
47415		49.243776	30.348901	-13.845468
47416		49.235087	30.337402	-13.840667
47417		49.226253	30.327841	-13.834559
47418		49.217137	30.320006	-13.823708
47419		49.206125	30.309654	-13.817106
47420		49.193855	30.300848	-13.811633
47421		49.180714	30.290502	-13.803134
47422		49.167913	30.278450	-13.786100
47423		49.143911	30.264641	-13.760941
47424		49.115299	30.247260	-13.734803
47425		49.087890	30.228848	-13.715441
47426		49.063471	30.213297	-13.706488
47427		49.045690	30.202850	-13.692892
47428		49.030207	30.199993	-13.670633
47429		49.011502	30.198435	-13.643270
47430		48.986110	30.198176	-13.614488
47431		48.949731	30.198895	-13.578730
47432		48.902136	30.199323	-13.543849
47433		48.854554	30.198926	-13.501054
47434		48.802887	30.198620	-13.461155
47435		48.749609	30.192214	-13.426299
47436		48.701339	30.188411	-13.390411
47437		48.661360	30.184779	-13.355382
47438		48.624457	30.179806	-13.327489
47439		48.595939	30.178178	-13.311100
47440		48.580793	30.182107	-13.299328
47441		48.575097	30.189477	-13.292649
47442		48.572998	30.190119	-13.291421
47443		48.570634	30.192343	-13.298452
47444		48.574176	30.193006	-13.304820
47445		48.587229	30.190123	-13.315718
47446		48.603375	30.190434	-13.327709
47447		48.621008	30.194119	-13.337676
47448		48.631229	30.201567	-13.337690
47449		48.627996	30.210722	-13.326122
47450		48.615875	30.217030	-13.309002
47451		48.595153	30.220813	-13.287577
47452		48.565071	30.224452	-13.264401
47453		48.530623	30.226651	-13.247665
47454		48.499728	30.229956	-13.235659
47455		48.482213	30.228483	-13.230005
47456		48.475994	30.226918	-13.225968
47457		48.475758	30.220339	-13.222759
47458		48.479666	30.214292	-13.216893
47459		48.488063	30.203228	-13.208687
47460		48.491332	30.190999	-13.195701
47461		48.485141	30.175265	-13.183499
47462		48.469814	30.160837	-13.172273
47463		48.453390	30.150301	-13.162765
47464		48.436043	30.141278	-13.157327
47465		48.420769	30.129982	-13.155339
47466		48.409450	30.117497	-13.156326
47467		48.407311	30.103769	-13.155944
47468		48.410982	30.091285	-13.152858
47469		48.413091	30.077163	-13.148473
47470		48.411071	30.063185	-13.140010
47471		48.407014	30.052438	-13.131295
47472		48.398955	30.039520	-13.126897
47473		48.395298	30.028719	-13.120678
47474		48.392011	30.016606	-13.119560
47475		48.389869	30.006399	-13.122875
47476		48.393507	29.996595	-13.124776
47477		48.401913	29.985497	-13.123659
47478		48.408663	29.975932	-13.121313
47479		48.411200	29.964695	-13.115268
47480		48.413757	29.956538	-13.106814
47481		48.415395	29.948965	-13.093815
47482		48.414404	29.944243	-13.083596
47483		48.415787	29.936523	-13.073572
47484		48.416150	29.925387	-13.067594
47485		48.415956	29.913937	-13.060989
47486		48.414202	29.902768	-13.053062
47487		48.414104	29.893655	-13.042678
47488		48.419345	29.884311	-13.029483
47489		48.425835	29.875530	-13.013389
47490		48.433087	29.868355	-13.001061
47491		48.443426	29.862494	-12.989764
47492		48.452966	29.859574	-12.979927
47493		48.458926	29.859097	-12.969154
47494		48.457176	29.857906	-12.957384
47495		48.452302	29.855757	-12.942853
47496		48.452187	29.853365	-12.925362
47497		48.446637	29.849810	-12.913170
47498		48.441091	29.844886	-12.903516
47499		48.436734	29.838856	-12.900964
47500		48.435523	29.835281	-12.900167
47501		48.436580	29.831538	-12.898707
47502		48.442857	29.828316	-12.895342
47503		48.449865	29.823552	-12.890181
47504		48.448862	29.822246	-12.883843
47505		48.452062	29.820324	-12.873230
47506		48.451838	29.816946	-12.866244
47507		48.457922	29.810073	-12.860870
47508		48.465765	29.806136	-12.860076
47509		48.473487	29.801306	-12.860527
47510		48.474294	29.799904	-12.860592
47511		48.473704	29.800392	-12.860907
47512		48.473076	29.799030	-12.857284
47513		48.473742	29.798262	-12.850405
47514		48.470450	29.796127	-12.845450
47515		48.467652	29.791763	-12.834914
47516		48.465021	29.788963	-12.829326
47517		48.463139	29.788080	-12.825761
47518		48.459824	29.787907	-12.826880
47519		48.463049	29.783596	-12.851186
47520		48.476106	29.775522	-12.909350
47521		48.513404	29.782866	-12.973071
47522		48.559781	29.802397	-13.022794
47523		48.601221	29.821206	-13.054510
47524		48.626759	29.832781	-13.080819
47525		48.642352	29.837637	-13.102894
47526		48.653942	29.838233	-13.123729
47527		48.666597	29.838030	-13.144688
47528		48.678547	29.837835	-13.169344
47529		48.696248	29.838267	-13.198369
47530		48.713670	29.848930	-13.220701
47531		48.723563	29.857892	-13.238368
47532		48.730527	29.867729	-13.249832
47533		48.739077	29.874692	-13.257391
47534		48.747331	29.878302	-13.265936
47535		48.756343	29.879663	-13.273472
47536		48.757628	29.879498	-13.281215
47537		48.755880	29.879961	-13.282265
47538		48.757228	29.879309	-13.281718
47539		48.757539	29.879229	-13.278485
47540		48.753817	29.878380	-13.278007
47541		48.747195	29.876594	-13.278361
47542		48.739018	29.872680	-13.280638
47543		48.732636	29.867956	-13.281135
47544		48.722065	29.861924	-13.279839
47545		48.715477	29.858089	-13.274222
47546		48.711388	29.854603	-13.266058
47547		48.705017	29.847153	-13.261634
47548		48.698315	29.838546	-13.256549
47549		48.696180	29.827724	-13.252125
47550		48.697496	29.819479	-13.244957
47551		48.695525	29.807430	-13.239934
47552		48.691327	29.796102	-13.234543
47553		48.683986	29.783879	-13.225266
47554		48.675445	29.774631	-13.214885
47555		48.666387	29.765216	-13.202290
47556		48.655164	29.754459	-13.191682
47557		48.641544	29.741848	-13.183884
47558		48.630685	29.730298	-13.177091
47559		48.622651	29.720653	-13.174652
47560		48.616209	29.713391	-13.172288
47561		48.612458	29.709595	-13.166701
47562		48.608095	29.707449	-13.160777
47563		48.601652	29.704305	-13.153207
47564		48.592193	29.700492	-13.149555
47565		48.581545	29.697808	-13.144645
47566		48.569848	29.695372	-13.139057
47567		48.560696	29.695705	-13.133305
47568		48.553755	29.692600	-13.133207
47569		48.550460	29.690019	-13.135597
47570		48.546598	29.689101	-13.137333
47571		48.548456	29.685433	-13.139677
47572		48.549599	29.679076	-13.140801
47573		48.550721	29.674125	-13.138293
47574		48.549272	29.670673	-13.132565
47575		48.546655	29.664769	-13.129195
47576		48.543837	29.660438	-13.128044
47577		48.542120	29.655377	-13.126751
47578		48.543292	29.650490	-13.125668
47579		48.546430	29.643315	-13.130039
47580		48.550196	29.635522	-13.135809
47581		48.551532	29.628887	-13.141684
47582		48.551165	29.621584	-13.149608
47583		48.553396	29.614171	-13.159835
47584		48.554424	29.603880	-13.175856
47585		48.554991	29.593974	-13.197241
47586		48.559727	29.582996	-13.217775
47587		48.569227	29.572985	-13.232122
47588		48.577872	29.562376	-13.244469
47589		48.591797	29.548931	-13.256458
47590		48.606253	29.534238	-13.271415
47591		48.621529	29.520714	-13.289015
47592		48.638950	29.509618	-13.305830
47593		48.651682	29.500177	-13.322145
47594		48.665164	29.492581	-13.334477
47595		48.675967	29.485537	-13.343000
47596		48.680835	29.481187	-13.353608
47597		48.684108	29.477351	-13.361290
47598		48.686854	29.472972	-13.369947
47599		48.688706	29.469237	-13.373671
47600		48.688168	29.467695	-13.377210
47601		48.683625	29.465129	-13.382278
47602		48.676021	29.463906	-13.389967
47603		48.667866	29.463257	-13.395782
47604		48.659039	29.460476	-13.406922
47605		48.650693	29.457539	-13.418406
47606		48.645867	29.454939	-13.428516
47607		48.643664	29.453715	-13.438691
47608		48.648459	29.453721	-13.444900
47609		48.648965	29.453976	-13.455133
47610		48.652808	29.451821	-13.461453
47611		48.654775	29.451604	-13.467106
47612		48.654751	29.448592	-13.473336
47613		48.656140	29.446162	-13.481924
47614		48.657338	29.446659	-13.490767
47615		48.659441	29.446160	-13.502336
47616		48.654209	29.444092	-13.518005
47617		48.652924	29.439756	-13.535767
47618		48.651423	29.438475	-13.553747
47619		48.655180	29.433672	-13.572534
47620		48.662986	29.431914	-13.595466
47621		48.678242	29.430073	-13.623501
47622		48.699764	29.429446	-13.650863
47623		48.723460	29.431715	-13.673846
47624		48.742619	29.434613	-13.698189
47625		48.761259	29.437962	-13.728220
47626		48.785546	29.439598	-13.779511
47627		48.817341	29.449725	-13.833358
47628		48.860782	29.467810	-13.880177
47629		48.902093	29.485679	-13.924588
47630		48.938066	29.502181	-13.966781
47631		48.971760	29.519481	-13.998466
47632		48.996297	29.535213	-14.026584
47633		49.014793	29.547367	-14.047266
47634		49.024945	29.560677	-14.065526
47635		49.032565	29.573027	-14.087479
47636		49.040693	29.586106	-14.110948
47637		49.049082	29.601803	-14.134620
47638		49.060831	29.620029	-14.155998
47639		49.071886	29.640814	-14.174727
47640		49.081760	29.660349	-14.196884
47641		49.099058	29.679418	-14.217323
47642		49.119873	29.698776	-14.236494
47643		49.140674	29.716002	-14.249347
47644		49.155361	29.732452	-14.262635
47645		49.165007	29.745003	-14.279147
47646		49.169378	29.758752	-14.298111
47647		49.179771	29.773199	-14.318557
47648		49.194798	29.790050	-14.342843
47649		49.216259	29.806265	-14.364269
47650		49.240518	29.824324	-14.384105
47651		49.265619	29.840155	-14.401298
47652		49.288676	29.854710	-14.418515
47653		49.315057	29.868461	-14.437125
47654		49.345721	29.880513	-14.453954
47655		49.375271	29.894654	-14.466413
47656		49.400491	29.908031	-14.478379
47657		49.419885	29.921765	-14.490973
47658		49.443100	29.932967	-14.502079
47659		49.461686	29.942358	-14.515865
47660		49.482337	29.949170	-14.528951
47661		49.503129	29.953543	-14.542758
47662		49.527113	29.955581	-14.554889
47663		49.554557	29.959122	-14.563054
47664		49.581092	29.959920	-14.572662
47665		49.606254	29.962691	-14.580837
47666		49.632544	29.962878	-14.586609
47667		49.659830	29.965831	-14.589119
47668		49.686801	29.966088	-14.593148
47669		49.713618	29.967681	-14.595467
47670		49.736886	29.969348	-14.593870
47671		49.755653	29.971733	-14.589320
47672		49.765960	29.973625	-14.586565
47673		49.773855	29.975967	-14.583434
47674		49.781897	29.978495	-14.579851
47675		49.795980	29.979642	-14.579420
47676		49.812151	29.982350	-14.580906
47677		49.828869	29.985673	-14.581294
47678		49.845857	29.987780	-14.579917
47679		49.858996	29.989656	-14.575441
47680		49.865070	29.992947	-14.566568
47681		49.866779	29.996698	-14.554349
47682		49.862340	30.006007	-14.542325
47683		49.854637	30.011547	-14.532521
47684		49.846785	30.015609	-14.527587
47685		49.846080	30.018844	-14.525748
47686		49.852226	30.020480	-14.526270
47687		49.863613	30.020008	-14.527202
47688		49.882330	30.020724	-14.527268
47689		49.902140	30.017690	-14.531590
47690		49.920951	30.014799	-14.534984
47691		49.939106	30.014729	-14.535227
47692		49.957304	30.016165	-14.533696
47693		49.974406	30.018966	-14.528760
47694		49.987837	30.021795	-14.520626
47695		49.990694	30.022092	-14.511249
47696		49.991294	30.021071	-14.497002
47697		49.984257	30.017427	-14.488714
47698		49.979578	30.016647	-14.485074
47699		49.982757	30.016831	-14.480187
47700		49.990798	30.018608	-14.477707
47701		49.999096	30.020406	-14.470503
47702		50.009413	30.018846	-14.463894
47703		50.013362	30.016986	-14.458448
47704		50.016157	30.014351	-14.455549
47705		50.016007	30.015006	-14.449042
47706		50.016675	30.015767	-14.448041
47707		50.014019	30.016971	-14.444855
47708		50.005579	30.017369	-14.444994
47709		49.997161	30.018289	-14.443650
47710		49.991443	30.022385	-14.440658
47711		49.991218	30.027337	-14.437199
47712		49.993519	30.030317	-14.434319
47713		49.993432	30.032372	-14.432908
47714		49.991513	30.028762	-14.433920
47715		49.994212	30.025034	-14.439882
47716		49.997233	30.021552	-14.443040
47717		49.997066	30.020714	-14.447579
47718		49.998878	30.020583	-14.455837
47719		50.004021	30.021182	-14.463340
47720		50.008427	30.022727	-14.464630
47721		50.009437	30.024738	-14.464088
47722		50.007133	30.021182	-14.462386
47723		50.006495	30.016239	-14.460485
47724		50.008732	30.012131	-14.459324
47725		50.013139	30.007190	-14.459162
47726		50.017484	30.001648	-14.462171
47727		50.020599	29.995840	-14.466196
47728		50.027244	29.991853	-14.466696
47729		50.032969	29.989829	-14.468074
47730		50.037347	29.986483	-14.467748
47731		50.042332	29.983812	-14.464589
47732		50.042437	29.979674	-14.461487
47733		50.036246	29.977454	-14.456010
47734		50.029297	29.977318	-14.451547
47735		50.023278	29.979268	-14.446582
47736		50.015383	29.980408	-14.446095
47737		50.011426	29.980898	-14.445581
47738		50.011601	29.987273	-14.444599
47739		50.019184	29.991658	-14.444300
47740		50.022807	29.992575	-14.441271
47741		50.027355	29.991463	-14.434876
47742		50.029249	29.990334	-14.426554
47743		50.031295	29.986993	-14.417249
47744		50.030478	29.982899	-14.410947
47745		50.029837	29.980829	-14.406285
47746		50.028862	29.975944	-14.403325
47747		50.028048	29.976744	-14.398218
47748		50.030072	29.977636	-14.393732
47749		50.034271	29.979803	-14.387178
47750		50.039564	29.982431	-14.373982
47751		50.041411	29.982663	-14.361973
47752		50.036206	29.982610	-14.356741
47753		50.044165	29.986428	-14.351172
47754		50.048904	29.992977	-14.349614
47755		50.047480	29.997729	-14.347548
47756		50.038169	30.001104	-14.340042
47757		50.028307	30.001484	-14.335854
47758		50.025900	30.003491	-14.336885
47759		50.029292	30.006331	-14.340588
47760		50.030628	30.009121	-14.343907
47761		50.026946	30.009602	-14.346681
47762		50.024538	30.011609	-14.347713
47763		50.027029	30.015049	-14.347281
47764		50.034555	30.020229	-14.348146
47765		50.039041	30.026588	-14.349018
47766		50.040413	30.031570	-14.348999
47767		50.034437	30.034179	-14.350386
47768		50.028379	30.035234	-14.356307
47769		50.027390	30.036852	-14.361084
47770		50.027308	30.044566	-14.362332
47771		50.026281	30.049191	-14.363033
47772		50.021593	30.051108	-14.364356
47773		50.021690	30.050743	-14.365419
47774		50.025011	30.050805	-14.367957
47775		50.030012	30.052153	-14.367756
47776		50.026814	30.056226	-14.369427
47777		50.025332	30.059652	-14.369625
47778		50.023627	30.063186	-14.366692
47779		50.020606	30.065019	-14.367330
47780		50.015530	30.066988	-14.365940
47781		50.004292	30.069225	-14.363821
47782		49.994152	30.072472	-14.360299
47783		49.989587	30.075831	-14.356991
47784		49.984911	30.078478	-14.357204
47785		49.986128	30.080464	-14.363111
47786		49.986673	30.085317	-14.367067
47787		49.988531	30.090110	-14.367477
47788		49.989477	30.092947	-14.368082
47789		49.990191	30.096261	-14.370032
47790		49.991537	30.099776	-14.372239
47791		49.989315	30.102949	-14.376076
47792		49.990890	30.102929	-14.379385
47793		49.991035	30.103171	-14.386738
47794		49.993594	30.106760	-14.387686
47795		49.997479	30.108355	-14.387821
47796		50.004679	30.108524	-14.391520
47797		50.016161	30.109382	-14.397530
47798		50.027384	30.112414	-14.405117
47799		50.029622	30.117207	-14.408191
47800		50.028990	30.124177	-14.410070
47801		50.026626	30.130184	-14.411952
47802		50.025665	30.132150	-14.416675
47803		50.026398	30.136946	-14.416393
47804		50.027369	30.141244	-14.414773
47805		50.029437	30.143984	-14.414268
47806		50.031449	30.146834	-14.415843
47807		50.036202	30.148801	-14.418792
47808		50.040517	30.155893	-14.422803
47809		50.046027	30.162179	-14.426318
47810		50.051784	30.165810	-14.430172
47811		50.053843	30.169378	-14.428552
47812		50.052951	30.172303	-14.422759
47813		50.049582	30.178638	-14.414119
47814		50.042302	30.184901	-14.406354
47815		50.033498	30.189663	-14.403024
47816		50.026710	30.193741	-14.399083
47817		50.020986	30.196979	-14.395424
47818		50.013114	30.203004	-14.396582
47819		50.013099	30.211909	-14.402602
47820		50.019157	30.221768	-14.410789
47821		50.027890	30.233056	-14.418801
47822		50.037856	30.244484	-14.425920
47823		50.044721	30.257881	-14.426148
47824		50.045482	30.266438	-14.422311
47825		50.037577	30.276628	-14.417131
47826		50.023243	30.279645	-14.416943
47827		50.010002	30.282486	-14.415938
47828		49.997523	30.283451	-14.416079
47829		49.987306	30.284373	-14.415670
47830		49.981524	30.285540	-14.417156
47831		49.979453	30.288659	-14.418863
47832		49.984579	30.291718	-14.416163
47833		49.987134	30.293775	-14.418736
47834		49.992237	30.298793	-14.422105
47835		49.993284	30.304919	-14.424300
47836		49.993415	30.311773	-14.431617
47837		49.991044	30.318239	-14.441587
47838		49.984856	30.324835	-14.450279
47839		49.975656	30.332064	-14.450888
47840		49.961620	30.338613	-14.450097
47841		49.947664	30.344293	-14.448210
47842		49.935924	30.351659	-14.446013
47843		49.928022	30.354682	-14.449645
47844		49.922756	30.358538	-14.456583
47845		49.917638	30.363735	-14.458942
47846		49.907587	30.368257	-14.460418
47847		49.899355	30.370602	-14.462068
47848		49.891494	30.374658	-14.457181
