// General information: 
//  MT Manager version: 2022.2.0 
//  XDA version: 2022.2.0 build 7381 rev 124627 built on 2023-07-19
// Device information: 
//  DeviceId: 00B44805
//  ProductCode: MTW2-3A7G6
//  Firmware Version: 4.3.5
//  Hardware Version: 2.0.0
// Device settings: 
//  Filter Profile: human(46.1)
//  Option Flags: Orientation Smoother Disabled, Position/Velocity Smoother Disabled, Continuous Zero Rotation Update Disabled, AHS Disabled, ICC Disabled
// Coordinate system: ENU
PacketCounter	SampleTimeFine	Roll	Pitch	Yaw
61122		83.674044	-41.762073	31.991119
61123		83.675814	-41.758364	31.998250
61124		83.672831	-41.750606	31.998419
61125		83.669385	-41.744724	31.989105
61126		83.662052	-41.738245	31.979179
61127		83.659647	-41.732963	31.958592
61128		83.668634	-41.729990	31.932546
61129		83.687454	-41.727080	31.910179
61130		83.716373	-41.725781	31.891620
61131		83.758633	-41.724067	31.865713
61132		83.801076	-41.726317	31.843573
61133		83.837936	-41.721862	31.824749
61134		83.867350	-41.713635	31.799592
61135		83.886596	-41.704383	31.773778
61136		83.896103	-41.690375	31.750114
61137		83.905110	-41.674892	31.723031
61138		83.907984	-41.657917	31.697936
61139		83.906378	-41.638457	31.682019
61140		83.915125	-41.621487	31.663221
61141		83.923254	-41.606714	31.649702
61142		83.926864	-41.592819	31.648945
61143		83.927066	-41.579492	31.654687
61144		83.885547	-41.564690	31.686739
61145		83.969048	-41.571002	31.589408
61146		83.947914	-41.566873	31.612590
61147		83.816955	-41.555955	31.697481
61148		83.868774	-41.558167	31.646657
61149		83.894663	-41.567877	31.641986
61150		83.857100	-41.574148	31.671867
61151		83.845753	-41.572378	31.678100
61152		83.864474	-41.574296	31.677940
61153		83.836507	-41.574742	31.707309
61154		83.796873	-41.573185	31.730946
61155		83.785308	-41.576645	31.734653
61156		83.761412	-41.576910	31.749485
61157		83.718156	-41.575265	31.774190
61158		83.703638	-41.572581	31.775381
61159		83.709819	-41.569433	31.768804
61160		83.702021	-41.564927	31.783247
61161		83.677031	-41.556688	31.808478
61162		83.672120	-41.553289	31.818808
61163		83.679892	-41.549961	31.820371
61164		83.689854	-41.550925	31.812089
61165		83.655074	-41.544374	31.840117
61166		83.636998	-41.540172	31.852938
61167		83.629562	-41.539214	31.858807
61168		83.620113	-41.540778	31.867983
61169		83.605427	-41.539026	31.882390
61170		83.599830	-41.532653	31.897522
61171		83.600346	-41.521739	31.919733
61172		83.599198	-41.502423	31.939751
61173		83.597917	-41.481774	31.958500
61174		83.586258	-41.453466	31.978171
61175		83.560362	-41.416874	31.995796
61176		83.525327	-41.374510	32.005496
61177		83.493029	-41.328836	32.004225
61178		83.461720	-41.280928	31.999376
61179		83.434040	-41.229909	31.990162
61180		83.419325	-41.181807	31.968517
61181		83.417541	-41.138614	31.936723
61182		83.425813	-41.105621	31.902256
61183		83.439321	-41.077759	31.870505
61184		83.470978	-41.059196	31.828273
61185		83.521864	-41.047730	31.778569
61186		83.574919	-41.040890	31.727702
61187		83.634705	-41.037282	31.669966
61188		83.703000	-41.035403	31.608137
61189		83.765125	-41.036999	31.556305
61190		83.826810	-41.037772	31.501480
61191		83.882173	-41.040685	31.454275
61192		83.934729	-41.046361	31.412555
61193		83.976984	-41.051354	31.385314
61194		84.027687	-41.058913	31.345030
61195		84.080896	-41.066603	31.308743
61196		84.108086	-41.072130	31.278627
61197		84.146219	-41.075777	31.240247
61198		84.152195	-41.072814	31.226901
61199		84.182927	-41.068016	31.189579
61200		84.209652	-41.065031	31.152072
61201		84.227424	-41.064070	31.119877
61202		84.249700	-41.065920	31.087081
61203		84.281206	-41.072369	31.056333
61204		84.311472	-41.086633	31.030126
61205		84.338807	-41.106435	31.003268
61206		84.374850	-41.132626	30.968313
61207		84.404578	-41.161210	30.934775
61208		84.438845	-41.192681	30.895070
61209		84.488573	-41.223922	30.848735
61210		84.554897	-41.255017	30.798845
61211		84.612560	-41.279547	30.768350
61212		84.677910	-41.300176	30.736143
61213		84.749799	-41.317421	30.701360
61214		84.813807	-41.327731	30.672820
61215		84.857727	-41.327115	30.653921
61216		84.876737	-41.318157	30.644444
61217		84.882045	-41.301204	30.637489
61218		84.875553	-41.283290	30.631550
61219		84.852846	-41.259651	30.634100
61220		84.815676	-41.235228	30.650233
61221		84.758098	-41.208466	30.690970
61222		84.697221	-41.184244	30.741536
61223		84.646451	-41.166136	30.792123
61224		84.586717	-41.154435	30.851259
61225		84.515231	-41.142957	30.919971
61226		84.437291	-41.135610	30.990849
61227		84.356473	-41.128518	31.061432
61228		84.269676	-41.126926	31.138771
61229		84.162814	-41.125885	31.221944
61230		84.058684	-41.131776	31.296590
61231		83.954687	-41.140299	31.368911
61232		83.855970	-41.152612	31.441490
61233		83.768810	-41.168343	31.513721
61234		83.700920	-41.189549	31.587194
61235		83.660414	-41.213838	31.665856
61236		83.647325	-41.238704	31.747179
61237		83.654484	-41.268278	31.830180
61238		83.684824	-41.295094	31.911474
61239		83.728509	-41.321053	31.987708
61240		83.783244	-41.346666	32.056401
61241		83.847977	-41.371743	32.117113
61242		83.911462	-41.395896	32.164311
61243		83.952984	-41.415044	32.198838
61244		83.976753	-41.434399	32.222514
61245		83.987987	-41.446834	32.234444
61246		83.983954	-41.458270	32.241373
61247		83.970114	-41.464297	32.241163
61248		83.944014	-41.468441	32.240754
61249		83.904360	-41.469672	32.242008
61250		83.846185	-41.467835	32.255146
61251		83.774518	-41.462801	32.246914
61252		83.702636	-41.458463	32.191484
61253		83.356753	-41.421360	32.209100
61254		82.913007	-41.376331	32.075693
61255		82.347782	-41.328815	31.843575
61256		81.634690	-41.278260	31.565996
61257		80.843892	-41.230274	31.252264
61258		80.064473	-41.189976	30.933425
61259		79.334510	-41.152096	30.662803
61260		78.656248	-41.109698	30.445548
61261		78.000630	-41.063149	30.212453
61262		77.280424	-41.008093	29.926578
61263		76.387970	-40.954563	29.565999
61264		75.254189	-40.900989	29.119838
61265		73.950073	-40.865619	28.539905
61266		72.490655	-40.850277	27.873483
61267		70.890504	-40.850289	27.179829
61268		69.279513	-40.873264	26.497356
61269		67.798282	-40.912640	25.871103
61270		66.473503	-40.943793	25.331721
61271		65.263070	-40.957555	24.862512
61272		64.054372	-40.965611	24.366671
61273		62.725699	-41.000614	23.814964
61274		61.152519	-41.060353	23.157577
61275		59.347846	-41.172715	22.408487
61276		57.420422	-41.323279	21.645886
61277		55.593872	-41.468163	20.953267
61278		53.990188	-41.573430	20.381372
61279		52.755044	-41.635657	19.948751
61280		51.824906	-41.637399	19.645901
61281		51.101213	-41.612507	19.406995
61282		50.443268	-41.572760	19.201721
61283		49.757476	-41.538853	18.988301
61284		49.003369	-41.531821	18.768466
61285		48.210101	-41.543191	18.563045
61286		47.439831	-41.550644	18.379740
61287		46.750520	-41.546327	18.224820
61288		46.170835	-41.524994	18.112198
61289		45.739312	-41.483776	18.047245
61290		45.369143	-41.424988	18.018125
61291		45.037007	-41.380762	18.008895
61292		44.726070	-41.334239	18.014681
61293		44.437434	-41.288633	18.021474
61294		44.163903	-41.250653	18.028188
61295		43.905699	-41.211731	18.043950
61296		43.663075	-41.168162	18.053858
61297		43.422667	-41.130672	18.053731
61298		43.208810	-41.092791	18.045460
61299		43.010395	-41.050098	18.042904
61300		42.828460	-41.007427	18.031220
61301		42.671927	-40.967790	18.016604
61302		42.528798	-40.932365	18.001590
61303		42.395021	-40.908576	17.976806
61304		42.285103	-40.886001	17.947696
61305		42.206416	-40.863369	17.921574
61306		42.160942	-40.839938	17.901083
61307		42.128617	-40.818140	17.883252
61308		42.099606	-40.802957	17.855200
61309		42.061928	-40.798043	17.820834
61310		42.023210	-40.793177	17.780178
61311		41.978158	-40.792097	17.738174
61312		41.947049	-40.793504	17.698381
61313		41.951352	-40.790201	17.670114
61314		41.992849	-40.769165	17.654112
61315		42.045561	-40.742116	17.637165
61316		42.088252	-40.717645	17.618972
61317		42.111656	-40.701254	17.595168
61318		42.108312	-40.688435	17.559199
61319		42.093334	-40.679518	17.525548
61320		42.088280	-40.668037	17.497938
61321		42.116796	-40.656501	17.487040
61322		42.179912	-40.632470	17.486186
61323		42.263287	-40.611459	17.488373
61324		42.346981	-40.585479	17.492064
61325		42.419518	-40.567785	17.485863
61326		42.460252	-40.547762	17.478214
61327		42.502111	-40.526211	17.462189
61328		42.553966	-40.505873	17.455828
61329		42.632193	-40.481152	17.462093
61330		42.731053	-40.440325	17.481917
61331		42.843559	-40.404661	17.496971
61332		42.937498	-40.367742	17.515738
61333		43.015109	-40.327150	17.536889
61334		43.097182	-40.289288	17.558269
61335		43.176883	-40.249868	17.575562
61336		43.245050	-40.212505	17.592237
61337		43.332486	-40.174677	17.616260
61338		43.445812	-40.128570	17.654393
61339		43.595674	-40.080651	17.711347
61340		43.799760	-40.020219	17.792196
61341		44.095189	-39.947059	17.905963
61342		44.442905	-39.867526	18.045574
61343		44.791660	-39.792231	18.169909
61344		45.094222	-39.738585	18.263036
61345		45.324674	-39.700498	18.331820
61346		45.532098	-39.677168	18.386692
61347		45.778350	-39.658698	18.456512
61348		46.150801	-39.630353	18.571368
61349		46.717846	-39.575642	18.763116
61350		47.485889	-39.488271	19.029286
61351		48.332066	-39.378895	19.318486
61352		49.147308	-39.289986	19.594581
61353		49.860456	-39.228889	19.844357
61354		50.493843	-39.196155	20.074344
61355		51.110787	-39.176148	20.299730
61356		51.730601	-39.150241	20.543168
61357		52.467036	-39.105836	20.853564
61358		53.418495	-39.030302	21.216267
61359		54.533951	-38.937250	21.646314
61360		55.774035	-38.839771	22.121780
61361		57.094649	-38.747608	22.622546
61362		58.450331	-38.670748	23.135523
61363		59.806196	-38.615155	23.643953
61364		61.131215	-38.574858	24.143730
61365		62.431344	-38.550933	24.629610
61366		63.683345	-38.541263	25.100819
61367		64.902381	-38.548993	25.568597
61368		66.119858	-38.566488	26.031258
61369		67.341741	-38.586586	26.481312
61370		68.541882	-38.621258	26.919338
61371		69.700143	-38.670483	27.337911
61372		70.815033	-38.735296	27.728929
61373		71.879075	-38.813129	28.105667
61374		72.959360	-38.912868	28.482081
61375		74.084885	-39.011515	28.851998
61376		75.233543	-39.124205	29.231602
61377		76.377148	-39.239534	29.615828
61378		77.489541	-39.358609	29.988662
61379		78.540043	-39.486886	30.341898
61380		79.544735	-39.616666	30.679298
61381		80.580006	-39.757449	31.017448
61382		81.643466	-39.890625	31.366164
61383		82.735061	-40.027837	31.718458
61384		83.834337	-40.166269	32.063988
61385		84.901071	-40.304496	32.390191
61386		85.925077	-40.444229	32.683529
61387		86.858481	-40.581558	32.938344
61388		87.709551	-40.716557	33.150802
61389		88.462805	-40.843597	33.324685
61390		89.152066	-40.970289	33.468226
61391		89.807985	-41.089282	33.599401
61392		90.491109	-41.214855	33.738021
61393		91.261733	-41.346651	33.904724
61394		92.141543	-41.484753	34.103325
61395		93.088184	-41.614195	34.323045
61396		94.060441	-41.750026	34.559519
61397		94.999806	-41.878728	34.780389
61398		95.872505	-41.998597	34.970371
61399		96.635257	-42.105119	35.127022
61400		97.298269	-42.201724	35.237114
61401		97.848625	-42.283018	35.307224
61402		98.318750	-42.358324	35.342413
61403		98.721909	-42.424695	35.361499
61404		99.088531	-42.483988	35.367353
61405		99.428750	-42.541449	35.375516
61406		99.778157	-42.597790	35.385564
61407		100.125054	-42.657631	35.398563
61408		100.452937	-42.715833	35.408329
61409		100.732926	-42.773229	35.418302
61410		100.966671	-42.819616	35.413663
61411		101.133695	-42.859619	35.392978
61412		101.226952	-42.887003	35.343342
61413		101.232183	-42.904400	35.270271
61414		101.165660	-42.911226	35.169726
61415		101.041159	-42.917128	35.061838
61416		100.909770	-42.929465	34.968954
61417		100.841506	-42.945836	34.899007
61418		100.855354	-42.977811	34.866345
61419		100.941986	-43.018663	34.864589
61420		101.075419	-43.061055	34.892769
61421		101.230781	-43.101591	34.930940
61422		101.367164	-43.136586	34.961584
61423		101.441252	-43.161038	34.985098
61424		101.449311	-43.174822	34.988099
61425		101.395760	-43.180532	34.970740
61426		101.285933	-43.180515	34.935140
61427		101.126519	-43.169809	34.885078
61428		100.927124	-43.158455	34.826424
61429		100.700523	-43.147269	34.764342
61430		100.473614	-43.133809	34.696740
61431		100.252325	-43.122913	34.628853
61432		100.044115	-43.112414	34.565294
61433		99.857856	-43.103854	34.515813
61434		99.705939	-43.094426	34.480086
61435		99.587467	-43.085108	34.465176
61436		99.514860	-43.078343	34.464364
61437		99.472585	-43.072903	34.475904
61438		99.457882	-43.068698	34.494095
61439		99.446254	-43.059514	34.513124
61440		99.431357	-43.048763	34.527435
61441		99.398040	-43.033930	34.536975
61442		99.342699	-43.014964	34.534359
61443		99.260696	-42.992618	34.524629
61444		99.172287	-42.968917	34.500478
61445		99.085158	-42.950614	34.475029
61446		99.017495	-42.935666	34.452081
61447		98.978542	-42.924141	34.436111
61448		98.966327	-42.912407	34.428521
61449		98.976294	-42.900449	34.425212
61450		98.998658	-42.887904	34.424678
61451		99.015314	-42.872873	34.423456
61452		99.027866	-42.855992	34.416315
61453		99.027683	-42.837914	34.400975
61454		99.013978	-42.817757	34.385339
61455		98.996758	-42.796008	34.364063
61456		98.979890	-42.779771	34.345706
61457		98.969536	-42.766305	34.331538
61458		98.974199	-42.756679	34.320055
61459		98.980570	-42.748915	34.311790
61460		98.990974	-42.744663	34.297019
61461		98.995055	-42.736686	34.280969
61462		98.994763	-42.730560	34.261354
61463		98.980984	-42.724121	34.240401
61464		98.960632	-42.716536	34.217432
61465		98.928075	-42.707895	34.190455
61466		98.887929	-42.702482	34.165678
61467		98.860929	-42.700000	34.148319
61468		98.858398	-42.699024	34.130921
61469		98.864168	-42.700424	34.125305
61470		98.879165	-42.701935	34.121380
61471		98.894118	-42.698392	34.120577
61472		98.896895	-42.689544	34.115405
61473		98.862435	-42.670991	34.097964
61474		98.771947	-42.641527	34.063450
61475		98.627620	-42.602299	34.017744
61476		98.438377	-42.552076	33.948253
61477		98.201402	-42.497686	33.863718
61478		97.924281	-42.436021	33.766031
61479		97.618698	-42.373582	33.657487
61480		97.292621	-42.308818	33.541421
61481		96.951468	-42.245424	33.425998
61482		96.608786	-42.185756	33.314971
61483		96.274014	-42.128026	33.205237
61484		95.955423	-42.069470	33.104431
61485		95.654907	-42.017821	33.014737
61486		95.367758	-41.966488	32.933428
61487		95.067472	-41.910808	32.850116
61488		94.705860	-41.846818	32.750346
61489		94.280889	-41.779520	32.619092
61490		93.779612	-41.705791	32.466778
61491		93.223263	-41.630714	32.279452
61492		92.613959	-41.557935	32.067002
61493		91.961756	-41.482540	31.842941
61494		91.303594	-41.413109	31.621166
61495		90.653298	-41.346197	31.414948
61496		90.014098	-41.278173	31.219188
61497		89.301265	-41.201235	31.013697
61498		88.527347	-41.118759	30.763681
61499		87.633275	-41.033656	30.462863
61500		86.615188	-40.937769	30.095060
61501		85.487793	-40.849437	29.679398
61502		84.303388	-40.766481	29.236930
61503		83.085734	-40.689548	28.780187
61504		81.898067	-40.622983	28.331959
61505		80.729955	-40.562351	27.920540
61506		79.587133	-40.498966	27.517806
61507		78.467747	-40.443483	27.111497
61508		77.305221	-40.390437	26.664717
61509		76.066778	-40.345446	26.198952
61510		74.816757	-40.311164	25.727318
61511		73.546625	-40.267731	25.260009
61512		72.268998	-40.216186	24.792099
61513		71.013066	-40.159632	24.350040
61514		69.832578	-40.096797	23.941632
61515		68.730213	-40.029681	23.574372
61516		67.658160	-39.964710	23.195190
61517		66.527082	-39.911700	22.782994
61518		65.285736	-39.875087	22.303553
61519		63.902546	-39.865628	21.766734
61520		62.409078	-39.884519	21.202929
61521		60.863549	-39.912230	20.639711
61522		59.314119	-39.938634	20.079065
61523		57.806389	-39.967511	19.519306
61524		56.335717	-39.990812	18.979136
61525		54.969161	-40.005476	18.487879
61526		53.708191	-40.002702	18.040967
61527		52.589617	-39.983487	17.641845
61528		51.600040	-39.949984	17.308647
61529		50.738094	-39.897462	17.030751
61530		49.975060	-39.837598	16.796212
61531		49.307800	-39.772846	16.602135
61532		48.708364	-39.698674	16.441149
61533		48.165441	-39.625388	16.306736
61534		47.642201	-39.554771	16.200810
61535		47.168512	-39.483756	16.113165
61536		46.732483	-39.409769	16.055227
61537		46.321025	-39.334579	16.022222
61538		45.941481	-39.262427	16.001038
61539		45.617884	-39.200872	15.998519
61540		45.346395	-39.139388	16.006715
61541		45.113006	-39.083760	16.031668
61542		44.917229	-39.036305	16.055297
61543		44.744792	-39.003961	16.072675
61544		44.594052	-38.979107	16.091954
61545		44.443584	-38.956100	16.102958
61546		44.307084	-38.956130	16.106634
61547		44.190322	-38.955105	16.119634
61548		44.123948	-38.949129	16.143738
61549		44.088281	-38.941691	16.177757
61550		44.087149	-38.935723	16.208802
61551		44.093967	-38.933550	16.237536
61552		44.104497	-38.934758	16.261762
61553		44.097574	-38.939952	16.278303
61554		44.084400	-38.944639	16.282341
61555		44.062731	-38.951145	16.280652
61556		44.033895	-38.959889	16.274712
61557		44.004633	-38.968067	16.260483
61558		43.991364	-38.971692	16.249301
61559		43.984418	-38.967735	16.238217
61560		43.994087	-38.962197	16.225574
61561		44.025252	-38.954965	16.218675
61562		44.081408	-38.936907	16.218505
61563		44.136174	-38.915247	16.210722
61564		44.175868	-38.897994	16.196814
61565		44.204429	-38.883261	16.184874
61566		44.227329	-38.866796	16.170877
61567		44.248515	-38.850762	16.152423
61568		44.285762	-38.834729	16.136630
61569		44.331460	-38.815639	16.127747
61570		44.386685	-38.793365	16.116994
61571		44.435921	-38.767898	16.104195
61572		44.486830	-38.748883	16.089167
61573		44.522176	-38.730851	16.073465
61574		44.555052	-38.719111	16.054079
61575		44.598732	-38.704877	16.046441
61576		44.662160	-38.689721	16.044460
61577		44.740682	-38.671522	16.053763
61578		44.840192	-38.654209	16.072502
61579		44.959450	-38.636414	16.109078
61580		45.083756	-38.611458	16.152562
61581		45.209805	-38.592658	16.192755
61582		45.308772	-38.578342	16.229307
61583		45.362584	-38.571897	16.254023
61584		45.372023	-38.578236	16.256668
61585		45.343539	-38.587787	16.251143
61586		45.303350	-38.602869	16.245508
61587		45.290166	-38.613628	16.252785
61588		45.342062	-38.614822	16.284001
61589		45.468620	-38.604725	16.341256
61590		45.664252	-38.585007	16.428931
61591		45.916987	-38.557879	16.545073
61592		46.199885	-38.524470	16.679203
61593		46.483695	-38.493744	16.815689
61594		46.759229	-38.468360	16.949654
61595		47.032380	-38.450463	17.093342
61596		47.317509	-38.426156	17.242165
61597		47.635597	-38.398193	17.402326
61598		48.023375	-38.360517	17.590507
61599		48.459037	-38.300823	17.794695
61600		48.858241	-38.241154	17.964224
61601		49.143327	-38.207543	18.083103
61602		49.305223	-38.195479	18.148518
61603		49.340187	-38.201354	18.159561
61604		49.291719	-38.218728	18.136832
61605		49.230429	-38.232199	18.110152
61606		49.242645	-38.228376	18.101395
61607		49.368334	-38.199274	18.131984
61608		49.637086	-38.142908	18.213319
61609		50.043861	-38.061041	18.355469
61610		50.575088	-37.959085	18.557855
61611		51.229132	-37.845178	18.810529
61612		51.981950	-37.719729	19.103158
61613		52.727448	-37.588838	19.399838
61614		53.401240	-37.481336	19.659022
61615		53.988841	-37.407035	19.899563
61616		54.530244	-37.345967	20.110395
61617		55.050993	-37.302000	20.317170
61618		55.607580	-37.261321	20.533230
61619		56.259172	-37.221440	20.784391
61620		57.054541	-37.169757	21.090755
61621		58.016677	-37.108498	21.462991
61622		59.125461	-37.048646	21.892011
61623		60.348290	-37.000674	22.362359
61624		61.636188	-36.964601	22.850018
61625		62.938657	-36.950389	23.341199
61626		64.222125	-36.957957	23.822738
61627		65.453950	-36.989930	24.294586
61628		66.621876	-37.040771	24.742020
61629		67.717820	-37.114267	25.157677
61630		68.757351	-37.207559	25.543562
61631		69.736967	-37.314621	25.901517
61632		70.668673	-37.432932	26.230677
61633		71.546457	-37.558923	26.542615
61634		72.393410	-37.690966	26.836355
61635		73.219555	-37.827331	27.128498
61636		74.059659	-37.966090	27.426602
61637		74.923369	-38.097290	27.725070
61638		75.802124	-38.231988	28.035419
61639		76.694114	-38.366762	28.356229
61640		77.592885	-38.498024	28.681048
61641		78.483912	-38.627289	29.010972
61642		79.455362	-38.779463	29.386934
61643		80.544901	-38.931546	29.797150
61644		81.739496	-39.079718	30.241044
61645		82.985612	-39.236042	30.703185
61646		84.236112	-39.392656	31.164350
61647		85.429505	-39.548771	31.602320
61648		86.536540	-39.705192	31.996909
61649		87.556919	-39.866137	32.352262
61650		88.559693	-40.037011	32.691191
61651		89.574050	-40.214651	33.027694
61652		90.585125	-40.395824	33.363959
61653		91.602204	-40.573892	33.711316
61654		92.639690	-40.754311	34.052772
61655		93.658556	-40.925790	34.380255
61656		94.629976	-41.094610	34.680180
61657		95.505140	-41.256994	34.954833
61658		96.268422	-41.401968	35.189457
61659		96.898600	-41.530818	35.381213
61660		97.421934	-41.647374	35.527382
61661		97.833630	-41.745321	35.636198
61662		98.167465	-41.839547	35.717886
61663		98.439938	-41.925906	35.781352
61664		98.686317	-41.998694	35.830254
61665		98.889705	-42.063592	35.870913
61666		99.062835	-42.122237	35.897337
61667		99.191334	-42.167030	35.912446
61668		99.279259	-42.205243	35.918556
61669		99.338517	-42.242031	35.917463
61670		99.403194	-42.276291	35.914102
61671		99.460363	-42.311227	35.914579
61672		99.513435	-42.340576	35.915726
61673		99.549691	-42.360914	35.918862
61674		99.575617	-42.375140	35.917486
61675		99.574601	-42.384544	35.905123
61676		99.552378	-42.386921	35.886761
61677		99.506502	-42.380281	35.855164
61678		99.442186	-42.369495	35.820492
61679		99.368820	-42.355915	35.785954
61680		99.305975	-42.340433	35.752812
61681		99.255278	-42.327386	35.730780
61682		99.221441	-42.315872	35.712857
61683		99.200372	-42.308449	35.705035
61684		99.184546	-42.301507	35.696243
61685		99.167075	-42.292449	35.686977
61686		99.145487	-42.282611	35.681523
61687		99.119678	-42.271819	35.674709
61688		99.089545	-42.261570	35.664669
61689		99.042626	-42.250303	35.652558
61690		98.990917	-42.240737	35.635914
61691		98.951097	-42.231813	35.619433
61692		98.930304	-42.228633	35.616326
61693		98.933683	-42.229502	35.621657
61694		98.957205	-42.230256	35.628874
61695		98.982852	-42.233154	35.636363
61696		98.996240	-42.232544	35.637857
61697		98.987540	-42.226100	35.633169
61698		98.961092	-42.220057	35.621772
61699		98.933057	-42.214233	35.605514
61700		98.911008	-42.208369	35.593832
61701		98.891046	-42.203316	35.580855
61702		98.872325	-42.200577	35.566413
61703		98.851060	-42.196511	35.554598
61704		98.839664	-42.191880	35.538354
61705		98.830401	-42.190316	35.528417
61706		98.824955	-42.187123	35.526843
61707		98.821880	-42.178674	35.523605
61708		98.817944	-42.169921	35.519175
61709		98.799277	-42.163380	35.514758
61710		98.771998	-42.151149	35.503148
61711		98.727647	-42.140368	35.486141
61712		98.670369	-42.126326	35.465325
61713		98.604205	-42.110687	35.444225
61714		98.533745	-42.093322	35.421822
61715		98.461363	-42.077799	35.397850
61716		98.389580	-42.062259	35.377979
61717		98.325407	-42.048021	35.367062
61718		98.278582	-42.036886	35.355519
61719		98.241839	-42.025908	35.350412
61720		98.217551	-42.018977	35.345598
61721		98.194569	-42.012346	35.342559
61722		98.170230	-42.005056	35.335550
61723		98.135478	-41.998024	35.329347
61724		98.091912	-41.985930	35.317673
61725		98.032979	-41.972205	35.301346
61726		97.954601	-41.962472	35.283186
61727		97.862193	-41.954270	35.277682
61728		97.818679	-41.947793	35.246734
61729		97.766791	-41.945953	35.263396
61730		97.745676	-41.946920	35.274305
61731		97.737351	-41.946545	35.281524
61732		97.732241	-41.948068	35.288127
61733		97.704678	-41.952038	35.294850
61734		97.656376	-41.950174	35.287776
61735		97.582670	-41.949181	35.269882
61736		97.484780	-41.947282	35.239177
61737		97.355291	-41.941251	35.204199
61738		97.202440	-41.933901	35.154223
61739		97.014196	-41.924631	35.100001
61740		96.794018	-41.909544	35.033181
61741		96.547653	-41.888664	34.952152
61742		96.282598	-41.871089	34.855583
61743		95.986475	-41.850667	34.756760
61744		95.670136	-41.828666	34.654702
61745		95.344709	-41.805982	34.546038
61746		95.012623	-41.785469	34.430885
61747		94.674333	-41.763545	34.312110
61748		94.330183	-41.745704	34.191809
61749		93.968869	-41.731490	34.069963
61750		93.586622	-41.718579	33.949671
61751		93.173156	-41.700181	33.817137
61752		92.724459	-41.683497	33.679197
61753		92.238342	-41.668455	33.531647
61754		91.725826	-41.659890	33.370485
61755		91.189847	-41.662850	33.201105
61756		90.646868	-41.674303	33.033582
61757		90.092366	-41.693274	32.866440
61758		89.528018	-41.720321	32.701316
61759		88.946986	-41.752981	32.534107
61760		88.353021	-41.785661	32.368189
61761		87.755165	-41.817219	32.202808
61762		87.164840	-41.849459	32.041371
61763		86.593115	-41.882266	31.891725
61764		86.045486	-41.915223	31.754357
61765		85.535276	-41.948757	31.631414
61766		85.054297	-41.984129	31.527308
61767		84.610768	-42.023084	31.432098
61768		84.146238	-42.059375	31.351796
61769		83.654390	-42.090233	31.246495
61770		83.114404	-42.118901	31.114400
61771		82.525944	-42.146572	30.955000
61772		81.901978	-42.168626	30.774079
61773		81.268734	-42.186795	30.587703
61774		80.666243	-42.205409	30.410705
61775		80.124498	-42.217329	30.257238
61776		79.654961	-42.223835	30.140423
61777		79.249040	-42.221388	30.044230
61778		78.861881	-42.210613	29.945091
61779		78.454787	-42.188711	29.833976
61780		77.867751	-42.145947	29.649719
61781		77.024123	-42.095547	29.294890
61782		75.853846	-42.055731	28.801193
61783		74.416686	-42.029976	28.173091
61784		72.810171	-42.021836	27.453898
61785		71.150571	-42.034367	26.728812
61786		69.460701	-42.037624	25.989774
61787		67.837715	-42.054820	25.272820
61788		66.298643	-42.074593	24.610157
61789		64.819632	-42.086652	23.939829
61790		63.348099	-42.118344	23.283731
61791		61.774969	-42.150395	22.557621
61792		60.057678	-42.207918	21.740229
61793		58.167701	-42.299415	20.885667
61794		56.210277	-42.419244	20.033358
61795		54.337752	-42.545282	19.231052
61796		52.710818	-42.652069	18.572458
61797		51.465090	-42.702519	18.112480
61798		50.616153	-42.673781	17.812211
61799		50.038913	-42.604874	17.619552
61800		49.539848	-42.523696	17.471266
61801		48.992910	-42.459535	17.343873
61802		48.372361	-42.422392	17.219288
61803		47.723024	-42.406295	17.083819
61804		47.095557	-42.392056	16.966056
61805		46.537670	-42.364875	16.886128
61806		46.087507	-42.321116	16.841486
61807		45.740660	-42.262006	16.846492
61808		45.489974	-42.181855	16.893586
61809		45.300006	-42.090981	16.966556
61810		45.138839	-42.004649	17.033166
61811		44.953410	-41.928853	17.099743
61812		44.720948	-41.865946	17.154906
61813		44.442791	-41.814426	17.197931
61814		44.153781	-41.772631	17.238223
61815		43.905824	-41.738698	17.273611
61816		43.724007	-41.700338	17.309692
61817		43.585821	-41.656590	17.345518
61818		43.489386	-41.619383	17.379684
61819		43.413701	-41.593042	17.405755
61820		43.338739	-41.575980	17.426195
61821		43.270152	-41.560227	17.445819
61822		43.215147	-41.547814	17.457787
61823		43.165408	-41.532185	17.467990
61824		43.129236	-41.516851	17.478847
61825		43.103644	-41.500851	17.490147
61826		43.089238	-41.480529	17.495651
61827		43.086990	-41.461804	17.508149
61828		43.092808	-41.443979	17.519653
61829		43.101786	-41.431766	17.508319
61830		43.097841	-41.416520	17.493268
61831		43.090753	-41.400669	17.467485
61832		43.072622	-41.387400	17.429432
61833		43.045575	-41.377370	17.386252
61834		43.030226	-41.365233	17.345952
61835		43.039521	-41.350231	17.318426
61836		43.087212	-41.325023	17.298934
61837		43.132691	-41.294605	17.281161
61838		43.161606	-41.275585	17.249963
61839		43.154424	-41.267738	17.210956
61840		43.104292	-41.262183	17.159026
61841		43.034893	-41.265991	17.105610
61842		43.000205	-41.261266	17.061659
61843		43.018389	-41.249583	17.048616
61844		43.107019	-41.216442	17.057471
61845		43.243643	-41.171906	17.087197
61846		43.388580	-41.128003	17.124383
61847		43.490910	-41.094690	17.145065
61848		43.511421	-41.080640	17.133338
61849		43.444887	-41.089388	17.092923
61850		43.347343	-41.110165	17.035923
61851		43.261097	-41.120338	17.000261
61852		43.238898	-41.117560	16.985689
61853		43.295138	-41.106014	17.009415
61854		43.434238	-41.077388	17.059443
61855		43.611404	-41.042293	17.135947
61856		43.780555	-41.012235	17.211842
61857		43.905427	-40.995498	17.270431
61858		43.970483	-40.993262	17.307036
61859		43.984794	-41.002436	17.323706
61860		43.981546	-41.018606	17.329290
61861		44.007250	-41.032769	17.345852
61862		44.091866	-41.036896	17.378816
61863		44.241805	-41.027039	17.434690
61864		44.466289	-41.006495	17.525248
61865		44.781186	-40.974701	17.662073
61866		45.188187	-40.915331	17.838641
61867		45.605470	-40.847091	18.011363
61868		45.962060	-40.795021	18.158540
61869		46.240276	-40.759438	18.278790
61870		46.458000	-40.732118	18.379415
61871		46.659496	-40.704092	18.474841
61872		46.915277	-40.659280	18.589794
61873		47.257691	-40.586945	18.733929
61874		47.652749	-40.490306	18.874522
61875		48.027320	-40.388976	19.013982
61876		48.321751	-40.276013	19.134204
61877		48.630740	-40.277794	19.136642
61878		48.707398	-40.210946	19.198702
61879		48.731718	-40.138789	19.248267
61880		48.822903	-40.104067	19.252343
61881		48.969551	-40.050984	19.297088
61882		49.267038	-39.959136	19.423790
61883		49.806569	-39.845375	19.633429
61884		50.588064	-39.698646	19.945404
61885		51.567878	-39.507121	20.369582
61886		52.692534	-39.305013	20.859322
61887		53.887823	-39.126136	21.370036
61888		55.056958	-38.961031	21.881956
61889		56.081564	-38.817653	22.358421
61890		56.904897	-38.722117	22.721868
61891		57.500960	-38.689100	22.964573
61892		57.907497	-38.688979	23.128378
61893		58.194037	-38.687009	23.271602
61894		58.484557	-38.684386	23.401213
61895		58.877680	-38.677177	23.534155
61896		59.423570	-38.646652	23.725772
61897		60.135563	-38.586669	24.001380
61898		61.012317	-38.506356	24.361326
61899		62.041579	-38.416119	24.774790
61900		63.161708	-38.317878	25.225246
61901		64.268171	-38.221241	25.683353
61902		65.303223	-38.141678	26.115275
61903		66.222477	-38.077932	26.504252
61904		67.022289	-38.031016	26.831620
61905		67.695447	-37.998754	27.093527
61906		68.260712	-37.977026	27.302803
61907		68.769462	-37.957359	27.505041
61908		69.317856	-37.926758	27.732967
61909		69.955882	-37.880017	27.990405
61910		70.686991	-37.820564	28.272098
61911		71.484934	-37.755506	28.576851
61912		72.327891	-37.680249	28.879910
61913		73.160372	-37.605888	29.163411
61914		73.945745	-37.530419	29.419416
61915		74.677328	-37.459787	29.654691
61916		75.412800	-37.401571	29.894735
61917		76.201354	-37.344960	30.146188
61918		77.078417	-37.304318	30.424322
61919		78.031625	-37.264778	30.728275
61920		79.038390	-37.235422	31.066820
61921		80.118401	-37.221661	31.440616
61922		81.255186	-37.210624	31.822303
61923		82.396978	-37.208805	32.205476
61924		83.504035	-37.220889	32.557421
61925		84.526282	-37.242787	32.866057
61926		85.458583	-37.276645	33.130399
61927		86.315066	-37.319872	33.372572
61928		87.129056	-37.370788	33.589084
61929		87.912884	-37.428588	33.790875
61930		88.715003	-37.496987	33.996626
61931		89.587766	-37.590289	34.231817
61932		90.562666	-37.687938	34.487576
61933		91.592502	-37.801998	34.760137
61934		92.631680	-37.919631	35.021542
61935		93.605264	-38.043330	35.265740
61936		94.480669	-38.160437	35.467523
61937		95.263146	-38.286139	35.637107
61938		95.989899	-38.406532	35.770593
61939		96.665704	-38.527892	35.874250
61940		97.294944	-38.646817	35.962826
61941		97.863948	-38.762256	36.037334
61942		98.378474	-38.873689	36.086651
61943		98.822952	-38.976091	36.115913
61944		99.193020	-39.067652	36.118877
61945		99.483307	-39.147027	36.100823
61946		99.700441	-39.211319	36.058096
61947		99.839291	-39.264026	36.003964
61948		99.926433	-39.303698	35.930096
61949		99.971565	-39.332827	35.845848
61950		99.992612	-39.363524	35.753046
61951		99.986997	-39.388174	35.666761
61952		99.972875	-39.408815	35.584615
61953		99.953653	-39.428854	35.512829
61954		99.947991	-39.448952	35.451792
61955		99.961623	-39.471654	35.406883
61956		99.994029	-39.497627	35.371400
61957		100.026774	-39.519721	35.343361
61958		100.050156	-39.542335	35.318753
61959		100.051964	-39.560838	35.291741
61960		100.022590	-39.580130	35.262519
61961		99.960440	-39.595808	35.227506
61962		99.881621	-39.612844	35.193096
61963		99.800528	-39.632068	35.162891
61964		99.730246	-39.653769	35.142069
61965		99.684441	-39.683932	35.134685
61966		99.659516	-39.715622	35.139671
61967		99.641041	-39.747014	35.153654
61968		99.622257	-39.774416	35.168638
61969		99.595729	-39.797060	35.177066
61970		99.555898	-39.813365	35.175654
61971		99.499822	-39.825082	35.165734
61972		99.429138	-39.835422	35.145903
61973		99.348751	-39.851067	35.124922
61974		99.260717	-39.866126	35.103183
61975		99.181828	-39.888053	35.089265
61976		99.124481	-39.917344	35.085846
61977		99.103977	-39.951695	35.093827
61978		99.126548	-39.993849	35.105752
61979		99.172927	-40.033404	35.121146
61980		99.226294	-40.067095	35.133348
61981		99.278249	-40.096163	35.140468
61982		99.317012	-40.118513	35.138425
61983		99.335617	-40.138932	35.131223
61984		99.346390	-40.156565	35.113841
61985		99.357862	-40.175486	35.097641
61986		99.395662	-40.195336	35.079083
61987		99.451895	-40.218410	35.068113
61988		99.523614	-40.241603	35.054142
61989		99.596524	-40.260901	35.047418
61990		99.660936	-40.279070	35.040353
61991		99.703667	-40.293716	35.027701
61992		99.722744	-40.303591	35.008769
61993		99.726466	-40.312792	34.988056
61994		99.725667	-40.322252	34.963909
61995		99.720364	-40.332142	34.940498
61996		99.706279	-40.342441	34.910552
61997		99.684258	-40.353248	34.881431
61998		99.653282	-40.367638	34.848777
61999		99.623118	-40.382947	34.812235
62000		99.591381	-40.399332	34.774104
62001		99.557143	-40.415399	34.735134
62002		99.528304	-40.427249	34.695420
62003		99.496393	-40.438078	34.656184
62004		99.460970	-40.441287	34.610170
62005		99.414309	-40.443699	34.570093
62006		99.369954	-40.443451	34.525023
62007		99.314666	-40.440412	34.475485
62008		99.246635	-40.437006	34.421508
62009		99.169781	-40.430677	34.367160
62010		99.104786	-40.428504	34.306105
62011		99.037695	-40.425977	34.244548
62012		98.973099	-40.423307	34.194135
62013		98.908259	-40.417527	34.155470
62014		98.844611	-40.405832	34.117238
62015		98.775916	-40.392917	34.080784
62016		98.698847	-40.378122	34.050865
62017		98.608383	-40.360229	34.021944
62018		98.499688	-40.336406	33.988585
62019		98.303148	-40.297248	33.945952
62020		98.029033	-40.246110	33.860426
62021		97.645895	-40.184542	33.744923
62022		97.178704	-40.109021	33.590771
62023		96.635659	-40.024009	33.409683
62024		96.044363	-39.933381	33.214005
62025		95.431460	-39.841000	33.022670
62026		94.838935	-39.743849	32.834674
62027		94.270070	-39.641319	32.665180
62028		93.736324	-39.542027	32.510497
62029		93.153409	-39.428821	32.370216
62030		92.449866	-39.292602	32.185552
62031		91.626381	-39.146677	31.950663
62032		90.711053	-38.996242	31.648549
62033		89.721659	-38.843977	31.304292
62034		88.705272	-38.699808	30.941859
62035		87.708599	-38.567182	30.589513
62036		86.760048	-38.449957	30.267255
62037		85.922386	-38.349388	29.989896
62038		85.225292	-38.266592	29.765230
62039		84.631039	-38.198389	29.595586
62040		84.104932	-38.141042	29.446569
62041		83.524937	-38.080894	29.284622
62042		82.751695	-38.001713	29.009132
62043		81.757254	-37.934783	28.637237
62044		80.569542	-37.885148	28.184885
62045		79.260419	-37.846345	27.688389
62046		77.942342	-37.820513	27.197873
62047		76.723112	-37.805883	26.776614
62048		75.677342	-37.792583	26.449509
62049		74.825647	-37.777396	26.195775
62050		74.101308	-37.767827	26.004659
62051		73.409210	-37.752729	25.808090
62052		72.561591	-37.739493	25.520215
62053		71.376451	-37.734739	25.048344
62054		69.764429	-37.772696	24.390800
62055		67.784109	-37.854380	23.583092
62056		65.584561	-37.983967	22.709381
62057		63.363281	-38.142211	21.845103
62058		61.299954	-38.307307	21.058449
62059		59.519483	-38.454255	20.380141
62060		58.071151	-38.568431	19.821527
62061		56.866852	-38.659145	19.333822
62062		55.716229	-38.751094	18.852072
62063		54.521160	-38.868983	18.352706
62064		53.207867	-39.009591	17.859728
62065		51.881466	-39.157130	17.384756
62066		50.663770	-39.294388	16.962679
62067		49.660276	-39.402462	16.634767
62068		48.904047	-39.466054	16.403022
62069		48.381925	-39.497807	16.254947
62070		48.015331	-39.511845	16.175451
62071		47.716724	-39.517553	16.127391
62072		47.429977	-39.524640	16.091938
62073		47.143110	-39.527988	16.056190
62074		46.865546	-39.528959	16.026822
62075		46.622325	-39.526549	16.014035
62076		46.417458	-39.518556	16.014637
62077		46.240124	-39.512204	16.022561
62078		46.083433	-39.494581	16.024377
62079		45.939887	-39.479274	16.016899
62080		45.805591	-39.462850	16.004790
62081		45.679947	-39.448021	15.990147
62082		45.574646	-39.433792	15.973569
62083		45.502385	-39.418019	15.959962
62084		45.446663	-39.399791	15.946412
62085		45.402261	-39.389391	15.920918
62086		45.362964	-39.381429	15.901132
62087		45.325397	-39.376728	15.886183
62088		45.291557	-39.377988	15.870803
62089		45.252130	-39.379048	15.856812
62090		45.216277	-39.385542	15.840993
62091		45.171673	-39.398368	15.820676
62092		45.122679	-39.412935	15.801036
62093		45.079802	-39.423834	15.786505
62094		45.063966	-39.427430	15.772815
62095		45.067447	-39.424804	15.771311
62096		45.071383	-39.420848	15.754269
62097		45.054486	-39.426579	15.732120
62098		45.012620	-39.433030	15.706409
62099		44.953930	-39.443044	15.668115
62100		44.901825	-39.464164	15.634260
62101		44.880096	-39.481417	15.619196
62102		44.893265	-39.485715	15.619569
62103		44.942536	-39.484452	15.629412
62104		45.012984	-39.477832	15.652338
62105		45.085500	-39.471618	15.681505
62106		45.120905	-39.465702	15.697710
62107		45.112908	-39.472232	15.696109
62108		45.062161	-39.487105	15.689384
62109		45.017456	-39.502236	15.685487
62110		45.007496	-39.509649	15.693894
62111		45.053921	-39.507325	15.720915
62112		45.152496	-39.496139	15.766407
62113		45.269621	-39.482944	15.819955
62114		45.358275	-39.474050	15.845220
62115		45.380804	-39.481109	15.853531
62116		45.360930	-39.500034	15.846479
62117		45.338832	-39.517238	15.843132
62118		45.362226	-39.522086	15.855199
62119		45.448784	-39.516159	15.885591
62120		45.580719	-39.500816	15.934319
62121		45.744580	-39.481860	15.996711
62122		45.944417	-39.458599	16.071402
62123		46.180293	-39.437791	16.172604
62124		46.431429	-39.408069	16.268754
62125		46.667387	-39.390626	16.358132
62126		46.871748	-39.371907	16.433052
62127		47.051140	-39.356193	16.507460
62128		47.262635	-39.341424	16.593588
62129		47.573468	-39.312833	16.727909
62130		48.067811	-39.260125	16.942867
62131		48.807987	-39.175565	17.259792
62132		49.763480	-39.053571	17.663637
62133		50.876748	-38.910287	18.138174
62134		51.942298	-38.751132	18.584248
62135		52.808602	-38.645503	18.918183
62136		53.345146	-38.599563	19.143099
62137		53.616224	-38.598623	19.265716
62138		53.740815	-38.622740	19.330056
62139		53.855195	-38.641416	19.401383
62140		54.117402	-38.631236	19.530816
62141		54.650068	-38.573907	19.781070
62142		55.500354	-38.478503	20.145525
62143		56.599460	-38.362481	20.604633
62144		57.862684	-38.243151	21.121446
62145		59.198246	-38.143285	21.664281
62146		60.524400	-38.065694	22.205691
62147		61.800505	-38.009380	22.726589
62148		63.022629	-37.973845	23.215204
62149		64.185358	-37.953288	23.683883
62150		65.305975	-37.951127	24.127718
62151		66.382592	-37.966227	24.558602
62152		67.444516	-37.998344	24.965292
62153		68.488924	-38.045648	25.361317
62154		69.535426	-38.103263	25.761687
62155		70.616420	-38.166807	26.169320
62156		71.757480	-38.233757	26.579866
62157		72.915453	-38.299352	27.000337
62158		74.060443	-38.367411	27.417418
62159		75.157420	-38.441521	27.819643
62160		76.196991	-38.521405	28.198962
62161		77.195511	-38.615316	28.567599
62162		78.185277	-38.715663	28.921475
62163		79.165850	-38.826862	29.274339
62164		80.141521	-38.939070	29.622658
62165		81.101917	-39.053027	29.971971
62166		82.071210	-39.179453	30.329056
62167		83.082723	-39.315166	30.709175
62168		84.166079	-39.447500	31.107518
62169		85.309400	-39.584311	31.533615
62170		86.520985	-39.723574	31.971960
62171		87.735197	-39.868104	32.406136
62172		88.905076	-40.010968	32.811079
62173		89.984858	-40.156230	33.176951
62174		90.936145	-40.293363	33.483979
62175		91.725868	-40.417334	33.728874
62176		92.390265	-40.537077	33.930938
62177		92.993268	-40.650958	34.116009
62178		93.614943	-40.761111	34.303023
62179		94.311947	-40.876106	34.521518
62180		95.120821	-40.992460	34.777049
62181		96.010008	-41.103594	35.052374
62182		96.914004	-41.216177	35.324290
62183		97.750056	-41.318122	35.574053
62184		98.483283	-41.413055	35.786265
62185		99.071815	-41.492860	35.952217
62186		99.539291	-41.563566	36.075254
62187		99.924222	-41.626960	36.184931
62188		100.286501	-41.680594	36.274047
62189		100.651677	-41.737686	36.361039
62190		101.056287	-41.797140	36.455654
62191		101.482798	-41.857170	36.558237
62192		101.904779	-41.912969	36.646668
62193		102.298060	-41.967583	36.726301
62194		102.665275	-42.017357	36.790518
62195		102.987246	-42.056708	36.839701
62196		103.258767	-42.093287	36.868531
62197		103.469350	-42.120067	36.876941
62198		103.598325	-42.133022	36.865690
62199		103.624244	-42.134961	36.826180
62200		103.569175	-42.127480	36.759032
62201		103.450292	-42.111037	36.668324
62202		103.276796	-42.090367	36.566153
62203		103.082495	-42.070368	36.468684
62204		102.913869	-42.054952	36.382645
62205		102.794078	-42.045546	36.319261
62206		102.739580	-42.043285	36.281545
62207		102.737797	-42.045729	36.273741
62208		102.769831	-42.048931	36.280465
62209		102.802593	-42.049969	36.291375
62210		102.809709	-42.046275	36.294227
62211		102.763585	-42.035928	36.285382
62212		102.633551	-42.012758	36.254929
62213		102.429286	-41.978896	36.208616
62214		102.177036	-41.944418	36.150696
62215		101.923348	-41.910782	36.094393
62216		101.711091	-41.883868	36.051030
62217		101.558355	-41.866360	36.033407
62218		101.461829	-41.855745	36.039289
62219		101.409841	-41.853275	36.065099
62220		101.398028	-41.851165	36.103331
62221		101.401113	-41.847416	36.146054
62222		101.392928	-41.843351	36.181197
62223		101.350848	-41.832359	36.204246
62224		101.265785	-41.815221	36.212906
62225		101.126493	-41.794927	36.202686
62226		100.945085	-41.770071	36.176382
62227		100.744716	-41.749012	36.147634
62228		100.572412	-41.735251	36.124708
62229		100.430536	-41.721207	36.112822
62230		100.312387	-41.709411	36.107990
62231		100.205632	-41.698432	36.114979
62232		100.081928	-41.681203	36.113149
62233		99.892439	-41.654996	36.082085
62234		99.583773	-41.612993	36.008681
62235		99.092944	-41.547336	35.874674
62236		98.397924	-41.461050	35.666355
62237		97.498299	-41.356255	35.382938
62238		96.423418	-41.244084	35.035075
62239		95.243516	-41.128322	34.642043
62240		94.048746	-41.023404	34.243330
62241		92.911509	-40.929456	33.858459
62242		91.860144	-40.847537	33.507863
62243		90.885944	-40.777433	33.188038
62244		89.967711	-40.713813	32.890656
62245		89.067257	-40.656352	32.602907
62246		88.184048	-40.598284	32.306195
62247		87.264534	-40.531972	32.001024
62248		86.304107	-40.461987	31.681692
62249		85.320540	-40.393023	31.354029
62250		84.333690	-40.326968	31.029960
62251		83.380274	-40.267336	30.721990
62252		82.498006	-40.218714	30.445426
62253		81.707334	-40.181370	30.213358
62254		81.011666	-40.151698	30.023180
62255		80.374160	-40.126787	29.872652
62256		79.737590	-40.103951	29.726993
62257		79.043759	-40.081480	29.561303
62258		78.205788	-40.053316	29.331368
62259		77.126713	-40.018717	28.984282
62260		75.845634	-39.996115	28.529968
62261		74.422763	-39.991154	28.018975
62262		72.977768	-39.998496	27.496561
62263		71.631852	-40.013772	27.015376
62264		70.453537	-40.031115	26.621278
62265		69.450015	-40.040740	26.329913
62266		68.577875	-40.043518	26.119817
62267		67.734591	-40.039095	25.922181
62268		66.766887	-40.034460	25.659037
62269		65.556522	-40.041139	25.241321
62270		64.038054	-40.088868	24.704026
62271		62.316924	-40.168947	24.080070
62272		60.568571	-40.264721	23.457825
62273		59.011213	-40.344149	22.930484
62274		57.763957	-40.387906	22.544390
62275		56.849941	-40.396350	22.286667
62276		56.153558	-40.378756	22.130980
62277		55.520811	-40.341219	21.965973
62278		54.767131	-40.316283	21.741109
62279		53.781584	-40.307145	21.430949
62280		52.566025	-40.325795	21.013682
62281		51.182307	-40.370196	20.554340
62282		49.846942	-40.411724	20.113425
62283		48.722161	-40.429751	19.756840
62284		47.872417	-40.394345	19.497827
62285		47.268340	-40.317555	19.308845
62286		46.764336	-40.218075	19.165687
62287		46.269679	-40.122258	19.022269
62288		45.707946	-40.039699	18.846245
62289		45.086668	-39.983154	18.650228
62290		44.437877	-39.937087	18.453425
62291		43.848406	-39.899015	18.273414
62292		43.370575	-39.843063	18.136143
62293		42.998915	-39.759489	18.052839
62294		42.737146	-39.662966	18.005007
62295		42.584518	-39.561202	17.996521
62296		42.471853	-39.455325	17.990106
62297		42.339513	-39.370583	17.980751
62298		42.185085	-39.305722	17.953689
62299		42.006925	-39.260412	17.912343
62300		41.834681	-39.220557	17.863238
62301		41.690816	-39.177086	17.826039
62302		41.602345	-39.137816	17.787859
62303		41.572490	-39.104568	17.759720
62304		41.579941	-39.075680	17.741983
62305		41.597856	-39.056155	17.724349
62306		41.603789	-39.047271	17.696159
62307		41.593579	-39.049780	17.656461
62308		41.576435	-39.057440	17.617015
62309		41.577251	-39.068971	17.585274
62310		41.610219	-39.070611	17.554140
62311		41.656262	-39.070053	17.523522
62312		41.710229	-39.071130	17.498778
62313		41.746562	-39.073111	17.465918
62314		41.760148	-39.080035	17.423243
62315		41.764882	-39.097293	17.384321
62316		41.780917	-39.106674	17.350554
62317		41.843745	-39.111065	17.329966
62318		41.942154	-39.104713	17.325704
62319		42.042755	-39.090719	17.324268
62320		42.096886	-39.086420	17.311602
62321		42.087619	-39.098789	17.276580
62322		42.030160	-39.122057	17.237556
62323		41.969409	-39.141077	17.207104
62324		41.952051	-39.152137	17.188244
62325		41.989608	-39.152549	17.190485
62326		42.084398	-39.141030	17.209577
62327		42.218064	-39.121507	17.243578
62328		42.377413	-39.098247	17.285961
62329		42.512516	-39.073518	17.325072
62330		42.616851	-39.063357	17.352768
62331		42.700178	-39.063461	17.379429
62332		42.790310	-39.060872	17.421503
62333		42.930583	-39.055355	17.482670
62334		43.146950	-39.037902	17.576338
62335		43.450234	-39.012041	17.712473
62336		43.760678	-38.975884	17.828788
62337		44.003228	-38.960221	17.916671
62338		44.139217	-38.955067	17.981375
62339		44.197849	-38.969611	18.018070
62340		44.252662	-38.996233	18.048012
62341		44.399422	-39.015934	18.110033
62342		44.734313	-39.011079	18.231665
62343		45.235220	-38.968277	18.425353
62344		45.760860	-38.901770	18.594498
62345		46.150385	-38.870562	18.713275
62346		46.328882	-38.884341	18.759032
62347		46.318279	-38.930946	18.737792
62348		46.208507	-39.000081	18.689815
62349		46.119934	-39.063399	18.656966
62350		46.124394	-39.104071	18.650143
62351		46.231430	-39.126415	18.677652
62352		46.456885	-39.126420	18.743320
62353		46.788525	-39.105244	18.850594
62354		47.140648	-39.074297	18.969668
62355		47.450322	-39.059875	19.066111
62356		47.686694	-39.058821	19.148011
62357		47.888428	-39.069499	19.228418
62358		48.109501	-39.074338	19.324336
62359		48.408620	-39.064665	19.454807
62360		48.847488	-39.033886	19.636133
62361		49.482709	-38.977548	19.888231
62362		50.312674	-38.887233	20.207786
62363		51.244053	-38.785787	20.590392
62364		52.262672	-38.684871	20.979009
62365		53.242418	-38.612222	21.335892
62366		54.073205	-38.567082	21.643023
62367		54.730157	-38.543600	21.896347
62368		55.255889	-38.538536	22.098074
62369		55.719840	-38.542450	22.268636
62370		56.214271	-38.541175	22.443232
62371		56.813611	-38.520189	22.662744
62372		57.570763	-38.478116	22.942576
62373		58.491737	-38.423297	23.272814
62374		59.535728	-38.361805	23.655639
62375		60.645314	-38.304745	24.063122
62376		61.762332	-38.258504	24.478278
62377		62.833905	-38.223154	24.882650
62378		63.832652	-38.202597	25.263487
62379		64.746660	-38.200154	25.609867
62380		65.602352	-38.212438	25.951959
62381		66.475544	-38.233402	26.303789
62382		67.408116	-38.249110	26.676726
62383		68.389376	-38.274295	27.065453
62384		69.386836	-38.308066	27.451878
62385		70.375920	-38.352339	27.827877
62386		71.335606	-38.402562	28.184566
62387		72.230378	-38.455581	28.513693
62388		73.056113	-38.517955	28.813672
62389		73.834151	-38.590393	29.100710
62390		74.621494	-38.667765	29.389617
62391		75.430928	-38.744527	29.690489
62392		76.273384	-38.823692	30.000595
62393		77.118209	-38.906457	30.320630
62394		77.949842	-38.989658	30.626142
62395		78.728963	-39.076087	30.924527
62396		79.477291	-39.168442	31.209663
62397		80.216695	-39.267420	31.491217
62398		80.971513	-39.367041	31.771093
62399		81.730048	-39.463027	32.054867
62400		82.504366	-39.560922	32.353073
62401		83.287732	-39.651970	32.661155
62402		84.080219	-39.735764	32.962482
62403		84.833824	-39.813682	33.255564
62404		85.537232	-39.886425	33.526954
62405		86.173833	-39.957913	33.784888
62406		86.783482	-40.024785	34.028847
62407		87.371757	-40.088755	34.266367
62408		87.964692	-40.156347	34.490366
62409		88.533422	-40.220571	34.708039
62410		89.088950	-40.284198	34.918698
62411		89.632023	-40.340543	35.121380
62412		90.240279	-40.417595	35.354312
62413		90.998355	-40.515068	35.643753
62414		91.931555	-40.616040	35.992791
62415		92.993638	-40.726431	36.373155
62416		94.096568	-40.844573	36.759985
62417		95.148670	-40.963175	37.124849
62418		96.085413	-41.074151	37.434168
62419		96.844232	-41.172165	37.669263
62420		97.411406	-41.256508	37.828411
62421		97.793279	-41.335592	37.921222
62422		98.040530	-41.399103	37.954783
62423		98.173674	-41.451810	37.961594
62424		98.254003	-41.493469	37.942942
62425		98.324111	-41.537423	37.922343
62426		98.468129	-41.598091	37.924301
62427		98.714107	-41.664388	37.965873
62428		99.071963	-41.733924	38.042834
62429		99.496404	-41.810217	38.138854
62430		99.942874	-41.884129	38.237306
62431		100.364100	-41.948343	38.323743
62432		100.721455	-42.001475	38.384717
62433		100.982329	-42.042236	38.416773
62434		101.142514	-42.071555	38.414681
62435		101.192865	-42.088909	38.377874
62436		101.160731	-42.104960	38.316624
62437		101.087241	-42.117038	38.246558
62438		101.015480	-42.133136	38.170611
62439		100.965911	-42.156305	38.103068
62440		100.948481	-42.182445	38.052796
62441		100.960346	-42.209159	38.017387
62442		100.992315	-42.231419	37.981408
62443		101.010882	-42.247201	37.954493
62444		101.000569	-42.255521	37.919420
62445		100.948344	-42.254104	37.875415
62446		100.856038	-42.248637	37.820118
62447		100.728481	-42.237517	37.763262
62448		100.574657	-42.223602	37.704194
62449		100.416297	-42.215105	37.655783
62450		100.287291	-42.210402	37.614651
62451		100.198004	-42.211193	37.587129
62452		100.140705	-42.214908	37.575587
62453		100.111667	-42.221925	37.583025
62454		100.107145	-42.225354	37.600514
62455		100.102169	-42.225152	37.615541
62456		100.074418	-42.222125	37.627792
62457		100.010391	-42.211319	37.633031
62458		99.908743	-42.195521	37.624463
62459		99.761010	-42.172071	37.606880
62460		99.565709	-42.142244	37.576673
62461		99.337078	-42.111443	37.535873
62462		99.096611	-42.076682	37.489937
62463		98.848745	-42.040864	37.445408
62464		98.599931	-42.004494	37.402221
62465		98.350789	-41.961567	37.362485
62466		98.097163	-41.916929	37.322019
62467		97.828787	-41.865458	37.280434
62468		97.542105	-41.809203	37.233344
62469		97.225149	-41.746658	37.181172
62470		96.868777	-41.671876	37.114960
62471		96.455882	-41.590221	37.032288
62472		95.991760	-41.499752	36.925034
62473		95.490478	-41.406706	36.795366
62474		94.959845	-41.316681	36.648144
62475		94.397928	-41.229346	36.491312
62476		93.821755	-41.147097	36.332523
62477		93.239862	-41.065784	36.171276
62478		92.656456	-40.988454	36.010332
62479		92.081552	-40.913950	35.845907
62480		91.527968	-40.841994	35.683212
62481		90.999063	-40.773329	35.529198
62482		90.501089	-40.706950	35.387600
62483		90.028604	-40.645776	35.262451
62484		89.600296	-40.590945	35.153206
62485		89.157485	-40.529708	35.055825
62486		88.692329	-40.470814	34.934054
62487		88.174241	-40.410129	34.798076
62488		87.607151	-40.345952	34.634145
62489		86.992806	-40.279793	34.440103
62490		86.344653	-40.217344	34.223977
62491		85.680029	-40.157198	34.002051
62492		85.028237	-40.100171	33.788379
62493		84.398765	-40.046859	33.593572
62494		83.819396	-39.994720	33.415344
62495		83.281806	-39.945692	33.265362
62496		82.763386	-39.897709	33.134565
62497		82.267848	-39.856573	33.004497
62498		81.711747	-39.807815	32.865506
62499		81.042771	-39.753211	32.661785
62500		80.219241	-39.697270	32.385043
62501		79.234244	-39.640347	32.029660
62502		78.117719	-39.589427	31.614772
62503		76.934765	-39.553613	31.166804
62504		75.764259	-39.530531	30.723753
62505		74.678868	-39.520393	30.330218
62506		73.738436	-39.517652	30.007650
62507		72.951998	-39.507895	29.772385
62508		72.267566	-39.488382	29.579579
62509		71.636744	-39.471324	29.405225
62510		70.994182	-39.454761	29.215959
62511		70.247269	-39.433301	28.961045
62512		69.344819	-39.422120	28.641008
62513		68.323968	-39.430779	28.259868
62514		67.228484	-39.450648	27.835696
62515		66.139842	-39.479709	27.422590
62516		65.132931	-39.514881	27.064287
62517		64.241069	-39.535649	26.764084
62518		63.457983	-39.546853	26.507540
62519		62.720769	-39.549695	26.267390
62520		61.963267	-39.555188	25.992416
62521		61.116283	-39.572190	25.682036
62522		60.161144	-39.600002	25.310168
62523		59.093850	-39.655953	24.886127
62524		57.964196	-39.734999	24.454192
62525		56.816233	-39.810635	24.027960
62526		55.728694	-39.891818	23.637937
62527		54.728217	-39.961982	23.273334
62528		53.776046	-40.025289	22.924552
62529		52.821786	-40.093633	22.572709
62530		51.846901	-40.170634	22.219214
62531		50.846282	-40.252342	21.859672
62532		49.843211	-40.340953	21.496714
62533		48.854237	-40.429253	21.143696
62534		47.895673	-40.505876	20.810161
62535		47.004178	-40.576166	20.509890
62536		46.203156	-40.626930	20.257041
62537		45.520075	-40.658028	20.060297
62538		44.964115	-40.658854	19.920323
62539		44.506426	-40.637354	19.820730
62540		44.118850	-40.610855	19.758003
62541		43.766841	-40.580662	19.714232
62542		43.439383	-40.555135	19.681621
62543		43.123472	-40.522478	19.657907
62544		42.827890	-40.487531	19.639380
62545		42.522137	-40.446474	19.625510
62546		42.242097	-40.407297	19.612036
62547		42.016487	-40.364940	19.609557
62548		41.864116	-40.322173	19.618087
62549		41.779326	-40.282858	19.632981
62550		41.718431	-40.243072	19.646109
62551		41.668014	-40.218343	19.657351
62552		41.624453	-40.202248	19.671782
62553		41.565432	-40.188729	19.675920
62554		41.491383	-40.184402	19.665178
62555		41.409846	-40.181520	19.653501
62556		41.339608	-40.179010	19.647405
62557		41.286890	-40.176104	19.636745
62558		41.267156	-40.172757	19.624417
62559		41.270440	-40.165298	19.621572
62560		41.295985	-40.157067	19.618075
62561		41.316629	-40.154498	19.604522
62562		41.314888	-40.158278	19.573981
62563		41.302002	-40.166475	19.534388
62564		41.298796	-40.172832	19.499238
62565		41.324392	-40.169100	19.486161
62566		41.395425	-40.157025	19.476609
62567		41.501235	-40.140487	19.477103
62568		41.597292	-40.121056	19.474023
62569		41.647777	-40.115481	19.447236
62570		41.650721	-40.121560	19.403331
62571		41.618335	-40.128593	19.359121
62572		41.597855	-40.140283	19.312026
62573		41.609598	-40.140600	19.274009
62574		41.656648	-40.133200	19.253434
62575		41.750639	-40.118706	19.248788
62576		41.860729	-40.099376	19.252535
62577		41.972972	-40.087148	19.255110
62578		42.075662	-40.075377	19.263445
62579		42.131926	-40.062751	19.262096
62580		42.142920	-40.070004	19.248889
62581		42.139153	-40.083115	19.229461
62582		42.152242	-40.091824	19.223536
62583		42.212272	-40.092718	19.236966
62584		42.353183	-40.082908	19.276478
62585		42.569697	-40.058125	19.352428
62586		42.774771	-40.025129	19.428139
62587		42.905631	-40.014457	19.454383
62588		42.914398	-40.032698	19.450405
62589		42.847390	-40.065416	19.426174
62590		42.776488	-40.105531	19.404918
62591		42.781899	-40.134962	19.412043
62592		42.930914	-40.139337	19.472650
62593		43.246776	-40.114982	19.606690
62594		43.725289	-40.056179	19.815928
62595		44.357854	-39.979239	20.088737
62596		45.102743	-39.884956	20.411716
62597		45.912012	-39.782636	20.773314
62598		46.723619	-39.685006	21.132059
62599		47.408554	-39.606418	21.430828
62600		47.927412	-39.571496	21.662956
62601		48.276781	-39.568777	21.831217
62602		48.522787	-39.586982	21.956538
62603		48.758446	-39.610929	22.069679
62604		49.098932	-39.616481	22.205872
62605		49.617686	-39.589377	22.402031
62606		50.364216	-39.519514	22.682240
62607		51.324521	-39.416981	23.045620
62608		52.444442	-39.298135	23.472347
62609		53.607972	-39.189089	23.920441
62610		54.713423	-39.108132	24.339372
62611		55.663918	-39.061445	24.704784
62612		56.411348	-39.047900	25.002007
62613		56.958685	-39.057402	25.223526
62614		57.335326	-39.092597	25.361110
62615		57.591097	-39.146370	25.438909
62616		57.825409	-39.198678	25.504608
62617		58.136289	-39.233035	25.603426
62618		58.603979	-39.242660	25.764829
62619		59.245166	-39.229873	25.990479
62620		60.041620	-39.202546	26.280161
62621		60.952076	-39.169944	26.614237
62622		61.925644	-39.136564	26.980668
62623		62.905384	-39.112043	27.353790
62624		63.838366	-39.102717	27.715536
62625		64.687310	-39.114755	28.048786
62626		65.461943	-39.146865	28.353895
62627		66.216993	-39.199788	28.675344
62628		67.006765	-39.256112	29.011341
62629		67.843621	-39.318714	29.370170
62630		68.734479	-39.384925	29.747739
62631		69.665280	-39.457383	30.138784
62632		70.609508	-39.536581	30.525747
62633		71.518031	-39.622619	30.896753
62634		72.365449	-39.714904	31.232085
62635		73.134082	-39.817333	31.529697
62636		73.836596	-39.925321	31.789643
62637		74.486208	-40.039110	32.032189
62638		75.108620	-40.155225	32.260682
62639		75.708709	-40.272908	32.485634
62640		76.300757	-40.388124	32.711656
62641		76.894651	-40.498951	32.942241
62642		77.505274	-40.609372	33.180174
62643		78.125360	-40.718333	33.427121
62644		78.761025	-40.820240	33.682752
62645		79.417075	-40.921018	33.952916
62646		80.111579	-41.021650	34.234751
62647		80.825010	-41.114006	34.526121
62648		81.532380	-41.203299	34.810797
62649		82.202628	-41.290576	35.077319
62650		82.830290	-41.374464	35.318865
62651		83.386801	-41.453132	35.529966
62652		83.885560	-41.532736	35.723663
62653		84.350156	-41.605906	35.896614
62654		84.811024	-41.678901	36.057047
62655		85.264804	-41.750387	36.211338
62656		85.717180	-41.817213	36.364025
62657		86.164544	-41.877805	36.522516
62658		86.615750	-41.935606	36.679588
62659		87.062552	-41.987765	36.846026
62660		87.526828	-42.039327	37.012508
62661		88.012143	-42.087782	37.182822
62662		88.534235	-42.141101	37.356202
62663		89.072655	-42.199242	37.533419
62664		89.599783	-42.254531	37.703052
62665		90.087512	-42.307568	37.854452
62666		90.529557	-42.357273	37.981562
62667		90.901952	-42.402813	38.084045
62668		91.228876	-42.449682	38.165181
62669		91.512592	-42.496461	38.236986
62670		91.795668	-42.545597	38.299141
62671		92.080667	-42.597337	38.359901
62672		92.375209	-42.651789	38.419489
62673		92.665358	-42.709722	38.475055
62674		92.943143	-42.765413	38.528381
62675		93.195444	-42.823929	38.570456
62676		93.422135	-42.874757	38.603553
62677		93.621803	-42.927252	38.633330
62678		93.800411	-42.974269	38.660589
62679		93.959284	-43.015939	38.680408
62680		94.100070	-43.055875	38.695500
62681		94.225971	-43.094964	38.705059
62682		94.340562	-43.133801	38.712088
62683		94.440358	-43.173452	38.713762
62684		94.525076	-43.209903	38.709851
62685		94.590837	-43.243709	38.703175
62686		94.658883	-43.278101	38.700660
62687		94.742435	-43.308554	38.705082
62688		94.841213	-43.332639	38.717792
62689		94.950852	-43.354908	38.735411
62690		95.058853	-43.373722	38.753847
62691		95.146622	-43.388528	38.766045
62692		95.189743	-43.396438	38.762045
62693		95.184472	-43.401819	38.742421
62694		95.143401	-43.401521	38.711585
62695		95.071548	-43.398620	38.674007
62696		94.987051	-43.396787	38.638075
62697		94.915738	-43.393909	38.614775
62698		94.880350	-43.390369	38.609180
62699		94.873780	-43.385804	38.624078
62700		94.884019	-43.385190	38.644462
62701		94.904468	-43.381542	38.667146
62702		94.917475	-43.376054	38.693513
62703		94.912894	-43.367747	38.711054
62704		94.886468	-43.355828	38.718979
62705		94.848445	-43.345975	38.722499
62706		94.814252	-43.337182	38.726124
62707		94.769484	-43.326530	38.726050
62708		94.712525	-43.314511	38.720059
62709		94.635400	-43.300019	38.714781
62710		94.544240	-43.282913	38.696499
62711		94.425478	-43.259382	38.670603
62712		94.274273	-43.231267	38.638701
62713		94.083003	-43.197079	38.592028
62714		93.853582	-43.156681	38.524020
62715		93.573287	-43.112724	38.440158
62716		93.232895	-43.064271	38.335872
62717		92.839095	-43.009062	38.207987
62718		92.401408	-42.953036	38.066360
62719		91.931099	-42.894715	37.915694
62720		91.438080	-42.834455	37.757419
62721		90.931349	-42.771798	37.596579
62722		90.422777	-42.710642	37.433792
62723		89.911961	-42.648306	37.271638
62724		89.400002	-42.582754	37.111031
62725		88.890787	-42.517376	36.952095
62726		88.380069	-42.448219	36.799992
62727		87.856645	-42.376322	36.654057
62728		87.337418	-42.304338	36.497881
62729		86.820696	-42.234554	36.336349
62730		86.310407	-42.168526	36.165816
62731		85.766456	-42.104463	35.996518
62732		85.201524	-42.049189	35.801318
62733		84.614361	-41.996893	35.590014
62734		83.996855	-41.946912	35.354564
62735		83.334984	-41.896948	35.108623
62736		82.630962	-41.847402	34.844706
62737		81.893711	-41.799974	34.566395
62738		81.141725	-41.754174	34.275900
62739		80.379733	-41.709570	33.982726
62740		79.596190	-41.667930	33.678790
62741		78.804630	-41.627411	33.360935
62742		77.996222	-41.588973	33.029131
62743		77.157680	-41.547722	32.689164
62744		76.269200	-41.504923	32.327856
62745		75.344861	-41.473293	31.929242
62746		74.380464	-41.451147	31.502560
62747		73.374194	-41.435598	31.061751
62748		72.324984	-41.420108	30.609782
62749		71.224231	-41.411649	30.138081
62750		70.084348	-41.416240	29.638174
62751		68.890327	-41.432368	29.114999
62752		67.675627	-41.459640	28.575525
62753		66.419784	-41.488637	28.037672
62754		65.089330	-41.518546	27.454384
62755		63.691656	-41.567955	26.829298
62756		62.267732	-41.640474	26.207036
62757		60.902986	-41.706890	25.618684
62758		59.644339	-41.768076	25.092475
62759		58.495217	-41.803284	24.616535
62760		57.448213	-41.830535	24.171623
62761		56.405279	-41.859288	23.721746
62762		55.320470	-41.901620	23.248678
62763		54.179827	-41.958322	22.776445
62764		53.019408	-42.022696	22.317494
62765		51.901541	-42.079609	21.871640
62766		50.888729	-42.124434	21.477622
62767		50.020974	-42.147531	21.156262
62768		49.289514	-42.145836	20.894974
62769		48.668935	-42.132372	20.678809
62770		48.101520	-42.111743	20.483531
62771		47.553928	-42.089718	20.314378
62772		47.023136	-42.065805	20.155671
62773		46.503273	-42.047153	20.012672
62774		46.009896	-42.027837	19.876802
62775		45.557280	-42.002325	19.768773
62776		45.139800	-41.968024	19.676436
62777		44.783233	-41.933077	19.605757
62778		44.472420	-41.886036	19.550783
62779		44.215365	-41.845322	19.503925
62780		43.988634	-41.800421	19.472797
62781		43.804298	-41.761316	19.440483
62782		43.622463	-41.726760	19.416184
62783		43.446445	-41.701786	19.390930
62784		43.283835	-41.682497	19.366373
62785		43.138079	-41.662956	19.333891
62786		43.005926	-41.646336	19.307387
62787		42.891729	-41.628274	19.289722
62788		42.786087	-41.611508	19.272764
62789		42.675409	-41.598666	19.251981
62790		42.574421	-41.589395	19.239525
62791		42.493873	-41.575781	19.238978
62792		42.429206	-41.556219	19.229615
62793		42.364719	-41.538511	19.206878
62794		42.299950	-41.523637	19.180268
62795		42.220466	-41.509507	19.147414
62796		42.151438	-41.501568	19.116459
62797		42.101964	-41.487876	19.095369
62798		42.087710	-41.465402	19.074510
62799		42.102225	-41.441029	19.064866
62800		42.132544	-41.411603	19.056426
62801		42.160007	-41.385338	19.041821
62802		42.163284	-41.366491	19.020346
62803		42.151170	-41.352534	19.001015
62804		42.140452	-41.335565	18.983656
62805		42.151347	-41.313287	18.969210
62806		42.182281	-41.286011	18.964121
62807		42.225749	-41.255323	18.960246
62808		42.284506	-41.226992	18.961781
62809		42.344350	-41.194278	18.967751
62810		42.393919	-41.167003	18.965139
62811		42.417153	-41.151926	18.941443
62812		42.388011	-41.146222	18.905364
62813		42.327681	-41.153147	18.863832
62814		42.272463	-41.157399	18.826050
62815		42.268434	-41.155154	18.814629
62816		42.319430	-41.136936	18.819061
62817		42.397663	-41.117057	18.835557
62818		42.458122	-41.100778	18.853571
62819		42.486198	-41.093050	18.856551
62820		42.493002	-41.095610	18.853110
62821		42.516622	-41.096834	18.856385
62822		42.565197	-41.087318	18.874211
62823		42.643912	-41.077900	18.897642
62824		42.741957	-41.064975	18.931827
62825		42.823052	-41.049306	18.971592
62826		42.868467	-41.046521	18.984860
62827		42.853296	-41.057181	18.988018
62828		42.826647	-41.073965	18.985382
62829		42.831709	-41.083711	18.997172
62830		42.918238	-41.084044	19.037183
62831		43.105728	-41.065793	19.116567
62832		43.416163	-41.027299	19.250876
62833		43.884077	-40.970318	19.455463
62834		44.516482	-40.888038	19.738981
62835		45.276189	-40.779185	20.070051
62836		46.015180	-40.665037	20.378120
62837		46.592148	-40.596671	20.600446
62838		46.904183	-40.579020	20.734328
62839		47.021035	-40.606948	20.789578
62840		47.060602	-40.648427	20.814109
62841		47.123358	-40.670807	20.837618
62842		47.298808	-40.663742	20.889386
62843		47.595832	-40.614051	20.971680
62844		47.975666	-40.542295	21.069553
62845		48.359476	-40.474460	21.174540
62846		48.735007	-40.417116	21.270814
62847		49.121144	-40.360468	21.386357
62848		49.550713	-40.295051	21.542310
62849		50.068804	-40.219290	21.740780
62850		50.708383	-40.129821	21.996995
62851		51.485840	-40.015438	22.323938
62852		52.401409	-39.879599	22.709058
62853		53.418826	-39.731961	23.139109
62854		54.499383	-39.586416	23.588310
62855		55.590338	-39.450251	24.033942
62856		56.654464	-39.329659	24.461357
62857		57.670654	-39.230239	24.867185
62858		58.643713	-39.152198	25.244468
62859		59.581731	-39.085303	25.598573
62860		60.494143	-39.030794	25.939553
62861		61.390506	-38.979974	26.286890
62862		62.294260	-38.936376	26.630325
62863		63.200511	-38.898143	26.976953
62864		64.121296	-38.868634	27.331691
62865		65.046525	-38.843957	27.691874
62866		65.957969	-38.827653	28.053244
62867		66.832811	-38.812167	28.408349
62868		67.664656	-38.807637	28.743833
62869		68.441747	-38.811666	29.056460
62870		69.160616	-38.823910	29.344542
62871		69.822255	-38.838601	29.616582
62872		70.434970	-38.858219	29.862736
62873		70.991225	-38.886638	30.087597
62874		71.510372	-38.916029	30.297205
62875		72.005015	-38.947777	30.500553
62876		72.498439	-38.977538	30.697616
62877		72.995319	-39.009890	30.892595
62878		73.498235	-39.041086	31.097277
62879		74.016465	-39.071169	31.308678
62880		74.556664	-39.101660	31.527667
62881		75.117676	-39.137301	31.756752
62882		75.712184	-39.173859	32.005345
62883		76.332049	-39.212714	32.264620
62884		76.963689	-39.253963	32.528479
62885		77.589628	-39.303280	32.798676
62886		78.207249	-39.347618	33.066192
62887		78.806390	-39.390265	33.327364
62888		79.378334	-39.434710	33.576754
62889		79.915571	-39.481876	33.805382
62890		80.416850	-39.529552	34.019814
62891		80.927999	-39.583824	34.245257
62892		81.506581	-39.639650	34.494549
62893		82.178162	-39.696583	34.778791
62894		82.949350	-39.757145	35.092878
62895		83.780461	-39.821204	35.430351
62896		84.632809	-39.890259	35.768688
62897		85.443002	-39.961605	36.084417
62898		86.165336	-40.031011	36.358591
62899		86.755802	-40.096267	36.577062
62900		87.212410	-40.153424	36.735642
62901		87.528332	-40.203265	36.836516
62902		87.741108	-40.244041	36.891236
62903		87.900513	-40.281255	36.923241
62904		88.073057	-40.319101	36.955787
62905		88.306102	-40.354716	37.001333
62906		88.620766	-40.396932	37.062617
62907		89.000456	-40.440296	37.148175
62908		89.407473	-40.478720	37.244455
62909		89.800041	-40.512851	37.327985
62910		90.144466	-40.540529	37.392514
62911		90.427686	-40.563772	37.436358
62912		90.649008	-40.581731	37.451830
62913		90.798496	-40.594646	37.442144
62914		90.889081	-40.604350	37.406547
62915		90.935542	-40.611364	37.359809
62916		90.956380	-40.617806	37.308174
62917		90.971381	-40.623582	37.255416
62918		91.007119	-40.635208	37.217601
62919		91.107012	-40.656492	37.205928
62920		91.268702	-40.682136	37.217907
62921		91.467711	-40.711366	37.248835
62922		91.684558	-40.738894	37.290134
62923		91.891504	-40.763689	37.326330
62924		92.064483	-40.786614	37.347349
62925		92.180710	-40.803937	37.353570
62926		92.248459	-40.819068	37.345759
62927		92.275741	-40.832164	37.323903
62928		92.276373	-40.845827	37.297903
62929		92.261900	-40.857593	37.275968
62930		92.259902	-40.874007	37.261855
62931		92.315565	-40.899461	37.287145
62932		92.490356	-40.936727	37.353257
62933		92.767956	-40.974328	37.454407
62934		93.114851	-41.017544	37.581840
62935		93.487991	-41.058935	37.722295
62936		93.837509	-41.094942	37.844918
62937		94.109630	-41.124076	37.936075
62938		94.292377	-41.144925	37.986453
62939		94.374634	-41.160325	38.005382
62940		94.368450	-41.169886	37.990227
62941		94.314497	-41.178817	37.953994
62942		94.241624	-41.187497	37.910995
62943		94.176404	-41.197015	37.879354
62944		94.140928	-41.207245	37.862622
62945		94.149022	-41.216100	37.864446
62946		94.190778	-41.224288	37.876496
62947		94.242822	-41.229150	37.896046
62948		94.287892	-41.227042	37.916037
62949		94.320125	-41.221216	37.932883
62950		94.349448	-41.214656	37.939671
62951		94.368719	-41.211903	37.943417
62952		94.375917	-41.213398	37.941625
62953		94.369329	-41.213124	37.938730
62954		94.349623	-41.215414	37.928346
62955		94.321982	-41.218981	37.919546
62956		94.302257	-41.221904	37.922311
62957		94.301073	-41.229036	37.929521
62958		94.309260	-41.232359	37.940832
62959		94.322286	-41.232850	37.955509
62960		94.336929	-41.235681	37.966804
62961		94.342882	-41.236508	37.973784
62962		94.336907	-41.233409	37.975622
62963		94.317095	-41.232293	37.974757
62964		94.290674	-41.229484	37.967992
62965		94.256836	-41.227940	37.960429
62966		94.220226	-41.226118	37.948023
62967		94.183883	-41.224499	37.940422
62968		94.161805	-41.224314	37.935269
62969		94.145449	-41.225909	37.932591
62970		94.129526	-41.224824	37.930331
62971		94.109185	-41.219715	37.935034
62972		94.086795	-41.211970	37.933917
62973		94.046870	-41.199701	37.925059
62974		93.986669	-41.180942	37.910861
62975		93.889620	-41.155081	37.885244
62976		93.753029	-41.122198	37.835923
62977		93.569187	-41.084685	37.769610
62978		93.337536	-41.043326	37.690382
62979		93.044979	-40.996327	37.601042
62980		92.709449	-40.942026	37.485969
62981		92.321691	-40.882086	37.357915
62982		91.890335	-40.817220	37.208421
62983		91.384703	-40.743257	37.050690
62984		90.817772	-40.663853	36.865149
62985		90.161773	-40.577467	36.647790
62986		89.421571	-40.487758	36.390340
62987		88.579769	-40.391179	36.103489
62988		87.640268	-40.291594	35.778360
62989		86.622521	-40.192804	35.408676
62990		85.565414	-40.096048	35.008649
62991		84.490141	-40.004557	34.600207
62992		83.426619	-39.921882	34.196155
62993		82.402634	-39.851032	33.811446
62994		81.450470	-39.788280	33.456303
62995		80.568073	-39.733901	33.137813
62996		79.736470	-39.684085	32.840967
62997		78.917759	-39.643928	32.558458
62998		78.049825	-39.604227	32.276773
62999		77.137715	-39.573421	31.948705
63000		76.168501	-39.559287	31.580787
63001		75.173726	-39.555414	31.200186
63002		74.212633	-39.563718	30.839786
63003		73.335947	-39.575488	30.522884
63004		72.577748	-39.594859	30.264062
63005		71.926872	-39.609749	30.059532
63006		71.326001	-39.622222	29.881010
63007		70.753992	-39.650551	29.690207
63008		70.070965	-39.683967	29.462667
63009		69.186978	-39.720453	29.121053
63010		68.057362	-39.783139	28.666472
63011		66.686918	-39.872399	28.093977
63012		65.150610	-39.989508	27.446434
63013		63.567167	-40.130108	26.787642
63014		62.038259	-40.270904	26.165964
63015		60.669393	-40.402111	25.610611
63016		59.440324	-40.518445	25.122098
63017		58.303674	-40.628606	24.652959
63018		57.130927	-40.750592	24.176404
63019		55.842599	-40.879748	23.645293
63020		54.445871	-41.043940	23.089365
63021		52.972892	-41.205835	22.522975
63022		51.543748	-41.373723	21.987514
63023		50.262633	-41.518691	21.530339
63024		49.202484	-41.627445	21.165634
63025		48.324866	-41.699689	20.882527
63026		47.594173	-41.757325	20.674138
63027		46.973624	-41.794110	20.513733
63028		46.381927	-41.815088	20.366419
63029		45.795283	-41.835350	20.236471
63030		45.247121	-41.855982	20.122406
63031		44.760672	-41.864774	20.040575
63032		44.344744	-41.861546	19.994106
63033		44.014819	-41.844859	19.991070
63034		43.772251	-41.815051	20.026874
63035		43.577560	-41.772969	20.076992
63036		43.413245	-41.734464	20.128806
63037		43.269588	-41.694033	20.188591
63038		43.145135	-41.652896	20.252226
63039		43.019951	-41.615915	20.292340
63040		42.871243	-41.591305	20.315931
63041		42.702606	-41.572252	20.325850
63042		42.544262	-41.559263	20.339616
63043		42.441633	-41.540057	20.364621
63044		42.408392	-41.508620	20.396244
63045		42.414439	-41.471214	20.439040
63046		42.439601	-41.439427	20.477344
63047		42.453676	-41.416744	20.501900
63048		42.436574	-41.402639	20.501764
63049		42.394626	-41.397241	20.490196
63050		42.365567	-41.393870	20.478241
63051		42.362714	-41.381604	20.468835
63052		42.380237	-41.369590	20.450683
63053		42.386909	-41.356139	20.434749
63054		42.374933	-41.347503	20.400276
63055		42.354957	-41.352369	20.354955
63056		42.332484	-41.356187	20.308772
63057		42.319697	-41.355749	20.269501
63058		42.322391	-41.349480	20.233573
63059		42.333710	-41.341059	20.195858
63060		42.350553	-41.335499	20.160190
63061		42.369031	-41.321076	20.132703
63062		42.400802	-41.313404	20.106341
63063		42.436054	-41.303650	20.090715
63064		42.453797	-41.292626	20.065967
63065		42.431369	-41.295221	20.032267
63066		42.379872	-41.303209	19.991195
63067		42.350296	-41.309655	19.964896
63068		42.390264	-41.303988	19.965955
63069		42.492582	-41.278388	19.991707
63070		42.641114	-41.247864	20.033132
63071		42.805844	-41.216740	20.083190
63072		42.961351	-41.186932	20.128928
63073		43.107346	-41.166964	20.170517
63074		43.237278	-41.146364	20.211581
63075		43.339966	-41.130810	20.243082
63076		43.415437	-41.120349	20.268879
63077		43.492848	-41.108551	20.296574
63078		43.604731	-41.091453	20.341219
63079		43.786885	-41.063344	20.417083
63080		44.067969	-41.020874	20.532837
63081		44.462154	-40.961076	20.696535
63082		44.949392	-40.888366	20.901069
63083		45.454928	-40.802744	21.110128
63084		45.890704	-40.735519	21.289382
63085		46.191691	-40.700097	21.425663
63086		46.392292	-40.687710	21.518223
63087		46.557228	-40.686193	21.599554
63088		46.793856	-40.674000	21.706795
63089		47.182182	-40.637449	21.872869
63090		47.771672	-40.570876	22.110656
63091		48.553204	-40.474095	22.424543
63092		49.485724	-40.355460	22.800193
63093		50.493662	-40.233500	23.204240
63094		51.471227	-40.117833	23.614951
63095		52.309216	-40.011153	23.999710
63096		52.969721	-39.944068	24.304223
63097		53.429505	-39.919167	24.518050
63098		53.745466	-39.924574	24.663164
63099		53.996967	-39.937379	24.771815
63100		54.270051	-39.938715	24.886555
63101		54.646249	-39.923565	25.025331
63102		55.163150	-39.888387	25.215749
63103		55.847400	-39.828210	25.478632
63104		56.711040	-39.744025	25.809360
63105		57.710068	-39.641801	26.200808
63106		58.786280	-39.537097	26.634316
63107		59.885793	-39.440879	27.085276
63108		60.957898	-39.357229	27.529200
63109		61.962305	-39.296046	27.947693
63110		62.889261	-39.251598	28.333497
63111		63.733349	-39.220055	28.684634
63112		64.502728	-39.206162	29.004993
63113		65.224786	-39.202394	29.290836
63114		65.916344	-39.209349	29.550149
63115		66.569590	-39.224088	29.800890
63116		67.198691	-39.239686	30.031733
63117		67.811361	-39.258517	30.243101
63118		68.394439	-39.282058	30.447629
63119		68.957388	-39.305109	30.647715
63120		69.514361	-39.328662	30.839040
63121		70.061372	-39.352077	31.038548
63122		70.618353	-39.376846	31.251008
63123		71.186550	-39.396112	31.467636
63124		71.756605	-39.417913	31.682037
63125		72.311193	-39.444010	31.899454
63126		72.855025	-39.472516	32.109005
63127		73.375879	-39.505017	32.315531
63128		73.892164	-39.541720	32.522746
63129		74.428804	-39.579414	32.735532
63130		74.998446	-39.618974	32.957904
63131		75.583901	-39.655412	33.194152
63132		76.166496	-39.696733	33.424962
63133		76.725258	-39.739611	33.647096
63134		77.253358	-39.785379	33.856460
63135		77.760369	-39.838467	34.053874
63136		78.271563	-39.898001	34.247363
63137		78.802592	-39.959673	34.445469
63138		79.342269	-40.023466	34.655115
63139		79.894666	-40.089017	34.870352
63140		80.461820	-40.156191	35.088161
63141		81.017603	-40.218194	35.303830
63142		81.547121	-40.287370	35.514990
63143		82.050671	-40.356940	35.715277
63144		82.535165	-40.428818	35.901168
63145		82.988885	-40.502606	36.077129
63146		83.453354	-40.583441	36.255659
63147		83.972415	-40.671120	36.459733
63148		84.580246	-40.754338	36.684635
63149		85.246187	-40.837220	36.928725
63150		85.948743	-40.920134	37.178044
63151		86.636693	-41.007002	37.419904
63152		87.282706	-41.094667	37.639568
63153		87.879707	-41.185658	37.836588
63154		88.435034	-41.277098	38.009603
63155		88.936919	-41.367958	38.161751
63156		89.394426	-41.455518	38.288538
63157		89.803726	-41.534990	38.398333
63158		90.173061	-41.610082	38.479917
63159		90.513436	-41.681649	38.555723
63160		90.861104	-41.755189	38.633102
63161		91.229009	-41.824708	38.720402
63162		91.629733	-41.892577	38.812161
63163		92.044500	-41.957403	38.919516
63164		92.470256	-42.014140	39.020540
63165		92.863381	-42.069331	39.112713
63166		93.221589	-42.118635	39.190698
63167		93.551327	-42.165023	39.252870
63168		93.853525	-42.211022	39.303489
63169		94.146714	-42.258406	39.354419
63170		94.446262	-42.301996	39.410386
63171		94.755964	-42.347332	39.472332
63172		95.080094	-42.392498	39.539660
63173		95.415455	-42.435741	39.610055
63174		95.743539	-42.481302	39.685211
63175		96.059028	-42.521733	39.760744
63176		96.360311	-42.556682	39.829735
63177		96.634793	-42.587867	39.885595
63178		96.871268	-42.617607	39.924115
63179		97.059666	-42.644442	39.946898
63180		97.206179	-42.669677	39.960503
63181		97.321949	-42.692360	39.966969
63182		97.416928	-42.712623	39.971528
63183		97.523467	-42.737910	39.981852
63184		97.676835	-42.773856	40.005791
63185		97.915886	-42.826670	40.065299
63186		98.258900	-42.886459	40.172639
63187		98.695404	-42.952029	40.309818
63188		99.170865	-43.018580	40.468014
63189		99.647705	-43.082715	40.616555
63190		100.058443	-43.140146	40.745701
63191		100.366281	-43.186228	40.838468
63192		100.562100	-43.221041	40.893691
63193		100.653449	-43.242353	40.913519
63194		100.661812	-43.252227	40.903322
63195		100.614119	-43.254299	40.872649
63196		100.527171	-43.249003	40.821573
63197		100.394520	-43.236364	40.765326
63198		100.223676	-43.215229	40.700191
63199		100.025640	-43.190252	40.629927
63200		99.823143	-43.162589	40.566450
63201		99.632737	-43.132980	40.517781
63202		99.463183	-43.102350	40.479948
63203		99.314757	-43.069456	40.450334
63204		99.200312	-43.043999	40.432351
63205		99.132813	-43.023700	40.434593
63206		99.119248	-43.010110	40.453308
63207		99.141338	-43.003214	40.479380
63208		99.170124	-42.997810	40.510680
63209		99.186231	-42.990920	40.536633
63210		99.171989	-42.984106	40.545369
63211		99.119077	-42.972016	40.545885
63212		99.029790	-42.960325	40.530574
63213		98.897660	-42.944142	40.510915
63214		98.744827	-42.923421	40.477668
63215		98.576303	-42.903203	40.438367
63216		98.393083	-42.880811	40.395270
63217		98.192703	-42.855297	40.351362
63218		97.971543	-42.824242	40.297790
63219		97.729927	-42.790578	40.236861
63220		97.464833	-42.749104	40.165784
63221		97.169521	-42.705175	40.085689
63222		96.832897	-42.653902	39.992420
63223		96.450078	-42.593725	39.882850
63224		96.014483	-42.526030	39.754059
63225		95.517219	-42.447938	39.610796
63226		94.964354	-42.362113	39.447140
63227		94.357282	-42.265444	39.266915
63228		93.702718	-42.156170	39.065999
63229		92.994003	-42.044815	38.850975
63230		92.254768	-41.934291	38.614457
63231		91.504053	-41.824686	38.359161
63232		90.760745	-41.727235	38.101453
63233		90.027630	-41.640428	37.853519
63234		89.312905	-41.557917	37.618766
63235		88.631545	-41.476551	37.401300
63236		87.973372	-41.392766	37.200056
63237		87.315777	-41.313275	36.996958
63238		86.638486	-41.234555	36.786810
63239		85.938228	-41.159345	36.560087
63240		85.221529	-41.086428	36.311939
63241		84.494434	-41.018670	36.050063
63242		83.743034	-40.956051	35.784105
63243		82.920437	-40.889600	35.496361
63244		82.040095	-40.824465	35.164315
63245		81.092490	-40.766158	34.792646
63246		80.102753	-40.716022	34.382742
63247		79.079771	-40.671506	33.952481
63248		78.059475	-40.634173	33.520726
63249		77.021617	-40.593274	33.117412
63250		75.929446	-40.542976	32.680026
63251		74.766062	-40.500702	32.177937
63252		73.473029	-40.470302	31.601013
63253		72.011153	-40.452394	30.912157
63254		70.374522	-40.462370	30.139827
63255		68.636964	-40.502387	29.306422
63256		66.884173	-40.564482	28.475639
63257		65.234831	-40.631204	27.692678
63258		63.770917	-40.692246	26.999693
63259		62.519149	-40.734067	26.425816
63260		61.447918	-40.742870	25.934310
63261		60.479137	-40.746800	25.439112
63262		59.466069	-40.769626	24.931614
63263		58.340745	-40.815938	24.385284
63264		57.117731	-40.886636	23.801183
63265		55.857343	-40.973001	23.233234
63266		54.696067	-41.045019	22.713015
63267		53.742798	-41.083713	22.287752
63268		53.025187	-41.086012	21.962241
63269		52.481311	-41.056355	21.713805
63270		52.021759	-41.017805	21.509788
63271		51.527444	-40.982121	21.304931
63272		50.912202	-40.967097	21.040111
63273		50.183718	-40.980340	20.756847
63274		49.421319	-40.995956	20.479259
63275		48.711358	-40.998638	20.212658
63276		48.123029	-40.985319	19.995337
63277		47.657192	-40.945358	19.838589
63278		47.303799	-40.896306	19.719710
63279		46.991148	-40.838638	19.633051
63280		46.652229	-40.785781	19.527812
63281		46.256687	-40.759313	19.403845
63282		45.805617	-40.745497	19.275388
63283		45.334066	-40.735860	19.136511
63284		44.899115	-40.734539	19.006327
63285		44.547331	-40.729180	18.915033
63286		44.312706	-40.711342	18.862826
63287		44.165695	-40.685062	18.840375
63288		44.063079	-40.661219	18.837483
63289		43.951864	-40.647911	18.835521
63290		43.784447	-40.652712	18.799735
63291		43.542819	-40.682794	18.751900
63292		43.284175	-40.720398	18.701286
63293		43.069053	-40.757241	18.670891
63294		42.919913	-40.779626	18.649635
63295		42.808513	-40.797819	18.645502
63296		42.718171	-40.815209	18.651556
63297		42.632275	-40.831353	18.669890
63298		42.587193	-40.851473	18.695808
63299		42.560018	-40.861282	18.714469
63300		42.520128	-40.875522	18.722278
63301		42.453220	-40.895334	18.721896
63302		42.356168	-40.919031	18.708958
63303		42.246477	-40.946128	18.691524
63304		42.157039	-40.967711	18.678433
63305		42.125458	-40.979109	18.681013
63306		42.165211	-40.978915	18.706552
63307		42.271327	-40.966610	18.751423
63308		42.386487	-40.943370	18.794363
63309		42.473727	-40.930530	18.819040
63310		42.514885	-40.927202	18.819221
63311		42.531279	-40.931366	18.804507
63312		42.554092	-40.935190	18.785162
63313		42.596375	-40.935093	18.769869
63314		42.668583	-40.932095	18.758877
63315		42.772806	-40.924986	18.756260
63316		42.878382	-40.912305	18.755549
63317		42.958689	-40.897388	18.744893
63318		43.003205	-40.892243	18.727102
63319		43.017003	-40.892614	18.700288
63320		43.015008	-40.898037	18.662751
63321		43.017649	-40.907575	18.630810
63322		43.057095	-40.910303	18.616892
63323		43.157261	-40.905187	18.623120
63324		43.302078	-40.885698	18.647989
63325		43.470880	-40.863472	18.684665
63326		43.619176	-40.847699	18.704309
63327		43.700435	-40.842694	18.716815
63328		43.753791	-40.854686	18.718024
63329		43.823006	-40.862942	18.733574
63330		43.951806	-40.858743	18.773027
63331		44.178334	-40.838775	18.851127
63332		44.517748	-40.803656	18.982695
63333		44.959411	-40.752842	19.151729
63334		45.411601	-40.694819	19.331513
63335		45.798682	-40.651434	19.471492
63336		46.045990	-40.638779	19.563945
63337		46.171613	-40.655077	19.614740
63338		46.247515	-40.679574	19.658562
63339		46.357241	-40.697360	19.716370
63340		46.558640	-40.700874	19.807400
63341		46.899455	-40.676827	19.947402
63342		47.393682	-40.629859	20.149597
63343		47.973101	-40.566048	20.392540
63344		48.553420	-40.503308	20.626223
63345		49.050007	-40.471540	20.823302
63346		49.439433	-40.463793	20.985401
63347		49.748433	-40.462547	21.118840
63348		50.018488	-40.469561	21.235924
63349		50.266103	-40.476889	21.348947
63350		50.545534	-40.481389	21.471885
63351		50.892108	-40.478453	21.618170
63352		51.321192	-40.468625	21.794060
63353		51.815130	-40.453469	21.994468
63354		52.347293	-40.437456	22.212550
63355		52.879442	-40.422519	22.435602
63356		53.379863	-40.415137	22.663029
63357		53.865786	-40.409788	22.886811
63358		54.356626	-40.404355	23.118446
63359		54.887516	-40.389775	23.374400
63360		55.489773	-40.364884	23.662039
63361		56.164655	-40.333895	23.976987
63362		56.881935	-40.299502	24.302713
63363		57.612549	-40.271215	24.635252
63364		58.340604	-40.247406	24.970158
63365		59.039253	-40.230566	25.302813
63366		59.725924	-40.223329	25.618193
63367		60.382766	-40.224978	25.922088
63368		61.028974	-40.230036	26.219121
63369		61.666089	-40.235040	26.519964
63370		62.315840	-40.246411	26.840138
63371		63.015446	-40.259244	27.170940
63372		63.755328	-40.274389	27.522389
63373		64.518584	-40.292890	27.890755
63374		65.297345	-40.315492	28.258656
63375		66.066546	-40.345263	28.621231
63376		66.793585	-40.376134	28.972465
63377		67.463035	-40.414492	29.304085
63378		68.087538	-40.459361	29.613277
63379		68.690379	-40.505505	29.909572
63380		69.282428	-40.553902	30.201636
63381		69.869435	-40.606149	30.491049
63382		70.463961	-40.662622	30.781607
63383		71.070104	-40.718948	31.081130
63384		71.695156	-40.776098	31.389255
63385		72.334358	-40.829213	31.701181
63386		72.976268	-40.881655	32.020782
63387		73.627775	-40.937972	32.350273
63388		74.293977	-40.991974	32.677327
63389		74.955575	-41.049373	33.008728
63390		75.612314	-41.107836	33.335945
63391		76.255309	-41.163531	33.655193
63392		76.895013	-41.225109	33.971773
63393		77.536543	-41.280645	34.278591
63394		78.184160	-41.340799	34.580806
63395		78.840876	-41.402236	34.888012
63396		79.511508	-41.461222	35.197060
63397		80.187496	-41.524579	35.504539
63398		80.847105	-41.583151	35.799101
63399		81.478887	-41.647723	36.079107
63400		82.092320	-41.715633	36.341425
63401		82.684920	-41.784891	36.595057
63402		83.270425	-41.853941	36.836879
63403		83.850714	-41.924415	37.068814
63404		84.426666	-41.993390	37.295238
63405		85.014106	-42.064979	37.518526
63406		85.637589	-42.140092	37.750556
63407		86.318317	-42.223507	38.005116
63408		87.064747	-42.309451	38.271990
63409		87.841877	-42.398397	38.545023
63410		88.606867	-42.486849	38.806417
63411		89.309561	-42.572857	39.043449
63412		89.928831	-42.655140	39.235598
63413		90.453099	-42.731423	39.388773
63414		90.893266	-42.804731	39.504115
63415		91.276993	-42.874653	39.597779
63416		91.630578	-42.940802	39.676126
63417		91.963483	-43.001610	39.745350
63418		92.310775	-43.068973	39.825747
63419		92.727974	-43.141884	39.943250
63420		93.261001	-43.220734	40.095213
63421		93.892990	-43.303846	40.271769
63422		94.573444	-43.392695	40.462070
63423		95.244491	-43.476922	40.643682
63424		95.860291	-43.557445	40.795510
63425		96.372008	-43.630095	40.905040
63426		96.755485	-43.688971	40.968175
63427		97.020106	-43.736021	40.983553
63428		97.184922	-43.772627	40.963617
63429		97.292296	-43.793952	40.915240
63430		97.345104	-43.809805	40.851210
63431		97.371988	-43.827074	40.782794
63432		97.453981	-43.858004	40.753054
63433		97.663733	-43.895812	40.774303
63434		98.010266	-43.939038	40.841129
63435		98.445698	-43.987606	40.941498
63436		98.915830	-44.036735	41.065013
63437		99.369233	-44.079857	41.180310
63438		99.743798	-44.111646	41.261143
63439		100.010088	-44.130803	41.297217
63440		100.162838	-44.139904	41.284123
63441		100.184916	-44.132682	41.226005
63442		100.076476	-44.108985	41.123832
63443		99.858071	-44.076300	40.983105
63444		99.573316	-44.040488	40.826407
63445		99.273345	-44.006065	40.678550
63446		99.014767	-43.975803	40.554174
63447		98.825205	-43.949890	40.468488
63448		98.709959	-43.927690	40.416540
63449		98.642573	-43.906370	40.392860
63450		98.604908	-43.884999	40.385987
63451		98.571669	-43.862827	40.387894
63452		98.533713	-43.837081	40.386369
63453		98.483705	-43.811484	40.375259
63454		98.399170	-43.785279	40.361764
63455		98.282266	-43.757641	40.335561
63456		98.127765	-43.729988	40.295176
63457		97.933666	-43.703912	40.245339
63458		97.701786	-43.674948	40.189229
63459		97.434432	-43.645738	40.120501
63460		97.148784	-43.613141	40.052561
63461		96.865202	-43.584710	39.995418
63462		96.614910	-43.559319	39.954496
63463		96.412194	-43.535117	39.935256
63464		96.258493	-43.514576	39.936344
63465		96.138269	-43.495418	39.952625
63466		96.019658	-43.473990	39.966876
63467		95.865502	-43.449021	39.969249
63468		95.647586	-43.416808	39.953850
63469		95.368337	-43.372663	39.904962
63470		95.028052	-43.323573	39.824517
63471		94.630821	-43.266414	39.728013
63472		94.200122	-43.204690	39.624436
63473		93.761129	-43.137658	39.524019
63474		93.348411	-43.069777	39.429077
63475		92.952368	-43.002160	39.358226
63476		92.582016	-42.930770	39.291617
63477		92.226006	-42.857832	39.227076
63478		91.884879	-42.784040	39.154862
63479		91.529545	-42.710656	39.078029
63480		91.152823	-42.635409	38.985368
63481		90.750784	-42.558941	38.880592
63482		90.322518	-42.484131	38.766759
63483		89.870413	-42.407940	38.643979
63484		89.410183	-42.338106	38.505763
63485		88.938859	-42.271364	38.364364
63486		88.456215	-42.206971	38.220142
63487		87.964123	-42.144470	38.070855
63488		87.461587	-42.081183	37.917509
63489		86.928804	-42.018294	37.757359
63490		86.372771	-41.956279	37.582105
63491		85.744945	-41.893588	37.396593
63492		85.037397	-41.823832	37.168909
63493		84.253722	-41.753829	36.896738
63494		83.410587	-41.687046	36.585973
63495		82.520108	-41.619320	36.248600
63496		81.612920	-41.552126	35.896539
63497		80.712241	-41.488001	35.542549
63498		79.822922	-41.425308	35.197442
63499		78.970111	-41.368945	34.861868
63500		78.162319	-41.322648	34.541281
63501		77.405789	-41.283571	34.245118
63502		76.709472	-41.257778	33.975158
63503		76.072132	-41.240808	33.733579
63504		75.502020	-41.231511	33.526246
63505		75.011307	-41.224620	33.355558
63506		74.596088	-41.217699	33.221788
63507		74.248594	-41.207255	33.118585
63508		73.953184	-41.200259	33.042992
63509		73.695160	-41.189837	32.977544
63510		73.392376	-41.176913	32.909886
63511		73.040372	-41.171115	32.802145
63512		72.612358	-41.169748	32.655860
63513		72.109993	-41.172332	32.472635
63514		71.560722	-41.180687	32.260294
63515		70.986500	-41.196865	32.042563
63516		70.423728	-41.211037	31.827002
63517		69.903754	-41.228396	31.630457
63518		69.445660	-41.244337	31.462238
63519		69.042016	-41.258670	31.333117
63520		68.655294	-41.266338	31.218826
63521		68.180335	-41.261994	31.094006
63522		67.504273	-41.256378	30.866461
63523		66.520273	-41.259264	30.431772
63524		65.179471	-41.306824	29.816906
63525		63.534850	-41.392578	29.073654
63526		61.775565	-41.502360	28.301178
63527		60.069099	-41.605377	27.560685
63528		58.563922	-41.689061	26.910313
63529		57.329196	-41.739369	26.373420
63530		56.375617	-41.762627	25.950775
63531		55.567874	-41.771612	25.581102
63532		54.708492	-41.788894	25.161617
63533		53.651949	-41.838839	24.696678
63534		52.386312	-41.919398	24.170654
63535		51.028681	-42.036638	23.626202
63536		49.724051	-42.152513	23.149071
63537		48.640727	-42.236534	22.775292
63538		47.890597	-42.263185	22.534560
63539		47.426553	-42.222620	22.423683
63540		47.147407	-42.143361	22.383344
63541		46.907050	-42.053106	22.361611
63542		46.598459	-41.980380	22.306010
63543		46.162554	-41.935127	22.208959
63544		45.618655	-41.916641	22.069439
63545		45.036124	-41.915096	21.927536
63546		44.539726	-41.905584	21.818977
63547		44.223718	-41.862714	21.775828
63548		44.083247	-41.778416	21.779706
63549		44.059230	-41.678786	21.819412
63550		44.061667	-41.572924	21.876293
63551		44.030953	-41.479305	21.904297
63552		43.917650	-41.416336	21.888295
63553		43.738477	-41.380967	21.845159
63554		43.503521	-41.358005	21.766963
63555		43.252743	-41.355717	21.669543
63556		43.028847	-41.352480	21.581087
63557		42.881875	-41.337454	21.526233
63558		42.852687	-41.305057	21.504502
63559		42.913538	-41.261706	21.509829
63560		43.004351	-41.210532	21.528095
63561		43.034643	-41.167032	21.528482
63562		42.980306	-41.148669	21.488934
63563		42.837059	-41.151527	21.421213
63564		42.666016	-41.168668	21.340701
63565		42.515621	-41.181184	21.266893
63566		42.435406	-41.186487	21.213977
63567		42.428192	-41.174643	21.194081
63568		42.491006	-41.152299	21.198921
63569		42.589811	-41.123327	21.218870
63570		42.664561	-41.096957	21.218905
63571		42.664610	-41.091568	21.189813
63572		42.586581	-41.107409	21.141303
63573		42.488489	-41.131174	21.083976
63574		42.442129	-41.150162	21.048366
63575		42.486000	-41.149450	21.050817
63576		42.605706	-41.125730	21.083357
63577		42.738195	-41.097734	21.122332
63578		42.837046	-41.078918	21.148259
63579		42.877953	-41.070511	21.153872
63580		42.859866	-41.074924	21.130201
63581		42.793941	-41.088131	21.093783
63582		42.712355	-41.103734	21.054509
63583		42.656831	-41.116034	21.029295
63584		42.672778	-41.116425	21.031581
63585		42.774620	-41.100061	21.072303
63586		42.925766	-41.065322	21.130644
63587		43.064983	-41.036488	21.184167
63588		43.157543	-41.025279	21.217650
63589		43.189384	-41.029004	21.225943
63590		43.168964	-41.045674	21.208283
63591		43.109485	-41.069003	21.184814
63592		43.067657	-41.090482	21.167908
63593		43.083673	-41.103616	21.171093
63594		43.179895	-41.105488	21.207773
63595		43.357269	-41.092419	21.276559
63596		43.577008	-41.069604	21.365926
63597		43.810718	-41.053268	21.458696
63598		44.001284	-41.041132	21.531252
63599		44.122184	-41.046842	21.571064
63600		44.176747	-41.069808	21.587418
63601		44.214840	-41.095542	21.597962
63602		44.293232	-41.115309	21.625940
63603		44.456882	-41.115596	21.691275
63604		44.726289	-41.096252	21.794071
63605		45.086078	-41.062869	21.932213
63606		45.479430	-41.010329	22.085798
63607		45.847292	-40.962458	22.225772
63608		46.132817	-40.931835	22.321509
63609		46.314911	-40.925606	22.370919
63610		46.417524	-40.934507	22.393092
63611		46.512358	-40.945933	22.412363
63612		46.660972	-40.946508	22.455963
63613		46.914033	-40.924505	22.544748
63614		47.324299	-40.882486	22.683122
63615		47.884777	-40.808279	22.897824
63616		48.549655	-40.714915	23.166528
63617		49.227112	-40.621798	23.406370
63618		49.751707	-40.563250	23.586608
63619		50.057135	-40.541483	23.712903
63620		50.246656	-40.566106	23.759568
63621		50.368439	-40.603711	23.783397
63622		50.531709	-40.626204	23.833119
63623		50.830746	-40.627324	23.939323
63624		51.327320	-40.603309	24.119493
63625		52.014251	-40.550468	24.384054
63626		52.853816	-40.481537	24.716732
63627		53.769785	-40.409184	25.079877
63628		54.657142	-40.347644	25.444668
63629		55.437652	-40.306024	25.765622
63630		56.051006	-40.295742	26.026193
63631		56.520396	-40.316388	26.215261
63632		56.871710	-40.355657	26.352971
63633		57.170529	-40.399683	26.469665
63634		57.491190	-40.439387	26.593584
63635		57.885195	-40.473299	26.759045
63636		58.430694	-40.491421	26.991524
63637		59.157069	-40.489543	27.308178
63638		60.060471	-40.465082	27.701646
63639		61.092400	-40.424702	28.148319
63640		62.199817	-40.379839	28.621042
63641		63.297310	-40.335329	29.106291
63642		64.340283	-40.295623	29.578886
63643		65.302011	-40.270948	30.006177
63644		66.223266	-40.277293	30.332539
63645		66.991024	-40.280978	30.659741
63646		67.651072	-40.289951	30.970239
63647		68.297314	-40.313257	31.209953
63648		68.912584	-40.337136	31.423019
63649		69.486839	-40.361548	31.636057
63650		70.080201	-40.390720	31.818952
63651		70.673202	-40.412966	32.006763
63652		71.262604	-40.436602	32.208119
63653		71.870183	-40.458092	32.395051
63654		72.514470	-40.493587	32.538500
63655		73.102821	-40.518693	32.719745
63656		73.651639	-40.547787	32.902841
63657		74.185070	-40.577349	33.056231
63658		74.724263	-40.614955	33.185112
63659		75.237089	-40.650401	33.332698
63660		75.766812	-40.689860	33.497227
63661		76.340128	-40.731276	33.679446
63662		76.945581	-40.770321	33.877262
63663		77.575916	-40.807492	34.075623
63664		78.204818	-40.843894	34.266359
63665		78.775804	-40.877900	34.451770
63666		79.313364	-40.917209	34.621632
63667		79.856309	-40.956431	34.772750
63668		80.417135	-41.001690	34.913361
63669		81.013384	-41.054913	35.088826
63670		81.690773	-41.110964	35.312183
63671		82.470000	-41.168027	35.569294
63672		83.328716	-41.233282	35.836930
63673		84.201120	-41.301710	36.112397
63674		85.036969	-41.372374	36.371639
63675		85.783862	-41.449766	36.589481
63676		86.414899	-41.517530	36.762509
63677		86.931038	-41.575405	36.881439
63678		87.329134	-41.625978	36.956986
63679		87.640823	-41.672525	36.996273
63680		87.915542	-41.716417	37.011883
63681		88.202181	-41.766174	37.032982
63682		88.558778	-41.821750	37.079027
63683		88.998870	-41.876028	37.168511
63684		89.517075	-41.931298	37.279389
63685		90.067321	-41.985743	37.402854
63686		90.603799	-42.037836	37.521098
63687		91.077852	-42.085098	37.621419
63688		91.488540	-42.129044	37.684522
63689		91.809557	-42.169560	37.719887
63690		92.061162	-42.203268	37.727162
63691		92.246650	-42.228071	37.723376
63692		92.389440	-42.253274	37.699743
63693		92.503089	-42.275972	37.667245
63694		92.623753	-42.305184	37.639616
63695		92.785236	-42.337021	37.643336
63696		93.023845	-42.371783	37.679899
63697		93.327047	-42.408383	37.742272
63698		93.665926	-42.442470	37.823512
63699		93.996704	-42.473973	37.914108
63700		94.296862	-42.500001	37.983915
63701		94.521066	-42.520103	38.033434
63702		94.676563	-42.532721	38.050535
63703		94.757693	-42.541911	38.043691
63704		94.772327	-42.550545	38.011247
63705		94.716522	-42.553931	37.960240
63706		94.604147	-42.548191	37.892508
63707		94.438116	-42.539736	37.816745
63708		94.232088	-42.527075	37.726783
63709		93.990642	-42.507601	37.636492
63710		93.735954	-42.487682	37.549560
63711		93.479596	-42.465960	37.471629
63712		93.249163	-42.445703	37.406576
63713		93.060727	-42.431118	37.369211
63714		92.925968	-42.419248	37.349602
63715		92.840677	-42.412143	37.346959
63716		92.781452	-42.406614	37.363320
63717		92.742422	-42.401123	37.387407
63718		92.692290	-42.397647	37.410849
63719		92.625328	-42.390965	37.431371
63720		92.534386	-42.381311	37.443157
63721		92.424813	-42.369482	37.431392
63722		92.275057	-42.352489	37.407442
63723		92.079126	-42.331266	37.373856
63724		91.859936	-42.307636	37.336267
63725		91.649907	-42.288345	37.294806
63726		91.469677	-42.270840	37.263267
63727		91.324362	-42.256635	37.250164
63728		91.220626	-42.242391	37.250408
63729		91.146768	-42.229732	37.261732
63730		91.089600	-42.216969	37.274552
63731		91.028486	-42.200748	37.287418
63732		90.950464	-42.183448	37.290775
63733		90.830595	-42.164384	37.284975
63734		90.673346	-42.140619	37.252498
63735		90.467775	-42.115910	37.196952
63736		90.206567	-42.086438	37.108989
63737		89.876273	-42.052668	36.998768
63738		89.479059	-42.015848	36.868026
63739		89.005447	-41.971734	36.716387
63740		88.471128	-41.923543	36.535251
63741		87.838327	-41.865972	36.364084
63742		87.253132	-41.817647	36.063846
63743		86.602682	-41.760088	35.781518
63744		85.749648	-41.695554	35.585967
63745		85.001485	-41.637727	35.254239
63746		84.146049	-41.566969	34.999985
63747		83.298468	-41.504723	34.708871
63748		82.460528	-41.448460	34.402863
63749		81.636330	-41.402695	34.105023
63750		80.816742	-41.364408	33.824574
63751		79.983104	-41.321108	33.547324
63752		79.151659	-41.276826	33.265181
63753		78.274308	-41.226990	32.999310
63754		77.349714	-41.173711	32.724385
63755		76.392831	-41.124381	32.418974
63756		75.433900	-41.091866	32.088473
63757		74.484621	-41.070462	31.767101
63758		73.531330	-41.043687	31.476544
63759		72.627858	-41.021259	31.214399
63760		71.801980	-41.000512	30.981900
63761		71.075410	-40.979841	30.784590
63762		70.444909	-40.962084	30.632243
63763		69.887383	-40.938932	30.523317
63764		69.381908	-40.910072	30.437977
63765		68.854223	-40.879682	30.333201
63766		68.241540	-40.855225	30.164782
63767		67.400827	-40.832909	29.893194
63768		66.318921	-40.837512	29.492900
63769		65.027781	-40.885688	29.027330
63770		63.656493	-40.958018	28.535032
63771		62.359730	-41.026093	28.074113
63772		61.235947	-41.080319	27.696324
63773		60.278235	-41.092067	27.405910
63774		59.450889	-41.093056	27.136834
63775		58.596244	-41.092472	26.838281
63776		57.567852	-41.100226	26.432974
63777		56.235527	-41.143660	25.865866
63778		54.630830	-41.256481	25.212939
63779		52.921379	-41.390263	24.552812
63780		51.313691	-41.513020	23.920017
63781		49.945081	-41.613820	23.401368
63782		48.924356	-41.654498	23.036241
63783		48.275753	-41.632799	22.813379
63784		47.871975	-41.572999	22.703136
63785		47.551571	-41.493030	22.621236
63786		47.207234	-41.426890	22.550294
63787		46.766935	-41.384913	22.467527
63788		46.234045	-41.353727	22.355694
63789		45.684802	-41.333438	22.227900
63790		45.184569	-41.303454	22.127417
63791		44.814371	-41.245664	22.066390
63792		44.535550	-41.162195	22.020284
63793		44.312009	-41.081331	21.981147
63794		44.099552	-41.002263	21.943238
63795		43.895661	-40.935372	21.901325
63796		43.655136	-40.874730	21.838991
63797		43.386207	-40.830370	21.767483
63798		43.132055	-40.787398	21.699334
63799		42.925130	-40.739665	21.648070
63800		42.753324	-40.681825	21.596090
63801		42.615107	-40.628626	21.542677
63802		42.471633	-40.574448	21.492737
63803		42.324230	-40.526938	21.434131
63804		42.172072	-40.489887	21.367397
63805		42.033589	-40.457132	21.296844
63806		41.923358	-40.425249	21.236929
63807		41.852043	-40.389956	21.194220
63808		41.831801	-40.352874	21.171081
63809		41.832808	-40.315871	21.152999
63810		41.825638	-40.286077	21.119388
63811		41.765487	-40.273566	21.074116
63812		41.667333	-40.278878	21.015530
63813		41.546142	-40.293995	20.966320
63814		41.451838	-40.309072	20.929770
63815		41.394605	-40.309221	20.902447
63816		41.363318	-40.306580	20.880936
63817		41.324374	-40.310070	20.859767
63818		41.264668	-40.318194	20.841848
63819		41.212180	-40.331666	20.827150
63820		41.158613	-40.346442	20.817192
63821		41.112311	-40.359638	20.805346
63822		41.076451	-40.376758	20.803934
63823		41.071880	-40.388058	20.818781
63824		41.069695	-40.396683	20.831468
63825		41.053759	-40.410390	20.839437
63826		41.025461	-40.427346	20.845591
63827		40.997077	-40.444400	20.865238
63828		41.001429	-40.453258	20.895942
63829		41.015300	-40.448996	20.923013
63830		41.020696	-40.450030	20.943349
63831		41.013054	-40.452262	20.962734
63832		41.021230	-40.451409	20.986056
63833		41.068716	-40.444482	21.026672
63834		41.171060	-40.419360	21.084219
63835		41.317281	-40.389804	21.155271
63836		41.479996	-40.356559	21.231906
63837		41.611325	-40.326660	21.293979
63838		41.662944	-40.313716	21.308472
63839		41.612572	-40.323140	21.295016
63840		41.529377	-40.343481	21.270771
63841		41.480409	-40.360361	21.259378
63842		41.525484	-40.362460	21.276142
63843		41.698362	-40.339307	21.340605
63844		42.013203	-40.297355	21.454080
63845		42.455829	-40.234276	21.632793
63846		42.994274	-40.157605	21.841661
63847		43.500843	-40.083340	22.030177
63848		43.879434	-40.038022	22.156417
63849		44.086267	-40.034116	22.223654
63850		44.187527	-40.054460	22.251297
63851		44.264003	-40.077207	22.279734
63852		44.420598	-40.084023	22.322248
63853		44.667433	-40.063613	22.396344
63854		45.012694	-40.019532	22.497338
63855		45.423006	-39.961223	22.611975
63856		45.805726	-39.912544	22.706081
63857		46.102044	-39.893687	22.762035
63858		46.307310	-39.901380	22.791669
63859		46.480658	-39.920466	22.821012
63860		46.685665	-39.944425	22.873080
63861		46.977075	-39.955537	22.968654
63862		47.383092	-39.943722	23.114487
63863		47.900047	-39.918273	23.300877
63864		48.486110	-39.886052	23.518123
63865		49.093278	-39.857640	23.752601
63866		49.698902	-39.838915	23.981834
63867		50.276253	-39.839537	24.202736
63868		50.829565	-39.856470	24.406739
63869		51.356154	-39.882214	24.605959
63870		51.880161	-39.911119	24.809265
63871		52.425468	-39.942354	25.023680
63872		53.021845	-39.971636	25.254225
63873		53.667556	-39.993538	25.508373
63874		54.360559	-40.011501	25.783069
63875		55.084173	-40.029718	26.075247
63876		55.835613	-40.047625	26.373220
63877		56.608916	-40.069265	26.696942
63878		57.430418	-40.089200	27.045550
63879		58.311091	-40.106873	27.409888
63880		59.237550	-40.125077	27.793665
63881		60.183444	-40.145717	28.194269
63882		61.128933	-40.168685	28.599321
63883		62.048972	-40.197190	28.990548
63884		62.926651	-40.235683	29.356213
63885		63.741296	-40.284583	29.702552
63886		64.526832	-40.339778	30.027659
63887		65.306532	-40.403966	30.348783
63888		66.096812	-40.471275	30.670361
63889		66.880235	-40.537917	30.997483
63890		67.640795	-40.602621	31.315225
63891		68.360805	-40.660123	31.610061
63892		69.026189	-40.712327	31.875362
63893		69.628403	-40.760369	32.100547
63894		70.179544	-40.811545	32.284764
63895		70.693187	-40.865698	32.455174
63896		71.192380	-40.918621	32.618718
63897		71.684395	-40.965250	32.781202
63898		72.171492	-41.009764	32.941924
63899		72.646101	-41.044236	33.102299
63900		73.110890	-41.078072	33.258681
63901		73.558509	-41.112824	33.410068
63902		74.003507	-41.153355	33.563717
63903		74.474765	-41.198867	33.734439
63904		74.985252	-41.247950	33.918013
63905		75.531135	-41.295635	34.113740
63906		76.096044	-41.342861	34.314212
63907		76.652007	-41.394004	34.509916
63908		77.199019	-41.445146	34.697857
63909		77.726169	-41.498205	34.885141
63910		78.256810	-41.557549	35.073182
63911		78.822437	-41.623255	35.277272
63912		79.460925	-41.696374	35.508894
63913		80.167270	-41.768804	35.767558
63914		80.921641	-41.842273	36.035793
63915		81.671335	-41.922305	36.303867
63916		82.388145	-42.006301	36.550382
63917		83.016193	-42.089003	36.756452
63918		83.548960	-42.175180	36.911836
63919		83.979827	-42.259071	37.031667
63920		84.357808	-42.344073	37.114805
63921		84.710933	-42.431058	37.180517
63922		85.068623	-42.518916	37.242708
63923		85.437334	-42.608579	37.315965
63924		85.837002	-42.695154	37.388337
63925		86.262453	-42.782102	37.471857
63926		86.722171	-42.864001	37.557285
63927		87.183099	-42.938338	37.642125
63928		87.634685	-43.011926	37.712880
63929		88.050381	-43.077936	37.766410
63930		88.426928	-43.140128	37.800708
63931		88.761794	-43.197668	37.814760
63932		89.088260	-43.259677	37.824045
63933		89.427561	-43.325248	37.841151
63934		89.800832	-43.389899	37.866339
63935		90.187397	-43.453564	37.902955
63936		90.593929	-43.515531	37.938462
63937		90.989015	-43.572953	37.972669
63938		91.361219	-43.626493	37.989087
63939		91.684310	-43.677857	37.995326
63940		91.961515	-43.722180	37.986850
63941		92.198550	-43.758797	37.961030
63942		92.389108	-43.794400	37.929978
63943		92.548370	-43.831970	37.896856
63944		92.698751	-43.867410	37.866349
63945		92.847646	-43.905113	37.840978
63946		93.003070	-43.943753	37.816215
63947		93.150041	-43.979500	37.802132
63948		93.288034	-44.015292	37.790470
63949		93.409722	-44.043962	37.771942
63950		93.507404	-44.072192	37.750921
63951		93.571221	-44.094944	37.729859
63952		93.615577	-44.114356	37.700371
63953		93.644733	-44.128615	37.669353
63954		93.650519	-44.138956	37.644073
63955		93.643350	-44.148691	37.620343
63956		93.639574	-44.162384	37.602408
63957		93.650260	-44.175574	37.596127
63958		93.674779	-44.194695	37.602444
63959		93.705759	-44.214321	37.619720
63960		93.738178	-44.232861	37.639494
63961		93.758703	-44.250509	37.662630
63962		93.763851	-44.260049	37.677260
63963		93.743589	-44.265251	37.680984
63964		93.696784	-44.265240	37.678752
63965		93.616780	-44.259601	37.665116
63966		93.512590	-44.254810	37.651092
63967		93.398887	-44.247145	37.631508
63968		93.281099	-44.240162	37.613016
63969		93.165876	-44.235833	37.594981
63970		93.055740	-44.228901	37.581953
63971		92.940510	-44.217533	37.568907
63972		92.825642	-44.206283	37.553260
63973		92.701654	-44.192705	37.538541
63974		92.576821	-44.174584	37.522543
63975		92.448628	-44.157109	37.508318
63976		92.319874	-44.134927	37.487977
63977		92.196376	-44.111134	37.448861
63978		92.054878	-44.087561	37.415677
63979		91.891057	-44.059958	37.394956
63980		91.736296	-44.029960	37.356941
63981		91.582199	-44.000302	37.318993
63982		91.420682	-43.971035	37.284746
63983		91.257207	-43.942055	37.239665
63984		91.088582	-43.910759	37.191674
63985		90.914670	-43.878516	37.141879
63986		90.732662	-43.845756	37.087644
63987		90.540877	-43.810428	37.021399
63988		90.335416	-43.776410	36.961071
63989		90.111710	-43.740201	36.899139
63990		89.875293	-43.701666	36.826310
63991		89.624141	-43.660138	36.739837
63992		89.346029	-43.618180	36.644446
63993		89.035021	-43.575185	36.548833
63994		88.704899	-43.528867	36.443197
63995		88.357809	-43.481398	36.325121
63996		87.986928	-43.433651	36.195705
63997		87.576886	-43.385104	36.058704
63998		87.139788	-43.337581	35.909151
63999		86.676046	-43.290983	35.754722
64000		86.194690	-43.244178	35.593723
64001		85.700324	-43.198818	35.433714
64002		85.207494	-43.151866	35.274880
64003		84.717594	-43.104022	35.126676
64004		84.240614	-43.055628	34.983651
64005		83.772601	-43.006542	34.843709
64006		83.301633	-42.958284	34.711744
64007		82.803449	-42.908983	34.581535
64008		82.288945	-42.863798	34.431791
64009		81.731622	-42.819850	34.264156
64010		81.138768	-42.783560	34.069954
64011		80.508982	-42.754176	33.863169
64012		79.837692	-42.724544	33.651751
64013		79.166313	-42.700010	33.436354
64014		78.522737	-42.685100	33.232317
64015		77.913246	-42.676241	33.047191
64016		77.342402	-42.668395	32.879796
64017		76.815211	-42.659860	32.729114
64018		76.282723	-42.647197	32.600493
64019		75.701946	-42.625618	32.449635
64020		75.029269	-42.606947	32.242433
64021		74.240446	-42.588800	31.976621
64022		73.342737	-42.574941	31.646424
64023		72.360137	-42.568567	31.272783
64024		71.352010	-42.569010	30.877813
64025		70.373087	-42.574977	30.499556
64026		69.490853	-42.584650	30.165476
64027		68.745123	-42.590998	29.898901
64028		68.115126	-42.590508	29.706128
64029		67.588718	-42.586223	29.558846
64030		67.082426	-42.576289	29.432153
64031		66.494160	-42.563455	29.235012
64032		65.753152	-42.578512	28.954424
64033		64.888597	-42.612435	28.602915
64034		63.954385	-42.656540	28.214793
64035		63.026090	-42.703831	27.837090
64036		62.166059	-42.753943	27.510946
64037		61.446339	-42.794696	27.248550
64038		60.878636	-42.818061	27.064107
64039		60.428469	-42.835036	26.920959
64040		59.954759	-42.845455	26.772666
64041		59.386850	-42.876597	26.548016
64042		58.635410	-42.924926	26.258260
64043		57.715030	-42.991064	25.875002
64044		56.685170	-43.089457	25.452322
64045		55.662242	-43.189063	25.048162
64046		54.785984	-43.268679	24.711335
64047		54.124314	-43.321122	24.455191
64048		53.601647	-43.346251	24.257515
64049		53.129636	-43.370797	24.058672
64050		52.538705	-43.414769	23.804296
64051		51.760841	-43.488007	23.463783
64052		50.757998	-43.594744	23.018179
64053		49.640978	-43.733542	22.526779
64054		48.557654	-43.867944	22.055081
64055		47.631911	-43.976326	21.632789
64056		46.889650	-44.052368	21.267035
64057		46.324857	-44.105837	20.967572
64058		45.879229	-44.137549	20.721515
64059		45.508383	-44.161761	20.507448
64060		45.167689	-44.183814	20.312416
64061		44.842817	-44.204657	20.123005
64062		44.524689	-44.227021	19.952318
64063		44.204442	-44.249001	19.802334
64064		43.881315	-44.277701	19.674492
64065		43.617819	-44.297826	19.579535
64066		43.448338	-44.299856	19.519440
64067		43.360176	-44.284920	19.496319
64068		43.310032	-44.262734	19.491603
64069		43.254978	-44.241191	19.481252
64070		43.177636	-44.227168	19.460393
64071		43.076133	-44.218916	19.419357
64072		42.973772	-44.214235	19.369740
64073		42.888256	-44.202876	19.317205
64074		42.838032	-44.182612	19.263156
64075		42.818501	-44.157370	19.226323
64076		42.838074	-44.126443	19.206717
64077		42.879033	-44.090206	19.188917
64078		42.913243	-44.058526	19.163356
64079		42.904583	-44.031825	19.127533
64080		42.824049	-43.981411	19.103400
64081		42.841096	-44.033896	19.010324
64082		42.874556	-44.048250	18.958358
64083		42.829823	-43.930983	19.023796
64084		43.029706	-43.922242	18.995053
64085		43.147933	-43.879421	19.023405
64086		43.290805	-43.841457	19.034054
64087		43.356175	-43.815776	19.022519
64088		43.368175	-43.825186	18.978199
64089		43.324752	-43.826278	18.930531
64090		43.300287	-43.819051	18.888191
64091		43.333566	-43.816589	18.853179
64092		43.408357	-43.794894	18.846987
64093		43.517149	-43.759399	18.870655
64094		43.647422	-43.735775	18.900340
64095		43.754543	-43.729971	18.917742
64096		43.822285	-43.729517	18.929726
64097		43.837423	-43.708312	18.948997
64098		43.849817	-43.698629	18.957372
64099		43.889731	-43.699238	18.960653
64100		43.948005	-43.697888	18.977709
64101		44.016900	-43.681195	19.012812
64102		44.095978	-43.657174	19.058108
64103		44.190094	-43.635847	19.101745
64104		44.312180	-43.617367	19.151185
64105		44.443645	-43.589345	19.220131
64106		44.550577	-43.560219	19.279581
64107		44.593267	-43.546109	19.316701
64108		44.579162	-43.549147	19.337649
64109		44.569998	-43.559679	19.357780
64110		44.598960	-43.558425	19.394611
64111		44.687706	-43.543939	19.456176
64112		44.847036	-43.512037	19.547498
64113		45.075680	-43.469658	19.671882
64114		45.358068	-43.418328	19.821486
64115		45.641307	-43.363100	19.976420
64116		45.869794	-43.323093	20.102523
64117		45.994688	-43.305470	20.184233
64118		46.034254	-43.308864	20.230254
64119		46.037752	-43.320540	20.265439
64120		46.079362	-43.327279	20.309726
64121		46.210690	-43.318473	20.391105
64122		46.480858	-43.288345	20.521488
64123		46.897036	-43.240125	20.720865
64124		47.407119	-43.171331	20.965206
64125		47.900193	-43.104315	21.199430
64126		48.248799	-43.069769	21.370963
64127		48.421807	-43.072783	21.475653
64128		48.460439	-43.107018	21.525414
64129		48.446999	-43.154398	21.555146
64130		48.488065	-43.189829	21.596394
64131		48.652483	-43.206806	21.689724
64132		48.976995	-43.199337	21.843137
64133		49.446319	-43.174291	22.060570
64134		49.997732	-43.138362	22.322339
64135		50.540086	-43.103487	22.599971
64136		51.039722	-43.081931	22.871385
64137		51.495531	-43.082124	23.104077
64138		51.882535	-43.099505	23.312234
64139		52.202151	-43.127256	23.496982
64140		52.501112	-43.157724	23.678616
64141		52.836606	-43.177402	23.875719
64142		53.271275	-43.184037	24.106111
64143		53.839064	-43.171391	24.389190
64144		54.545714	-43.137575	24.732345
64145		55.352363	-43.092968	25.121436
64146		56.192873	-43.053468	25.530880
64147		57.009493	-43.029080	25.931252
64148		57.755494	-43.025628	26.303541
64149		58.415724	-43.039448	26.648116
64150		58.999478	-43.072748	26.955697
64151		59.523382	-43.115038	27.236049
64152		60.040122	-43.161814	27.509283
64153		60.597033	-43.196856	27.803370
64154		61.244163	-43.221631	28.130805
64155		61.990118	-43.233835	28.499155
64156		62.832473	-43.244809	28.903365
64157		63.730488	-43.255072	29.329091
64158		64.657529	-43.272524	29.756581
64159		65.560761	-43.300451	30.167875
64160		66.414259	-43.336885	30.559448
64161		67.195489	-43.381323	30.926271
64162		67.922864	-43.430649	31.267044
64163		68.629546	-43.486073	31.608468
64164		69.380061	-43.538049	31.968556
64165		70.211446	-43.577946	32.355409
64166		71.116315	-43.609437	32.766750
64167		72.061950	-43.632555	33.188902
64168		73.008375	-43.653504	33.600805
64169		73.911179	-43.674512	33.988495
64170		74.747586	-43.701068	34.334092
64171		75.507904	-43.730753	34.638044
64172		76.197901	-43.765644	34.898768
64173		76.819208	-43.800733	35.125096
64174		77.397165	-43.837855	35.329659
64175		77.948475	-43.866723	35.521535
64176		78.504256	-43.888822	35.709882
64177		79.071665	-43.904632	35.901149
64178		79.654398	-43.916555	36.092163
64179		80.233959	-43.928035	36.281219
64180		80.793755	-43.932553	36.450519
64181		81.297545	-43.938890	36.602196
64182		81.760979	-43.943149	36.721586
64183		82.184901	-43.951918	36.826381
64184		82.611640	-43.962061	36.930309
64185		83.066393	-43.970235	37.050535
64186		83.573567	-43.980988	37.180393
64187		84.102410	-43.993717	37.320060
64188		84.632424	-44.012845	37.452887
64189		85.120352	-44.035337	37.570729
64190		85.563543	-44.065048	37.661397
64191		85.970210	-44.102093	37.738636
64192		86.379943	-44.145166	37.809727
64193		86.794378	-44.191604	37.880600
64194		87.223461	-44.243360	37.953881
64195		87.645115	-44.301150	38.034882
64196		88.058576	-44.359289	38.101709
64197		88.436117	-44.420783	38.160622
64198		88.783191	-44.484472	38.206577
64199		89.113878	-44.551729	38.247106
64200		89.447160	-44.619880	38.288193
64201		89.789844	-44.686743	38.332906
64202		90.148154	-44.755343	38.389034
64203		90.516289	-44.823267	38.445790
64204		90.887117	-44.889876	38.503806
64205		91.244181	-44.951287	38.553371
64206		91.563296	-45.006865	38.592891
64207		91.822409	-45.056002	38.611937
64208		92.016929	-45.098809	38.601238
64209		92.137461	-45.134926	38.565885
64210		92.211807	-45.168843	38.515594
64211		92.276885	-45.203165	38.475221
64212		92.371321	-45.238850	38.446778
64213		92.524130	-45.281313	38.442363
64214		92.752721	-45.324958	38.483989
64215		93.057957	-45.366264	38.556585
64216		93.401653	-45.408024	38.638035
64217		93.734900	-45.446129	38.720442
64218		94.033143	-45.480835	38.786474
64219		94.273228	-45.508616	38.829051
64220		94.435465	-45.531274	38.833035
64221		94.503013	-45.546480	38.804859
64222		94.491082	-45.552900	38.743893
64223		94.430358	-45.561191	38.677391
64224		94.378650	-45.569546	38.613064
64225		94.364665	-45.581291	38.569923
64226		94.391103	-45.595530	38.549297
64227		94.444535	-45.605655	38.552245
64228		94.498897	-45.614099	38.567153
64229		94.544065	-45.617863	38.562491
64230		94.539803	-45.611668	38.552383
64231		94.492554	-45.600862	38.525595
64232		94.416595	-45.585132	38.482111
64233		94.323940	-45.575124	38.434341
64234		94.245048	-45.570019	38.399360
64235		94.210466	-45.567679	38.377451
64236		94.228419	-45.574866	38.377946
64237		94.275167	-45.585974	38.406744
64238		94.355057	-45.599858	38.445679
64239		94.453742	-45.611412	38.482696
64240		94.544991	-45.617957	38.515832
64241		94.612515	-45.621347	38.540922
64242		94.661229	-45.618198	38.549366
64243		94.677042	-45.611681	38.540380
64244		94.660122	-45.602130	38.517427
64245		94.635526	-45.593306	38.485358
64246		94.604489	-45.586041	38.460551
64247		94.583085	-45.579183	38.442568
64248		94.582777	-45.571557	38.427464
64249		94.580664	-45.565068	38.424384
64250		94.580848	-45.554441	38.416824
64251		94.577771	-45.543195	38.412093
64252		94.555375	-45.527166	38.410286
64253		94.510489	-45.504189	38.407538
64254		94.459846	-45.483519	38.394470
64255		94.408176	-45.462157	38.378794
64256		94.364340	-45.441942	38.364725
64257		94.325371	-45.422719	38.354790
64258		94.292818	-45.404561	38.344788
64259		94.261487	-45.386520	38.340008
64260		94.222123	-45.365976	38.331345
64261		94.167269	-45.343568	38.319798
