// General information: 
//  MT Manager version: 2022.2.0 
//  XDA version: 2022.2.0 build 7381 rev 124627 built on 2023-07-19
// Device information: 
//  DeviceId: 00B44856
//  ProductCode: MTW2-3A7G6
//  Firmware Version: 4.3.5
//  Hardware Version: 2.0.0
// Device settings: 
//  Filter Profile: human(46.1)
//  Option Flags: Orientation Smoother Disabled, Position/Velocity Smoother Disabled, Continuous Zero Rotation Update Disabled, AHS Disabled, ICC Disabled
// Coordinate system: ENU
PacketCounter	SampleTimeFine	Roll	Pitch	Yaw
61122		59.013763	46.811269	46.627392
61123		59.023366	46.796926	46.629771
61124		59.023377	46.785065	46.622837
61125		59.020878	46.778472	46.609534
61126		59.033115	46.772910	46.595550
61127		59.041633	46.769705	46.586282
61128		59.051722	46.769761	46.584728
61129		59.059065	46.770272	46.587529
61130		59.070010	46.770678	46.596165
61131		59.079962	46.772062	46.607635
61132		59.092885	46.770423	46.610760
61133		59.102316	46.766500	46.609088
61134		59.117246	46.761488	46.610343
61135		59.125855	46.756472	46.606166
61136		59.141634	46.753345	46.602131
61137		59.159006	46.752212	46.597872
61138		59.173314	46.751591	46.589715
61139		59.183404	46.752392	46.580351
61140		59.186127	46.757301	46.571187
61141		59.189353	46.760354	46.558606
61142		59.196029	46.759542	46.548523
61143		59.200090	46.755680	46.541309
61144		59.222567	46.760548	46.548298
61145		59.207321	46.777535	46.550680
61146		59.142945	46.744869	46.473264
61147		59.194827	46.728879	46.495285
61148		59.193671	46.746826	46.556242
61149		59.166226	46.737580	46.529070
61150		59.152654	46.724628	46.500825
61151		59.139743	46.732051	46.507521
61152		59.137147	46.734859	46.504478
61153		59.139220	46.733920	46.500358
61154		59.141185	46.742366	46.506559
61155		59.110190	46.753938	46.485502
61156		59.067236	46.766672	46.430917
61157		59.054269	46.785566	46.402423
61158		59.048276	46.814040	46.394608
61159		59.030435	46.837385	46.376204
61160		59.011065	46.844397	46.353563
61161		59.005523	46.849893	46.348453
61162		59.008205	46.860978	46.358374
61163		59.013472	46.873334	46.358803
61164		59.000300	46.874111	46.339371
61165		58.997824	46.867508	46.326081
61166		59.009829	46.866786	46.343742
61167		59.009815	46.868329	46.360858
61168		58.992983	46.861846	46.359319
61169		58.970142	46.855647	46.354138
61170		58.964380	46.851675	46.359169
61171		58.980520	46.847035	46.379050
61172		59.009860	46.848358	46.409950
61173		59.030717	46.848005	46.425945
61174		59.037565	46.844776	46.417086
61175		59.038438	46.843461	46.394367
61176		59.037682	46.847880	46.375548
61177		59.021336	46.855571	46.347767
61178		59.003278	46.864478	46.311314
61179		58.993987	46.868553	46.273717
61180		58.994376	46.864887	46.235514
61181		59.004134	46.852202	46.210801
61182		59.024619	46.828636	46.194322
61183		59.059055	46.795245	46.187814
61184		59.104364	46.761449	46.193607
61185		59.151157	46.729262	46.205635
61186		59.201214	46.697621	46.219173
61187		59.254320	46.669345	46.245033
61188		59.307346	46.643708	46.275011
61189		59.360366	46.615847	46.299493
61190		59.399956	46.588392	46.323745
61191		59.420533	46.561423	46.335793
61192		59.428805	46.534032	46.333190
61193		59.436729	46.510411	46.330817
61194		59.453817	46.492310	46.338209
61195		59.458231	46.467470	46.333805
61196		59.493565	46.444639	46.348032
61197		59.514310	46.413740	46.359751
61198		59.556356	46.381987	46.376087
61199		59.599690	46.355131	46.394866
61200		59.639074	46.332031	46.401034
61201		59.679988	46.312637	46.401883
61202		59.721294	46.302915	46.409647
61203		59.755036	46.290288	46.411449
61204		59.778678	46.277784	46.405474
61205		59.786164	46.263232	46.394480
61206		59.783838	46.251473	46.376541
61207		59.775754	46.244235	46.357150
61208		59.767956	46.239890	46.343785
61209		59.755999	46.240448	46.339000
61210		59.736537	46.240517	46.338957
61211		59.711444	46.241218	46.337170
61212		59.695175	46.245210	46.348274
61213		59.677825	46.254853	46.362914
61214		59.658863	46.261454	46.366962
61215		59.636817	46.270752	46.368914
61216		59.610187	46.288533	46.364586
61217		59.579910	46.311517	46.353873
61218		59.549547	46.335495	46.332433
61219		59.522069	46.354835	46.301052
61220		59.499432	46.371603	46.271453
61221		59.497451	46.387716	46.261762
61222		59.503703	46.403259	46.264977
61223		59.500517	46.420669	46.268426
61224		59.479977	46.435891	46.257041
61225		59.445934	46.453389	46.242061
61226		59.414200	46.478365	46.240080
61227		59.375129	46.507105	46.241248
61228		59.320626	46.534785	46.238113
61229		59.261666	46.558512	46.228900
61230		59.197657	46.580892	46.212872
61231		59.136140	46.603260	46.196214
61232		59.078217	46.622706	46.179652
61233		59.026995	46.638733	46.163464
61234		58.979365	46.650476	46.151169
61235		58.928395	46.655017	46.136385
61236		58.885732	46.659298	46.128068
61237		58.847062	46.661840	46.115606
61238		58.814358	46.659021	46.107271
61239		58.785964	46.655411	46.100569
61240		58.756838	46.652934	46.096802
61241		58.729117	46.652382	46.092673
61242		58.700214	46.653061	46.088360
61243		58.668849	46.653679	46.081025
61244		58.644138	46.658203	46.082558
61245		58.620980	46.662720	46.083613
61246		58.603504	46.668243	46.087839
61247		58.582571	46.672728	46.091730
61248		58.564246	46.676222	46.096024
61249		58.545709	46.679882	46.093680
61250		58.528615	46.686933	46.090725
61251		58.512903	46.701617	46.090816
61252		58.457976	46.700036	46.051421
61253		58.449452	46.684132	46.008149
61254		58.466725	46.700697	46.016470
61255		58.461432	46.719201	45.991044
61256		58.470676	46.722702	45.917807
61257		58.488043	46.734668	45.853556
61258		58.531958	46.755788	45.808472
61259		58.590104	46.768708	45.771537
61260		58.651083	46.780695	45.754972
61261		58.684950	46.795110	45.734414
61262		58.687434	46.802635	45.684242
61263		58.696221	46.806761	45.631467
61264		58.725599	46.820957	45.598285
61265		58.748556	46.847731	45.582468
61266		58.753685	46.860848	45.541702
61267		58.763122	46.863196	45.485507
61268		58.785738	46.867495	45.438357
61269		58.814819	46.871078	45.400857
61270		58.837048	46.872521	45.364744
61271		58.858593	46.876717	45.342702
61272		58.873065	46.886674	45.330650
61273		58.878409	46.892967	45.317158
61274		58.862674	46.890578	45.287193
61275		58.830677	46.879130	45.245869
61276		58.787804	46.853242	45.204303
61277		58.735869	46.810694	45.170134
61278		58.684405	46.762254	45.159311
61279		58.625212	46.714045	45.158609
61280		58.555701	46.669982	45.155579
61281		58.458919	46.637559	45.141735
61282		58.343851	46.614863	45.123857
61283		58.231057	46.583146	45.102625
61284		58.137640	46.539784	45.092533
61285		58.070648	46.491496	45.104005
61286		58.017997	46.441959	45.108259
61287		57.967760	46.407319	45.111418
61288		57.906443	46.385272	45.116270
61289		57.831755	46.363390	45.117406
61290		57.743712	46.336374	45.105760
61291		57.657534	46.314558	45.101274
61292		57.577110	46.297804	45.096829
61293		57.510962	46.288451	45.098675
61294		57.455519	46.286873	45.109886
61295		57.412782	46.279574	45.105208
61296		57.368536	46.274550	45.094655
61297		57.324885	46.277906	45.087618
61298		57.290062	46.287363	45.080614
61299		57.259124	46.295829	45.066929
61300		57.224213	46.307398	45.053631
61301		57.190043	46.320722	45.043030
61302		57.156405	46.329525	45.020458
61303		57.109078	46.341917	44.995417
61304		57.057039	46.355898	44.969535
61305		57.006625	46.367335	44.944327
61306		56.969933	46.376827	44.931160
61307		56.946137	46.385603	44.916167
61308		56.928790	46.395983	44.902894
61309		56.914062	46.407320	44.894666
61310		56.889591	46.413053	44.880761
61311		56.865105	46.418946	44.868428
61312		56.842589	46.426213	44.858629
61313		56.823456	46.433238	44.842822
61314		56.813901	46.439398	44.824501
61315		56.814916	46.448224	44.805949
61316		56.816925	46.460133	44.784972
61317		56.820440	46.471056	44.765979
61318		56.819076	46.477041	44.742369
61319		56.816982	46.485803	44.721116
61320		56.815089	46.491668	44.700740
61321		56.815549	46.497393	44.679725
61322		56.819979	46.506901	44.662855
61323		56.825724	46.516982	44.649240
61324		56.825631	46.523353	44.627307
61325		56.820499	46.526483	44.605308
61326		56.818129	46.532194	44.588231
61327		56.823006	46.541367	44.577318
61328		56.836964	46.549124	44.568489
61329		56.853647	46.557190	44.560770
61330		56.867201	46.560790	44.546854
61331		56.877981	46.570805	44.530479
61332		56.877496	46.581027	44.508639
61333		56.879175	46.588454	44.485452
61334		56.889363	46.594609	44.472719
61335		56.903489	46.605716	44.464745
61336		56.918041	46.617520	44.455731
61337		56.927204	46.625922	44.438350
61338		56.940842	46.635947	44.419942
61339		56.951306	46.648163	44.408711
61340		56.962495	46.662257	44.395757
61341		56.978045	46.677381	44.387515
61342		56.990889	46.691760	44.379451
61343		57.016100	46.713008	44.379206
61344		57.047345	46.736726	44.381456
61345		57.074719	46.752047	44.372615
61346		57.102570	46.765009	44.371746
61347		57.121218	46.779136	44.375237
61348		57.129482	46.795933	44.386480
61349		57.125592	46.812899	44.390357
61350		57.129735	46.834193	44.399693
61351		57.136044	46.861664	44.410200
61352		57.153142	46.894499	44.423143
61353		57.180908	46.918057	44.427747
61354		57.223102	46.934880	44.427268
61355		57.281277	46.953715	44.440000
61356		57.338193	46.974826	44.461592
61357		57.380490	46.992702	44.480109
61358		57.412027	47.006742	44.487806
61359		57.425560	47.018604	44.492253
61360		57.434720	47.035359	44.515114
61361		57.438416	47.054930	44.546162
61362		57.439820	47.070350	44.575991
61363		57.440833	47.079948	44.607507
61364		57.451465	47.088051	44.644334
61365		57.463810	47.093853	44.675398
61366		57.488690	47.101099	44.711903
61367		57.521931	47.107290	44.747464
61368		57.559394	47.112378	44.781444
61369		57.595051	47.117022	44.818577
61370		57.626508	47.117451	44.854750
61371		57.644441	47.116162	44.892035
61372		57.654852	47.112780	44.930769
61373		57.671322	47.107036	44.969538
61374		57.690005	47.096550	45.008911
61375		57.714829	47.083225	45.049535
61376		57.743997	47.067913	45.091066
61377		57.777177	47.052126	45.132900
61378		57.811836	47.040543	45.178013
61379		57.850898	47.030021	45.221502
61380		57.894671	47.018569	45.260052
61381		57.924448	47.005509	45.296557
61382		57.960667	46.992013	45.338128
61383		57.983168	46.976829	45.380816
61384		57.993483	46.960238	45.423134
61385		57.998615	46.945549	45.464632
61386		58.005451	46.932837	45.504307
61387		58.010664	46.918376	45.539355
61388		58.019425	46.906642	45.576125
61389		58.028629	46.893998	45.608634
61390		58.053128	46.884143	45.642350
61391		58.085067	46.872512	45.671313
61392		58.129338	46.860826	45.701247
61393		58.187307	46.846931	45.733110
61394		58.247140	46.830785	45.769456
61395		58.296367	46.815894	45.807067
61396		58.341411	46.803032	45.845687
61397		58.378479	46.787049	45.878071
61398		58.405683	46.770812	45.904031
61399		58.431892	46.755903	45.927862
61400		58.456652	46.743591	45.951089
61401		58.479309	46.736298	45.967345
61402		58.502330	46.731217	45.983977
61403		58.530058	46.730466	45.998336
61404		58.564435	46.727997	46.010051
61405		58.614434	46.727179	46.026671
61406		58.667407	46.726888	46.040002
61407		58.723017	46.725211	46.053159
61408		58.773989	46.727175	46.065578
61409		58.818552	46.729193	46.074193
61410		58.858835	46.729515	46.080530
61411		58.894534	46.729001	46.085333
61412		58.916137	46.731317	46.083854
61413		58.921863	46.733796	46.075551
61414		58.925539	46.741145	46.068795
61415		58.931429	46.749206	46.058746
61416		58.950814	46.754820	46.050694
61417		58.978066	46.755231	46.044723
61418		59.016745	46.753746	46.045008
61419		59.046602	46.752667	46.048794
61420		59.066507	46.756336	46.057284
61421		59.074430	46.755662	46.060655
61422		59.068237	46.755967	46.062802
61423		59.053833	46.755821	46.062626
61424		59.038362	46.755788	46.057843
61425		59.027758	46.756065	46.050711
61426		59.025607	46.754393	46.047047
61427		59.022429	46.752130	46.041230
61428		59.023239	46.754665	46.034097
61429		59.024929	46.756664	46.024490
61430		59.022295	46.757849	46.010183
61431		59.027254	46.759672	45.998149
61432		59.032488	46.760417	45.981976
61433		59.033247	46.757956	45.965332
61434		59.030666	46.752878	45.948810
61435		59.024194	46.741944	45.931073
61436		59.016891	46.732083	45.914525
61437		58.999843	46.721453	45.899080
61438		58.980428	46.711611	45.888313
61439		58.958164	46.702584	45.876931
61440		58.942749	46.693454	45.872540
61441		58.929356	46.680303	45.864131
61442		58.920615	46.667927	45.857296
61443		58.920024	46.653990	45.850718
61444		58.922746	46.643398	45.841489
61445		58.933299	46.635512	45.831475
61446		58.953195	46.630203	45.831914
61447		58.962795	46.625373	45.832968
61448		58.965069	46.617485	45.832873
61449		58.957281	46.606595	45.831961
61450		58.941535	46.594246	45.828303
61451		58.931523	46.582056	45.828336
61452		58.923149	46.568315	45.828501
61453		58.915345	46.556091	45.831378
61454		58.911518	46.545828	45.827072
61455		58.912264	46.533149	45.819710
61456		58.920268	46.522864	45.814879
61457		58.929079	46.510276	45.812625
61458		58.937455	46.499971	45.810898
61459		58.950169	46.489386	45.811274
61460		58.954794	46.481314	45.808942
61461		58.956201	46.472147	45.802858
61462		58.956901	46.461572	45.799162
61463		58.950075	46.452053	45.794349
61464		58.940609	46.444816	45.787281
61465		58.927407	46.435910	45.780947
61466		58.914371	46.429413	45.771846
61467		58.904848	46.421105	45.763698
61468		58.900534	46.410494	45.757708
61469		58.900857	46.401025	45.758148
61470		58.900293	46.393536	45.757394
61471		58.892031	46.384269	45.754738
61472		58.882153	46.374856	45.750900
61473		58.869514	46.365651	45.742593
61474		58.867049	46.358391	45.732588
61475		58.867095	46.351691	45.722388
61476		58.868176	46.347012	45.710614
61477		58.871527	46.340578	45.696740
61478		58.871606	46.340456	45.677676
61479		58.878005	46.338205	45.660286
61480		58.885493	46.334702	45.645124
61481		58.896948	46.330141	45.631313
61482		58.912813	46.323258	45.619659
61483		58.923830	46.316151	45.610273
61484		58.927745	46.309170	45.599337
61485		58.924560	46.303979	45.587787
61486		58.916493	46.298898	45.577463
61487		58.899223	46.293219	45.564931
61488		58.875298	46.289340	45.548897
61489		58.849798	46.289237	45.526417
61490		58.838473	46.288648	45.497694
61491		58.842767	46.287751	45.473723
61492		58.862105	46.295393	45.465771
61493		58.873245	46.305575	45.446728
61494		58.882567	46.310958	45.417455
61495		58.886707	46.317082	45.384825
61496		58.886404	46.321713	45.355229
61497		58.876544	46.324491	45.324038
61498		58.864421	46.331250	45.288802
61499		58.847695	46.337122	45.251776
61500		58.833172	46.345353	45.206658
61501		58.830434	46.352525	45.159891
61502		58.838798	46.359072	45.118661
61503		58.848666	46.365692	45.078790
61504		58.861266	46.374626	45.042079
61505		58.883723	46.379823	45.011629
61506		58.893939	46.386132	44.979836
61507		58.901386	46.391651	44.945992
61508		58.895112	46.396051	44.905852
61509		58.881685	46.402165	44.865076
61510		58.874077	46.403496	44.830710
61511		58.859509	46.398402	44.793678
61512		58.840213	46.391847	44.756538
61513		58.819851	46.379046	44.719003
61514		58.799671	46.364129	44.686377
61515		58.777853	46.354051	44.658005
61516		58.746791	46.351210	44.633013
61517		58.706034	46.352758	44.608373
61518		58.653151	46.357951	44.574740
61519		58.599101	46.360167	44.536949
61520		58.555125	46.354144	44.498725
61521		58.530273	46.340581	44.463258
61522		58.513720	46.322950	44.429516
61523		58.494480	46.300792	44.398836
61524		58.474104	46.277600	44.372515
61525		58.437677	46.250109	44.337537
61526		58.393746	46.218023	44.311907
61527		58.348781	46.190620	44.296653
61528		58.306876	46.161202	44.285887
61529		58.260217	46.128677	44.279784
61530		58.208594	46.095636	44.282476
61531		58.159948	46.063225	44.281813
61532		58.106565	46.037340	44.278052
61533		58.055906	46.020320	44.272785
61534		58.018281	46.002088	44.260932
61535		57.987832	45.991185	44.251939
61536		57.966990	45.981882	44.254017
61537		57.945402	45.969908	44.253728
61538		57.921878	45.964631	44.249771
61539		57.895012	45.965391	44.249685
61540		57.857767	45.967286	44.248116
61541		57.816261	45.972022	44.250930
61542		57.777631	45.969428	44.250665
61543		57.735263	45.970285	44.250469
61544		57.687467	45.970280	44.257305
61545		57.639413	45.966828	44.261148
61546		57.602023	45.965528	44.274447
61547		57.570316	45.964133	44.286439
61548		57.536847	45.963651	44.291623
61549		57.509537	45.964442	44.302923
61550		57.493597	45.966883	44.316868
61551		57.472722	45.963722	44.325305
61552		57.448403	45.958156	44.331048
61553		57.424469	45.949810	44.337478
61554		57.405509	45.941893	44.349894
61555		57.387777	45.935386	44.356617
61556		57.374825	45.927757	44.356855
61557		57.363791	45.923044	44.352488
61558		57.361398	45.918947	44.353537
61559		57.353495	45.910882	44.347455
61560		57.353194	45.907284	44.350231
61561		57.360120	45.901971	44.353141
61562		57.369444	45.895257	44.352926
61563		57.379075	45.894346	44.357270
61564		57.388983	45.889664	44.357271
61565		57.404885	45.882477	44.356918
61566		57.416357	45.873240	44.352836
61567		57.433648	45.868335	44.357267
61568		57.442688	45.862141	44.352648
61569		57.448875	45.851256	44.343144
61570		57.454941	45.842652	44.337299
61571		57.469706	45.836519	44.339608
61572		57.482407	45.825842	44.333957
61573		57.495503	45.818365	44.325870
61574		57.512776	45.810175	44.321570
61575		57.525855	45.802270	44.314736
61576		57.538382	45.799219	44.315378
61577		57.544792	45.801071	44.314541
61578		57.545672	45.807103	44.312012
61579		57.541935	45.812582	44.306460
61580		57.529436	45.818140	44.299608
61581		57.517652	45.821264	44.295305
61582		57.509301	45.820303	44.290503
61583		57.505109	45.817712	44.291325
61584		57.499906	45.818182	44.293478
61585		57.499728	45.816552	44.294304
61586		57.503212	45.809704	44.291940
61587		57.512792	45.807932	44.298781
61588		57.519713	45.805479	44.312145
61589		57.521540	45.800848	44.324573
61590		57.514059	45.798271	44.332695
61591		57.498799	45.798136	44.340837
61592		57.479182	45.800717	44.345901
61593		57.460314	45.806400	44.351435
61594		57.447029	45.812705	44.359836
61595		57.433291	45.812735	44.364613
61596		57.424320	45.814167	44.369740
61597		57.420014	45.818828	44.378055
61598		57.421581	45.823883	44.384159
61599		57.420062	45.829533	44.389540
61600		57.413468	45.841451	44.390001
61601		57.407369	45.852708	44.384779
61602		57.406514	45.854242	44.372411
61603		57.408346	45.851431	44.362310
61604		57.423107	45.848808	44.364573
61605		57.440372	45.843033	44.371545
61606		57.447270	45.837427	44.371297
61607		57.455663	45.831410	44.373355
61608		57.463064	45.828524	44.376825
61609		57.463962	45.829249	44.379358
61610		57.463808	45.831230	44.380199
61611		57.466174	45.835955	44.382490
61612		57.474315	45.844020	44.388328
61613		57.485081	45.851444	44.391214
61614		57.493059	45.862194	44.386327
61615		57.508076	45.869477	44.386700
61616		57.528146	45.869420	44.378774
61617		57.544291	45.866519	44.365885
61618		57.567328	45.868641	44.368716
61619		57.584615	45.872687	44.375644
61620		57.595047	45.876926	44.380896
61621		57.598405	45.882284	44.389919
61622		57.591906	45.888409	44.401494
61623		57.576481	45.895106	44.418336
61624		57.559419	45.902035	44.439008
61625		57.539334	45.906805	44.461556
61626		57.523426	45.912511	44.489072
61627		57.517781	45.913932	44.512602
61628		57.516980	45.912517	44.534625
61629		57.517171	45.909846	44.558546
61630		57.524622	45.908908	44.587448
61631		57.527905	45.906714	44.612779
61632		57.526372	45.903336	44.634925
61633		57.524162	45.896623	44.659201
61634		57.521061	45.888794	44.682917
61635		57.522980	45.879783	44.710948
61636		57.530310	45.868628	44.741335
61637		57.539434	45.857789	44.774524
61638		57.548208	45.845094	44.806446
61639		57.557461	45.831858	44.840840
61640		57.564160	45.816269	44.872423
61641		57.569195	45.799771	44.904917
61642		57.577725	45.783614	44.946789
61643		57.580390	45.763665	44.986459
61644		57.571715	45.741363	45.026517
61645		57.556081	45.721063	45.067648
61646		57.534547	45.701071	45.107015
61647		57.511287	45.680551	45.146156
61648		57.490598	45.660188	45.186797
61649		57.475918	45.636542	45.223376
61650		57.478482	45.610360	45.262871
61651		57.491572	45.584526	45.302059
61652		57.512294	45.562929	45.342077
61653		57.531711	45.545287	45.377186
61654		57.549703	45.524125	45.398826
61655		57.565768	45.503375	45.414486
61656		57.580663	45.486268	45.427251
61657		57.598226	45.469503	45.442685
61658		57.613713	45.455929	45.456586
61659		57.627967	45.443630	45.476263
61660		57.639756	45.433250	45.494914
61661		57.650011	45.424285	45.516455
61662		57.654397	45.416051	45.535040
61663		57.652905	45.408335	45.553407
61664		57.651919	45.405016	45.572310
61665		57.647670	45.400874	45.586165
61666		57.647503	45.399858	45.595594
61667		57.655253	45.397906	45.602683
61668		57.663797	45.396858	45.609040
61669		57.679180	45.391704	45.613691
61670		57.697170	45.386971	45.610470
61671		57.719744	45.384491	45.612813
61672		57.738745	45.384551	45.618030
61673		57.747791	45.383691	45.616244
61674		57.752049	45.382136	45.610257
61675		57.747379	45.380589	45.602483
61676		57.739279	45.382507	45.595077
61677		57.725722	45.391292	45.586288
61678		57.718231	45.401907	45.579707
61679		57.710737	45.414426	45.571274
61680		57.705911	45.423663	45.559802
61681		57.707264	45.429100	45.548711
61682		57.717077	45.432011	45.543822
61683		57.725206	45.430963	45.534122
61684		57.732181	45.429052	45.528997
61685		57.733221	45.426776	45.525929
61686		57.732666	45.421384	45.522331
61687		57.727670	45.415801	45.517658
61688		57.727614	45.413486	45.516605
61689		57.731146	45.411983	45.516891
61690		57.730499	45.413260	45.514077
61691		57.731907	45.411765	45.511583
61692		57.730571	45.411874	45.506327
61693		57.726267	45.411105	45.499122
61694		57.728499	45.409268	45.499438
61695		57.728152	45.408719	45.502794
61696		57.725617	45.408223	45.505106
61697		57.724500	45.409361	45.503639
61698		57.728062	45.410476	45.498470
61699		57.729215	45.409490	45.491686
61700		57.729708	45.409623	45.486091
61701		57.730458	45.411264	45.483110
61702		57.729845	45.412504	45.480253
61703		57.729643	45.413678	45.478649
61704		57.731125	45.414488	45.479731
61705		57.727737	45.413912	45.480441
61706		57.724238	45.413798	45.481808
61707		57.723671	45.410509	45.484548
61708		57.721900	45.409459	45.480217
61709		57.723678	45.408745	45.478299
61710		57.726044	45.409034	45.472557
61711		57.729582	45.411211	45.467931
61712		57.731917	45.415755	45.464242
61713		57.732156	45.418571	45.460730
61714		57.731273	45.419976	45.454885
61715		57.732911	45.421063	45.444958
61716		57.741770	45.422610	45.443792
61717		57.750553	45.421832	45.438978
61718		57.757036	45.420660	45.434491
61719		57.759545	45.421512	45.433716
61720		57.759298	45.423159	45.432673
61721		57.754550	45.424586	45.430501
61722		57.745789	45.426403	45.426362
61723		57.738842	45.426976	45.423888
61724		57.728855	45.428826	45.416909
61725		57.724883	45.428407	45.411511
61726		57.729461	45.429599	45.406142
61727		57.734070	45.429854	45.401342
61728		57.736249	45.435554	45.400031
61729		57.733582	45.431954	45.383894
61730		57.745276	45.430802	45.384768
61731		57.742927	45.435982	45.391551
61732		57.739819	45.436064	45.386586
61733		57.733281	45.434009	45.380310
61734		57.725563	45.438150	45.377991
61735		57.712196	45.442148	45.371533
61736		57.699558	45.445186	45.361241
61737		57.686494	45.448941	45.349785
61738		57.680096	45.453793	45.339913
61739		57.682256	45.461214	45.328730
61740		57.692436	45.468116	45.320782
61741		57.698661	45.480734	45.311519
61742		57.703915	45.493179	45.296114
61743		57.706134	45.504544	45.270717
61744		57.720500	45.515963	45.249611
61745		57.740339	45.530494	45.231574
61746		57.765567	45.545285	45.214627
61747		57.783481	45.558300	45.192528
61748		57.801989	45.573926	45.179182
61749		57.815786	45.585159	45.159520
61750		57.834139	45.598118	45.145543
61751		57.850725	45.610055	45.132296
61752		57.868501	45.623277	45.120146
61753		57.881528	45.636362	45.103705
61754		57.891793	45.653915	45.081976
61755		57.901031	45.672924	45.059924
61756		57.906012	45.690436	45.032979
61757		57.912785	45.709100	45.006304
61758		57.925926	45.724356	44.985254
61759		57.935541	45.741062	44.975508
61760		57.936853	45.755926	44.967705
61761		57.925374	45.765389	44.950962
61762		57.906105	45.774498	44.925987
61763		57.884532	45.784401	44.908171
61764		57.867427	45.797944	44.895894
61765		57.842457	45.811879	44.883514
61766		57.820384	45.824985	44.878041
61767		57.792270	45.834341	44.870398
61768		57.769546	45.840116	44.860888
61769		57.753553	45.847572	44.852776
61770		57.742027	45.857696	44.844591
61771		57.723961	45.866005	44.831176
61772		57.700578	45.874347	44.814277
61773		57.674964	45.884131	44.793832
61774		57.651466	45.890548	44.773613
61775		57.629115	45.895164	44.759519
61776		57.610797	45.897562	44.751104
61777		57.586355	45.898925	44.737912
61778		57.556048	45.900627	44.723007
61779		57.525224	45.906660	44.702001
61780		57.493611	45.919553	44.677344
61781		57.479467	45.947686	44.645897
61782		57.486370	45.979150	44.612029
61783		57.499780	46.005947	44.566841
61784		57.507708	46.024964	44.500498
61785		57.522275	46.036925	44.424124
61786		57.542410	46.050687	44.353176
61787		57.571604	46.065205	44.292162
61788		57.606071	46.073456	44.246048
61789		57.617654	46.078441	44.193044
61790		57.612813	46.083939	44.143535
61791		57.598018	46.085954	44.087888
61792		57.572713	46.092168	44.024878
61793		57.557281	46.084652	43.971257
61794		57.546826	46.061016	43.929528
61795		57.524153	46.028673	43.897049
61796		57.491031	45.993365	43.875375
61797		57.441326	45.957830	43.860969
61798		57.379219	45.936775	43.863528
61799		57.299659	45.930639	43.863436
61800		57.207768	45.923839	43.855837
61801		57.125241	45.907802	43.853235
61802		57.054757	45.881094	43.846740
61803		56.992563	45.858529	43.840319
61804		56.943900	45.847793	43.844178
61805		56.905747	45.837411	43.847913
61806		56.878576	45.837416	43.851786
61807		56.848227	45.845008	43.857200
61808		56.822442	45.847545	43.856629
61809		56.802197	45.854759	43.863141
61810		56.777766	45.871525	43.878044
61811		56.736517	45.886907	43.883507
61812		56.686736	45.899047	43.883572
61813		56.631906	45.906274	43.875538
61814		56.596788	45.912599	43.877972
61815		56.564401	45.915882	43.878752
61816		56.541612	45.921527	43.886178
61817		56.524809	45.924494	43.896628
61818		56.500337	45.934310	43.909321
61819		56.473716	45.942736	43.920951
61820		56.437090	45.949815	43.924323
61821		56.395330	45.960601	43.923041
61822		56.363682	45.971921	43.922234
61823		56.337208	45.981123	43.913978
61824		56.327236	45.989494	43.910217
61825		56.328752	45.995014	43.910096
61826		56.330437	46.006032	43.912965
61827		56.332182	46.010013	43.911618
61828		56.327267	46.016825	43.901508
61829		56.314863	46.025106	43.890144
61830		56.312148	46.031647	43.874455
61831		56.315820	46.036302	43.862301
61832		56.329236	46.047605	43.861823
61833		56.344920	46.059240	43.860906
61834		56.358315	46.067601	43.851676
61835		56.370519	46.071337	43.845240
61836		56.379596	46.074691	43.839176
61837		56.389284	46.077184	43.830626
61838		56.398524	46.084972	43.820423
61839		56.412355	46.089675	43.808174
61840		56.430284	46.092590	43.800309
61841		56.452051	46.097360	43.802514
61842		56.474960	46.096042	43.804729
61843		56.488986	46.093913	43.801310
61844		56.501453	46.098366	43.806568
61845		56.510972	46.098357	43.805540
61846		56.512199	46.099089	43.795714
61847		56.511771	46.101967	43.785995
61848		56.515678	46.104782	43.775488
61849		56.527373	46.104575	43.769228
61850		56.545780	46.104939	43.774994
61851		56.557772	46.100219	43.779338
61852		56.571630	46.101903	43.790072
61853		56.581911	46.105615	43.801239
61854		56.583296	46.110382	43.805577
61855		56.573883	46.113454	43.806925
61856		56.563861	46.115940	43.806388
61857		56.553741	46.122552	43.805879
61858		56.552860	46.129286	43.807261
61859		56.553783	46.130022	43.809809
61860		56.556867	46.133177	43.818955
61861		56.559418	46.136186	43.829287
61862		56.558098	46.137242	43.839068
61863		56.546611	46.136653	43.842625
61864		56.532676	46.136912	43.849078
61865		56.515368	46.137198	43.855837
61866		56.500739	46.141593	43.867078
61867		56.485348	46.153035	43.869593
61868		56.477200	46.172383	43.870920
61869		56.478289	46.180323	43.866462
61870		56.491539	46.181057	43.865676
61871		56.512192	46.182423	43.878090
61872		56.535327	46.183713	43.890216
61873		56.545450	46.183600	43.895338
61874		56.537697	46.188616	43.890335
61875		56.516604	46.195521	43.871386
61876		56.521289	46.205182	43.852029
61877		56.516807	46.238469	43.844536
61878		56.506771	46.208086	43.773060
61879		56.596325	46.195671	43.795071
61880		56.647769	46.188687	43.826295
61881		56.685045	46.176267	43.815881
61882		56.723065	46.166847	43.804947
61883		56.747779	46.167442	43.805092
61884		56.743096	46.172900	43.801561
61885		56.720779	46.177081	43.799534
61886		56.693891	46.183686	43.809647
61887		56.666942	46.189384	43.820537
61888		56.643134	46.183518	43.815771
61889		56.637324	46.174615	43.815065
61890		56.649634	46.176964	43.826745
61891		56.656156	46.188181	43.827098
61892		56.658699	46.188886	43.803056
61893		56.663602	46.181171	43.784270
61894		56.679736	46.172895	43.790101
61895		56.673579	46.170046	43.800417
61896		56.653003	46.157410	43.807032
61897		56.632107	46.141302	43.821995
61898		56.616884	46.126769	43.855095
61899		56.597774	46.123190	43.896723
61900		56.581502	46.117708	43.928598
61901		56.571123	46.107785	43.951355
61902		56.563863	46.097450	43.971874
61903		56.555474	46.084163	43.990131
61904		56.541990	46.072607	43.999932
61905		56.522709	46.060034	43.998559
61906		56.506217	46.047489	43.990790
61907		56.493008	46.032492	43.985020
61908		56.490597	46.017086	43.987931
61909		56.493687	45.993096	43.994508
61910		56.510368	45.970078	44.005912
61911		56.539910	45.946264	44.017730
61912		56.554390	45.929082	44.032747
61913		56.547084	45.913883	44.050877
61914		56.524163	45.898751	44.062408
61915		56.489625	45.878821	44.065651
61916		56.468475	45.861078	44.076306
61917		56.469073	45.838418	44.090526
61918		56.487661	45.815804	44.113363
61919		56.520695	45.798803	44.145408
61920		56.557040	45.780196	44.172791
61921		56.576083	45.760028	44.196810
61922		56.582068	45.737111	44.222297
61923		56.574260	45.710472	44.242501
61924		56.570170	45.687393	44.260212
61925		56.554710	45.665619	44.277615
61926		56.534366	45.646826	44.303146
61927		56.510527	45.625381	44.328381
61928		56.493124	45.602419	44.351543
61929		56.483839	45.581625	44.371805
61930		56.488795	45.563425	44.398145
61931		56.500397	45.545927	44.431539
61932		56.514820	45.525318	44.462706
61933		56.523633	45.501921	44.490407
61934		56.529196	45.484869	44.519065
61935		56.532653	45.469112	44.547301
61936		56.537140	45.454772	44.573607
61937		56.540277	45.438641	44.600032
61938		56.550396	45.422153	44.627017
61939		56.559427	45.405944	44.647751
61940		56.566030	45.392340	44.663232
61941		56.573743	45.378512	44.679804
61942		56.584559	45.369298	44.693440
61943		56.608650	45.360851	44.705312
61944		56.643496	45.352595	44.715779
61945		56.683645	45.345524	44.726106
61946		56.723355	45.340672	44.735388
61947		56.755924	45.332710	44.736933
61948		56.789732	45.323184	44.731102
61949		56.828113	45.317526	44.725728
61950		56.866443	45.314846	44.719772
61951		56.904450	45.312687	44.715621
61952		56.939463	45.310662	44.710575
61953		56.971165	45.306301	44.707272
61954		57.003720	45.301314	44.708072
61955		57.027146	45.293840	44.708323
61956		57.053567	45.291261	44.713765
61957		57.076611	45.287279	44.715250
61958		57.093837	45.284355	44.721726
61959		57.098403	45.280093	44.724425
61960		57.098819	45.277427	44.727559
61961		57.096791	45.275298	44.729890
61962		57.104465	45.276701	44.735232
61963		57.120202	45.275817	44.744976
61964		57.134409	45.272139	44.762067
61965		57.150779	45.265958	44.781521
61966		57.162540	45.258622	44.797832
61967		57.161767	45.250872	44.807955
61968		57.148477	45.246523	44.810615
61969		57.128929	45.243103	44.808550
61970		57.115710	45.243933	44.810807
61971		57.114875	45.243264	44.820287
61972		57.135503	45.236606	44.840408
61973		57.176055	45.222218	44.877433
61974		57.225283	45.198690	44.920070
61975		57.275526	45.172697	44.961874
61976		57.327556	45.145803	44.999794
61977		57.374349	45.124964	45.032194
61978		57.422078	45.113728	45.067851
61979		57.458552	45.111974	45.107653
61980		57.494864	45.120438	45.154058
61981		57.515717	45.130302	45.194745
61982		57.542708	45.141566	45.239119
61983		57.571461	45.150061	45.280614
61984		57.600768	45.157920	45.323304
61985		57.629604	45.159727	45.364165
61986		57.663902	45.157583	45.404639
61987		57.710159	45.151588	45.447411
61988		57.769382	45.142892	45.493795
61989		57.833085	45.129486	45.537204
61990		57.916802	45.113903	45.588200
61991		57.994630	45.094136	45.632012
61992		58.060551	45.075729	45.674434
61993		58.105461	45.057216	45.707312
61994		58.136084	45.037941	45.731033
61995		58.157973	45.023101	45.748735
61996		58.184700	45.012349	45.773889
61997		58.216391	45.004377	45.808001
61998		58.249295	44.996933	45.834818
61999		58.277458	44.991472	45.859102
62000		58.297869	44.988870	45.877461
62001		58.310613	44.989241	45.888722
62002		58.331162	44.992515	45.893688
62003		58.361603	45.000070	45.903369
62004		58.400524	45.012371	45.915866
62005		58.441043	45.025590	45.928614
62006		58.480937	45.043063	45.937345
62007		58.524223	45.061130	45.947455
62008		58.564283	45.079415	45.953827
62009		58.599108	45.096722	45.955349
62010		58.633099	45.112644	45.958002
62011		58.667013	45.124709	45.963184
62012		58.705891	45.125508	45.962946
62013		58.758415	45.112814	45.958970
62014		58.803969	45.092082	45.950002
62015		58.839572	45.068358	45.933309
62016		58.860419	45.047602	45.905927
62017		58.864942	45.031558	45.869223
62018		58.861075	45.019637	45.826872
62019		58.855500	45.014138	45.783303
62020		58.857210	45.016162	45.737523
62021		58.869236	45.025605	45.695681
62022		58.876826	45.038779	45.651541
62023		58.875516	45.054070	45.599434
62024		58.867523	45.075027	45.542309
62025		58.853768	45.096169	45.479772
62026		58.830568	45.117685	45.415945
62027		58.798773	45.138300	45.352617
62028		58.766086	45.158447	45.295566
62029		58.720901	45.177280	45.237484
62030		58.665068	45.204989	45.179229
62031		58.611927	45.241226	45.119310
62032		58.560822	45.280266	45.050488
62033		58.510237	45.317371	44.973626
62034		58.475708	45.353624	44.895263
62035		58.457115	45.378389	44.815852
62036		58.450569	45.397261	44.743952
62037		58.462454	45.408011	44.695199
62038		58.485084	45.413481	44.657825
62039		58.502736	45.411320	44.628916
62040		58.515816	45.411931	44.614442
62041		58.518156	45.415698	44.608211
62042		58.499520	45.428343	44.591046
62043		58.479331	45.442452	44.567011
62044		58.472243	45.451047	44.538189
62045		58.469697	45.454965	44.506371
62046		58.474835	45.460178	44.473001
62047		58.486324	45.467007	44.438237
62048		58.504876	45.479845	44.416758
62049		58.508156	45.493457	44.396456
62050		58.501061	45.507760	44.373632
62051		58.480382	45.524900	44.352028
62052		58.448160	45.548869	44.330082
62053		58.406666	45.571766	44.300655
62054		58.380249	45.588732	44.270685
62055		58.382986	45.595066	44.257071
62056		58.407784	45.590454	44.248572
62057		58.447402	45.579363	44.245008
62058		58.486792	45.568090	44.241328
62059		58.520248	45.553693	44.236035
62060		58.543265	45.545380	44.246629
62061		58.544933	45.544021	44.269052
62062		58.523689	45.551056	44.292550
62063		58.480095	45.557365	44.307753
62064		58.429954	45.549826	44.325611
62065		58.375557	45.524878	44.351706
62066		58.314098	45.495405	44.384983
62067		58.248130	45.465019	44.410084
62068		58.181316	45.446023	44.427570
62069		58.108876	45.443622	44.440226
62070		58.038746	45.446506	44.456948
62071		57.964640	45.442097	44.469804
62072		57.904600	45.433280	44.483414
62073		57.858122	45.422117	44.489864
62074		57.821553	45.417360	44.497009
62075		57.786406	45.424131	44.508145
62076		57.754311	45.434193	44.509394
62077		57.715599	45.444762	44.503923
62078		57.669059	45.454283	44.489744
62079		57.617405	45.466957	44.475474
62080		57.567323	45.480998	44.465517
62081		57.517530	45.493721	44.450978
62082		57.467885	45.508907	44.440093
62083		57.423860	45.521341	44.429074
62084		57.378190	45.529384	44.410468
62085		57.337705	45.540680	44.402648
62086		57.304926	45.549515	44.401345
62087		57.289637	45.547810	44.399730
62088		57.283262	45.547804	44.398318
62089		57.278323	45.551174	44.396027
62090		57.271609	45.550624	44.381885
62091		57.260700	45.544269	44.365199
62092		57.245212	45.543032	44.350372
62093		57.226302	45.539051	44.338270
62094		57.212249	45.542034	44.330960
62095		57.201877	45.544964	44.321414
62096		57.192276	45.545254	44.302208
62097		57.182484	45.545943	44.287753
62098		57.176636	45.542237	44.277381
62099		57.172239	45.537178	44.265394
62100		57.182341	45.535700	44.268225
62101		57.191477	45.529303	44.268622
62102		57.199309	45.521895	44.271750
62103		57.199493	45.516355	44.272590
62104		57.193910	45.509812	44.267658
62105		57.184732	45.500949	44.261150
62106		57.178444	45.497030	44.256637
62107		57.175368	45.492974	44.256028
62108		57.174513	45.484232	44.251979
62109		57.178350	45.473713	44.253056
62110		57.183610	45.475510	44.260647
62111		57.186773	45.475610	44.259246
62112		57.185261	45.475586	44.249528
62113		57.178517	45.477814	44.241994
62114		57.170411	45.487570	44.240620
62115		57.174022	45.495062	44.243324
62116		57.189637	45.497299	44.249721
62117		57.203055	45.499032	44.263478
62118		57.212382	45.504308	44.280806
62119		57.216746	45.509090	44.282854
62120		57.221660	45.511423	44.283126
62121		57.226631	45.512659	44.286965
62122		57.230114	45.517143	44.295770
62123		57.238650	45.526240	44.305174
62124		57.252764	45.538056	44.314441
62125		57.274915	45.556504	44.330662
62126		57.298919	45.567123	44.340669
62127		57.322373	45.574433	44.346551
62128		57.354220	45.586695	44.366325
62129		57.390132	45.600319	44.390760
62130		57.421001	45.618728	44.412154
62131		57.445507	45.640960	44.437282
62132		57.455695	45.665124	44.450605
62133		57.466837	45.692526	44.469382
62134		57.480507	45.721787	44.487667
62135		57.488193	45.749249	44.497755
62136		57.498741	45.771252	44.503380
62137		57.520115	45.783691	44.502897
62138		57.546225	45.792185	44.501946
62139		57.576908	45.801315	44.505305
62140		57.600019	45.810649	44.499608
62141		57.622655	45.819208	44.499024
62142		57.638640	45.829911	44.512240
62143		57.651954	45.842726	44.536424
62144		57.665668	45.856074	44.564190
62145		57.676664	45.870143	44.598996
62146		57.683689	45.879035	44.636943
62147		57.681579	45.886261	44.660464
62148		57.672384	45.890602	44.672198
62149		57.661554	45.893591	44.679661
62150		57.658392	45.897511	44.687080
62151		57.657804	45.902808	44.693404
62152		57.662038	45.909510	44.706314
62153		57.672255	45.913295	44.725441
62154		57.684065	45.917621	44.750966
62155		57.690737	45.920949	44.785700
62156		57.694261	45.915427	44.817147
62157		57.689411	45.906455	44.842197
62158		57.689768	45.899144	44.868327
62159		57.682566	45.890231	44.887548
62160		57.682032	45.881706	44.907860
62161		57.687007	45.869970	44.929375
62162		57.698203	45.857523	44.952923
62163		57.713570	45.847590	44.977530
62164		57.721020	45.840107	44.997371
62165		57.727160	45.831131	45.019341
62166		57.726577	45.822159	45.040564
62167		57.724439	45.810056	45.068896
62168		57.720991	45.794887	45.100074
62169		57.713278	45.775055	45.133838
62170		57.704054	45.751414	45.169241
62171		57.689239	45.725908	45.202537
62172		57.675800	45.701033	45.239385
62173		57.653963	45.678255	45.264975
62174		57.631524	45.656992	45.288974
62175		57.608850	45.638734	45.304379
62176		57.595028	45.620255	45.317289
62177		57.586931	45.599768	45.327420
62178		57.592300	45.579791	45.340882
62179		57.610315	45.558979	45.362585
62180		57.630794	45.532565	45.389286
62181		57.650963	45.506983	45.416118
62182		57.663051	45.483058	45.440910
62183		57.663204	45.460654	45.459108
62184		57.657168	45.442763	45.472881
62185		57.642274	45.424947	45.478312
62186		57.631158	45.408288	45.479588
62187		57.621192	45.397044	45.477258
62188		57.624575	45.384049	45.476349
62189		57.630140	45.373538	45.477081
62190		57.638674	45.363383	45.479283
62191		57.651141	45.351044	45.482226
62192		57.671913	45.337905	45.489743
62193		57.695177	45.324837	45.502893
62194		57.718377	45.313917	45.518005
62195		57.735826	45.303542	45.526394
62196		57.746769	45.294524	45.531012
62197		57.756129	45.288392	45.533120
62198		57.767149	45.285958	45.537960
62199		57.777263	45.286566	45.537626
62200		57.786577	45.288678	45.532607
62201		57.792483	45.291682	45.525541
62202		57.804531	45.295844	45.520078
62203		57.816273	45.297471	45.511127
62204		57.827724	45.297002	45.499087
62205		57.836415	45.291961	45.486807
62206		57.848136	45.286745	45.480316
62207		57.853682	45.279940	45.473200
62208		57.856457	45.273261	45.468351
62209		57.854410	45.267297	45.467535
62210		57.847165	45.260713	45.465655
62211		57.837451	45.258872	45.464549
62212		57.830226	45.261731	45.461152
62213		57.820574	45.266393	45.449854
62214		57.821150	45.277356	45.442541
62215		57.825861	45.286630	45.434461
62216		57.830884	45.298859	45.428984
62217		57.834695	45.307203	45.426421
62218		57.835465	45.312926	45.425584
62219		57.829851	45.315826	45.427657
62220		57.818281	45.316527	45.427578
62221		57.799687	45.316042	45.425666
62222		57.775938	45.314870	45.422324
62223		57.748683	45.315682	45.422605
62224		57.722813	45.319889	45.424059
62225		57.701260	45.325135	45.425532
62226		57.687729	45.331600	45.428565
62227		57.677150	45.340658	45.430029
62228		57.680486	45.345238	45.432785
62229		57.687845	45.348565	45.430396
62230		57.698045	45.351774	45.430803
62231		57.703806	45.353931	45.426176
62232		57.708217	45.355999	45.418868
62233		57.706572	45.359684	45.407246
62234		57.704766	45.369887	45.396348
62235		57.701503	45.381432	45.381938
62236		57.702798	45.403334	45.359890
62237		57.703531	45.432663	45.325238
62238		57.715749	45.467939	45.275561
62239		57.729898	45.506300	45.220138
62240		57.754234	45.542425	45.164789
62241		57.778084	45.569618	45.113039
62242		57.798941	45.589016	45.066369
62243		57.823742	45.600736	45.025298
62244		57.856256	45.608703	44.997483
62245		57.887178	45.618274	44.973853
62246		57.911743	45.626371	44.951869
62247		57.917741	45.634273	44.919440
62248		57.915178	45.647788	44.881992
62249		57.910221	45.665573	44.849548
62250		57.905729	45.684377	44.819539
62251		57.892180	45.702792	44.782544
62252		57.883088	45.719905	44.751933
62253		57.863344	45.730432	44.726420
62254		57.844526	45.737969	44.706249
62255		57.819846	45.738045	44.685464
62256		57.794095	45.735983	44.665097
62257		57.770416	45.733700	44.645418
62258		57.753599	45.732298	44.625650
62259		57.728912	45.736040	44.597009
62260		57.716434	45.745601	44.562199
62261		57.718981	45.752648	44.526445
62262		57.719328	45.758539	44.482646
62263		57.715257	45.762405	44.439127
62264		57.715369	45.761793	44.402552
62265		57.715179	45.757513	44.379800
62266		57.714504	45.754421	44.370356
62267		57.701178	45.749815	44.362878
62268		57.676831	45.746121	44.344017
62269		57.642025	45.745374	44.305554
62270		57.611726	45.739759	44.255380
62271		57.597019	45.724863	44.209495
62272		57.582153	45.704655	44.167478
62273		57.570692	45.681362	44.134643
62274		57.564740	45.657790	44.116464
62275		57.551705	45.643664	44.113907
62276		57.525232	45.635113	44.117669
62277		57.476314	45.631325	44.107952
62278		57.410182	45.628947	44.088045
62279		57.346412	45.613290	44.055936
62280		57.286190	45.586700	44.018479
62281		57.234358	45.552877	43.990881
62282		57.193159	45.515991	43.971835
62283		57.152964	45.477547	43.960649
62284		57.113204	45.454014	43.965502
62285		57.052403	45.442609	43.960954
62286		56.994735	45.437904	43.950681
62287		56.941926	45.424351	43.923698
62288		56.888514	45.398912	43.891488
62289		56.843837	45.371379	43.871204
62290		56.808184	45.340055	43.856438
62291		56.768577	45.313047	43.837479
62292		56.733478	45.294708	43.821495
62293		56.691301	45.284426	43.804888
62294		56.651933	45.283530	43.792382
62295		56.623975	45.288912	43.784074
62296		56.613744	45.292033	43.776555
62297		56.597048	45.296553	43.773649
62298		56.566847	45.304806	43.774273
62299		56.527724	45.305891	43.764257
62300		56.494185	45.304614	43.754882
62301		56.477699	45.308248	43.760373
62302		56.484537	45.315212	43.776182
62303		56.492529	45.323169	43.786138
62304		56.495489	45.331255	43.792642
62305		56.488523	45.335641	43.795890
62306		56.475397	45.341694	43.796768
62307		56.462930	45.346697	43.798182
62308		56.459669	45.348770	43.802512
62309		56.465677	45.342996	43.807053
62310		56.478529	45.344307	43.819379
62311		56.486174	45.344846	43.825377
62312		56.490146	45.341663	43.827669
62313		56.485905	45.337189	43.825458
62314		56.481683	45.335345	43.823822
62315		56.480541	45.331351	43.823071
62316		56.484106	45.327709	43.823856
62317		56.484531	45.326844	43.828255
62318		56.481230	45.325116	43.826786
62319		56.478354	45.324649	43.821327
62320		56.486518	45.325903	43.818886
62321		56.499717	45.325155	43.817132
62322		56.519958	45.320517	43.821039
62323		56.542624	45.309000	43.828153
62324		56.563545	45.304692	43.839730
62325		56.573845	45.299805	43.847374
62326		56.564971	45.293920	43.843592
62327		56.551197	45.288708	43.843600
62328		56.534632	45.286070	43.844567
62329		56.520955	45.283193	43.846306
62330		56.516573	45.284369	43.853047
62331		56.517415	45.280002	43.856288
62332		56.524093	45.273741	43.862203
62333		56.530276	45.272633	43.870187
62334		56.543044	45.275919	43.882291
62335		56.551644	45.281184	43.888664
62336		56.555249	45.293277	43.895131
62337		56.551766	45.313888	43.896406
62338		56.549868	45.321154	43.890901
62339		56.546929	45.322207	43.889605
62340		56.548911	45.325874	43.906343
62341		56.543456	45.332135	43.921360
62342		56.533958	45.336245	43.930623
62343		56.521085	45.339217	43.938106
62344		56.511199	45.348500	43.941157
62345		56.514520	45.364606	43.944235
62346		56.538583	45.370386	43.943619
62347		56.568732	45.365091	43.940856
62348		56.611470	45.363439	43.952975
62349		56.650222	45.361647	43.974396
62350		56.671064	45.360801	43.993449
62351		56.666625	45.362799	44.006662
62352		56.644955	45.363874	44.007879
62353		56.610937	45.363627	43.999033
62354		56.584894	45.361898	43.994467
62355		56.579348	45.369451	43.999878
62356		56.592851	45.370477	44.007088
62357		56.608994	45.368286	44.000914
62358		56.630080	45.364156	43.997207
62359		56.659684	45.363452	44.000994
62360		56.686681	45.362817	44.009881
62361		56.702423	45.359646	44.018135
62362		56.699203	45.361763	44.022433
62363		56.678033	45.363766	44.024178
62364		56.665532	45.374418	44.034246
62365		56.647047	45.384908	44.054086
62366		56.635906	45.390843	44.073049
62367		56.621374	45.393070	44.074106
62368		56.622538	45.399628	44.073267
62369		56.641291	45.406354	44.081024
62370		56.665543	45.412319	44.093876
62371		56.683400	45.411091	44.107888
62372		56.682432	45.408874	44.116237
62373		56.665282	45.406692	44.118842
62374		56.644074	45.409180	44.133135
62375		56.623072	45.412906	44.155759
62376		56.595289	45.414786	44.175234
62377		56.560249	45.412440	44.178451
62378		56.533932	45.409574	44.173971
62379		56.512211	45.406983	44.166281
62380		56.508495	45.408305	44.166960
62381		56.513703	45.409514	44.173831
62382		56.519387	45.406668	44.186966
62383		56.521114	45.400223	44.202136
62384		56.510794	45.392947	44.214133
62385		56.490472	45.386278	44.224343
62386		56.464606	45.378158	44.232929
62387		56.433159	45.367658	44.240164
62388		56.411021	45.363496	44.250942
62389		56.397422	45.353838	44.267133
62390		56.389972	45.347391	44.288226
62391		56.394976	45.337782	44.315692
62392		56.404172	45.326596	44.347845
62393		56.409122	45.312282	44.374807
62394		56.411643	45.294652	44.403047
62395		56.411233	45.279022	44.428170
62396		56.401597	45.262236	44.450704
62397		56.386274	45.243515	44.467839
62398		56.373978	45.229496	44.491735
62399		56.355458	45.216131	44.513257
62400		56.341206	45.203928	44.536700
62401		56.326180	45.187531	44.558528
62402		56.314741	45.171120	44.580177
62403		56.306234	45.154516	44.602534
62404		56.301288	45.140232	44.623252
62405		56.290153	45.127132	44.641029
62406		56.282326	45.113228	44.657828
62407		56.273293	45.096705	44.671289
62408		56.262144	45.084366	44.687108
62409		56.248451	45.072413	44.701547
62410		56.230865	45.063017	44.714212
62411		56.221448	45.050007	44.728832
62412		56.216638	45.036636	44.747585
62413		56.224663	45.014202	44.772500
62414		56.233648	44.989770	44.797495
62415		56.236900	44.964430	44.825306
62416		56.236178	44.942748	44.856224
62417		56.227227	44.921769	44.885781
62418		56.205389	44.904365	44.910576
62419		56.177475	44.890806	44.933044
62420		56.142711	44.883368	44.943426
62421		56.116684	44.880965	44.953014
62422		56.097552	44.886953	44.960890
62423		56.086863	44.893239	44.964555
62424		56.091965	44.899458	44.967898
62425		56.103909	44.903989	44.970445
62426		56.128407	44.902098	44.977361
62427		56.152709	44.890870	44.980124
62428		56.180859	44.876960	44.987969
62429		56.207345	44.864896	45.001781
62430		56.224922	44.852553	45.010552
62431		56.237395	44.841351	45.019254
62432		56.242306	44.832668	45.026429
62433		56.241693	44.826654	45.031645
62434		56.239839	44.825263	45.031438
62435		56.240547	44.826030	45.028094
62436		56.244612	44.828883	45.021669
62437		56.248665	44.829393	45.013238
62438		56.264724	44.831624	45.007795
62439		56.285087	44.836804	45.005308
62440		56.307521	44.842310	45.004324
62441		56.329800	44.843246	44.999936
62442		56.345922	44.840854	44.997400
62443		56.352240	44.837913	44.987603
62444		56.359861	44.836077	44.977025
62445		56.367691	44.836695	44.968199
62446		56.377559	44.842313	44.961596
62447		56.383675	44.847990	44.952271
62448		56.387853	44.855835	44.945067
62449		56.390454	44.861793	44.937875
62450		56.391826	44.864951	44.930388
62451		56.393750	44.868061	44.931613
62452		56.391216	44.872091	44.932898
62453		56.392081	44.872839	44.932492
62454		56.397016	44.873938	44.936487
62455		56.393087	44.876085	44.940696
62456		56.392934	44.880588	44.946406
62457		56.385225	44.885838	44.944426
62458		56.380470	44.893914	44.943045
62459		56.373459	44.903941	44.935575
62460		56.373697	44.915654	44.928611
62461		56.369569	44.928525	44.918424
62462		56.360910	44.939579	44.907278
62463		56.351873	44.950416	44.891680
62464		56.351298	44.962854	44.882450
62465		56.350680	44.975441	44.870122
62466		56.348678	44.987530	44.856538
62467		56.343663	44.998846	44.842290
62468		56.343537	45.010536	44.829273
62469		56.338871	45.022639	44.815560
62470		56.330842	45.036181	44.796991
62471		56.322177	45.050565	44.779463
62472		56.314082	45.066864	44.758842
62473		56.311129	45.084167	44.738305
62474		56.313678	45.103860	44.716035
62475		56.318449	45.121346	44.697693
62476		56.321694	45.137934	44.675842
62477		56.328518	45.155450	44.660261
62478		56.334793	45.170153	44.641508
62479		56.340697	45.183351	44.624316
62480		56.343020	45.199567	44.607017
62481		56.338588	45.212881	44.589619
62482		56.335307	45.226571	44.573927
62483		56.332384	45.238313	44.561161
62484		56.325846	45.248303	44.547499
62485		56.323823	45.257303	44.537076
62486		56.321462	45.268993	44.521706
62487		56.319116	45.285100	44.504613
62488		56.319775	45.303950	44.487643
62489		56.314613	45.322741	44.468362
62490		56.307917	45.342709	44.448904
62491		56.299724	45.361438	44.426913
62492		56.296493	45.380135	44.410425
62493		56.295267	45.391947	44.394472
62494		56.302586	45.401117	44.383315
62495		56.306647	45.408706	44.374107
62496		56.305498	45.417609	44.363353
62497		56.297216	45.425673	44.349914
62498		56.284143	45.433952	44.336014
62499		56.268154	45.447344	44.315407
62500		56.251175	45.462195	44.283864
62501		56.239069	45.473885	44.245063
62502		56.240200	45.485029	44.210340
62503		56.248234	45.498391	44.180951
62504		56.266198	45.512327	44.155179
62505		56.291421	45.523019	44.130847
62506		56.313655	45.533552	44.107042
62507		56.321796	45.541377	44.085518
62508		56.316671	45.555747	44.067335
62509		56.300463	45.573010	44.049523
62510		56.286163	45.592579	44.036930
62511		56.255738	45.610634	44.013780
62512		56.221628	45.628055	43.983428
62513		56.194782	45.640417	43.948161
62514		56.173140	45.649344	43.914584
62515		56.158716	45.658060	43.890223
62516		56.163450	45.664022	43.873910
62517		56.167226	45.673991	43.860417
62518		56.177317	45.686742	43.855989
62519		56.183350	45.698673	43.851179
62520		56.188339	45.709367	43.838228
62521		56.194529	45.716297	43.822229
62522		56.191188	45.724114	43.800609
62523		56.178124	45.732111	43.772529
62524		56.160661	45.732486	43.741281
62525		56.139475	45.734334	43.714091
62526		56.116186	45.737623	43.691413
62527		56.098019	45.738710	43.672330
62528		56.072409	45.739892	43.655777
62529		56.046401	45.741036	43.648097
62530		56.013997	45.736387	43.637135
62531		55.972859	45.724552	43.621685
62532		55.929685	45.709457	43.610179
62533		55.886561	45.691626	43.601115
62534		55.856317	45.670923	43.606791
62535		55.826266	45.647118	43.618895
62536		55.789240	45.624509	43.636209
62537		55.742313	45.605253	43.652016
62538		55.686079	45.590373	43.657315
62539		55.633641	45.576524	43.653794
62540		55.589502	45.565969	43.658007
62541		55.553093	45.552980	43.663787
62542		55.518589	45.542021	43.676028
62543		55.477262	45.532790	43.685074
62544		55.428919	45.528302	43.688107
62545		55.377086	45.521897	43.691428
62546		55.327641	45.518592	43.699980
62547		55.282817	45.517102	43.709022
62548		55.240743	45.519616	43.723982
62549		55.184497	45.526389	43.740185
62550		55.126918	45.533039	43.750687
62551		55.065910	45.536948	43.751966
62552		55.017343	45.538916	43.753694
62553		54.978729	45.542348	43.753640
62554		54.959595	45.552207	43.754816
62555		54.952773	45.552319	43.756329
62556		54.961207	45.550019	43.762084
62557		54.961792	45.554282	43.765731
62558		54.952234	45.559725	43.768969
62559		54.934815	45.558332	43.760174
62560		54.916838	45.556527	43.747303
62561		54.900277	45.557508	43.737131
62562		54.887761	45.558975	43.728431
62563		54.883141	45.557190	43.714996
62564		54.892414	45.553881	43.709688
62565		54.907280	45.551144	43.714235
62566		54.920718	45.550287	43.716206
62567		54.926029	45.546464	43.709148
62568		54.926825	45.539660	43.696513
62569		54.926536	45.536837	43.683354
62570		54.928031	45.533645	43.674835
62571		54.933407	45.523944	43.659157
62572		54.946941	45.517232	43.649111
62573		54.961051	45.513300	43.648429
62574		54.977008	45.509377	43.647647
62575		54.990099	45.503061	43.645384
62576		55.002342	45.497082	43.641955
62577		55.007141	45.494426	43.634288
62578		55.013560	45.490151	43.634328
62579		55.017616	45.480808	43.626455
62580		55.025011	45.477464	43.621193
62581		55.031512	45.473294	43.621163
62582		55.042936	45.464902	43.622333
62583		55.053372	45.460070	43.630298
62584		55.062172	45.455946	43.639214
62585		55.056299	45.448643	43.642759
62586		55.043285	45.443885	43.635743
62587		55.036497	45.445570	43.626490
62588		55.045157	45.440677	43.620011
62589		55.055564	45.423303	43.613166
62590		55.073419	45.417499	43.627253
62591		55.089444	45.417932	43.648698
62592		55.093818	45.417191	43.655969
62593		55.085003	45.414894	43.655968
62594		55.069267	45.418994	43.656991
62595		55.056550	45.427159	43.666305
62596		55.047940	45.438862	43.673251
62597		55.050363	45.447105	43.682461
62598		55.055137	45.458138	43.697920
62599		55.055332	45.468272	43.704272
62600		55.059997	45.476571	43.704920
62601		55.069915	45.474853	43.697384
62602		55.087750	45.468578	43.694596
62603		55.106085	45.465158	43.698278
62604		55.123614	45.461668	43.708415
62605		55.137858	45.456943	43.716051
62606		55.150909	45.453354	43.729264
62607		55.156664	45.454239	43.749198
62608		55.157041	45.458079	43.772231
62609		55.152243	45.460996	43.791776
62610		55.153888	45.465310	43.816390
62611		55.165931	45.466764	43.843476
62612		55.183588	45.457721	43.857891
62613		55.196872	45.447473	43.852820
62614		55.224271	45.443540	43.852225
62615		55.249317	45.441085	43.849968
62616		55.268919	45.439208	43.848819
62617		55.279688	45.434374	43.844896
62618		55.281039	45.426930	43.842984
62619		55.280208	45.417823	43.849088
62620		55.279070	45.405087	43.863783
62621		55.281333	45.397231	43.883766
62622		55.281333	45.392766	43.908084
62623		55.282374	45.386438	43.929282
62624		55.285769	45.382057	43.944268
62625		55.292695	45.379828	43.955929
62626		55.308619	45.379383	43.965299
62627		55.326522	45.378246	43.979542
62628		55.346045	45.374407	43.993542
62629		55.363735	45.367768	44.009792
62630		55.385563	45.363579	44.033413
62631		55.399552	45.360731	44.058678
62632		55.410459	45.354917	44.086976
62633		55.412376	45.347805	44.113407
62634		55.406541	45.340821	44.136599
62635		55.399137	45.332285	44.158542
62636		55.394524	45.323774	44.180435
62637		55.390584	45.314553	44.201519
62638		55.394217	45.307412	44.224778
62639		55.407815	45.299049	44.249074
62640		55.422982	45.292639	44.273755
62641		55.435966	45.285033	44.298651
62642		55.446673	45.274149	44.324483
62643		55.456997	45.262153	44.350924
62644		55.459909	45.248807	44.372842
62645		55.460347	45.235765	44.399543
62646		55.458697	45.222205	44.427744
62647		55.452519	45.204687	44.453375
62648		55.447631	45.188379	44.478715
62649		55.440358	45.168888	44.498602
62650		55.434254	45.152507	44.517926
62651		55.422576	45.138791	44.535040
62652		55.417176	45.128687	44.555943
62653		55.412212	45.117890	44.570029
62654		55.410798	45.106746	44.582047
62655		55.417582	45.098976	44.598558
62656		55.431941	45.093702	44.616463
62657		55.443472	45.086046	44.632557
62658		55.461060	45.074928	44.647121
62659		55.475247	45.060683	44.656715
62660		55.485021	45.047459	44.666410
62661		55.488348	45.034519	44.675114
62662		55.492281	45.025089	44.688184
62663		55.492247	45.015198	44.699427
62664		55.494054	45.009511	44.715283
62665		55.492913	45.003505	44.729434
62666		55.492298	44.999118	44.742130
62667		55.493240	44.994351	44.749598
62668		55.499326	44.986550	44.754826
62669		55.502775	44.979107	44.758633
62670		55.517414	44.973092	44.766889
62671		55.537533	44.966414	44.776873
62672		55.559134	44.965230	44.790952
62673		55.576600	44.963177	44.804545
62674		55.590416	44.959507	44.814497
62675		55.603214	44.956188	44.820302
62676		55.609123	44.947906	44.823213
62677		55.613756	44.938922	44.825766
62678		55.613163	44.931432	44.827539
62679		55.614780	44.924742	44.826176
62680		55.617134	44.922373	44.823773
62681		55.625478	44.920538	44.822282
62682		55.638520	44.920692	44.823367
62683		55.654079	44.924496	44.825207
62684		55.659948	44.930833	44.823129
62685		55.660376	44.935089	44.820970
62686		55.661248	44.937755	44.820504
62687		55.655813	44.934428	44.820817
62688		55.650699	44.929486	44.823146
62689		55.645403	44.924203	44.823502
62690		55.650776	44.914837	44.827689
62691		55.655015	44.909368	44.831344
62692		55.663921	44.904011	44.835088
62693		55.674922	44.897543	44.829982
62694		55.690854	44.895850	44.824676
62695		55.710239	44.897789	44.823314
62696		55.727986	44.902364	44.822405
62697		55.734392	44.903244	44.815727
62698		55.733774	44.903113	44.809029
62699		55.722725	44.898510	44.801637
62700		55.711369	44.895130	44.800162
62701		55.695902	44.893157	44.796591
62702		55.684941	44.890388	44.794942
62703		55.680678	44.887879	44.792783
62704		55.680996	44.889377	44.793322
62705		55.680994	44.890093	44.793057
62706		55.683463	44.890085	44.792357
62707		55.683800	44.893542	44.795503
62708		55.679329	44.896928	44.799532
62709		55.669076	44.898202	44.797772
62710		55.659622	44.901398	44.796010
62711		55.645408	44.904943	44.790417
62712		55.643358	44.910266	44.788230
62713		55.642942	44.915299	44.780849
62714		55.645227	44.925027	44.771117
62715		55.645697	44.935189	44.757068
62716		55.647064	44.946131	44.734846
62717		55.646158	44.959037	44.706759
62718		55.652044	44.973968	44.683862
62719		55.656980	44.987003	44.658207
62720		55.659647	44.999614	44.631645
62721		55.662474	45.009459	44.609764
62722		55.662272	45.018822	44.589600
62723		55.660593	45.025045	44.564086
62724		55.660257	45.031659	44.539897
62725		55.654419	45.036598	44.518273
62726		55.646304	45.043004	44.498417
62727		55.636035	45.048614	44.477712
62728		55.625994	45.054571	44.458827
62729		55.617611	45.062176	44.440829
62730		55.611089	45.069743	44.422818
62731		55.607906	45.081001	44.402513
62732		55.607035	45.091492	44.378828
62733		55.605396	45.102404	44.353708
62734		55.607028	45.114571	44.328127
62735		55.609579	45.124415	44.300351
62736		55.613874	45.136218	44.269078
62737		55.623458	45.147425	44.237167
62738		55.634320	45.159797	44.205011
62739		55.643794	45.170613	44.174286
62740		55.656908	45.183796	44.142459
62741		55.668808	45.200559	44.111327
62742		55.677613	45.214876	44.075895
62743		55.683204	45.228357	44.040075
62744		55.685828	45.244021	44.003239
62745		55.690873	45.261021	43.965557
62746		55.698969	45.278473	43.929589
62747		55.707653	45.292835	43.891114
62748		55.725932	45.309761	43.850469
62749		55.746252	45.325249	43.805761
62750		55.781384	45.343841	43.766464
62751		55.816932	45.363287	43.727496
62752		55.854841	45.385956	43.690799
62753		55.885065	45.402162	43.647065
62754		55.906523	45.420828	43.598680
62755		55.929627	45.438832	43.549523
62756		55.964847	45.450521	43.511234
62757		55.994386	45.454583	43.477986
62758		56.015067	45.455212	43.449025
62759		56.023139	45.453165	43.419360
62760		56.030420	45.453454	43.394655
62761		56.029891	45.452686	43.375576
62762		56.020584	45.451260	43.361727
62763		56.014242	45.445211	43.346808
62764		56.001566	45.431100	43.326722
62765		55.973611	45.414618	43.307945
62766		55.946509	45.396922	43.302004
62767		55.917272	45.377995	43.299314
62768		55.886690	45.362568	43.301107
62769		55.845484	45.351902	43.296657
62770		55.798019	45.342597	43.288056
62771		55.748177	45.332460	43.276037
62772		55.704361	45.320477	43.266811
62773		55.670417	45.306489	43.260839
62774		55.650464	45.298314	43.260812
62775		55.638571	45.297119	43.272004
62776		55.623473	45.297823	43.277498
62777		55.594941	45.303582	43.279070
62778		55.552276	45.309987	43.278163
62779		55.506248	45.312476	43.280590
62780		55.457969	45.316455	43.284629
62781		55.420903	45.321178	43.298012
62782		55.391480	45.327629	43.314612
62783		55.358453	45.330523	43.327775
62784		55.327362	45.335867	43.342894
62785		55.295706	45.342335	43.354022
62786		55.271162	45.350123	43.364239
62787		55.252702	45.358555	43.375472
62788		55.234601	45.370073	43.388977
62789		55.222943	45.381062	43.401347
62790		55.213508	45.385907	43.412366
62791		55.204575	45.384830	43.423354
62792		55.190474	45.387930	43.434034
62793		55.168516	45.393123	43.437452
62794		55.147310	45.398355	43.435173
62795		55.128064	45.401266	43.433807
62796		55.120836	45.407243	43.444301
62797		55.113942	45.411705	43.450181
62798		55.115717	45.414479	43.453020
62799		55.117824	45.415282	43.458432
62800		55.123309	45.414662	43.465440
62801		55.126993	45.415108	43.466064
62802		55.132412	45.417920	43.462459
62803		55.138747	45.418429	43.457025
62804		55.147731	45.418193	43.453838
62805		55.159176	45.421217	43.455542
62806		55.177429	45.422141	43.458322
62807		55.194650	45.420626	43.459247
62808		55.211387	45.420226	43.462815
62809		55.221756	45.418126	43.465427
62810		55.227746	45.420172	43.461455
62811		55.229446	45.423296	43.456812
62812		55.232392	45.426830	43.453722
62813		55.239078	45.428137	43.448812
62814		55.251191	45.429992	43.454033
62815		55.262476	45.429881	43.459419
62816		55.272380	45.430944	43.467516
62817		55.279366	45.434237	43.474220
62818		55.288146	45.432944	43.477870
62819		55.284628	45.432784	43.471403
62820		55.280762	45.433796	43.470579
62821		55.274064	45.430028	43.469193
62822		55.264727	45.429349	43.467598
62823		55.260943	45.434682	43.470859
62824		55.261386	45.436633	43.473315
62825		55.259851	45.434180	43.467992
62826		55.262668	45.439743	43.468267
62827		55.265749	45.445275	43.473970
62828		55.270000	45.442192	43.476609
62829		55.267843	45.439737	43.480119
62830		55.265278	45.442697	43.490486
62831		55.256435	45.442792	43.491998
62832		55.246250	45.442061	43.493275
62833		55.231407	45.445529	43.502075
62834		55.216677	45.451352	43.512558
62835		55.197107	45.467215	43.515825
62836		55.190413	45.488534	43.523492
62837		55.189696	45.508447	43.526442
62838		55.196168	45.516003	43.519837
62839		55.214671	45.513705	43.511393
62840		55.236321	45.513889	43.510683
62841		55.255881	45.517911	43.512421
62842		55.261106	45.520703	43.502938
62843		55.263253	45.516376	43.488662
62844		55.257692	45.514232	43.473740
62845		55.253277	45.516399	43.468980
62846		55.261078	45.518118	43.466330
62847		55.280118	45.517834	43.475338
62848		55.310972	45.515159	43.491865
62849		55.342666	45.510523	43.502561
62850		55.377717	45.511860	43.513007
62851		55.407967	45.513050	43.523533
62852		55.435164	45.513726	43.532402
62853		55.447776	45.510496	43.529663
62854		55.454419	45.509046	43.527345
62855		55.452088	45.508547	43.530759
62856		55.446424	45.506801	43.535192
62857		55.444294	45.502001	43.539953
62858		55.440803	45.496786	43.540538
62859		55.432023	45.492195	43.544565
62860		55.431299	45.485904	43.551116
62861		55.428527	45.477557	43.551978
62862		55.432844	45.469782	43.560467
62863		55.442839	45.461012	43.574534
62864		55.455663	45.451950	43.589621
62865		55.459839	45.442634	43.608188
62866		55.463995	45.430567	43.629124
62867		55.459516	45.412010	43.646317
62868		55.453404	45.396090	43.663683
62869		55.444948	45.377426	43.678221
62870		55.433766	45.359488	43.687746
62871		55.422823	45.339971	43.696062
62872		55.415018	45.320908	43.705935
62873		55.411559	45.300807	43.716103
62874		55.416464	45.284913	43.729234
62875		55.420840	45.269333	43.746254
62876		55.429723	45.257386	43.766976
62877		55.437052	45.244231	43.785428
62878		55.442751	45.233812	43.804330
62879		55.440666	45.221197	43.821063
62880		55.431590	45.210281	43.838484
62881		55.422383	45.196319	43.859259
62882		55.416393	45.180466	43.879415
62883		55.404918	45.159004	43.896566
62884		55.392523	45.137209	43.918044
62885		55.379441	45.116112	43.939951
62886		55.358908	45.095601	43.953649
62887		55.340943	45.074769	43.968901
62888		55.329462	45.055295	43.985698
62889		55.316855	45.038125	44.001592
62890		55.303686	45.021423	44.022216
62891		55.292720	45.009802	44.047659
62892		55.279004	44.993897	44.071960
62893		55.265103	44.974785	44.102561
62894		55.255691	44.957008	44.135171
62895		55.246291	44.939197	44.170619
62896		55.233891	44.921644	44.202853
62897		55.215317	44.905558	44.227256
62898		55.196923	44.889916	44.250676
62899		55.173128	44.875655	44.266671
62900		55.145088	44.863237	44.274395
62901		55.121422	44.854443	44.282623
62902		55.108741	44.847009	44.289715
62903		55.107103	44.840675	44.299164
62904		55.117687	44.836190	44.312254
62905		55.136784	44.829148	44.323715
62906		55.161024	44.820985	44.332810
62907		55.182141	44.810048	44.338464
62908		55.199259	44.796629	44.340011
62909		55.214084	44.784750	44.339761
62910		55.232424	44.772108	44.338701
62911		55.248247	44.760631	44.334295
62912		55.265618	44.753147	44.330237
62913		55.279563	44.748678	44.325115
62914		55.291927	44.747390	44.319814
62915		55.296571	44.743879	44.308954
62916		55.305732	44.739988	44.296317
62917		55.317292	44.735054	44.280952
62918		55.333803	44.730238	44.268157
62919		55.361839	44.722957	44.262693
62920		55.397570	44.717528	44.266800
62921		55.427730	44.709928	44.273926
62922		55.451459	44.702645	44.283318
62923		55.467680	44.693561	44.292077
62924		55.472419	44.686970	44.296584
62925		55.470333	44.680213	44.298478
62926		55.461937	44.676462	44.296990
62927		55.456334	44.675108	44.297211
62928		55.455530	44.675918	44.297037
62929		55.461675	44.675214	44.298120
62930		55.474633	44.674692	44.301892
62931		55.490022	44.672639	44.312771
62932		55.501688	44.663786	44.323450
62933		55.506925	44.650942	44.337748
62934		55.503578	44.640637	44.347514
62935		55.494784	44.631010	44.358086
62936		55.484599	44.622555	44.368299
62937		55.472302	44.615988	44.378443
62938		55.460783	44.613338	44.388322
62939		55.454800	44.615128	44.396561
62940		55.450334	44.618665	44.400607
62941		55.448443	44.621697	44.399255
62942		55.456826	44.626366	44.403063
62943		55.472472	44.629782	44.409105
62944		55.490690	44.630535	44.415182
62945		55.505575	44.627664	44.419760
62946		55.521236	44.624077	44.426685
62947		55.528892	44.617914	44.426689
62948		55.543245	44.611602	44.430705
62949		55.553859	44.603156	44.434613
62950		55.551386	44.596043	44.432624
62951		55.550310	44.592043	44.429137
62952		55.544586	44.592693	44.426596
62953		55.534721	44.595165	44.421215
62954		55.538372	44.601908	44.420307
62955		55.545489	44.603565	44.420088
62956		55.547141	44.608331	44.417079
62957		55.550756	44.610701	44.417666
62958		55.548457	44.610684	44.417742
62959		55.539353	44.610050	44.418760
62960		55.528715	44.610244	44.420780
62961		55.518094	44.606053	44.420872
62962		55.510005	44.603135	44.420165
62963		55.505432	44.599847	44.417487
62964		55.507866	44.597055	44.415957
62965		55.509830	44.595475	44.416798
62966		55.518355	44.596024	44.417589
62967		55.525886	44.596510	44.415077
62968		55.536348	44.596851	44.413642
62969		55.540511	44.596096	44.411988
62970		55.537335	44.595637	44.412462
62971		55.526507	44.595744	44.408378
62972		55.510992	44.596158	44.400661
62973		55.495761	44.594994	44.394623
62974		55.483719	44.597042	44.388207
62975		55.484239	44.599330	44.380362
62976		55.491293	44.606026	44.371250
62977		55.496906	44.613891	44.358234
62978		55.505275	44.623874	44.342381
62979		55.512674	44.631767	44.323464
62980		55.525968	44.642592	44.305364
62981		55.546870	44.655088	44.289965
62982		55.566694	44.665207	44.267120
62983		55.585122	44.674512	44.243922
62984		55.605774	44.686977	44.220332
62985		55.617046	44.700045	44.191720
62986		55.625879	44.716607	44.161854
62987		55.635635	44.730818	44.129831
62988		55.640058	44.748513	44.090586
62989		55.647393	44.766581	44.049908
62990		55.664304	44.784522	44.013034
62991		55.682690	44.801288	43.976266
62992		55.706056	44.815905	43.943432
62993		55.731022	44.829712	43.912685
62994		55.756608	44.842755	43.881610
62995		55.774610	44.848979	43.853332
62996		55.790323	44.860669	43.831985
62997		55.802369	44.870298	43.816697
62998		55.806410	44.881739	43.796378
62999		55.808901	44.891537	43.780551
63000		55.813686	44.902163	43.765342
63001		55.814459	44.908390	43.739921
63002		55.817609	44.915934	43.708090
63003		55.823793	44.921506	43.678865
63004		55.830136	44.929461	43.654305
63005		55.834224	44.933822	43.640294
63006		55.839029	44.941772	43.633220
63007		55.838873	44.949559	43.623402
63008		55.830335	44.955601	43.606801
63009		55.810011	44.964442	43.579139
63010		55.795581	44.973755	43.550237
63011		55.790272	44.975119	43.516109
63012		55.787674	44.976197	43.474171
63013		55.798434	44.974825	43.433922
63014		55.822675	44.972706	43.401879
63015		55.846461	44.974045	43.376889
63016		55.863478	44.977256	43.364404
63017		55.868320	44.980869	43.355561
63018		55.865802	44.987049	43.353243
63019		55.848284	44.985390	43.348334
63020		55.831003	44.977110	43.342983
63021		55.810053	44.958124	43.334950
63022		55.780392	44.932606	43.320791
63023		55.749575	44.908269	43.314217
63024		55.718387	44.889039	43.318132
63025		55.667784	44.881059	43.328923
63026		55.599417	44.881274	43.335413
63027		55.514180	44.873926	43.329342
63028		55.428955	44.863534	43.326617
63029		55.355582	44.851444	43.335054
63030		55.294272	44.840453	43.343413
63031		55.241940	44.827764	43.356916
63032		55.191988	44.820780	43.368549
63033		55.143100	44.814065	43.381565
63034		55.105495	44.809192	43.389311
63035		55.065385	44.807764	43.395167
63036		55.025455	44.813419	43.402936
63037		54.990042	44.814071	43.408387
63038		54.957896	44.815619	43.411422
63039		54.920485	44.823250	43.413180
63040		54.885847	44.832532	43.418626
63041		54.854674	44.834426	43.417388
63042		54.834515	44.834636	43.421284
63043		54.808870	44.835561	43.428977
63044		54.780661	44.837574	43.430891
63045		54.760980	44.844073	43.430413
63046		54.743667	44.849468	43.424857
63047		54.732690	44.856183	43.423817
63048		54.726005	44.866187	43.424841
63049		54.719700	44.874976	43.423394
63050		54.715644	44.882309	43.421148
63051		54.708103	44.885935	43.414860
63052		54.696705	44.892190	43.410049
63053		54.684957	44.894922	43.403489
63054		54.682151	44.891312	43.393333
63055		54.685114	44.890112	43.387235
63056		54.698933	44.886927	43.387714
63057		54.710033	44.882039	43.384199
63058		54.726779	44.879293	43.380618
63059		54.745263	44.876143	43.374822
63060		54.766541	44.872767	43.373503
63061		54.783426	44.870367	43.368339
63062		54.796381	44.869877	43.366352
63063		54.800573	44.869141	43.364762
63064		54.793806	44.865680	43.354121
63065		54.786530	44.865378	43.345138
63066		54.790182	44.863112	43.342480
63067		54.798572	44.853863	43.340512
63068		54.809329	44.852578	43.344127
63069		54.820120	44.853627	43.348954
63070		54.824332	44.855291	43.346343
63071		54.822898	44.852797	43.338273
63072		54.820641	44.852794	43.332150
63073		54.823321	44.855194	43.335672
63074		54.829259	44.855837	43.345124
63075		54.832242	44.856669	43.347559
63076		54.839653	44.860782	43.357587
63077		54.844438	44.861276	43.361083
63078		54.845010	44.860873	43.364622
63079		54.843458	44.862041	43.374804
63080		54.841204	44.868382	43.384385
63081		54.836542	44.876113	43.392107
63082		54.839022	44.886827	43.402703
63083		54.839304	44.904106	43.413664
63084		54.849537	44.924481	43.424796
63085		54.857658	44.937607	43.430908
63086		54.873300	44.947470	43.435165
63087		54.892938	44.953445	43.442706
63088		54.915857	44.961915	43.457009
63089		54.930182	44.970948	43.472785
63090		54.939795	44.982706	43.489969
63091		54.939461	44.998389	43.499935
63092		54.939158	45.016586	43.515410
63093		54.939428	45.033151	43.537414
63094		54.941824	45.047833	43.556670
63095		54.943787	45.057312	43.567983
63096		54.947353	45.068416	43.571683
63097		54.958309	45.076850	43.571582
63098		54.974274	45.081117	43.566859
63099		54.983076	45.082400	43.559160
63100		54.992563	45.082993	43.554235
63101		54.995519	45.083797	43.553810
63102		54.999631	45.086785	43.562031
63103		55.000594	45.091537	43.573061
63104		54.995370	45.095065	43.588231
63105		54.986572	45.094892	43.599473
63106		54.978302	45.093609	43.608635
63107		54.977084	45.093207	43.617735
63108		54.982421	45.092568	43.625344
63109		54.986870	45.087552	43.628008
63110		55.000861	45.086658	43.635870
63111		55.010427	45.084521	43.641567
63112		55.022042	45.084762	43.648798
63113		55.027422	45.086444	43.654544
63114		55.030637	45.092084	43.663515
63115		55.031847	45.092905	43.671840
63116		55.026883	45.094836	43.679864
63117		55.028360	45.096086	43.692767
63118		55.027803	45.096626	43.704992
63119		55.033810	45.094846	43.718365
63120		55.047451	45.092556	43.733743
63121		55.065540	45.091842	43.749857
63122		55.085671	45.093920	43.763982
63123		55.105505	45.092833	43.778288
63124		55.119185	45.093231	43.788479
63125		55.132065	45.093948	43.803084
63126		55.139359	45.095038	43.817066
63127		55.139445	45.095097	43.833553
63128		55.138541	45.095265	43.850860
63129		55.135301	45.092109	43.865367
63130		55.137035	45.086748	43.883937
63131		55.136431	45.082878	43.900633
63132		55.140311	45.082627	43.921345
63133		55.142614	45.080809	43.943550
63134		55.146396	45.080297	43.965644
63135		55.139894	45.076290	43.979784
63136		55.139355	45.074864	43.998728
63137		55.135142	45.069349	44.014535
63138		55.134671	45.060860	44.033711
63139		55.138355	45.053197	44.056083
63140		55.144410	45.048804	44.081042
63141		55.139837	45.040156	44.097568
63142		55.141957	45.035663	44.116818
63143		55.141090	45.031366	44.128929
63144		55.138204	45.028958	44.138100
63145		55.132702	45.029658	44.149679
63146		55.127295	45.032790	44.163372
63147		55.123914	45.031246	44.184708
63148		55.111771	45.024894	44.203400
63149		55.105294	45.015890	44.229811
63150		55.105238	45.005883	44.256597
63151		55.105474	44.992303	44.282247
63152		55.106556	44.978327	44.306254
63153		55.104241	44.965833	44.325666
63154		55.102445	44.956578	44.341419
63155		55.099546	44.947547	44.353248
63156		55.101577	44.942966	44.366431
63157		55.101463	44.935940	44.378025
63158		55.106536	44.931819	44.393058
63159		55.114745	44.926126	44.406437
63160		55.129366	44.919450	44.420345
63161		55.143233	44.911125	44.435807
63162		55.155445	44.903250	44.450324
63163		55.169631	44.893371	44.467538
63164		55.181952	44.885814	44.477748
63165		55.192775	44.877393	44.487621
63166		55.199165	44.871664	44.494877
63167		55.203569	44.864270	44.498748
63168		55.211689	44.858903	44.502933
63169		55.224147	44.854402	44.509691
63170		55.237104	44.850849	44.514229
63171		55.251746	44.842468	44.521005
63172		55.266040	44.835643	44.523488
63173		55.287264	44.828956	44.533846
63174		55.304485	44.821837	44.542894
63175		55.314340	44.815732	44.551556
63176		55.320275	44.807324	44.559378
63177		55.323958	44.798345	44.562173
63178		55.328360	44.791061	44.563694
63179		55.333531	44.787606	44.570222
63180		55.338319	44.785381	44.576420
63181		55.343640	44.782313	44.581778
63182		55.350588	44.778566	44.584008
63183		55.364991	44.772097	44.584971
63184		55.384718	44.766265	44.590237
63185		55.401928	44.759127	44.604806
63186		55.411402	44.747255	44.619401
63187		55.411949	44.728501	44.634124
63188		55.410190	44.711026	44.648796
63189		55.403308	44.692944	44.664474
63190		55.391376	44.678380	44.681432
63191		55.373574	44.666377	44.693515
63192		55.352542	44.655531	44.702240
63193		55.334474	44.647426	44.711354
63194		55.320669	44.644893	44.716085
63195		55.315525	44.640076	44.718076
63196		55.321232	44.640211	44.717403
63197		55.332755	44.642681	44.717644
63198		55.354363	44.643701	44.713207
63199		55.375428	44.643923	44.705560
63200		55.399491	44.639972	44.696658
63201		55.418720	44.633886	44.684745
63202		55.438304	44.630207	44.679924
63203		55.451059	44.626800	44.674568
63204		55.457481	44.624192	44.673360
63205		55.451686	44.618152	44.667409
63206		55.438233	44.611985	44.664883
63207		55.420790	44.607772	44.668095
63208		55.401685	44.606360	44.672458
63209		55.383276	44.602134	44.675727
63210		55.369478	44.599606	44.677439
63211		55.355818	44.597408	44.680379
63212		55.355957	44.597888	44.681629
63213		55.360644	44.597918	44.683476
63214		55.363400	44.600320	44.681928
63215		55.364708	44.603796	44.679278
63216		55.364638	44.608495	44.673588
63217		55.358246	44.612208	44.664501
63218		55.355518	44.615263	44.657790
63219		55.349551	44.617795	44.646433
63220		55.344923	44.616912	44.631806
63221		55.350155	44.618456	44.623295
63222		55.353859	44.620836	44.612837
63223		55.350108	44.624152	44.596190
63224		55.347265	44.629436	44.576666
63225		55.345109	44.634312	44.555307
63226		55.346277	44.640064	44.531730
63227		55.346613	44.644158	44.503978
63228		55.348506	44.649521	44.475821
63229		55.356789	44.654126	44.446476
63230		55.365706	44.660302	44.409995
63231		55.380190	44.668124	44.376771
63232		55.403387	44.680107	44.345892
63233		55.422156	44.695471	44.316162
63234		55.430742	44.709550	44.287872
63235		55.432409	44.716793	44.256477
63236		55.425457	44.719663	44.224218
63237		55.411725	44.722710	44.190924
63238		55.400260	44.728591	44.161112
63239		55.392448	44.734090	44.129121
63240		55.391433	44.737429	44.095681
63241		55.397444	44.741232	44.065885
63242		55.407319	44.749155	44.041617
63243		55.414092	44.759231	44.010390
63244		55.422872	44.776044	43.979499
63245		55.434654	44.793259	43.947153
63246		55.449342	44.808220	43.910496
63247		55.465293	44.821611	43.878080
63248		55.482108	44.834792	43.844471
63249		55.501102	44.843956	43.813209
63250		55.513624	44.860539	43.780573
63251		55.538901	44.881980	43.750218
63252		55.569624	44.905107	43.709845
63253		55.589448	44.932242	43.662369
63254		55.615834	44.958723	43.608258
63255		55.647398	44.979429	43.551300
63256		55.692767	44.995886	43.499363
63257		55.748386	45.006631	43.452528
63258		55.811159	45.015703	43.408563
63259		55.872652	45.017260	43.366400
63260		55.930491	45.021151	43.340380
63261		55.971506	45.029022	43.319548
63262		55.994338	45.037798	43.296687
63263		55.995583	45.039666	43.261364
63264		55.980175	45.039151	43.218412
63265		55.963115	45.028056	43.178170
63266		55.955505	45.011432	43.149421
63267		55.956564	44.989868	43.135089
63268		55.966616	44.973319	43.129837
63269		55.960099	44.965714	43.128457
63270		55.948039	44.967386	43.124848
63271		55.930536	44.966135	43.110009
63272		55.906808	44.961622	43.081921
63273		55.888317	44.951307	43.059509
63274		55.886828	44.930208	43.047095
63275		55.882070	44.908522	43.038815
63276		55.881873	44.894851	43.035661
63277		55.883831	44.884280	43.026023
63278		55.873659	44.881778	43.018773
63279		55.856922	44.882143	43.016423
63280		55.832892	44.874280	43.010314
63281		55.807996	44.866985	43.001838
63282		55.796046	44.855501	43.004044
63283		55.778957	44.841345	42.996077
63284		55.755096	44.840699	42.990621
63285		55.737730	44.839515	42.995801
63286		55.717354	44.837948	42.999667
63287		55.690221	44.841250	43.008539
63288		55.668053	44.846811	43.020130
63289		55.645288	44.846661	43.022099
63290		55.623953	44.849625	43.026130
63291		55.601924	44.851131	43.040543
63292		55.585201	44.844586	43.053885
63293		55.559928	44.838512	43.056248
63294		55.539187	44.842829	43.068300
63295		55.514072	44.846216	43.079918
63296		55.495827	44.847170	43.090869
63297		55.483591	44.844199	43.101605
63298		55.466389	44.845151	43.112335
63299		55.433931	44.849553	43.123676
63300		55.404225	44.857964	43.129205
63301		55.376097	44.858858	43.127954
63302		55.351935	44.859669	43.122199
63303		55.337939	44.861709	43.126507
63304		55.336993	44.859813	43.128711
63305		55.335511	44.854670	43.128792
63306		55.334079	44.854038	43.139197
63307		55.325481	44.855032	43.143875
63308		55.306646	44.856955	43.137145
63309		55.295576	44.861337	43.131506
63310		55.287320	44.860820	43.124084
63311		55.281933	44.860245	43.118996
63312		55.289599	44.860202	43.124750
63313		55.300594	44.856911	43.125313
63314		55.308256	44.856873	43.125368
63315		55.319643	44.859079	43.126785
63316		55.328122	44.861263	43.122987
63317		55.332392	44.860501	43.115753
63318		55.347620	44.857469	43.110158
63319		55.355258	44.850893	43.100200
63320		55.362266	44.849759	43.094459
63321		55.368530	44.849087	43.092829
63322		55.375985	44.846284	43.086716
63323		55.383440	44.848405	43.088316
63324		55.393601	44.854184	43.093414
63325		55.401007	44.865320	43.096866
63326		55.391666	44.873751	43.094226
63327		55.381551	44.878116	43.082833
63328		55.370896	44.876388	43.078724
63329		55.359056	44.869825	43.077056
63330		55.354751	44.864743	43.083119
63331		55.353310	44.859690	43.094589
63332		55.358469	44.858489	43.109799
63333		55.357567	44.859275	43.115263
63334		55.359487	44.866443	43.124963
63335		55.363975	44.877556	43.134251
63336		55.370632	44.887207	43.143359
63337		55.379403	44.887800	43.146698
63338		55.388569	44.888905	43.151560
63339		55.394725	44.887930	43.162495
63340		55.396132	44.891758	43.177339
63341		55.384959	44.895875	43.187086
63342		55.372523	44.901579	43.195571
63343		55.355172	44.909479	43.205407
63344		55.344686	44.923936	43.219203
63345		55.345366	44.939710	43.234722
63346		55.353463	44.947541	43.240301
63347		55.365730	44.951686	43.238784
63348		55.394292	44.955256	43.249348
63349		55.426787	44.956422	43.263066
63350		55.455484	44.955329	43.278369
63351		55.464107	44.953225	43.289831
63352		55.461424	44.954206	43.304286
63353		55.455559	44.956969	43.326968
63354		55.454621	44.959570	43.353597
63355		55.450890	44.962740	43.372185
63356		55.456399	44.966590	43.386392
63357		55.461828	44.968349	43.400672
63358		55.473083	44.969604	43.416917
63359		55.482307	44.971072	43.435039
63360		55.482983	44.975320	43.454534
63361		55.472484	44.976381	43.470651
63362		55.449552	44.973281	43.481777
63363		55.416840	44.972706	43.493765
63364		55.388603	44.970790	43.515881
63365		55.355822	44.965524	43.527512
63366		55.327752	44.963985	43.537107
63367		55.309555	44.965277	43.549552
63368		55.300682	44.967201	43.560055
63369		55.291354	44.968663	43.572126
63370		55.288419	44.968834	43.585909
63371		55.278952	44.963235	43.596026
63372		55.272436	44.957501	43.610340
63373		55.264296	44.950426	43.627867
63374		55.254459	44.948156	43.645997
63375		55.237211	44.944832	43.663731
63376		55.218235	44.942019	43.681028
63377		55.196550	44.937454	43.699570
63378		55.179818	44.932722	43.721979
63379		55.161514	44.924695	43.739402
63380		55.146742	44.917723	43.760200
63381		55.128975	44.910907	43.779823
63382		55.116087	44.908233	43.804843
63383		55.094967	44.904900	43.825585
63384		55.073738	44.901002	43.846029
63385		55.050938	44.896046	43.862936
63386		55.033506	44.889773	43.881738
63387		55.018580	44.875993	43.902133
63388		55.009327	44.863713	43.927545
63389		54.994175	44.853877	43.950611
63390		54.974714	44.845261	43.973774
63391		54.948964	44.837950	43.992054
63392		54.925556	44.833522	44.010953
63393		54.899129	44.824633	44.028200
63394		54.873529	44.815072	44.047872
63395		54.852362	44.804793	44.072352
63396		54.834107	44.794351	44.095574
63397		54.815504	44.780999	44.120658
63398		54.799830	44.769485	44.144031
63399		54.782423	44.758873	44.166669
63400		54.775488	44.749739	44.191445
63401		54.766088	44.739628	44.212588
63402		54.758016	44.730020	44.229894
63403		54.748088	44.718705	44.248842
63404		54.746831	44.706909	44.269981
63405		54.743487	44.697301	44.292539
63406		54.748116	44.683371	44.320397
63407		54.755752	44.667735	44.349548
63408		54.768117	44.649544	44.378701
63409		54.772732	44.631494	44.406362
63410		54.770892	44.618536	44.431182
63411		54.757962	44.604859	44.451464
63412		54.747037	44.593266	44.469065
63413		54.729024	44.581281	44.472507
63414		54.720367	44.570405	44.473645
63415		54.714298	44.561248	44.471358
63416		54.722424	44.555273	44.477516
63417		54.741643	44.552818	44.484026
63418		54.773859	44.555375	44.496275
63419		54.800242	44.551527	44.509888
63420		54.827247	44.546293	44.522269
63421		54.846375	44.539224	44.536887
63422		54.855786	44.529730	44.553343
63423		54.856446	44.520510	44.571669
63424		54.851392	44.511326	44.587825
63425		54.837173	44.501423	44.596644
63426		54.830500	44.494877	44.604391
63427		54.828414	44.488208	44.609159
63428		54.841447	44.486987	44.613059
63429		54.862198	44.487963	44.611996
63430		54.897506	44.493249	44.616500
63431		54.935459	44.502310	44.620027
63432		54.971901	44.507587	44.623992
63433		55.008838	44.503321	44.626961
63434		55.043491	44.497923	44.630658
63435		55.066875	44.487281	44.638399
63436		55.085911	44.481868	44.651397
63437		55.094331	44.472658	44.663674
63438		55.099067	44.465905	44.675348
63439		55.095413	44.462370	44.682284
63440		55.087952	44.465097	44.682372
63441		55.081451	44.470406	44.677242
63442		55.085201	44.483389	44.670470
63443		55.098396	44.497907	44.663589
63444		55.127941	44.515900	44.652779
63445		55.163052	44.531399	44.639861
63446		55.209611	44.546107	44.630423
63447		55.253195	44.554323	44.621955
63448		55.297123	44.560812	44.619407
63449		55.328916	44.562296	44.616761
63450		55.350357	44.566615	44.615514
63451		55.356001	44.568568	44.611675
63452		55.350597	44.573652	44.610210
63453		55.333737	44.577713	44.608919
63454		55.317474	44.584740	44.608038
63455		55.298277	44.592305	44.607846
63456		55.284783	44.605569	44.611145
63457		55.280202	44.619597	44.614650
63458		55.282622	44.633691	44.615238
63459		55.289642	44.647390	44.610941
63460		55.302241	44.662015	44.603904
63461		55.313390	44.671825	44.596758
63462		55.327349	44.680937	44.588971
63463		55.329391	44.687877	44.578891
63464		55.325761	44.696943	44.571788
63465		55.311892	44.703322	44.563474
63466		55.288264	44.711721	44.555918
63467		55.261358	44.715231	44.550464
63468		55.233560	44.722816	44.544965
63469		55.207698	44.733017	44.542611
63470		55.189045	44.747784	44.533015
63471		55.169819	44.761829	44.516110
63472		55.161080	44.777069	44.499657
63473		55.161637	44.789440	44.487716
63474		55.163653	44.800377	44.474871
63475		55.169601	44.807296	44.458973
63476		55.180383	44.813633	44.445210
63477		55.185814	44.819410	44.432769
63478		55.187909	44.828330	44.417127
63479		55.178974	44.837001	44.398870
63480		55.160807	44.848691	44.377438
63481		55.132565	44.860183	44.353525
63482		55.106355	44.873755	44.326978
63483		55.086608	44.884550	44.302198
63484		55.077833	44.899926	44.284479
63485		55.068592	44.916714	44.259065
63486		55.069601	44.934240	44.240923
63487		55.066108	44.950781	44.222096
63488		55.064823	44.967769	44.199788
63489		55.060404	44.982219	44.169738
63490		55.061690	44.998084	44.139048
63491		55.063553	45.013468	44.114962
63492		55.056045	45.031861	44.082450
63493		55.051901	45.051388	44.051564
63494		55.054459	45.072765	44.022346
63495		55.053373	45.090379	43.991420
63496		55.053048	45.109602	43.959191
63497		55.055801	45.129259	43.930867
63498		55.069344	45.148549	43.907570
63499		55.085386	45.164968	43.886339
63500		55.104736	45.181634	43.864922
63501		55.122253	45.196947	43.847099
63502		55.140430	45.213497	43.826143
63503		55.150371	45.229461	43.806251
63504		55.151385	45.245084	43.788256
63505		55.142644	45.254487	43.767502
63506		55.129036	45.261159	43.746096
63507		55.114586	45.266618	43.731352
63508		55.104191	45.270019	43.723993
63509		55.093625	45.270959	43.720122
63510		55.078610	45.272721	43.714495
63511		55.067343	45.278727	43.709841
63512		55.066660	45.288158	43.707016
63513		55.067513	45.297035	43.696771
63514		55.067944	45.306790	43.678796
63515		55.061094	45.320464	43.653781
63516		55.063955	45.331546	43.638417
63517		55.066605	45.340043	43.626428
63518		55.071248	45.344153	43.623304
63519		55.069549	45.342899	43.620409
63520		55.061797	45.338547	43.615418
63521		55.047939	45.334320	43.609593
63522		55.040887	45.336200	43.606353
63523		55.038006	45.341138	43.599224
63524		55.051329	45.348877	43.590649
63525		55.067845	45.344097	43.560758
63526		55.074757	45.336995	43.508282
63527		55.079458	45.329881	43.461805
63528		55.093265	45.320881	43.433600
63529		55.099880	45.307185	43.424838
63530		55.092359	45.296705	43.427011
63531		55.061785	45.292657	43.429007
63532		55.005018	45.298304	43.425046
63533		54.950185	45.297238	43.417349
63534		54.898604	45.278645	43.396998
63535		54.832713	45.245269	43.358434
63536		54.777115	45.203326	43.331965
63537		54.731271	45.164053	43.326722
63538		54.688321	45.140380	43.336409
63539		54.635723	45.126192	43.342513
63540		54.580526	45.121228	43.338175
63541		54.528992	45.118169	43.327801
63542		54.491245	45.112666	43.319811
63543		54.455739	45.098892	43.307340
63544		54.429471	45.081261	43.299344
63545		54.401704	45.065001	43.294742
63546		54.370479	45.051571	43.288046
63547		54.336314	45.047763	43.286311
63548		54.304771	45.051620	43.282298
63549		54.283631	45.059821	43.282294
63550		54.281394	45.061422	43.285658
63551		54.281858	45.058274	43.285710
63552		54.272314	45.063915	43.292795
63553		54.247061	45.060313	43.293614
63554		54.214193	45.049773	43.275252
63555		54.190968	45.048386	43.266273
63556		54.178070	45.045964	43.267943
63557		54.170378	45.035171	43.264754
63558		54.169767	45.031455	43.267481
63559		54.174044	45.030474	43.275780
63560		54.175623	45.029562	43.278873
63561		54.174776	45.025500	43.272815
63562		54.171719	45.020227	43.261729
63563		54.164379	45.010135	43.253405
63564		54.159542	45.003409	43.247579
63565		54.161630	44.997121	43.245533
63566		54.165151	44.989509	43.245907
63567		54.167405	44.983645	43.245524
63568		54.171362	44.979043	43.244595
63569		54.170006	44.973859	43.242015
63570		54.166547	44.967951	43.233830
63571		54.156304	44.960034	43.218692
63572		54.162604	44.951756	43.215527
63573		54.171358	44.938188	43.215435
63574		54.175144	44.931117	43.220018
63575		54.175227	44.924942	43.226487
63576		54.174944	44.919684	43.228164
63577		54.172778	44.914857	43.224459
63578		54.169375	44.911242	43.217556
63579		54.163408	44.904342	43.211271
63580		54.160960	44.898507	43.208484
63581		54.158120	44.894559	43.210951
63582		54.153034	44.891849	43.210392
63583		54.150349	44.885899	43.210161
63584		54.154385	44.879135	43.213170
63585		54.159253	44.875052	43.222188
63586		54.159612	44.871389	43.227658
63587		54.161414	44.869058	43.228200
63588		54.161668	44.869579	43.229370
63589		54.156207	44.863902	43.225257
63590		54.155606	44.862545	43.226881
63591		54.161144	44.860059	43.236906
63592		54.173882	44.853464	43.243008
63593		54.181711	44.849432	43.251931
63594		54.185085	44.850655	43.268438
63595		54.182197	44.846858	43.279345
63596		54.171909	44.841118	43.282411
63597		54.157718	44.838143	43.284581
63598		54.141124	44.836069	43.285042
63599		54.128455	44.834232	43.283720
63600		54.126890	44.833202	43.287340
63601		54.127513	44.828102	43.287530
63602		54.133261	44.828191	43.294522
63603		54.141653	44.832511	43.310239
63604		54.145187	44.841075	43.322286
63605		54.138006	44.845301	43.326065
63606		54.123476	44.852435	43.327998
63607		54.103495	44.858722	43.328065
63608		54.085116	44.863520	43.321680
63609		54.074989	44.862735	43.311209
63610		54.082758	44.857761	43.305874
63611		54.093746	44.849244	43.302054
63612		54.115934	44.841530	43.305404
63613		54.140442	44.837304	43.309382
63614		54.170066	44.840226	43.319464
63615		54.188165	44.837053	43.322988
63616		54.212119	44.842772	43.332307
63617		54.223650	44.851591	43.334165
63618		54.234648	44.861329	43.337182
63619		54.251835	44.862840	43.341016
63620		54.266146	44.864020	43.338150
63621		54.269391	44.859787	43.317942
63622		54.293810	44.856833	43.315686
63623		54.325036	44.854907	43.333411
63624		54.351591	44.855464	43.355660
63625		54.361091	44.855453	43.369918
63626		54.356414	44.858313	43.375505
63627		54.344247	44.860088	43.377864
63628		54.346295	44.865314	43.397405
63629		54.355173	44.861943	43.422006
63630		54.365144	44.858293	43.442412
63631		54.366032	44.854135	43.451516
63632		54.369597	44.853401	43.457509
63633		54.372070	44.852711	43.461871
63634		54.372739	44.854519	43.468372
63635		54.366542	44.852255	43.480366
63636		54.349608	44.849538	43.490923
63637		54.333062	44.841674	43.505198
63638		54.323933	44.834961	43.528530
63639		54.314018	44.828785	43.543659
63640		54.303340	44.824579	43.550433
63641		54.298654	44.821084	43.557401
63642		54.298376	44.818251	43.566083
63643		54.304827	44.822515	43.581870
63644		54.296574	44.830555	43.587037
63645		54.280535	44.818211	43.567831
63646		54.299742	44.808275	43.580664
63647		54.307699	44.807165	43.601209
63648		54.311023	44.799201	43.608079
63649		54.330228	44.794095	43.614505
63650		54.343553	44.793396	43.620576
63651		54.349104	44.785945	43.616255
63652		54.376500	44.776898	43.624454
63653		54.409329	44.774175	43.644416
63654		54.433684	44.774131	43.659901
63655		54.452805	44.759377	43.651674
63656		54.496880	44.750338	43.668544
63657		54.524561	44.747147	43.689766
63658		54.543397	44.740710	43.697953
63659		54.554037	44.731333	43.690762
63660		54.571010	44.720796	43.693985
63661		54.588148	44.713315	43.701664
63662		54.611955	44.707387	43.714465
63663		54.625554	44.698734	43.725656
63664		54.635682	44.688521	43.733437
63665		54.642813	44.676155	43.738253
63666		54.657871	44.668217	43.751361
63667		54.670936	44.660802	43.767532
63668		54.685575	44.654376	43.781971
63669		54.705458	44.649000	43.797846
63670		54.732612	44.640164	43.822828
63671		54.755752	44.627209	43.852982
63672		54.776602	44.615656	43.886117
63673		54.786287	44.603186	43.908745
63674		54.792473	44.593564	43.927025
63675		54.787413	44.580746	43.938862
63676		54.783690	44.568139	43.950702
63677		54.777149	44.556512	43.964761
63678		54.773756	44.547028	43.976160
63679		54.777473	44.540555	43.986330
63680		54.789331	44.536376	43.996455
63681		54.812608	44.534080	44.008680
63682		54.846907	44.529780	44.024889
63683		54.879572	44.522131	44.038767
63684		54.919904	44.511700	44.056484
63685		54.959734	44.498330	44.075987
63686		54.997176	44.485904	44.093854
63687		55.027461	44.473165	44.111327
63688		55.048985	44.464303	44.123276
63689		55.060241	44.457104	44.132649
63690		55.068419	44.453184	44.138475
63691		55.070574	44.447355	44.140777
63692		55.079757	44.441474	44.146939
63693		55.085064	44.433650	44.143645
63694		55.104859	44.431787	44.147121
63695		55.129325	44.427394	44.150960
63696		55.161888	44.423314	44.157867
63697		55.193463	44.417520	44.168816
63698		55.224300	44.411904	44.182546
63699		55.245063	44.408324	44.192587
63700		55.260264	44.407338	44.207224
63701		55.263880	44.409447	44.217526
63702		55.257380	44.410379	44.220824
63703		55.243451	44.410187	44.217749
63704		55.232008	44.410552	44.213580
63705		55.226367	44.411230	44.210797
63706		55.231297	44.415053	44.208300
63707		55.248082	44.415200	44.207147
63708		55.270265	44.419814	44.201487
63709		55.299461	44.425062	44.190860
63710		55.331105	44.431311	44.184092
63711		55.359983	44.438173	44.177327
63712		55.383985	44.444755	44.171903
63713		55.394183	44.447522	44.165806
63714		55.399874	44.453199	44.168452
63715		55.385949	44.459698	44.168449
63716		55.360448	44.463793	44.164101
63717		55.326023	44.464154	44.159292
63718		55.305726	44.462571	44.160615
63719		55.289552	44.460128	44.167156
63720		55.278210	44.463406	44.174495
63721		55.266527	44.468384	44.176161
63722		55.259627	44.474391	44.170223
63723		55.261389	44.480153	44.160895
63724		55.272673	44.487077	44.160154
63725		55.281001	44.490265	44.158574
63726		55.290233	44.492545	44.157266
63727		55.294479	44.495247	44.151344
63728		55.296699	44.497485	44.145490
63729		55.292595	44.499349	44.142048
63730		55.285555	44.503035	44.142500
63731		55.268022	44.501679	44.142875
63732		55.249265	44.498809	44.136363
63733		55.230983	44.499670	44.127181
63734		55.228023	44.503291	44.121803
63735		55.226164	44.509804	44.113096
63736		55.228729	44.521245	44.099867
63737		55.233181	44.532380	44.080206
63738		55.247171	44.544581	44.061208
63739		55.260568	44.553410	44.036952
63740		55.279022	44.562093	44.016425
63741		55.305585	44.573851	43.995086
63742		55.329869	44.613370	43.989610
63743		55.282600	44.616950	43.911118
63744		55.327646	44.615255	43.867220
63745		55.330977	44.635590	43.863379
63746		55.338423	44.637503	43.832743
63747		55.374288	44.643541	43.811433
63748		55.376382	44.659518	43.783911
63749		55.382821	44.673972	43.742802
63750		55.382170	44.689301	43.698906
63751		55.365378	44.700724	43.657852
63752		55.341130	44.705899	43.610145
63753		55.316952	44.698269	43.556650
63754		55.295199	44.690837	43.500292
63755		55.273524	44.681525	43.437344
63756		55.250072	44.669522	43.363419
63757		55.218609	44.650373	43.280518
63758		55.192095	44.634060	43.216393
63759		55.170076	44.622595	43.174293
63760		55.150408	44.614586	43.145738
63761		55.124556	44.606353	43.116982
63762		55.095195	44.603393	43.090792
63763		55.061354	44.599792	43.068129
63764		55.025453	44.602258	43.052893
63765		54.980834	44.605993	43.036783
63766		54.937968	44.612991	43.017317
63767		54.892203	44.620012	42.988202
63768		54.859755	44.631786	42.957412
63769		54.850830	44.641854	42.934575
63770		54.855075	44.645774	42.914665
63771		54.861626	44.644041	42.896058
63772		54.879338	44.642835	42.887963
63773		54.881343	44.645155	42.883182
63774		54.874532	44.659410	42.889746
63775		54.846337	44.674113	42.884337
63776		54.795483	44.685136	42.858086
63777		54.730695	44.688833	42.817722
63778		54.680761	44.683371	42.783476
63779		54.650775	44.661331	42.761243
63780		54.627637	44.635631	42.760314
63781		54.609686	44.612185	42.780918
63782		54.601937	44.596947	42.821481
63783		54.573668	44.593968	42.858372
63784		54.525599	44.607964	42.887631
63785		54.452761	44.627547	42.892285
63786		54.373378	44.643812	42.880687
63787		54.303365	44.643996	42.871363
63788		54.253003	44.637610	42.875634
63789		54.219994	44.633407	42.889844
63790		54.199927	44.631671	42.909743
63791		54.183004	44.634771	42.922613
63792		54.166382	44.644607	42.932864
63793		54.138242	44.665178	42.947622
63794		54.102367	44.685739	42.962885
63795		54.061724	44.704417	42.971285
63796		54.016444	44.723178	42.979808
63797		53.978422	44.743552	42.991923
63798		53.945316	44.763016	43.001744
63799		53.928215	44.778968	43.010407
63800		53.925598	44.796235	43.022708
63801		53.925230	44.816909	43.038028
63802		53.924659	44.827562	43.052771
63803		53.915526	44.827520	43.057882
63804		53.905845	44.832982	43.068354
63805		53.888927	44.842168	43.071308
63806		53.875960	44.853260	43.075674
63807		53.869158	44.863029	43.080096
63808		53.870780	44.873596	43.088843
63809		53.864598	44.882643	43.095538
63810		53.857281	44.897759	43.102402
63811		53.849213	44.909037	43.105067
63812		53.847184	44.913464	43.106596
63813		53.850896	44.915576	43.111365
63814		53.855390	44.918794	43.119041
63815		53.857845	44.924795	43.123573
63816		53.864036	44.934009	43.124488
63817		53.874069	44.943604	43.126999
63818		53.888812	44.952501	43.135969
63819		53.900128	44.958815	43.148742
63820		53.905419	44.966798	43.162905
63821		53.895395	44.978662	43.175620
63822		53.882635	44.985532	43.183540
63823		53.863427	44.984867	43.184346
63824		53.838877	44.989662	43.186174
63825		53.812506	45.002335	43.192902
63826		53.791530	45.008567	43.199406
63827		53.771502	45.010704	43.203388
63828		53.756785	45.018469	43.218293
63829		53.739819	45.027803	43.226783
63830		53.730378	45.037838	43.231770
63831		53.725668	45.036158	43.230219
63832		53.726118	45.034930	43.234818
63833		53.724159	45.040267	43.247295
63834		53.717783	45.045909	43.255688
63835		53.707571	45.051970	43.253688
63836		53.701889	45.056345	43.249216
63837		53.689568	45.061883	43.242802
63838		53.682804	45.072899	43.238583
63839		53.683273	45.078248	43.233146
63840		53.698316	45.075893	43.232266
63841		53.718912	45.076046	43.243713
63842		53.739240	45.084499	43.263346
63843		53.742937	45.090881	43.266750
63844		53.734550	45.093642	43.261443
63845		53.726146	45.099366	43.260554
63846		53.718795	45.111744	43.264157
63847		53.709403	45.128881	43.266427
63848		53.701011	45.144905	43.258408
63849		53.706817	45.152883	43.244918
63850		53.722371	45.146817	43.232647
63851		53.749367	45.142955	43.235945
63852		53.765242	45.143229	43.245433
63853		53.759345	45.140487	43.232217
63854		53.740902	45.139272	43.202243
63855		53.715840	45.139349	43.170587
63856		53.708719	45.144235	43.155251
63857		53.717009	45.154167	43.156691
63858		53.734678	45.155362	43.156475
63859		53.760492	45.148060	43.146617
63860		53.795794	45.142118	43.146056
63861		53.833741	45.145143	43.152150
63862		53.862756	45.149779	43.154236
63863		53.875768	45.154094	43.146516
63864		53.883329	45.157022	43.138574
63865		53.882700	45.160110	43.137206
63866		53.881019	45.165626	43.145095
63867		53.882112	45.166730	43.158928
63868		53.880700	45.168303	43.169273
63869		53.875764	45.168708	43.173149
63870		53.878911	45.168786	43.176824
63871		53.887793	45.171461	43.186018
63872		53.902382	45.173345	43.196625
63873		53.917763	45.172501	43.202084
63874		53.931043	45.173382	43.211612
63875		53.935163	45.172080	43.221105
63876		53.935433	45.168199	43.230291
63877		53.931134	45.161225	43.236309
63878		53.927504	45.157330	43.245273
63879		53.918089	45.149799	43.246904
63880		53.914384	45.143312	43.251431
63881		53.914123	45.138775	43.258934
63882		53.920964	45.134279	43.273105
63883		53.930558	45.127674	43.287353
63884		53.945619	45.121871	43.303748
63885		53.959021	45.114945	43.319092
63886		53.978061	45.106342	43.334043
63887		53.998438	45.097116	43.347786
63888		54.025434	45.086266	43.361253
63889		54.047277	45.073449	43.371285
63890		54.075499	45.061316	43.383474
63891		54.101273	45.050436	43.390544
63892		54.133827	45.038973	43.400273
63893		54.168478	45.025932	43.411272
63894		54.208185	45.011067	43.429896
63895		54.242301	44.999823	43.453023
63896		54.275175	44.992058	43.480917
63897		54.290917	44.984011	43.499554
63898		54.299942	44.973277	43.509822
63899		54.310105	44.958595	43.513286
63900		54.327696	44.944286	43.516751
63901		54.352816	44.932261	43.527141
63902		54.390759	44.919090	43.538561
63903		54.434179	44.908693	43.562007
63904		54.469157	44.903464	43.590042
63905		54.487336	44.894780	43.616411
63906		54.488779	44.885652	43.633714
63907		54.478876	44.871278	43.644535
63908		54.468046	44.856401	43.652627
63909		54.465000	44.839830	43.667387
63910		54.470518	44.826944	43.690463
63911		54.477349	44.813010	43.714971
63912		54.489610	44.799967	43.744496
63913		54.501605	44.787030	43.777766
63914		54.508909	44.774133	43.808645
63915		54.509316	44.761239	43.829803
63916		54.508688	44.747895	43.853595
63917		54.497547	44.735584	43.869850
63918		54.491176	44.726774	43.886125
63919		54.484449	44.715245	43.900067
63920		54.482534	44.705684	43.916506
63921		54.487572	44.695789	43.928557
63922		54.504600	44.689936	43.942057
63923		54.524370	44.679845	43.957817
63924		54.553148	44.674060	43.974424
63925		54.580562	44.663231	43.989558
63926		54.615925	44.651995	44.007229
63927		54.645066	44.638422	44.021895
63928		54.672486	44.626656	44.034559
63929		54.693294	44.614072	44.043159
63930		54.711910	44.604504	44.049500
63931		54.734600	44.595789	44.055109
63932		54.763621	44.589471	44.063444
63933		54.793653	44.584023	44.073785
63934		54.823419	44.577251	44.083095
63935		54.848683	44.567804	44.090895
63936		54.878227	44.558579	44.101372
63937		54.909506	44.547262	44.111930
63938		54.939635	44.539365	44.122219
63939		54.966167	44.530752	44.133257
63940		54.997336	44.525332	44.145418
63941		55.023348	44.519319	44.148587
63942		55.051555	44.513157	44.150486
63943		55.079364	44.506277	44.147571
63944		55.110663	44.502096	44.144040
63945		55.142485	44.495246	44.141062
63946		55.175841	44.493429	44.141353
63947		55.200775	44.489362	44.144431
63948		55.228227	44.487778	44.146082
63949		55.246066	44.485615	44.149174
63950		55.257923	44.482484	44.149829
63951		55.262739	44.477822	44.148760
63952		55.265556	44.475392	44.151449
63953		55.267701	44.473913	44.155268
63954		55.269059	44.474666	44.159731
63955		55.275357	44.473630	44.165138
63956		55.283043	44.472823	44.170647
63957		55.289571	44.467838	44.173439
63958		55.299945	44.463977	44.176742
63959		55.304310	44.460972	44.182248
63960		55.304740	44.459812	44.189262
63961		55.301510	44.455594	44.195463
63962		55.297562	44.451615	44.204559
63963		55.289242	44.449321	44.210752
63964		55.283328	44.449179	44.214183
63965		55.275099	44.450672	44.211938
63966		55.267684	44.453590	44.209889
63967		55.260910	44.453429	44.201058
63968		55.254783	44.453858	44.191024
63969		55.249586	44.454869	44.181575
63970		55.247086	44.459239	44.172326
63971		55.244668	44.464219	44.165450
63972		55.251366	44.469150	44.162430
63973		55.247158	44.474493	44.154455
63974		55.240562	44.483265	44.149619
63975		55.228676	44.489348	44.142253
63976		55.212025	44.498060	44.137643
63977		55.191103	44.505993	44.127535
63978		55.165534	44.508880	44.104698
63979		55.157144	44.504659	44.087754
63980		55.158111	44.505536	44.079606
63981		55.169958	44.507161	44.077124
63982		55.185908	44.508252	44.069477
63983		55.201506	44.510982	44.060832
63984		55.213200	44.515541	44.053455
63985		55.216827	44.518148	44.042179
63986		55.214253	44.520198	44.031589
63987		55.200087	44.521099	44.019462
63988		55.187432	44.522244	44.002400
63989		55.177370	44.523127	43.987468
63990		55.180128	44.528005	43.979521
63991		55.178517	44.532111	43.966578
63992		55.181524	44.538863	43.952467
63993		55.188175	44.543405	43.938318
63994		55.194143	44.548708	43.929403
63995		55.195330	44.552463	43.917548
63996		55.197871	44.555340	43.896080
63997		55.203166	44.559085	43.881424
63998		55.213688	44.562672	43.867661
63999		55.222574	44.565701	43.855211
64000		55.228285	44.570085	43.840435
64001		55.230870	44.574144	43.821920
64002		55.232100	44.579072	43.801672
64003		55.237755	44.583617	43.787528
64004		55.240006	44.591200	43.774444
64005		55.237383	44.595304	43.761493
64006		55.229285	44.601874	43.744844
64007		55.217459	44.605481	43.730328
64008		55.204459	44.610456	43.715685
64009		55.194297	44.615194	43.697787
64010		55.191338	44.621805	43.678532
64011		55.188364	44.628932	43.659362
64012		55.186294	44.638590	43.632976
64013		55.185727	44.646024	43.607136
64014		55.196408	44.653105	43.580722
64015		55.206410	44.659939	43.559803
64016		55.212755	44.665060	43.539635
64017		55.214419	44.667161	43.521196
64018		55.210458	44.668041	43.508007
64019		55.195667	44.671560	43.490718
64020		55.183534	44.678191	43.474457
64021		55.170232	44.684838	43.456454
64022		55.153208	44.692637	43.424548
64023		55.139517	44.698958	43.387207
64024		55.137294	44.708012	43.351675
64025		55.143530	44.714677	43.322481
64026		55.160010	44.721436	43.297172
64027		55.171086	44.723968	43.274779
64028		55.184119	44.728447	43.258907
64029		55.187718	44.728706	43.246059
64030		55.180578	44.731015	43.232810
64031		55.154854	44.736669	43.211562
64032		55.134446	44.742605	43.190816
64033		55.116392	44.742800	43.165920
64034		55.095420	44.740340	43.138237
64035		55.074145	44.737227	43.105786
64036		55.068307	44.735083	43.080848
64037		55.071718	44.739244	43.067808
64038		55.065953	44.734715	43.043213
64039		55.061287	44.731609	43.022845
64040		55.044658	44.718077	42.987720
64041		55.030288	44.701294	42.953204
64042		55.032205	44.682678	42.927458
64043		55.021643	44.658443	42.889478
64044		55.004512	44.629198	42.841587
64045		54.982714	44.596315	42.788740
64046		54.966578	44.564624	42.741852
64047		54.960253	44.541829	42.717112
64048		54.956341	44.534018	42.706199
64049		54.943146	44.535294	42.698383
64050		54.927030	44.538801	42.693657
64051		54.913591	44.528293	42.683744
64052		54.893538	44.509634	42.673640
64053		54.881675	44.480811	42.666970
64054		54.863580	44.445799	42.653846
64055		54.834362	44.414929	42.635335
64056		54.802509	44.400403	42.625382
64057		54.775330	44.396174	42.627934
64058		54.748479	44.394682	42.634939
64059		54.711999	44.397559	42.647612
64060		54.674501	44.399596	42.660711
64061		54.639276	44.400014	42.666359
64062		54.609235	44.405523	42.680427
64063		54.569987	44.410648	42.689123
64064		54.524708	44.411818	42.689554
64065		54.481438	44.418790	42.695405
64066		54.449861	44.430647	42.699603
64067		54.427549	44.437552	42.706409
64068		54.405415	44.446495	42.711030
64069		54.392967	44.453175	42.718884
64070		54.387136	44.460535	42.725799
64071		54.384768	44.464490	42.727702
64072		54.383402	44.469971	42.731358
64073		54.384626	44.473241	42.735486
64074		54.386342	44.479594	42.740838
64075		54.383879	44.486474	42.751374
64076		54.382657	44.488951	42.759923
64077		54.375369	44.493267	42.763484
64078		54.368813	44.502422	42.764002
64079		54.358483	44.505723	42.758829
64080		54.369483	44.511258	42.754573
64081		54.395015	44.577734	42.806492
64082		54.301292	44.554795	42.730152
64083		54.335827	44.509430	42.690933
64084		54.376911	44.515255	42.774010
64085		54.397799	44.521467	42.793295
64086		54.404451	44.537769	42.770564
64087		54.393391	44.555121	42.745794
64088		54.411794	44.568154	42.739837
64089		54.435239	44.559824	42.736339
64090		54.459138	44.559050	42.758104
64091		54.455712	44.569753	42.783285
64092		54.436977	44.571189	42.773137
64093		54.440318	44.566317	42.761241
64094		54.458521	44.579921	42.767371
64095		54.472698	44.605347	42.774532
64096		54.467912	44.617895	42.766012
64097		54.466526	44.604720	42.752978
64098		54.488340	44.596630	42.770175
64099		54.505935	44.609618	42.797918
64100		54.503521	44.625933	42.798253
64101		54.486752	44.633573	42.779588
64102		54.487960	44.633352	42.777546
64103		54.500034	44.635529	42.797153
64104		54.502862	44.645623	42.816817
64105		54.490082	44.655313	42.818399
64106		54.478486	44.665583	42.807853
64107		54.484902	44.672655	42.803498
64108		54.505176	44.677258	42.808053
64109		54.514766	44.683385	42.812569
64110		54.519822	44.699648	42.825024
64111		54.514810	44.711026	42.827593
64112		54.504788	44.716622	42.822448
64113		54.491292	44.717578	42.818479
64114		54.478356	44.726508	42.823326
64115		54.466164	44.742131	42.827289
64116		54.466138	44.764058	42.833536
64117		54.465428	44.782515	42.835123
64118		54.469359	44.790200	42.830212
64119		54.474877	44.792924	42.824482
64120		54.488248	44.797799	42.830477
64121		54.497547	44.803612	42.838898
64122		54.504769	44.815250	42.848142
64123		54.502161	44.829834	42.852724
64124		54.501577	44.850284	42.857925
64125		54.498495	44.877499	42.867823
64126		54.493332	44.899008	42.874830
64127		54.484265	44.911751	42.870132
64128		54.482150	44.919339	42.865061
64129		54.486630	44.927354	42.869506
64130		54.495655	44.940510	42.877085
64131		54.498916	44.954315	42.878428
64132		54.498858	44.967135	42.880888
64133		54.503919	44.982107	42.899278
64134		54.511604	44.992956	42.918033
64135		54.519640	44.996543	42.933253
64136		54.536721	44.997479	42.949798
64137		54.552904	44.993957	42.957743
64138		54.563880	44.993222	42.960397
64139		54.566635	44.992970	42.963681
64140		54.564194	44.996156	42.968740
64141		54.556181	44.999439	42.978393
64142		54.544303	45.002450	42.984549
64143		54.531089	45.007147	42.989683
64144		54.516624	45.014831	42.992628
64145		54.494465	45.019312	42.992212
64146		54.471895	45.027214	42.994750
64147		54.452373	45.031478	43.000976
64148		54.442724	45.036731	43.008721
64149		54.430604	45.039004	43.009584
64150		54.422370	45.044699	43.010042
64151		54.419863	45.050192	43.010215
64152		54.420840	45.058064	43.012365
64153		54.416363	45.066406	43.018428
64154		54.410426	45.078334	43.030167
64155		54.393895	45.085081	43.040665
64156		54.374304	45.095750	43.054814
64157		54.351853	45.103358	43.071290
64158		54.327379	45.109969	43.085461
64159		54.305966	45.115706	43.104812
64160		54.291537	45.120587	43.122619
64161		54.278638	45.122383	43.136746
64162		54.274839	45.126131	43.152719
64163		54.277604	45.131754	43.173354
64164		54.286387	45.134321	43.195453
64165		54.296638	45.135133	43.225262
64166		54.310029	45.136037	43.259470
64167		54.315346	45.135334	43.293745
64168		54.313799	45.134485	43.329145
64169		54.306728	45.128480	43.358666
64170		54.295015	45.122296	43.383945
64171		54.282434	45.116363	43.401282
64172		54.284143	45.117011	43.423064
64173		54.296232	45.116411	43.442486
64174		54.314697	45.118092	43.462271
64175		54.335351	45.118282	43.479508
64176		54.359303	45.115992	43.496068
64177		54.380304	45.110252	43.510877
64178		54.406947	45.102467	43.523601
64179		54.438658	45.091241	43.534919
64180		54.467547	45.080659	43.552643
64181		54.484329	45.072552	43.568623
64182		54.496766	45.065500	43.583313
64183		54.506046	45.057949	43.591485
64184		54.517362	45.052113	43.600926
64185		54.532466	45.043747	43.605871
64186		54.553195	45.036151	43.612788
64187		54.583103	45.025738	43.627300
64188		54.614311	45.015741	43.642955
64189		54.642081	45.005361	43.660182
64190		54.668532	44.993604	43.676456
64191		54.688861	44.979937	43.688821
64192		54.706686	44.967020	43.701018
64193		54.719858	44.952823	43.708941
64194		54.731721	44.937434	43.718576
64195		54.742472	44.920529	43.728803
64196		54.757436	44.906027	43.742564
64197		54.772463	44.889512	43.751682
64198		54.798326	44.874149	43.762003
64199		54.820775	44.857987	43.767278
64200		54.843574	44.842507	43.775132
64201		54.860634	44.827897	43.781383
64202		54.872461	44.816317	43.785502
64203		54.881923	44.800448	43.789562
64204		54.892986	44.784907	43.793238
64205		54.907839	44.767958	43.800659
64206		54.924102	44.752932	43.806101
64207		54.934990	44.735907	43.810746
64208		54.947430	44.721163	43.812674
64209		54.957674	44.706352	43.810620
64210		54.971046	44.695273	43.804989
64211		54.987597	44.680391	43.797471
64212		55.002277	44.671102	43.785449
64213		55.018952	44.661452	43.785369
64214		55.040085	44.652699	43.790318
64215		55.060071	44.640053	43.796405
64216		55.077583	44.626208	43.806841
64217		55.084083	44.611215	43.816805
64218		55.084590	44.598008	43.825807
64219		55.081944	44.582496	43.831371
64220		55.079155	44.572380	43.836554
64221		55.077310	44.567065	43.843320
64222		55.076874	44.563979	43.850019
64223		55.084686	44.561827	43.856131
64224		55.104548	44.559170	43.862630
64225		55.129858	44.553140	43.866225
64226		55.162615	44.548398	43.879249
64227		55.190024	44.541360	43.891645
64228		55.213993	44.532999	43.903622
64229		55.231962	44.522698	43.911182
64230		55.239685	44.514907	43.912022
64231		55.240918	44.511040	43.911598
64232		55.234178	44.513131	43.910213
64233		55.226385	44.517365	43.905598
64234		55.224489	44.521355	43.906706
64235		55.223925	44.526980	43.912456
64236		55.224532	44.532716	43.922366
64237		55.226489	44.531844	43.936056
64238		55.233137	44.530176	43.953783
64239		55.240117	44.523558	43.973195
64240		55.245022	44.515278	43.986794
64241		55.243214	44.504149	43.996502
64242		55.242901	44.499860	44.006905
64243		55.238410	44.501562	44.012806
64244		55.240128	44.505116	44.019942
64245		55.237549	44.505935	44.019868
64246		55.242488	44.509934	44.024330
64247		55.250606	44.514846	44.032340
64248		55.259295	44.522520	44.042160
64249		55.264729	44.527275	44.041964
64250		55.268892	44.528364	44.036948
64251		55.267146	44.526393	44.033705
64252		55.266498	44.524402	44.034528
64253		55.264634	44.522479	44.034018
64254		55.259372	44.525617	44.034400
64255		55.243537	44.531739	44.026945
64256		55.231467	44.533709	44.010411
64257		55.222079	44.535372	43.993317
64258		55.220081	44.536441	43.988538
64259		55.217860	44.533726	43.987515
64260		55.212871	44.531239	43.987166
64261		55.200733	44.527918	43.976277
64262		55.197996	44.529260	43.967916
64263		55.195006	44.530299	43.958536
64264		55.192922	44.534828	43.951344
64265		55.191007	44.538247	43.943511
64266		55.185955	44.544664	43.931369
64267		55.178007	44.553350	43.913441
64268		55.170527	44.563867	43.891118
64269		55.166886	44.571993	43.863386
64270		55.167305	44.582120	43.839912
64271		55.169284	44.589529	43.814425
64272		55.174085	44.598013	43.789587
64273		55.180618	44.602329	43.764804
64274		55.193110	44.606255	43.743007
64275		55.202409	44.607844	43.717810
64276		55.214247	44.608253	43.697159
64277		55.218265	44.612296	43.678929
64278		55.217812	44.616997	43.660041
64279		55.210509	44.620560	43.640110
64280		55.206167	44.625622	43.622400
64281		55.196227	44.628005	43.603045
64282		55.188347	44.634357	43.587454
64283		55.184203	44.638826	43.573515
64284		55.177918	44.644308	43.557513
64285		55.170532	44.650289	43.541837
64286		55.165855	44.657330	43.527241
64287		55.157983	44.662566	43.513777
64288		55.156147	44.667272	43.500465
64289		55.156673	44.672928	43.485954
64290		55.165332	44.684876	43.474832
64291		55.172694	44.695546	43.454133
64292		55.184639	44.704971	43.433639
64293		55.197290	44.714148	43.414694
64294		55.210759	44.724823	43.398334
64295		55.222804	44.733312	43.384338
64296		55.239324	44.742114	43.370679
64297		55.254313	44.750678	43.359446
64298		55.265980	44.762220	43.346365
64299		55.277902	44.774627	43.332193
64300		55.290645	44.786180	43.319040
64301		55.294540	44.794154	43.300609
64302		55.311305	44.799121	43.284897
64303		55.332802	44.801367	43.266913
64304		55.359789	44.808221	43.250481
64305		55.388265	44.816394	43.232308
64306		55.427762	44.826304	43.219558
64307		55.461190	44.832669	43.207001
64308		55.496055	44.839740	43.196670
64309		55.535639	44.846628	43.188548
64310		55.579553	44.859169	43.175848
64311		55.620502	44.880418	43.159481
64312		55.676700	44.911066	43.140149
64313		55.743911	44.944900	43.113228
64314		55.839657	44.978579	43.092308
64315		55.960700	45.007959	43.075169
64316		56.091252	45.037892	43.064319
64317		56.220451	45.067496	43.055672
64318		56.337996	45.093417	43.044871
64319		56.430946	45.117633	43.033818
64320		56.499931	45.142727	43.023082
64321		56.535138	45.160835	42.996588
64322		56.546011	45.184015	42.958032
64323		56.540606	45.207874	42.915868
64324		56.532608	45.215140	42.869250
64325		56.519136	45.201712	42.822717
64326		56.507615	45.179375	42.795065
64327		56.483488	45.154888	42.786066
64328		56.439898	45.137226	42.785463
64329		56.365514	45.132660	42.783739
64330		56.269534	45.137144	42.775576
64331		56.159539	45.130766	42.751978
64332		56.043202	45.107558	42.718858
64333		55.934917	45.066730	42.697374
64334		55.841308	45.018191	42.683542
64335		55.759198	44.972066	42.684817
64336		55.700275	44.936062	42.695709
64337		55.633550	44.913234	42.700097
64338		55.561595	44.897311	42.699608
64339		55.479335	44.875533	42.683023
64340		55.395531	44.851745	42.667461
64341		55.317902	44.823057	42.657399
64342		55.255709	44.802109	42.660932
64343		55.202779	44.787453	42.676232
64344		55.161421	44.773676	42.696657
64345		55.121816	44.757276	42.714975
64346		55.089171	44.742081	42.734213
64347		55.070776	44.730352	42.759663
64348		55.051711	44.727031	42.781536
64349		55.033681	44.728575	42.804655
