// General information: 
//  MT Manager version: 2022.2.0 
//  XDA version: 2022.2.0 build 7381 rev 124627 built on 2023-07-19
// Device information: 
//  DeviceId: 00B44876
//  ProductCode: MTW2-3A7G6
//  Firmware Version: 4.3.5
//  Hardware Version: 2.0.0
// Device settings: 
//  Filter Profile: human(46.1)
//  Option Flags: Orientation Smoother Disabled, Position/Velocity Smoother Disabled, Continuous Zero Rotation Update Disabled, AHS Disabled, ICC Disabled
// Coordinate system: ENU
PacketCounter	SampleTimeFine	Roll	Pitch	Yaw
61122		89.657071	-51.745464	22.885914
61123		89.653854	-51.740359	22.896340
61124		89.643857	-51.732925	22.906062
61125		89.628154	-51.729014	22.911575
61126		89.607064	-51.722781	22.915405
61127		89.589907	-51.717673	22.908043
61128		89.588483	-51.713844	22.888554
61129		89.610420	-51.708618	22.857180
61130		89.666451	-51.700884	22.806119
61131		89.736235	-51.695568	22.746223
61132		89.811486	-51.687435	22.688323
61133		89.871884	-51.675632	22.641033
61134		89.902848	-51.664190	22.608950
61135		89.917176	-51.648626	22.585491
61136		89.926442	-51.632146	22.561752
61137		89.924563	-51.612739	22.537694
61138		89.926570	-51.592770	22.510495
61139		89.929601	-51.575726	22.484888
61140		89.936120	-51.560267	22.462468
61141		89.938833	-51.540053	22.456834
61142		89.943520	-51.520526	22.456580
61143		89.936938	-51.506578	22.467785
61144		89.949044	-51.501010	22.449792
61145		89.912411	-51.508851	22.466152
61146		89.838909	-51.496314	22.526522
61147		89.841944	-51.490710	22.523908
61148		89.870495	-51.505155	22.473903
61149		89.879409	-51.517040	22.462469
61150		89.877653	-51.517074	22.479367
61151		89.856326	-51.518921	22.509348
61152		89.816861	-51.522270	22.554786
61153		89.790786	-51.528697	22.589173
61154		89.778546	-51.532867	22.598160
61155		89.757571	-51.539558	22.605360
61156		89.726133	-51.544095	22.621253
61157		89.692523	-51.548149	22.646054
61158		89.662328	-51.550019	22.664725
61159		89.627948	-51.549027	22.692312
61160		89.609878	-51.540101	22.716897
61161		89.620865	-51.528675	22.713545
61162		89.651594	-51.522036	22.683976
61163		89.666667	-51.521822	22.667583
61164		89.643228	-51.517464	22.690069
61165		89.598796	-51.511718	22.734175
61166		89.566562	-51.510639	22.768718
61167		89.547633	-51.515749	22.784983
61168		89.535979	-51.521565	22.796853
61169		89.523763	-51.521170	22.815135
61170		89.510785	-51.514791	22.838976
61171		89.505227	-51.507188	22.862102
61172		89.498291	-51.498000	22.891677
61173		89.488550	-51.481337	22.921555
61174		89.459907	-51.458342	22.959236
61175		89.416316	-51.426950	22.999249
61176		89.360646	-51.391980	23.033438
61177		89.296815	-51.353824	23.064768
61178		89.232938	-51.307826	23.096536
61179		89.181491	-51.251628	23.116407
61180		89.138446	-51.197651	23.126541
61181		89.109773	-51.154535	23.119778
61182		89.101309	-51.114409	23.100721
61183		89.118625	-51.081835	23.063717
61184		89.165336	-51.058077	23.004711
61185		89.230703	-51.041123	22.934564
61186		89.308911	-51.026067	22.857319
61187		89.392325	-51.014429	22.776530
61188		89.473426	-51.000321	22.697900
61189		89.558284	-50.990295	22.614046
61190		89.649739	-50.980628	22.524807
61191		89.737273	-50.977025	22.440051
61192		89.815593	-50.975616	22.369883
61193		89.887295	-50.975580	22.316301
61194		89.944495	-50.980551	22.277470
61195		89.971301	-50.983639	22.268119
61196		89.995332	-50.985238	22.253953
61197		90.011574	-50.983314	22.240309
61198		90.045568	-50.977676	22.203479
61199		90.079572	-50.966782	22.159272
61200		90.093366	-50.955139	22.130584
61201		90.095827	-50.946181	22.115422
61202		90.100915	-50.943923	22.102010
61203		90.117849	-50.945312	22.088430
61204		90.147628	-50.954369	22.069939
61205		90.178453	-50.969251	22.044884
61206		90.219182	-50.988940	22.006120
61207		90.265666	-51.012981	21.949889
61208		90.314859	-51.038669	21.891178
61209		90.378268	-51.062000	21.822084
61210		90.461691	-51.077843	21.745126
61211		90.564754	-51.089425	21.657037
61212		90.687254	-51.097772	21.561241
61213		90.803743	-51.100716	21.474380
61214		90.895446	-51.098142	21.414471
61215		90.954082	-51.085195	21.379561
61216		90.987084	-51.068581	21.356949
61217		90.997656	-51.049407	21.342228
61218		90.981683	-51.027253	21.344093
61219		90.936214	-51.005374	21.367250
61220		90.864459	-50.983370	21.417263
61221		90.786982	-50.962462	21.481407
61222		90.718973	-50.950546	21.544190
61223		90.648621	-50.943559	21.616424
61224		90.564493	-50.941324	21.706605
61225		90.463341	-50.942974	21.814674
61226		90.350295	-50.947946	21.932204
61227		90.230100	-50.960567	22.053090
61228		90.106025	-50.976533	22.173335
61229		89.986289	-50.995210	22.287174
61230		89.857189	-51.014132	22.397996
61231		89.723154	-51.039215	22.508815
61232		89.590394	-51.069002	22.624374
61233		89.471180	-51.099242	22.740479
61234		89.376902	-51.126833	22.855001
61235		89.326160	-51.156845	22.963274
61236		89.320244	-51.182550	23.060082
61237		89.351485	-51.201888	23.146739
61238		89.401285	-51.214458	23.235642
61239		89.458286	-51.225667	23.324036
61240		89.536227	-51.235237	23.398081
61241		89.615028	-51.244924	23.464410
61242		89.682881	-51.252956	23.515720
61243		89.731933	-51.256669	23.550099
61244		89.751618	-51.252906	23.577954
61245		89.746602	-51.251038	23.610753
61246		89.706167	-51.242369	23.651699
61247		89.637373	-51.229482	23.702701
61248		89.552312	-51.219097	23.754302
61249		89.462153	-51.215202	23.800742
61250		89.378552	-51.218397	23.842072
61251		89.299793	-51.233861	23.860123
61252		89.137646	-51.242059	23.908554
61253		88.883354	-51.254057	23.930665
61254		88.434662	-51.291170	23.868260
61255		87.725225	-51.353604	23.747953
61256		86.784207	-51.436494	23.628217
61257		85.682789	-51.527680	23.553694
61258		84.541988	-51.609889	23.548104
61259		83.456223	-51.671578	23.619667
61260		82.450614	-51.702377	23.748964
61261		81.478896	-51.720564	23.892394
61262		80.389608	-51.749986	24.018974
61263		79.050896	-51.804456	24.097334
61264		77.423186	-51.882420	24.101977
61265		75.473748	-51.996015	24.061187
61266		73.238316	-52.121034	24.018024
61267		70.796514	-52.246900	24.018226
61268		68.289928	-52.337928	24.081920
61269		65.900814	-52.360866	24.261079
61270		63.685540	-52.326030	24.621201
61271		61.611567	-52.247296	25.124264
61272		59.498527	-52.180339	25.680584
61273		57.228819	-52.138076	26.166235
61274		54.674390	-52.139125	26.567058
61275		51.845649	-52.172315	26.820235
61276		48.940311	-52.169988	26.985202
61277		46.203712	-52.079633	27.134488
61278		43.809148	-51.864933	27.309241
61279		41.856827	-51.536899	27.517858
61280		40.295057	-51.103592	27.792137
61281		38.997187	-50.617767	28.119173
61282		37.810757	-50.120607	28.428711
61283		36.608504	-49.651509	28.699938
61284		35.353554	-49.213403	28.870833
61285		34.075940	-48.796556	28.943739
61286		32.852374	-48.367571	28.955478
61287		31.790380	-47.929835	28.960675
61288		30.938374	-47.484565	28.974729
61289		30.278517	-47.033594	29.004054
61290		29.718864	-46.589496	29.066627
61291		29.206602	-46.167143	29.163204
61292		28.731633	-45.766988	29.289750
61293		28.276058	-45.371660	29.431636
61294		27.846521	-44.973875	29.560477
61295		27.452039	-44.567785	29.663220
61296		27.064269	-44.168062	29.743571
61297		26.674929	-43.801506	29.808011
61298		26.314302	-43.476928	29.838921
61299		26.010444	-43.195666	29.842194
61300		25.762456	-42.971801	29.823424
61301		25.564315	-42.806837	29.771187
61302		25.394219	-42.684898	29.700873
61303		25.254467	-42.600444	29.616499
61304		25.153177	-42.540497	29.517874
61305		25.091550	-42.494985	29.411532
61306		25.070835	-42.459041	29.293308
61307		25.077715	-42.428854	29.175937
61308		25.084066	-42.400085	29.073229
61309		25.077793	-42.366176	28.973304
61310		25.057383	-42.333490	28.873206
61311		25.005637	-42.303082	28.774566
61312		24.952270	-42.276820	28.686917
61313		24.943905	-42.253880	28.611790
61314		24.986102	-42.228330	28.546405
61315		25.049654	-42.218469	28.493269
61316		25.113527	-42.226588	28.442154
61317		25.150422	-42.237841	28.382921
61318		25.154623	-42.253760	28.324432
61319		25.138938	-42.274247	28.254719
61320		25.127122	-42.299007	28.187937
61321		25.154208	-42.317433	28.140248
61322		25.233592	-42.322055	28.125610
61323		25.332659	-42.311781	28.130638
61324		25.433043	-42.305727	28.126950
61325		25.501575	-42.299730	28.115493
61326		25.543780	-42.300822	28.096871
61327		25.577635	-42.312259	28.072261
61328		25.628570	-42.326087	28.046853
61329		25.710801	-42.333302	28.036297
61330		25.831066	-42.330173	28.044194
61331		25.949777	-42.325257	28.064884
61332		26.053951	-42.322021	28.073102
61333		26.141330	-42.318458	28.079025
61334		26.217864	-42.317948	28.090790
61335		26.291650	-42.310615	28.111363
61336		26.364482	-42.313451	28.127075
61337		26.436902	-42.339527	28.136804
61338		26.528580	-42.387811	28.146737
61339		26.688532	-42.463907	28.158880
61340		26.947257	-42.569525	28.171794
61341		27.329293	-42.697196	28.189173
61342		27.834090	-42.846533	28.205601
61343		28.377115	-43.016352	28.215526
61344		28.868722	-43.217540	28.184171
61345		29.295741	-43.448483	28.087057
61346		29.676048	-43.681627	27.960353
61347		30.087014	-43.882071	27.814269
61348		30.641557	-44.039099	27.672430
61349		31.433516	-44.143454	27.553601
61350		32.472811	-44.192759	27.495974
61351		33.622471	-44.234081	27.525756
61352		34.711057	-44.319835	27.589481
61353		35.668346	-44.455482	27.638476
61354		36.513364	-44.620836	27.651320
61355		37.320704	-44.792527	27.619287
61356		38.227678	-44.957669	27.532381
61357		39.337869	-45.093993	27.422627
61358		40.662642	-45.194250	27.340876
61359		42.192877	-45.265359	27.293745
61360		43.876404	-45.316166	27.289147
61361		45.653792	-45.362044	27.325588
61362		47.467640	-45.408708	27.389390
61363		49.272591	-45.456188	27.467581
61364		51.051826	-45.508286	27.540775
61365		52.804687	-45.571110	27.591507
61366		54.533243	-45.648128	27.603741
61367		56.260551	-45.729275	27.567962
61368		58.019605	-45.809760	27.492559
61369		59.798524	-45.898306	27.401412
61370		61.574710	-45.993670	27.291452
61371		63.304798	-46.102046	27.161427
61372		64.993313	-46.211961	27.009257
61373		66.624998	-46.331610	26.851081
61374		68.260229	-46.451280	26.718964
61375		69.928934	-46.581495	26.641864
61376		71.621226	-46.717064	26.616857
61377		73.308469	-46.850376	26.611487
61378		74.969729	-46.982401	26.592356
61379		76.569374	-47.104716	26.533893
61380		78.122750	-47.201335	26.423195
61381		79.664125	-47.259028	26.309618
61382		81.262651	-47.295764	26.207788
61383		82.876807	-47.323856	26.128658
61384		84.509333	-47.351327	26.044863
61385		86.123226	-47.392789	25.937252
61386		87.690929	-47.441543	25.780714
61387		89.171054	-47.492398	25.581889
61388		90.541914	-47.546965	25.336151
61389		91.799470	-47.593098	25.052925
61390		92.957886	-47.627851	24.745454
61391		94.054429	-47.645896	24.444462
61392		95.139677	-47.653889	24.188037
61393		96.286137	-47.647314	24.013098
61394		97.520942	-47.640811	23.933637
61395		98.829332	-47.638891	23.914135
61396		100.163301	-47.634246	23.922168
61397		101.464970	-47.631309	23.919329
61398		102.669626	-47.627409	23.881152
61399		103.734980	-47.621971	23.806499
61400		104.661156	-47.605478	23.690387
61401		105.450245	-47.584456	23.537424
61402		106.109245	-47.549349	23.366442
61403		106.679992	-47.502462	23.204380
61404		107.189439	-47.447218	23.054073
61405		107.654943	-47.391602	22.936422
61406		108.125462	-47.357140	22.838093
61407		108.591132	-47.341315	22.760154
61408		109.040980	-47.339591	22.686795
61409		109.447363	-47.344299	22.615512
61410		109.785167	-47.349143	22.539667
61411		110.042473	-47.350531	22.454152
61412		110.207922	-47.357279	22.345226
61413		110.270723	-47.369264	22.218034
61414		110.233049	-47.382067	22.061012
61415		110.114869	-47.385018	21.883150
61416		109.993375	-47.387379	21.718539
61417		109.945493	-47.403145	21.596068
61418		109.987785	-47.425143	21.534740
61419		110.118819	-47.453206	21.531737
61420		110.299536	-47.481900	21.569771
61421		110.482464	-47.504308	21.630295
61422		110.624649	-47.522673	21.692478
61423		110.711860	-47.543159	21.730576
61424		110.723306	-47.557947	21.735349
61425		110.656232	-47.564995	21.710212
61426		110.533006	-47.566362	21.663459
61427		110.362777	-47.568181	21.596681
61428		110.158028	-47.571809	21.523041
61429		109.927643	-47.578954	21.446835
61430		109.687481	-47.596529	21.374253
61431		109.445115	-47.624254	21.308725
61432		109.214139	-47.653487	21.253076
61433		109.003858	-47.678063	21.212327
61434		108.824271	-47.693645	21.193398
61435		108.688756	-47.704574	21.190111
61436		108.591952	-47.701275	21.210725
61437		108.526636	-47.693086	21.249394
61438		108.481411	-47.677584	21.304274
61439		108.444027	-47.659566	21.363936
61440		108.399117	-47.635520	21.416969
61441		108.332406	-47.605510	21.457720
61442		108.247190	-47.569576	21.478628
61443		108.145296	-47.538731	21.479205
61444		108.032737	-47.521232	21.461643
61445		107.920515	-47.511304	21.442945
61446		107.838105	-47.507563	21.417613
61447		107.791248	-47.496631	21.399898
61448		107.780952	-47.481928	21.392191
61449		107.799078	-47.462394	21.389508
61450		107.828972	-47.441552	21.386659
61451		107.854105	-47.412448	21.378157
61452		107.867863	-47.379291	21.362790
61453		107.861848	-47.340100	21.339156
61454		107.848275	-47.300021	21.308119
61455		107.827199	-47.260830	21.276093
61456		107.803315	-47.222815	21.250155
61457		107.794450	-47.193646	21.229799
61458		107.794873	-47.172985	21.217139
61459		107.805502	-47.158043	21.207271
61460		107.811731	-47.143855	21.201332
61461		107.805217	-47.130774	21.197794
61462		107.794452	-47.119692	21.181823
61463		107.777233	-47.109755	21.156961
61464		107.753104	-47.098939	21.123572
61465		107.722993	-47.086536	21.078286
61466		107.687444	-47.073507	21.032363
61467		107.664107	-47.071508	20.999514
61468		107.648861	-47.074400	20.989101
61469		107.655757	-47.078760	20.993291
61470		107.673734	-47.080027	21.004245
61471		107.687732	-47.078834	21.017012
61472		107.690318	-47.074992	21.020344
61473		107.664887	-47.069435	21.010246
61474		107.592288	-47.057839	20.973768
61475		107.457195	-47.035891	20.910044
61476		107.258607	-47.012376	20.829840
61477		107.008852	-46.982554	20.728384
61478		106.718496	-46.953292	20.609858
61479		106.392284	-46.926526	20.483625
61480		106.039855	-46.902849	20.352176
61481		105.670204	-46.883255	20.218576
61482		105.295215	-46.861957	20.092820
61483		104.920820	-46.843479	19.979626
61484		104.557787	-46.825767	19.883367
61485		104.205741	-46.809236	19.801655
61486		103.868397	-46.791732	19.739571
61487		103.544188	-46.778340	19.682114
61488		103.197540	-46.771817	19.601059
61489		102.768782	-46.780155	19.486205
61490		102.224058	-46.808649	19.347269
61491		101.563364	-46.858855	19.198762
61492		100.811419	-46.919822	19.051719
61493		100.007347	-46.992550	18.918288
61494		99.176888	-47.063271	18.810745
61495		98.349654	-47.131582	18.728578
61496		97.538546	-47.193489	18.683991
61497		96.712982	-47.270932	18.655499
61498		95.779825	-47.369715	18.585561
61499		94.705951	-47.496188	18.463233
61500		93.441654	-47.648062	18.280063
61501		91.987147	-47.825418	18.054599
61502		90.423308	-48.006808	17.830833
61503		88.804233	-48.195828	17.657766
61504		87.161156	-48.374182	17.542599
61505		85.548990	-48.533820	17.511226
61506		83.941124	-48.695473	17.551448
61507		82.291186	-48.856051	17.640415
61508		80.553297	-49.028188	17.753820
61509		78.655346	-49.196662	17.830905
61510		76.637154	-49.323275	17.869949
61511		74.584117	-49.390907	17.871862
61512		72.544549	-49.397226	17.835648
61513		70.619205	-49.350857	17.783396
61514		68.863645	-49.277792	17.750512
61515		67.237263	-49.214382	17.766847
61516		65.655416	-49.199125	17.825792
61517		64.016888	-49.247089	17.909749
61518		62.216821	-49.372961	17.991822
61519		60.214231	-49.557566	18.043500
61520		58.039307	-49.766714	18.080093
61521		55.818903	-49.952570	18.129609
61522		53.606727	-50.096369	18.239768
61523		51.447788	-50.204801	18.369417
61524		49.362369	-50.270159	18.508454
61525		47.387949	-50.288567	18.645264
61526		45.569937	-50.231065	18.816284
61527		43.905525	-50.104002	19.026445
61528		42.385109	-49.880118	19.295562
61529		40.973802	-49.563192	19.631214
61530		39.647924	-49.151002	20.014947
61531		38.407114	-48.655788	20.438941
61532		37.233355	-48.102289	20.880094
61533		36.097629	-47.516629	21.315254
61534		35.048939	-46.923709	21.720539
61535		34.093055	-46.352132	22.073599
61536		33.232787	-45.820841	22.361162
61537		32.467918	-45.350831	22.601660
61538		31.818471	-44.956714	22.802848
61539		31.301298	-44.632004	22.967565
61540		30.893611	-44.373969	23.103049
61541		30.583820	-44.171770	23.211156
61542		30.336155	-44.002634	23.303214
61543		30.109680	-43.857510	23.398564
61544		29.907172	-43.733237	23.475895
61545		29.696426	-43.637125	23.529608
61546		29.504867	-43.579404	23.545169
61547		29.375360	-43.558740	23.525546
61548		29.326275	-43.574102	23.489931
61549		29.349849	-43.605607	23.449478
61550		29.419385	-43.647632	23.411729
61551		29.492711	-43.692470	23.376436
61552		29.546400	-43.736211	23.347444
61553		29.567071	-43.769233	23.333474
61554		29.568546	-43.795631	23.317228
61555		29.549869	-43.826398	23.291028
61556		29.520260	-43.859036	23.261002
61557		29.494554	-43.899956	23.224240
61558		29.488109	-43.940299	23.176037
61559		29.506015	-43.982137	23.122930
61560		29.543177	-44.020761	23.061246
61561		29.604403	-44.045724	23.003072
61562		29.682350	-44.051737	22.964755
61563		29.748968	-44.041358	22.951094
61564		29.790852	-44.030454	22.934865
61565		29.795840	-44.012863	22.916080
61566		29.796792	-43.995449	22.900183
61567		29.802892	-43.981256	22.885846
61568		29.825369	-43.964252	22.864114
61569		29.865878	-43.937253	22.846176
61570		29.914909	-43.902784	22.834046
61571		29.957819	-43.867644	22.821234
61572		29.984716	-43.836731	22.804405
61573		30.003074	-43.812142	22.779071
61574		30.015222	-43.791345	22.755219
61575		30.044247	-43.771573	22.735269
61576		30.091244	-43.747042	22.727770
61577		30.159265	-43.724904	22.728280
61578		30.257211	-43.701254	22.732768
61579		30.385341	-43.671347	22.748334
61580		30.536927	-43.641627	22.775477
61581		30.670315	-43.609377	22.806173
61582		30.776783	-43.578268	22.829134
61583		30.847586	-43.555400	22.851180
61584		30.863047	-43.552616	22.854591
61585		30.821541	-43.571004	22.838712
61586		30.762211	-43.599367	22.816487
61587		30.733785	-43.626894	22.799293
61588		30.779273	-43.637638	22.805913
61589		30.919526	-43.618807	22.839846
61590		31.129074	-43.589885	22.903890
61591		31.396289	-43.545185	22.989016
61592		31.696728	-43.490278	23.096285
61593		31.996593	-43.433700	23.216336
61594		32.275141	-43.379236	23.327121
61595		32.565624	-43.331732	23.419323
61596		32.880531	-43.284636	23.508051
61597		33.241937	-43.238616	23.594795
61598		33.678780	-43.189794	23.688064
61599		34.194454	-43.131916	23.811813
61600		34.681902	-43.094539	23.960852
61601		35.047185	-43.095028	24.073195
61602		35.249265	-43.133256	24.135910
61603		35.284299	-43.200962	24.146207
61604		35.207794	-43.278909	24.110148
61605		35.137998	-43.346871	24.038161
61606		35.167742	-43.392979	23.947860
61607		35.345032	-43.415760	23.865548
61608		35.693199	-43.412860	23.803169
61609		36.215284	-43.381525	23.773302
61610		36.890337	-43.324113	23.778988
61611		37.697813	-43.239924	23.820957
61612		38.623876	-43.139257	23.897766
61613		39.587779	-43.051539	24.003500
61614		40.488921	-43.005949	24.077890
61615		41.303307	-43.005956	24.096631
61616		42.028473	-43.044324	24.072100
61617		42.731639	-43.102153	24.009072
61618		43.503342	-43.173739	23.911404
61619		44.430213	-43.251822	23.795753
61620		45.574026	-43.318005	23.677915
61621		46.951601	-43.361446	23.581038
61622		48.522081	-43.381579	23.519632
61623		50.226289	-43.388096	23.500563
61624		51.999297	-43.394837	23.518186
61625		53.792880	-43.418187	23.549862
61626		55.582019	-43.474078	23.575432
61627		57.340838	-43.554136	23.575397
61628		59.043943	-43.664512	23.544347
61629		60.666553	-43.803059	23.477650
61630		62.233749	-43.962804	23.365626
61631		63.764239	-44.132761	23.212230
61632		65.272572	-44.323658	23.020382
61633		66.741153	-44.524705	22.797800
61634		68.185100	-44.733855	22.556559
61635		69.624624	-44.933141	22.292341
61636		71.086624	-45.117333	22.025906
61637		72.586468	-45.283263	21.766378
61638		74.123415	-45.425760	21.525065
61639		75.672992	-45.546649	21.307536
61640		77.207602	-45.652114	21.109832
61641		78.696813	-45.734968	20.920818
61642		80.218497	-45.767030	20.775311
61643		81.852217	-45.753581	20.727313
61644		83.573693	-45.719021	20.790112
61645		85.332663	-45.675111	20.925865
61646		87.082734	-45.638819	21.092858
61647		88.731146	-45.622922	21.272283
61648		90.230611	-45.630816	21.445536
61649		91.568825	-45.677072	21.640972
61650		92.799802	-45.754080	21.900569
61651		93.973762	-45.857314	22.258989
61652		95.094628	-45.969741	22.714626
61653		96.174875	-46.079623	23.245740
61654		97.232375	-46.193943	23.829278
61655		98.237108	-46.318476	24.416697
61656		99.173255	-46.448303	24.943891
61657		100.050250	-46.569365	25.368368
61658		100.870305	-46.680285	25.667237
61659		101.630458	-46.779520	25.828953
61660		102.332370	-46.870132	25.852667
61661		102.968794	-46.949801	25.772251
61662		103.535690	-47.014285	25.621952
61663		104.037375	-47.061324	25.467125
61664		104.475796	-47.102072	25.335932
61665		104.842518	-47.138034	25.235604
61666		105.144747	-47.166762	25.156055
61667		105.379309	-47.193465	25.085087
61668		105.540156	-47.214437	25.018391
61669		105.675715	-47.244389	24.949729
61670		105.814313	-47.286892	24.879368
61671		105.979682	-47.330956	24.790094
61672		106.158578	-47.371040	24.686562
61673		106.321433	-47.393777	24.575788
61674		106.454685	-47.404463	24.462073
61675		106.540397	-47.407215	24.359618
61676		106.579785	-47.405484	24.269311
61677		106.568292	-47.404802	24.192140
61678		106.511841	-47.397621	24.126838
61679		106.441299	-47.385800	24.076988
61680		106.366381	-47.376381	24.046846
61681		106.309140	-47.364073	24.024698
61682		106.277515	-47.351841	24.004417
61683		106.272931	-47.339954	23.973272
61684		106.266534	-47.326895	23.946865
61685		106.263293	-47.307404	23.912288
61686		106.256458	-47.287012	23.882883
61687		106.242768	-47.271017	23.860486
61688		106.217498	-47.259577	23.841015
61689		106.168240	-47.248957	23.823778
61690		106.099596	-47.238266	23.809668
61691		106.029032	-47.230962	23.808799
61692		105.991420	-47.227280	23.814256
61693		105.991727	-47.235652	23.828477
61694		106.008666	-47.250113	23.858825
61695		106.023893	-47.268601	23.894278
61696		106.015385	-47.284882	23.934497
61697		105.975793	-47.298137	23.971598
61698		105.902924	-47.309322	24.004379
61699		105.839425	-47.317330	24.027511
61700		105.785992	-47.324702	24.042410
61701		105.749267	-47.326706	24.040811
61702		105.728571	-47.324995	24.021471
61703		105.715385	-47.319136	23.997101
61704		105.698439	-47.315452	23.973418
61705		105.691868	-47.311434	23.954175
61706		105.690832	-47.302292	23.942277
61707		105.690949	-47.293624	23.937972
61708		105.678914	-47.288224	23.939962
61709		105.656643	-47.286767	23.940748
61710		105.623211	-47.283584	23.934083
61711		105.574501	-47.281661	23.921269
61712		105.514800	-47.276105	23.899139
61713		105.444852	-47.268636	23.871152
61714		105.369574	-47.262210	23.840202
61715		105.298321	-47.253135	23.802840
61716		105.225743	-47.245598	23.774704
61717		105.162890	-47.236687	23.753731
61718		105.111043	-47.230636	23.747598
61719		105.066616	-47.228982	23.751755
61720		105.027541	-47.233547	23.764340
61721		104.987864	-47.239423	23.779579
61722		104.944458	-47.245763	23.795131
61723		104.890915	-47.251926	23.810658
61724		104.820194	-47.258763	23.821225
61725		104.729049	-47.259228	23.826552
61726		104.614560	-47.268270	23.831920
61727		104.508730	-47.277753	23.828035
61728		104.417282	-47.292065	23.841622
61729		104.356670	-47.304412	23.867180
61730		104.318153	-47.323886	23.911148
61731		104.283085	-47.343065	23.966930
61732		104.233739	-47.365199	24.034603
61733		104.161773	-47.385753	24.096326
61734		104.068612	-47.409219	24.145493
61735		103.955931	-47.430750	24.168399
61736		103.824665	-47.450950	24.166472
61737		103.681138	-47.473146	24.135766
61738		103.516353	-47.498774	24.086708
61739		103.319756	-47.521409	24.022720
61740		103.086796	-47.546248	23.947235
61741		102.820309	-47.574102	23.868001
61742		102.508895	-47.606827	23.794092
61743		102.171096	-47.643906	23.722451
61744		101.814212	-47.680215	23.653229
61745		101.441869	-47.716366	23.581021
61746		101.052476	-47.752733	23.513609
61747		100.649638	-47.786836	23.443960
61748		100.228886	-47.819542	23.368594
61749		99.782183	-47.852518	23.290719
61750		99.293158	-47.870787	23.219383
61751		98.757529	-47.881626	23.150024
61752		98.163322	-47.897189	23.088899
61753		97.514670	-47.926298	23.034282
61754		96.824331	-47.977776	22.983927
61755		96.116194	-48.048585	22.925320
61756		95.407765	-48.141427	22.861617
61757		94.727818	-48.259840	22.776055
61758		94.058556	-48.392877	22.662014
61759		93.394317	-48.528183	22.515222
61760		92.724874	-48.662955	22.360166
61761		92.041946	-48.796982	22.214403
61762		91.354476	-48.929616	22.088494
61763		90.666375	-49.061749	21.991251
61764		89.984352	-49.186598	21.933572
61765		89.329693	-49.300856	21.902060
61766		88.707401	-49.402951	21.898944
61767		88.130586	-49.502431	21.910797
61768		87.587037	-49.605447	21.928209
61769		87.033272	-49.723307	21.908976
61770		86.406722	-49.855646	21.845759
61771		85.705193	-49.991020	21.744976
61772		84.949287	-50.136136	21.616511
61773		84.183495	-50.271452	21.479320
61774		83.450048	-50.384872	21.350115
61775		82.780257	-50.474703	21.249374
61776		82.179214	-50.535511	21.191990
61777		81.628641	-50.562570	21.179452
61778		81.107238	-50.575419	21.199237
61779		80.572935	-50.586112	21.224215
61780		79.923559	-50.644100	21.216425
61781		78.940439	-50.786363	21.064965
61782		77.503450	-51.004129	20.746018
61783		75.638370	-51.277667	20.329121
61784		73.461356	-51.577040	19.905919
61785		71.163470	-51.861057	19.575927
61786		68.843385	-52.134655	19.395705
61787		66.527645	-52.390424	19.294267
61788		64.268640	-52.605346	19.302563
61789		61.982128	-52.813307	19.432257
61790		59.635512	-53.001714	19.630033
61791		57.170700	-53.209563	19.909145
61792		54.454664	-53.471791	20.170574
61793		51.522967	-53.769209	20.372015
61794		48.530947	-54.028799	20.539760
61795		45.678201	-54.189618	20.728212
61796		43.216339	-54.197334	20.945731
61797		41.339492	-54.029622	21.186613
61798		40.010985	-53.719658	21.474484
61799		39.011016	-53.335119	21.824893
61800		38.081706	-52.946978	22.245682
61801		37.048852	-52.574009	22.724607
61802		35.860036	-52.184105	23.232921
61803		34.597725	-51.742704	23.738579
61804		33.379445	-51.232137	24.210664
61805		32.291251	-50.643877	24.650858
61806		31.371912	-50.008213	25.052594
61807		30.637185	-49.365387	25.408997
61808		30.069018	-48.750120	25.739883
61809		29.623296	-48.188317	26.065036
61810		29.239614	-47.715500	26.393521
61811		28.866464	-47.341026	26.701469
61812		28.471918	-47.064328	26.965501
61813		28.062778	-46.866522	27.168192
61814		27.672646	-46.734355	27.294109
61815		27.339098	-46.632740	27.381186
61816		27.097005	-46.527429	27.447159
61817		26.932767	-46.408900	27.517373
61818		26.799192	-46.282575	27.599054
61819		26.665347	-46.153001	27.683196
61820		26.529185	-46.030531	27.774971
61821		26.398355	-45.929405	27.855429
61822		26.292469	-45.849987	27.918894
61823		26.216614	-45.800265	27.953288
61824		26.169105	-45.763028	27.969929
61825		26.141334	-45.725933	27.987952
61826		26.110920	-45.687203	28.014630
61827		26.082562	-45.644760	28.036432
61828		26.040315	-45.604185	28.062257
61829		25.996663	-45.561253	28.075259
61830		25.959951	-45.525021	28.069621
61831		25.924370	-45.492725	28.051218
61832		25.890762	-45.464445	28.012078
61833		25.853928	-45.444904	27.958322
61834		25.826068	-45.423457	27.899272
61835		25.819155	-45.391040	27.855720
61836		25.857832	-45.349816	27.824846
61837		25.909926	-45.304825	27.815307
61838		25.928999	-45.273220	27.805100
61839		25.911008	-45.248301	27.781457
61840		25.837871	-45.227085	27.750163
61841		25.744692	-45.212353	27.705294
61842		25.680206	-45.192477	27.659954
61843		25.697447	-45.155465	27.627375
61844		25.797893	-45.108721	27.615800
61845		25.953139	-45.052919	27.623781
61846		26.114207	-44.988537	27.645742
61847		26.224915	-44.929640	27.676448
61848		26.222664	-44.884799	27.702946
61849		26.113213	-44.862361	27.689024
61850		25.965699	-44.856383	27.640616
61851		25.859400	-44.856380	27.580868
61852		25.839361	-44.856742	27.539183
61853		25.913325	-44.845413	27.533848
61854		26.063341	-44.812287	27.576480
61855		26.251671	-44.764737	27.646623
61856		26.422572	-44.707859	27.738193
61857		26.534106	-44.659630	27.821584
61858		26.572326	-44.621039	27.888612
61859		26.543925	-44.598535	27.930293
61860		26.493642	-44.590234	27.952286
61861		26.488453	-44.589041	27.943018
61862		26.562226	-44.578330	27.932359
61863		26.724624	-44.563338	27.937318
61864		26.975624	-44.541205	27.973461
61865		27.323088	-44.504503	28.038515
61866		27.767450	-44.450502	28.147204
61867		28.232772	-44.400394	28.301686
61868		28.639580	-44.377152	28.433382
61869		28.953969	-44.381184	28.524772
61870		29.186066	-44.392715	28.581807
61871		29.410910	-44.404646	28.601837
61872		29.703371	-44.406571	28.603482
61873		30.118255	-44.389194	28.623182
61874		30.622827	-44.370674	28.676907
61875		31.165155	-44.379930	28.722596
61876		31.671049	-44.472056	28.698723
61877		31.969981	-44.608194	28.704829
61878		32.169286	-44.715442	28.684176
61879		32.334548	-44.823432	28.585297
61880		32.505101	-44.929058	28.435979
61881		32.784089	-45.010536	28.281099
61882		33.251540	-45.056768	28.165496
61883		33.961594	-45.049109	28.113472
61884		34.950303	-44.980955	28.148686
61885		36.197037	-44.865970	28.272745
61886		37.620370	-44.745533	28.446718
61887		39.111581	-44.630059	28.648230
61888		40.584484	-44.527901	28.858938
61889		41.932780	-44.475070	29.051750
61890		43.048799	-44.514339	29.172019
61891		43.891036	-44.638684	29.189782
61892		44.525967	-44.813874	29.109210
61893		45.088469	-45.014413	28.931992
61894		45.686729	-45.209689	28.679555
61895		46.424712	-45.382214	28.395590
61896		47.371307	-45.513039	28.119622
61897		48.544444	-45.600425	27.883990
61898		49.925523	-45.641480	27.705672
61899		51.469080	-45.641209	27.599245
61900		53.076441	-45.607990	27.584297
61901		54.624348	-45.560899	27.649197
61902		56.046181	-45.521500	27.749090
61903		57.310488	-45.514887	27.833490
61904		58.398682	-45.547862	27.868192
61905		59.329133	-45.614055	27.851633
61906		60.169921	-45.708761	27.774516
61907		61.004014	-45.812279	27.636894
61908		61.947153	-45.901967	27.459951
61909		63.037764	-45.961514	27.278820
61910		64.263406	-45.981947	27.119319
61911		65.561123	-45.960628	26.989994
61912		66.868604	-45.911325	26.880898
61913		68.110209	-45.834680	26.793637
61914		69.268756	-45.745939	26.706031
61915		70.364387	-45.648776	26.590766
61916		71.480598	-45.555297	26.470864
61917		72.665115	-45.458841	26.376625
61918		73.941090	-45.357495	26.315732
61919		75.321167	-45.250390	26.282012
61920		76.766953	-45.135903	26.268608
61921		78.287175	-44.999944	26.276553
61922		79.872478	-44.862298	26.302840
61923		81.460651	-44.738029	26.339074
61924		83.005879	-44.631436	26.351106
61925		84.451615	-44.543124	26.327367
61926		85.788765	-44.479956	26.242092
61927		87.047221	-44.424233	26.114049
61928		88.250465	-44.373890	25.971465
61929		89.422416	-44.321170	25.826777
61930		90.585705	-44.258627	25.691710
61931		91.818013	-44.192827	25.607462
61932		93.139100	-44.141869	25.600027
61933		94.504261	-44.102381	25.650546
61934		95.862667	-44.079665	25.720323
61935		97.147176	-44.069701	25.782012
61936		98.285721	-44.073361	25.820679
61937		99.279162	-44.080753	25.836776
61938		100.183533	-44.100557	25.853598
61939		101.020055	-44.132761	25.868371
61940		101.814121	-44.173414	25.861036
61941		102.564067	-44.212914	25.827035
61942		103.254092	-44.254406	25.756693
61943		103.866963	-44.289783	25.649432
61944		104.398014	-44.312895	25.513223
61945		104.840370	-44.323136	25.351867
61946		105.183550	-44.323163	25.175704
61947		105.441958	-44.315282	24.989475
61948		105.629122	-44.315217	24.804266
61949		105.753139	-44.322389	24.620426
61950		105.841236	-44.333458	24.440398
61951		105.912452	-44.341420	24.259686
61952		105.966098	-44.342044	24.084589
61953		106.012773	-44.334897	23.917925
61954		106.071335	-44.327944	23.773051
61955		106.146633	-44.330468	23.659262
61956		106.231867	-44.333709	23.574101
61957		106.309214	-44.335596	23.507682
61958		106.360371	-44.342958	23.453464
61959		106.386570	-44.354413	23.394767
61960		106.378937	-44.365648	23.334381
61961		106.344423	-44.378553	23.268060
61962		106.284173	-44.394684	23.199836
61963		106.208644	-44.414734	23.143649
61964		106.149379	-44.438266	23.100863
61965		106.117561	-44.463806	23.074146
61966		106.114969	-44.491962	23.058113
61967		106.125984	-44.523599	23.049853
61968		106.127145	-44.556563	23.054342
61969		106.104137	-44.584875	23.066631
61970		106.048011	-44.606436	23.088539
61971		105.966092	-44.626861	23.103105
61972		105.861040	-44.638782	23.112755
61973		105.747711	-44.647321	23.107201
61974		105.637629	-44.649205	23.085097
61975		105.554902	-44.652689	23.051369
61976		105.518214	-44.665366	23.014356
61977		105.533247	-44.698627	22.988666
61978		105.579015	-44.742775	22.992500
61979		105.638775	-44.781236	23.021145
61980		105.688530	-44.811961	23.064957
61981		105.731093	-44.838207	23.095359
61982		105.764022	-44.854058	23.099130
61983		105.793410	-44.864074	23.073758
61984		105.818001	-44.864750	23.030050
61985		105.852692	-44.866022	22.976135
61986		105.908111	-44.874711	22.929820
61987		105.984269	-44.888162	22.901501
61988		106.074952	-44.898337	22.887339
61989		106.163620	-44.909543	22.884299
61990		106.231994	-44.915366	22.882409
61991		106.277141	-44.915907	22.869336
61992		106.296696	-44.915057	22.843316
61993		106.301505	-44.917537	22.810505
61994		106.297453	-44.921490	22.781724
61995		106.287516	-44.923002	22.753359
61996		106.266455	-44.927523	22.729538
61997		106.228873	-44.936705	22.710728
61998		106.188332	-44.955247	22.689949
61999		106.146540	-44.980994	22.669229
62000		106.103603	-45.008395	22.651217
62001		106.062473	-45.034898	22.635228
62002		106.014370	-45.052369	22.623795
62003		105.960667	-45.063657	22.613643
62004		105.895018	-45.064187	22.605507
62005		105.822598	-45.062562	22.599357
62006		105.731623	-45.055310	22.599463
62007		105.629955	-45.045795	22.596687
62008		105.522020	-45.041112	22.585589
62009		105.418765	-45.052428	22.565859
62010		105.316932	-45.081581	22.541470
62011		105.222676	-45.105799	22.516484
62012		105.137428	-45.119424	22.492595
62013		105.060097	-45.124230	22.469818
62014		104.977558	-45.125404	22.454652
62015		104.892267	-45.124456	22.438872
62016		104.792621	-45.121557	22.428750
62017		104.672584	-45.117211	22.428784
62018		104.526460	-45.115860	22.437011
62019		104.338414	-45.118233	22.438084
62020		104.057245	-45.130147	22.396383
62021		103.649311	-45.141655	22.312567
62022		103.120730	-45.161559	22.187317
62023		102.501009	-45.189427	22.031219
62024		101.822114	-45.219591	21.866789
62025		101.119016	-45.243048	21.712249
62026		100.413039	-45.262154	21.590920
62027		99.719200	-45.272327	21.511404
62028		99.047821	-45.269480	21.464569
62029		98.386658	-45.256765	21.439870
62030		97.661696	-45.261796	21.380811
62031		96.760366	-45.274161	21.238834
62032		95.671939	-45.295705	21.030526
62033		94.437844	-45.327690	20.785918
62034		93.131291	-45.370190	20.537913
62035		91.859489	-45.407177	20.296872
62036		90.687128	-45.450432	20.080691
62037		89.655741	-45.496544	19.886585
62038		88.795239	-45.549704	19.743069
62039		88.098435	-45.609947	19.661799
62040		87.486363	-45.673982	19.623786
62041		86.859656	-45.751974	19.610374
62042		86.023524	-45.908866	19.542193
62043		84.826482	-46.129907	19.340564
62044		83.300900	-46.384194	19.031075
62045		81.568749	-46.643851	18.706284
62046		79.799838	-46.875516	18.434851
62047		78.158461	-47.054836	18.256924
62048		76.747105	-47.174537	18.194330
62049		75.552664	-47.252811	18.259087
62050		74.508143	-47.309651	18.422560
62051		73.486378	-47.376722	18.639738
62052		72.267867	-47.503792	18.836806
62053		70.591166	-47.745173	18.937023
62054		68.322152	-48.090984	18.869302
62055		65.497656	-48.512099	18.653003
62056		62.318303	-48.936114	18.393551
62057		59.090067	-49.286781	18.204681
62058		56.094733	-49.504536	18.170033
62059		53.503995	-49.589738	18.296628
62060		51.292675	-49.569690	18.562060
62061		49.365421	-49.512622	18.905539
62062		47.516906	-49.473243	19.274850
62063		45.600929	-49.501369	19.564422
62064		43.638907	-49.557556	19.733993
62065		41.719307	-49.597484	19.799125
62066		39.973172	-49.582361	19.804710
62067		38.555222	-49.514275	19.760594
62068		37.534528	-49.410750	19.726526
62069		36.847279	-49.309965	19.727743
62070		36.379627	-49.240173	19.755083
62071		36.014479	-49.210878	19.768546
62072		35.686302	-49.223548	19.719983
62073		35.383295	-49.264485	19.603471
62074		35.142348	-49.324030	19.450425
62075		34.972310	-49.385523	19.271908
62076		34.855927	-49.440014	19.112396
62077		34.778421	-49.487086	18.979554
62078		34.705892	-49.525045	18.863147
62079		34.616425	-49.550148	18.730693
62080		34.523180	-49.563839	18.565425
62081		34.453440	-49.567942	18.378963
62082		34.431050	-49.567507	18.181859
62083		34.448191	-49.564173	17.989075
62084		34.487890	-49.551117	17.816419
62085		34.520168	-49.534700	17.674215
62086		34.516759	-49.511202	17.568703
62087		34.477058	-49.489350	17.510087
62088		34.415313	-49.469520	17.500413
62089		34.347887	-49.450596	17.525423
62090		34.263360	-49.428714	17.569240
62091		34.159258	-49.408461	17.612408
62092		34.035985	-49.386249	17.643108
62093		33.925329	-49.363186	17.680800
62094		33.858363	-49.343634	17.713390
62095		33.832580	-49.318554	17.744586
62096		33.812860	-49.292188	17.776121
62097		33.763815	-49.272260	17.787158
62098		33.684977	-49.257824	17.794351
62099		33.575310	-49.240586	17.814983
62100		33.446065	-49.220705	17.854542
62101		33.344896	-49.191938	17.908425
62102		33.274312	-49.141365	18.005693
62103		33.243529	-49.088266	18.116048
62104		33.238284	-49.036071	18.217180
62105		33.255418	-48.989458	18.300480
62106		33.273576	-48.956954	18.370676
62107		33.237812	-48.953475	18.408943
62108		33.161007	-48.971360	18.419473
62109		33.087926	-48.989274	18.423320
62110		33.069981	-48.994419	18.440535
62111		33.120478	-48.985609	18.464323
62112		33.228032	-48.959899	18.492625
62113		33.371328	-48.918688	18.531961
62114		33.482809	-48.887536	18.573072
62115		33.512152	-48.880772	18.589821
62116		33.467174	-48.888740	18.588146
62117		33.428527	-48.895916	18.584652
62118		33.456202	-48.891366	18.598207
62119		33.553420	-48.870495	18.625835
62120		33.694399	-48.835487	18.663938
62121		33.857465	-48.788468	18.717905
62122		34.047487	-48.729667	18.780645
62123		34.293387	-48.666811	18.856236
62124		34.582573	-48.600386	18.942005
62125		34.876233	-48.555578	18.995136
62126		35.144737	-48.539586	19.002024
62127		35.389077	-48.541814	18.982926
62128		35.666191	-48.545854	18.949141
62129		36.075782	-48.532116	18.911941
62130		36.721971	-48.471636	18.887999
62131		37.680928	-48.334569	18.900685
62132		38.954916	-48.121821	18.964948
62133		40.422941	-47.878272	19.083211
62134		41.839930	-47.666246	19.284024
62135		42.929796	-47.569307	19.483215
62136		43.601706	-47.597500	19.609851
62137		43.896520	-47.715229	19.653599
62138		44.013146	-47.880395	19.618398
62139		44.230303	-48.042979	19.508121
62140		44.733073	-48.174103	19.344144
62141		45.632980	-48.240447	19.153757
62142		46.952452	-48.243230	18.986897
62143		48.599691	-48.190977	18.877353
62144		50.426504	-48.106328	18.832360
62145		52.298806	-48.003515	18.841115
62146		54.128516	-47.893774	18.890491
62147		55.868167	-47.790649	18.960867
62148		57.524369	-47.703729	19.007897
62149		59.128407	-47.638443	19.014285
62150		60.705300	-47.605193	18.974837
62151		62.283912	-47.592901	18.891396
62152		63.870320	-47.602514	18.783033
62153		65.452258	-47.620772	18.654884
62154		67.034752	-47.627513	18.538199
62155		68.629854	-47.613828	18.474472
62156		70.238423	-47.585254	18.465663
62157		71.855596	-47.540103	18.489312
62158		73.459254	-47.489161	18.527968
62159		75.006187	-47.444289	18.573783
62160		76.477987	-47.409450	18.622657
62161		77.890229	-47.379393	18.693495
62162		79.253658	-47.356233	18.806005
62163		80.596985	-47.336404	18.936486
62164		81.939129	-47.326540	19.077145
62165		83.258053	-47.324047	19.222937
62166		84.577659	-47.315718	19.373545
62167		85.934172	-47.275562	19.562865
62168		87.345356	-47.210201	19.805570
62169		88.810400	-47.127808	20.093884
62170		90.309097	-47.053108	20.431874
62171		91.778572	-46.997361	20.799998
62172		93.172148	-46.974084	21.167974
62173		94.439286	-46.979845	21.501563
62174		95.543967	-47.000318	21.780924
62175		96.479279	-47.033943	21.983982
62176		97.280465	-47.054134	22.108125
62177		98.026398	-47.055669	22.210008
62178		98.782983	-47.034049	22.336987
62179		99.623410	-46.991856	22.523710
62180		100.564827	-46.945762	22.799120
62181		101.548103	-46.912464	23.144943
62182		102.512233	-46.898988	23.517872
62183		103.392319	-46.905986	23.877581
62184		104.140539	-46.931752	24.194698
62185		104.740696	-46.961888	24.447686
62186		105.195635	-46.980692	24.637387
62187		105.579223	-46.984600	24.790580
62188		105.938108	-46.984220	24.925587
62189		106.320036	-46.974695	25.050449
62190		106.754473	-46.961022	25.178098
62191		107.227064	-46.950960	25.300523
62192		107.697793	-46.938115	25.408279
62193		108.153098	-46.923636	25.492071
62194		108.571507	-46.916967	25.554821
62195		108.947096	-46.912493	25.593477
62196		109.278922	-46.904571	25.592225
62197		109.548510	-46.888348	25.550760
62198		109.734900	-46.858481	25.458859
62199		109.841179	-46.821878	25.314546
62200		109.858180	-46.790235	25.135167
62201		109.792853	-46.766501	24.939446
62202		109.662102	-46.751799	24.747582
62203		109.492836	-46.741421	24.588584
62204		109.322168	-46.741686	24.471456
62205		109.192003	-46.748478	24.402070
62206		109.128494	-46.753172	24.373764
62207		109.130407	-46.756762	24.375764
62208		109.171501	-46.755101	24.391232
62209		109.219483	-46.748492	24.401841
62210		109.243120	-46.741922	24.391239
62211		109.218013	-46.728782	24.348536
62212		109.113769	-46.718270	24.273427
62213		108.924882	-46.705504	24.168446
62214		108.682604	-46.697261	24.060120
62215		108.426496	-46.696473	23.971681
62216		108.200980	-46.703373	23.915741
62217		108.033686	-46.716788	23.899201
62218		107.929054	-46.726371	23.917247
62219		107.871828	-46.729230	23.961739
62220		107.859601	-46.729262	24.009325
62221		107.863241	-46.727167	24.052664
62222		107.865389	-46.714803	24.070827
62223		107.845348	-46.699602	24.057384
62224		107.787035	-46.682246	24.011652
62225		107.687361	-46.663038	23.933638
62226		107.545099	-46.643876	23.829605
62227		107.387790	-46.635734	23.727092
62228		107.231859	-46.641975	23.658415
62229		107.096409	-46.654659	23.632481
62230		106.966455	-46.669862	23.658051
62231		106.831158	-46.686013	23.711318
62232		106.666403	-46.709244	23.776058
62233		106.444117	-46.737899	23.808872
62234		106.117140	-46.776775	23.784283
62235		105.632522	-46.843373	23.665079
62236		104.932338	-46.941335	23.442084
62237		104.004880	-47.068015	23.121430
62238		102.868231	-47.215388	22.752616
62239		101.594742	-47.379934	22.365794
62240		100.272064	-47.547790	22.006281
62241		98.994957	-47.712971	21.701041
62242		97.812388	-47.882529	21.452550
62243		96.736003	-48.065802	21.239095
62244		95.727302	-48.252634	21.044293
62245		94.748188	-48.447083	20.837411
62246		93.753383	-48.636049	20.621595
62247		92.726173	-48.827768	20.384334
62248		91.638748	-49.022197	20.121387
62249		90.502606	-49.211301	19.841331
62250		89.340850	-49.393926	19.575926
62251		88.196508	-49.561473	19.347663
62252		87.110233	-49.705553	19.192697
62253		86.108215	-49.830993	19.117399
62254		85.199460	-49.942583	19.112289
62255		84.378322	-50.044604	19.159159
62256		83.582655	-50.154964	19.210013
62257		82.717474	-50.292867	19.226463
62258		81.698888	-50.468371	19.193357
62259		80.403058	-50.733172	19.074945
62260		78.776790	-51.059382	18.852730
62261		76.918575	-51.399044	18.600723
62262		74.964572	-51.715456	18.415919
62263		73.103478	-51.981331	18.343886
62264		71.468406	-52.185439	18.398813
62265		70.074708	-52.345893	18.566452
62266		68.835946	-52.483478	18.821301
62267		67.604572	-52.635210	19.129407
62268		66.196042	-52.839627	19.462745
62269		64.372620	-53.153957	19.742175
62270		62.085388	-53.543318	19.915900
62271		59.519054	-53.928545	20.043349
62272		56.939018	-54.233284	20.222307
62273		54.631123	-54.413961	20.490371
62274		52.743676	-54.463201	20.865564
62275		51.261227	-54.432131	21.316906
62276		50.072440	-54.361212	21.823401
62277		48.919923	-54.308931	22.362879
62278		47.598501	-54.316555	22.855679
62279		46.012626	-54.382413	23.276412
62280		44.133614	-54.480750	23.603517
62281		42.120225	-54.558777	23.821067
62282		40.206180	-54.568840	23.967389
62283		38.596914	-54.475454	24.098427
62284		37.388960	-54.288576	24.274619
62285		36.441672	-54.053445	24.529875
62286		35.600149	-53.804577	24.835668
62287		34.718412	-53.531289	25.165588
62288		33.722414	-53.227875	25.507336
62289		32.641249	-52.903706	25.819383
62290		31.558351	-52.554436	26.089439
62291		30.612353	-52.184446	26.288761
62292		29.861852	-51.827908	26.396314
62293		29.317464	-51.512660	26.448734
62294		28.965656	-51.241646	26.484963
62295		28.748718	-51.009776	26.504483
62296		28.601835	-50.810794	26.513418
62297		28.453038	-50.628666	26.517305
62298		28.254608	-50.467551	26.506669
62299		28.030789	-50.313212	26.472116
62300		27.806575	-50.164338	26.411074
62301		27.617058	-50.025148	26.342795
62302		27.484659	-49.890136	26.293663
62303		27.421633	-49.765220	26.247776
62304		27.413656	-49.656300	26.208686
62305		27.428991	-49.568631	26.177698
62306		27.429118	-49.506220	26.148571
62307		27.403496	-49.475066	26.098994
62308		27.368779	-49.458530	26.027203
62309		27.370222	-49.443548	25.939986
62310		27.420279	-49.425701	25.839697
62311		27.502403	-49.412392	25.721358
62312		27.607614	-49.404489	25.591473
62313		27.689318	-49.404588	25.474751
62314		27.724190	-49.422920	25.364217
62315		27.741084	-49.443112	25.261410
62316		27.769858	-49.454445	25.173963
62317		27.846052	-49.452381	25.095912
62318		27.978816	-49.434726	25.030274
62319		28.112537	-49.416058	24.981242
62320		28.187540	-49.406224	24.942236
62321		28.162426	-49.417542	24.903895
62322		28.064476	-49.436238	24.866245
62323		27.971777	-49.449563	24.833677
62324		27.930262	-49.451861	24.795651
62325		27.959027	-49.440573	24.755858
62326		28.057491	-49.414218	24.717280
62327		28.218522	-49.371411	24.681998
62328		28.402713	-49.319616	24.655813
62329		28.565604	-49.270116	24.646044
62330		28.667475	-49.236509	24.647175
62331		28.724180	-49.214276	24.663204
62332		28.779539	-49.185850	24.692546
62333		28.896620	-49.149774	24.725892
62334		29.097909	-49.094066	24.779343
62335		29.415224	-49.006600	24.844842
62336		29.760445	-48.912157	24.954178
62337		30.044782	-48.858661	25.034104
62338		30.191246	-48.852928	25.072918
62339		30.215057	-48.877760	25.077102
62340		30.230972	-48.911373	25.066769
62341		30.383872	-48.912899	25.051651
62342		30.783565	-48.867589	25.042839
62343		31.437637	-48.762189	25.073862
62344		32.127786	-48.668844	25.180691
62345		32.626895	-48.642516	25.288381
62346		32.868184	-48.676687	25.355041
62347		32.857035	-48.752438	25.384973
62348		32.744307	-48.858289	25.358556
62349		32.666997	-48.965318	25.299826
62350		32.675047	-49.051365	25.272477
62351		32.809529	-49.113528	25.268651
62352		33.101341	-49.149127	25.272471
62353		33.540184	-49.154732	25.291794
62354		34.019210	-49.156048	25.356963
62355		34.426898	-49.176657	25.435647
62356		34.759931	-49.225997	25.494648
62357		35.065663	-49.303446	25.511608
62358		35.409312	-49.389392	25.499112
62359		35.859006	-49.476062	25.460693
62360		36.461943	-49.542806	25.416861
62361		37.276224	-49.553913	25.387598
62362		38.347848	-49.492806	25.388490
62363		39.679017	-49.375294	25.418907
62364		41.077967	-49.240410	25.494011
62365		42.389652	-49.127578	25.587061
62366		43.529653	-49.057438	25.658223
62367		44.476603	-49.038633	25.671659
62368		45.254270	-49.064070	25.624599
62369		45.943942	-49.114414	25.515531
62370		46.677123	-49.162572	25.356586
62371		47.549700	-49.177554	25.184265
62372		48.621120	-49.152888	25.049032
62373		49.879720	-49.080334	24.978447
62374		51.257973	-48.978072	24.983782
62375		52.687912	-48.854886	25.055367
62376		54.120606	-48.729331	25.160344
62377		55.511667	-48.614356	25.262131
62378		56.834783	-48.521049	25.331382
62379		58.071206	-48.452724	25.358592
62380		59.279620	-48.395980	25.321469
62381		60.551381	-48.339766	25.257126
62382		61.890568	-48.287580	25.202736
62383		63.258919	-48.232494	25.178172
62384		64.641516	-48.176011	25.179602
62385		66.001403	-48.117976	25.197116
62386		67.310823	-48.072755	25.220253
62387		68.540176	-48.041643	25.231526
62388		69.694161	-48.025185	25.209879
62389		70.818564	-48.011596	25.156131
62390		71.976487	-47.994676	25.079440
62391		73.188394	-47.967132	24.997011
62392		74.452712	-47.940433	24.920444
62393		75.724046	-47.907712	24.852253
62394		76.962889	-47.880690	24.794862
62395		78.128823	-47.862939	24.744841
62396		79.234647	-47.853500	24.722493
62397		80.294469	-47.850419	24.737700
62398		81.323828	-47.845020	24.806316
62399		82.336820	-47.823366	24.907514
62400		83.364215	-47.782862	25.031581
62401		84.402686	-47.720913	25.166876
62402		85.435951	-47.652598	25.307603
62403		86.429860	-47.581313	25.439250
62404		87.367820	-47.507590	25.547705
62405		88.245262	-47.435363	25.633390
62406		89.077596	-47.363758	25.722238
62407		89.854092	-47.301887	25.839689
62408		90.581179	-47.248911	25.997460
62409		91.265783	-47.197552	26.183631
62410		91.916422	-47.147585	26.384049
62411		92.532783	-47.105290	26.593764
62412		93.168132	-47.050131	26.812430
62413		93.979494	-46.977624	27.098572
62414		95.009969	-46.907107	27.460256
62415		96.190864	-46.852086	27.869118
62416		97.443048	-46.809996	28.271117
62417		98.657062	-46.780791	28.627020
62418		99.753087	-46.770319	28.890271
62419		100.671295	-46.777712	29.037453
62420		101.407184	-46.807627	29.064493
62421		101.965524	-46.840159	28.983037
62422		102.377408	-46.856633	28.815228
62423		102.682709	-46.858694	28.591423
62424		102.936902	-46.853751	28.349269
62425		103.176290	-46.850148	28.109244
62426		103.471225	-46.840635	27.916134
62427		103.884684	-46.838625	27.800749
62428		104.400654	-46.839830	27.749417
62429		104.978726	-46.845892	27.752918
62430		105.561694	-46.840482	27.770728
62431		106.105906	-46.833262	27.771344
62432		106.576963	-46.820842	27.729455
62433		106.958550	-46.798562	27.625701
62434		107.245143	-46.765959	27.458118
62435		107.448818	-46.728340	27.219774
62436		107.581999	-46.694221	26.923077
62437		107.685611	-46.677156	26.609957
62438		107.780533	-46.685005	26.325523
62439		107.898000	-46.710643	26.078444
62440		108.026409	-46.741864	25.890471
62441		108.153831	-46.772606	25.760834
62442		108.260313	-46.799599	25.677588
62443		108.325935	-46.819222	25.616604
62444		108.336180	-46.838288	25.558320
62445		108.294127	-46.850192	25.482734
62446		108.207330	-46.853064	25.392376
62447		108.100105	-46.850624	25.275112
62448		107.980151	-46.844395	25.138909
62449		107.872509	-46.839582	24.997576
62450		107.793240	-46.842731	24.878508
62451		107.750632	-46.854154	24.793828
62452		107.736467	-46.865172	24.745633
62453		107.747125	-46.878154	24.733298
62454		107.756265	-46.885982	24.756194
62455		107.746295	-46.895717	24.789482
62456		107.708239	-46.898984	24.821626
62457		107.631785	-46.900042	24.839077
62458		107.509203	-46.900778	24.839686
62459		107.352414	-46.896350	24.807123
62460		107.144287	-46.889072	24.763252
62461		106.905484	-46.888059	24.706363
62462		106.641205	-46.882529	24.658041
62463		106.363061	-46.881892	24.621643
62464		106.070708	-46.878672	24.605583
62465		105.769008	-46.869801	24.605326
62466		105.451944	-46.857157	24.617031
62467		105.112422	-46.834189	24.633566
62468		104.747091	-46.794490	24.645638
62469		104.338555	-46.743787	24.652329
62470		103.872042	-46.672076	24.653374
62471		103.342296	-46.588085	24.632935
62472		102.754748	-46.508504	24.585048
62473		102.126194	-46.447957	24.499377
62474		101.471557	-46.406312	24.375658
62475		100.818171	-46.388640	24.221295
62476		100.165275	-46.377868	24.051878
62477		99.521514	-46.379087	23.877453
62478		98.873831	-46.379005	23.712214
62479		98.223346	-46.383520	23.558439
62480		97.573009	-46.386696	23.419376
62481		96.937634	-46.393977	23.296901
62482		96.327508	-46.399870	23.193619
62483		95.763379	-46.402744	23.102603
62484		95.249319	-46.403280	23.023311
62485		94.775204	-46.410981	22.952222
62486		94.289170	-46.430472	22.857230
62487		93.747022	-46.459402	22.716338
62488		93.122660	-46.505095	22.538744
62489		92.419856	-46.566495	22.334389
62490		91.654720	-46.640315	22.125381
62491		90.873540	-46.717885	21.915353
62492		90.091450	-46.792798	21.716976
62493		89.341508	-46.852971	21.541451
62494		88.633367	-46.904550	21.400236
62495		87.980740	-46.951636	21.294068
62496		87.373609	-47.004660	21.214942
62497		86.789657	-47.066326	21.143318
62498		86.182266	-47.147220	21.073760
62499		85.447501	-47.267920	20.949442
62500		84.503836	-47.418426	20.733505
62501		83.325565	-47.605567	20.436188
62502		81.937446	-47.826411	20.098933
62503		80.433228	-48.073736	19.762605
62504		78.918349	-48.328171	19.473051
62505		77.497826	-48.566618	19.268505
62506		76.241736	-48.760038	19.175061
62507		75.193053	-48.911554	19.190824
62508		74.279385	-49.050426	19.285546
62509		73.395146	-49.186083	19.403749
62510		72.458850	-49.322440	19.529381
62511		71.387648	-49.500282	19.616758
62512		70.086312	-49.720776	19.642005
62513		68.597891	-49.958997	19.624774
62514		66.999286	-50.205958	19.606700
62515		65.402456	-50.434205	19.612068
62516		63.911497	-50.619611	19.688128
62517		62.575314	-50.760946	19.842568
62518		61.350053	-50.854328	20.070639
62519		60.157624	-50.917927	20.359119
62520		58.878064	-50.977921	20.679792
62521		57.451893	-51.046754	21.014042
62522		55.818820	-51.155703	21.358297
62523		54.005062	-51.292325	21.676350
62524		52.145354	-51.421944	21.974131
62525		50.312813	-51.527343	22.285654
62526		48.595381	-51.595123	22.599712
62527		46.999004	-51.631384	22.931717
62528		45.463412	-51.652036	23.280688
62529		43.937990	-51.677098	23.617032
62530		42.396479	-51.705015	23.910980
62531		40.861263	-51.741111	24.182486
62532		39.348539	-51.775426	24.443879
62533		37.884359	-51.803395	24.669936
62534		36.494018	-51.814181	24.848100
62535		35.199697	-51.799377	24.986521
62536		34.040931	-51.736588	25.092117
62537		33.048233	-51.611616	25.182214
62538		32.233894	-51.441039	25.287511
62539		31.534100	-51.233152	25.430414
62540		30.905328	-50.999492	25.589472
62541		30.330470	-50.741770	25.738232
62542		29.811405	-50.477443	25.841700
62543		29.367301	-50.213523	25.890057
62544		28.979626	-49.972411	25.853881
62545		28.653062	-49.765212	25.737531
62546		28.403604	-49.595587	25.551730
62547		28.244533	-49.438409	25.356140
62548		28.171867	-49.282207	25.190737
62549		28.167007	-49.119396	25.073412
62550		28.169762	-48.963102	25.004553
62551		28.149649	-48.827319	24.953744
62552		28.110528	-48.707424	24.913045
62553		28.064400	-48.603759	24.885512
62554		28.003798	-48.531962	24.840368
62555		27.926930	-48.489199	24.779768
62556		27.860540	-48.457979	24.710161
62557		27.815323	-48.433299	24.659473
62558		27.795059	-48.415271	24.618865
62559		27.800087	-48.401706	24.596749
62560		27.814933	-48.380865	24.593960
62561		27.820546	-48.358984	24.600838
62562		27.790924	-48.346380	24.597782
62563		27.744392	-48.344727	24.557856
62564		27.721406	-48.349518	24.498822
62565		27.758818	-48.341993	24.434392
62566		27.848259	-48.325548	24.383584
62567		27.974521	-48.297784	24.342518
62568		28.090028	-48.263181	24.326491
62569		28.133723	-48.239997	24.314663
62570		28.106923	-48.240888	24.285082
62571		28.047056	-48.249184	24.252968
62572		28.002824	-48.264252	24.210248
62573		28.010456	-48.273898	24.166029
62574		28.070813	-48.275132	24.120693
62575		28.171959	-48.259629	24.088599
62576		28.287233	-48.229306	24.081233
62577		28.396551	-48.200758	24.078299
62578		28.492300	-48.174897	24.073410
62579		28.546193	-48.157744	24.081212
62580		28.541628	-48.165390	24.085136
62581		28.504945	-48.179978	24.078919
62582		28.468876	-48.195676	24.085919
62583		28.494767	-48.194970	24.107119
62584		28.610254	-48.170127	24.143806
62585		28.822870	-48.119318	24.199463
62586		29.072372	-48.052506	24.286031
62587		29.226735	-48.020191	24.353338
62588		29.213667	-48.028738	24.385539
62589		29.065834	-48.073759	24.395712
62590		28.896433	-48.136984	24.402809
62591		28.824349	-48.191957	24.423520
62592		28.930921	-48.223845	24.457745
62593		29.264546	-48.213565	24.505382
62594		29.839078	-48.156980	24.572122
62595		30.617025	-48.056607	24.662073
62596		31.533917	-47.926213	24.783910
62597		32.524582	-47.766186	24.939554
62598		33.512221	-47.608436	25.135338
62599		34.357802	-47.497142	25.352384
62600		34.951394	-47.450604	25.552253
62601		35.310814	-47.466138	25.696782
62602		35.540448	-47.520204	25.774409
62603		35.796701	-47.582099	25.786767
62604		36.220947	-47.620201	25.752799
62605		36.909812	-47.610075	25.700489
62606		37.887255	-47.544481	25.665605
62607		39.110769	-47.421277	25.680256
62608		40.521515	-47.253680	25.759661
62609		42.014713	-47.073240	25.896505
62610		43.447164	-46.928932	26.052017
62611		44.711603	-46.843075	26.175092
62612		45.728661	-46.822618	26.251326
62613		46.459833	-46.874771	26.274628
62614		46.958601	-46.986406	26.234351
62615		47.333816	-47.135520	26.128571
62616		47.717998	-47.296171	25.971586
62617		48.235714	-47.436265	25.785691
62618		48.978916	-47.524113	25.606626
62619		49.956368	-47.552946	25.468689
62620		51.127086	-47.524610	25.385625
62621		52.424645	-47.457948	25.360731
62622		53.767611	-47.373546	25.396505
62623		55.073177	-47.292325	25.488379
62624		56.295872	-47.231338	25.608919
62625		57.404264	-47.202579	25.738363
62626		58.425265	-47.212071	25.845075
62627		59.458234	-47.229841	25.911582
62628		60.570428	-47.253122	25.984632
62629		61.769358	-47.275957	26.070270
62630		63.058105	-47.300656	26.163284
62631		64.395783	-47.331009	26.264693
62632		65.741058	-47.372654	26.369308
62633		67.041086	-47.428626	26.461841
62634		68.262572	-47.498384	26.531154
62635		69.397535	-47.580366	26.556989
62636		70.457566	-47.685530	26.550578
62637		71.450545	-47.800204	26.521241
62638		72.421273	-47.924483	26.474381
62639		73.389667	-48.048041	26.417441
62640		74.364985	-48.163615	26.355194
62641		75.345270	-48.269205	26.287863
62642		76.327635	-48.366292	26.228273
62643		77.318106	-48.446583	26.185997
62644		78.311105	-48.508323	26.163853
62645		79.313748	-48.553196	26.169693
62646		80.337262	-48.574569	26.212670
62647		81.372214	-48.578128	26.289418
62648		82.382637	-48.573361	26.385287
62649		83.342655	-48.568243	26.479641
62650		84.224379	-48.570237	26.557523
62651		85.011463	-48.586544	26.612408
62652		85.714773	-48.604164	26.645755
62653		86.374572	-48.628304	26.685315
62654		87.005857	-48.656122	26.739213
62655		87.621741	-48.684806	26.809263
62656		88.233243	-48.705844	26.895495
62657		88.819537	-48.712534	26.996942
62658		89.384137	-48.702013	27.106706
62659		89.942292	-48.670236	27.216197
62660		90.512929	-48.632487	27.333620
62661		91.101071	-48.597106	27.462656
62662		91.720123	-48.569823	27.607844
62663		92.352663	-48.553155	27.763412
62664		92.983662	-48.546077	27.905562
62665		93.587480	-48.544419	28.017104
62666		94.132455	-48.546790	28.090831
62667		94.621127	-48.550435	28.107278
62668		95.059972	-48.549514	28.100095
62669		95.473431	-48.552765	28.070349
62670		95.886416	-48.564917	28.029040
62671		96.310395	-48.585457	27.999318
62672		96.739613	-48.617770	27.982409
62673		97.171039	-48.656786	27.967870
62674		97.579420	-48.700509	27.953634
62675		97.951541	-48.744200	27.936185
62676		98.277688	-48.789710	27.919219
62677		98.568658	-48.829053	27.891048
62678		98.839855	-48.857615	27.860184
62679		99.087360	-48.877291	27.820509
62680		99.320855	-48.891258	27.765408
62681		99.545517	-48.911556	27.704372
62682		99.771527	-48.940259	27.633003
62683		99.992626	-48.977533	27.551622
62684		100.204202	-49.023510	27.451597
62685		100.377635	-49.071632	27.342050
62686		100.535528	-49.103038	27.243642
62687		100.693844	-49.117339	27.171284
62688		100.861446	-49.125227	27.126361
62689		101.030809	-49.124218	27.104394
62690		101.184063	-49.118409	27.094891
62691		101.310739	-49.113638	27.078883
62692		101.394887	-49.114662	27.048137
62693		101.427244	-49.119904	27.001339
62694		101.414091	-49.132897	26.942747
62695		101.347765	-49.152627	26.884741
62696		101.253359	-49.163003	26.843082
62697		101.162965	-49.169576	26.835940
62698		101.100122	-49.173123	26.866112
62699		101.071863	-49.170170	26.924078
62700		101.072067	-49.166570	26.991227
62701		101.069724	-49.164164	27.059136
62702		101.051729	-49.161077	27.123367
62703		101.027859	-49.160009	27.167175
62704		100.988726	-49.157669	27.189703
62705		100.940531	-49.157626	27.205431
62706		100.887615	-49.161604	27.220457
62707		100.831814	-49.164436	27.229382
62708		100.763306	-49.164017	27.240281
62709		100.675477	-49.162242	27.246163
62710		100.560164	-49.163293	27.243135
62711		100.418030	-49.161158	27.229169
62712		100.240352	-49.161036	27.205849
62713		100.023781	-49.159733	27.162743
62714		99.755741	-49.165783	27.101207
62715		99.437381	-49.179524	27.016001
62716		99.056147	-49.196405	26.911903
62717		98.621602	-49.222353	26.784793
62718		98.134553	-49.248185	26.646177
62719		97.617481	-49.279266	26.496245
62720		97.074722	-49.312649	26.340950
62721		96.516678	-49.347724	26.179564
62722		95.959216	-49.380566	26.005825
62723		95.406035	-49.410868	25.823990
62724		94.858249	-49.431421	25.631831
62725		94.323949	-49.432605	25.423061
62726		93.797050	-49.419087	25.205733
62727		93.277297	-49.395588	24.977673
62728		92.761229	-49.371176	24.742682
62729		92.247755	-49.359207	24.502379
62730		91.719940	-49.369063	24.264864
62731		91.165727	-49.402833	24.042984
62732		90.571965	-49.462182	23.835089
62733		89.927715	-49.538020	23.637802
62734		89.221518	-49.625432	23.456387
62735		88.447371	-49.724547	23.280568
62736		87.600775	-49.838196	23.108445
62737		86.702129	-49.959037	22.937119
62738		85.766355	-50.089926	22.766459
62739		84.813383	-50.228507	22.601554
62740		83.843437	-50.375646	22.446231
62741		82.838037	-50.527197	22.291727
62742		81.804307	-50.682733	22.140152
62743		80.727551	-50.846143	21.998080
62744		79.577003	-51.028420	21.863903
62745		78.347489	-51.228670	21.725880
62746		77.052334	-51.444407	21.591636
62747		75.697154	-51.679052	21.472347
62748		74.295716	-51.938008	21.363383
62749		72.814961	-52.236217	21.271196
62750		71.241952	-52.558512	21.198131
62751		69.581132	-52.903707	21.151126
62752		67.824207	-53.251810	21.138713
62753		66.001439	-53.600233	21.190471
62754		64.050940	-53.974175	21.308092
62755		61.953641	-54.369095	21.407204
62756		59.794683	-54.740735	21.507478
62757		57.695060	-55.058108	21.635471
62758		55.758272	-55.290812	21.813575
62759		54.026237	-55.461645	22.046441
62760		52.402221	-55.618881	22.298186
62761		50.790502	-55.788359	22.557861
62762		49.080171	-55.987485	22.816630
62763		47.302088	-56.186352	23.042466
62764		45.541061	-56.355240	23.245751
62765		43.867691	-56.480297	23.444012
62766		42.339693	-56.557179	23.649242
62767		41.011831	-56.571963	23.880969
62768		39.828049	-56.527792	24.173704
62769		38.753457	-56.432408	24.500421
62770		37.730653	-56.301125	24.862657
62771		36.745503	-56.138071	25.222005
62772		35.752504	-55.951877	25.587230
62773		34.793552	-55.734183	25.926191
62774		33.880364	-55.502182	26.251630
62775		33.038388	-55.270168	26.529739
62776		32.282563	-55.046188	26.758443
62777		31.635850	-54.838122	26.917580
62778		31.103096	-54.635724	27.037978
62779		30.678022	-54.450009	27.118106
62780		30.340468	-54.271934	27.170881
62781		30.041643	-54.101369	27.204019
62782		29.745185	-53.937684	27.231877
62783		29.438627	-53.777574	27.259891
62784		29.158535	-53.622302	27.281050
62785		28.905201	-53.471668	27.305413
62786		28.680791	-53.342260	27.323357
62787		28.509479	-53.234392	27.307953
62788		28.371035	-53.152428	27.278922
62789		28.250660	-53.088981	27.237444
62790		28.141103	-53.038551	27.179941
62791		28.058269	-52.984465	27.115728
62792		27.990583	-52.920854	27.065653
62793		27.928902	-52.868829	27.012579
62794		27.865740	-52.832598	26.935765
62795		27.807649	-52.802340	26.834300
62796		27.760101	-52.784738	26.717807
62797		27.764032	-52.753146	26.594649
62798		27.795026	-52.706587	26.496195
62799		27.845154	-52.645159	26.419248
62800		27.888413	-52.567681	26.384358
62801		27.894147	-52.491471	26.374196
62802		27.864063	-52.432670	26.366312
62803		27.824444	-52.386250	26.341113
62804		27.814244	-52.346703	26.302670
62805		27.841475	-52.310935	26.248296
62806		27.908356	-52.276916	26.184824
62807		27.983421	-52.238230	26.126698
62808		28.059094	-52.195217	26.075362
62809		28.133356	-52.141142	26.041752
62810		28.187832	-52.081320	26.029073
62811		28.188952	-52.036044	26.025290
62812		28.131597	-52.010056	26.013995
62813		28.041013	-52.002159	25.976466
62814		27.969290	-52.003335	25.921208
62815		27.981522	-51.995893	25.864707
62816		28.069272	-51.979650	25.832886
62817		28.184570	-51.968137	25.807595
62818		28.275981	-51.955910	25.797237
62819		28.299596	-51.943217	25.799777
62820		28.285192	-51.929563	25.795202
62821		28.288149	-51.911682	25.791840
62822		28.338984	-51.883125	25.794984
62823		28.436715	-51.857575	25.784376
62824		28.557654	-51.836768	25.771370
62825		28.679011	-51.821945	25.770322
62826		28.737689	-51.823437	25.776617
62827		28.722875	-51.842440	25.770803
62828		28.668294	-51.859096	25.764754
62829		28.662783	-51.863651	25.754469
62830		28.759888	-51.847296	25.746750
62831		28.994113	-51.804425	25.745870
62832		29.380752	-51.735224	25.750148
62833		29.961254	-51.631684	25.749757
62834		30.782495	-51.474196	25.766152
62835		31.790956	-51.272339	25.818381
62836		32.780328	-51.087481	25.937159
62837		33.486502	-50.976170	26.081816
62838		33.832213	-50.948554	26.206095
62839		33.884507	-50.972907	26.298867
62840		33.843031	-51.003988	26.359374
62841		33.882885	-51.012886	26.382692
62842		34.104628	-50.986844	26.368293
62843		34.500116	-50.926405	26.328065
62844		34.992515	-50.851953	26.277609
62845		35.505694	-50.780100	26.216561
62846		36.005868	-50.712555	26.152116
62847		36.513539	-50.636432	26.092268
62848		37.069807	-50.539611	26.056627
62849		37.716310	-50.415206	26.066035
62850		38.513463	-50.253630	26.114803
62851		39.477594	-50.051394	26.204601
62852		40.609130	-49.817337	26.319308
62853		41.872088	-49.562982	26.451760
62854		43.211942	-49.297458	26.591836
62855		44.571244	-49.053425	26.722953
62856		45.912619	-48.847549	26.842131
62857		47.209852	-48.678061	26.946078
62858		48.474454	-48.540096	27.018645
62859		49.712847	-48.431019	27.059266
62860		50.946221	-48.347617	27.063231
62861		52.175238	-48.284831	27.044925
62862		53.427021	-48.234315	27.018040
62863		54.701868	-48.195762	26.994073
62864		56.008520	-48.163284	26.973561
62865		57.329643	-48.130787	26.975311
62866		58.648910	-48.098340	26.992519
62867		59.927770	-48.070701	27.018899
62868		61.144786	-48.057277	27.048262
62869		62.282971	-48.057979	27.077930
62870		63.356029	-48.074524	27.091360
62871		64.360167	-48.108350	27.083382
62872		65.298220	-48.158613	27.059442
62873		66.174308	-48.217535	27.016177
62874		67.019443	-48.275354	26.951135
62875		67.840660	-48.332925	26.875207
62876		68.656123	-48.385561	26.798667
62877		69.478676	-48.434625	26.714536
62878		70.320943	-48.468264	26.631740
62879		71.178576	-48.490489	26.557938
62880		72.065020	-48.505886	26.501246
62881		72.967974	-48.516359	26.466899
62882		73.903635	-48.526200	26.462184
62883		74.838107	-48.542841	26.492322
62884		75.757802	-48.555895	26.537731
62885		76.677199	-48.560155	26.587441
62886		77.592338	-48.558224	26.635091
62887		78.472722	-48.548495	26.682353
62888		79.323831	-48.544381	26.720257
62889		80.123904	-48.544019	26.746991
62890		80.869867	-48.542994	26.760500
62891		81.639483	-48.519759	26.769188
62892		82.478887	-48.468223	26.827420
62893		83.392871	-48.405442	26.949475
62894		84.407084	-48.334057	27.129351
62895		85.476488	-48.263676	27.359860
62896		86.548722	-48.211921	27.601547
62897		87.565097	-48.178221	27.817828
62898		88.480795	-48.168064	27.980707
62899		89.258547	-48.172338	28.067693
62900		89.887857	-48.184658	28.071898
62901		90.377035	-48.197290	28.003698
62902		90.745944	-48.212961	27.889511
62903		91.036515	-48.214193	27.755678
62904		91.332223	-48.202998	27.656777
62905		91.677084	-48.185762	27.617957
62906		92.088145	-48.162889	27.640079
62907		92.547312	-48.133577	27.710508
62908		93.010002	-48.097228	27.811128
62909		93.445925	-48.063940	27.911843
62910		93.819513	-48.032846	27.998044
62911		94.124796	-48.004870	28.048878
62912		94.359098	-47.978532	28.067495
62913		94.520785	-47.956485	28.056062
62914		94.610442	-47.940311	28.019859
62915		94.647060	-47.919257	27.965746
62916		94.652944	-47.902812	27.917172
62917		94.647583	-47.883221	27.879635
62918		94.666971	-47.876982	27.865613
62919		94.755901	-47.876399	27.884652
62920		94.912453	-47.875005	27.937972
62921		95.126776	-47.866144	28.007133
62922		95.351113	-47.852599	28.086193
62923		95.555710	-47.841219	28.151529
62924		95.717249	-47.831512	28.197770
62925		95.833126	-47.825444	28.211918
62926		95.894238	-47.825424	28.208647
62927		95.916883	-47.829281	28.178954
62928		95.919635	-47.836412	28.145075
62929		95.910883	-47.843021	28.112454
62930		95.908017	-47.846562	28.088974
62931		95.970906	-47.838823	28.108898
62932		96.130633	-47.827689	28.210790
62933		96.402801	-47.809649	28.371666
62934		96.750675	-47.788659	28.572867
62935		97.120564	-47.769120	28.773019
62936		97.457370	-47.752897	28.943781
62937		97.727830	-47.739696	29.064746
62938		97.916351	-47.734051	29.121746
62939		98.018416	-47.737771	29.108695
62940		98.040851	-47.749196	29.046297
62941		98.007786	-47.765423	28.952694
62942		97.951936	-47.777240	28.862589
62943		97.910107	-47.785200	28.785146
62944		97.904038	-47.786615	28.738400
62945		97.933006	-47.785536	28.724498
62946		97.982554	-47.777686	28.736675
62947		98.038347	-47.757037	28.758005
62948		98.081637	-47.727609	28.779736
62949		98.105934	-47.697779	28.804534
62950		98.117850	-47.677140	28.824725
62951		98.122767	-47.671061	28.837275
62952		98.126844	-47.671918	28.841578
62953		98.121040	-47.676170	28.835742
62954		98.098039	-47.681944	28.824836
62955		98.073980	-47.688107	28.813207
62956		98.060218	-47.693946	28.810909
62957		98.064167	-47.701334	28.815026
62958		98.084308	-47.700111	28.824216
62959		98.109676	-47.699687	28.834058
62960		98.132930	-47.697331	28.839910
62961		98.151202	-47.694500	28.834226
62962		98.152973	-47.691581	28.822359
62963		98.141743	-47.686252	28.799531
62964		98.121318	-47.690856	28.772488
62965		98.092740	-47.693709	28.748745
62966		98.056766	-47.699296	28.731529
62967		98.026361	-47.706860	28.722776
62968		97.999771	-47.720003	28.723360
62969		97.979275	-47.731316	28.732296
62970		97.964289	-47.739921	28.741689
62971		97.945603	-47.745206	28.748949
62972		97.916704	-47.744505	28.750377
62973		97.871762	-47.741539	28.742983
62974		97.793802	-47.732733	28.732699
62975		97.676852	-47.723695	28.710528
62976		97.501814	-47.715948	28.683186
62977		97.275214	-47.715286	28.643321
62978		96.999460	-47.722869	28.587879
62979		96.681118	-47.729278	28.511839
62980		96.315411	-47.739627	28.405410
62981		95.902756	-47.745726	28.279207
62982		95.448841	-47.751901	28.129031
62983		94.938273	-47.761942	27.958604
62984		94.349337	-47.775905	27.764903
62985		93.661569	-47.804588	27.552713
62986		92.858320	-47.845627	27.314351
62987		91.938133	-47.898295	27.049341
62988		90.887705	-47.973816	26.765151
62989		89.709430	-48.059023	26.471042
62990		88.432795	-48.149813	26.180479
62991		87.097806	-48.249646	25.909236
62992		85.742393	-48.347202	25.674208
62993		84.419289	-48.432036	25.477549
62994		83.165939	-48.505835	25.325822
62995		82.002391	-48.577648	25.225745
62996		80.916720	-48.659769	25.145902
62997		79.862600	-48.755488	25.064358
62998		78.780745	-48.879808	24.968762
62999		77.596413	-49.027734	24.844062
63000		76.311378	-49.186366	24.698581
63001		74.983899	-49.352488	24.554506
63002		73.676666	-49.516344	24.445089
63003		72.473028	-49.659585	24.375570
63004		71.422033	-49.772848	24.351788
63005		70.523511	-49.862855	24.379941
63006		69.713214	-49.963356	24.435895
63007		68.903808	-50.082712	24.476567
63008		68.009872	-50.240555	24.491311
63009		66.852903	-50.474785	24.441597
63010		65.345343	-50.788186	24.295317
63011		63.501471	-51.170728	24.089252
63012		61.385581	-51.587300	23.867935
63013		59.200373	-51.991372	23.671641
63014		57.106119	-52.334343	23.571796
63015		55.197146	-52.622235	23.558130
63016		53.479450	-52.864691	23.627766
63017		51.818495	-53.108792	23.741366
63018		50.115453	-53.355942	23.870116
63019		48.236067	-53.655830	24.021169
63020		46.191737	-53.970812	24.159286
63021		44.058855	-54.283913	24.317766
63022		41.982988	-54.537591	24.472627
63023		40.132744	-54.711066	24.625398
63024		38.563889	-54.797944	24.817808
63025		37.229819	-54.822210	25.056975
63026		36.112042	-54.795022	25.288472
63027		35.130088	-54.740485	25.530029
63028		34.178935	-54.666577	25.782991
63029		33.239146	-54.567194	26.019509
63030		32.365736	-54.445692	26.211147
63031		31.612315	-54.309022	26.368568
63032		30.997131	-54.163851	26.509743
63033		30.515691	-54.006489	26.643602
63034		30.146442	-53.833642	26.799988
63035		29.825572	-53.634559	26.997213
63036		29.512233	-53.432765	27.217294
63037		29.204012	-53.217866	27.436780
63038		28.921539	-52.990140	27.657041
63039		28.647760	-52.770068	27.870457
63040		28.364493	-52.585013	28.041522
63041		28.070062	-52.429450	28.166634
63042		27.809111	-52.295182	28.249613
63043		27.639153	-52.162519	28.313399
63044		27.569057	-52.032405	28.374456
63045		27.566766	-51.915202	28.422897
63046		27.576094	-51.808391	28.471228
63047		27.576363	-51.718324	28.507421
63048		27.529147	-51.654247	28.540936
63049		27.455598	-51.613742	28.543700
63050		27.405500	-51.580397	28.526338
63051		27.407883	-51.540829	28.508501
63052		27.436010	-51.510243	28.479909
63053		27.460484	-51.488396	28.437344
63054		27.455395	-51.468725	28.399287
63055		27.424060	-51.457176	28.351648
63056		27.389014	-51.450106	28.303899
63057		27.379269	-51.443170	28.247853
63058		27.401601	-51.437848	28.189404
63059		27.418831	-51.435164	28.131124
63060		27.440668	-51.429014	28.069274
63061		27.472109	-51.415732	28.022408
63062		27.506931	-51.401588	27.979290
63063		27.550664	-51.380304	27.941056
63064		27.577811	-51.365075	27.920402
63065		27.553449	-51.367659	27.886660
63066		27.484786	-51.378934	27.842683
63067		27.442166	-51.381127	27.801793
63068		27.489146	-51.364454	27.776006
63069		27.615082	-51.333569	27.775047
63070		27.781449	-51.294671	27.781580
63071		27.958862	-51.246496	27.794785
63072		28.128019	-51.193807	27.815900
63073		28.275004	-51.140687	27.832469
63074		28.403796	-51.086329	27.845990
63075		28.498731	-51.041234	27.866031
63076		28.565490	-51.004648	27.875986
63077		28.624940	-50.969841	27.880887
63078		28.719897	-50.918549	27.892640
63079		28.903040	-50.843655	27.914648
63080		29.210643	-50.737705	27.953003
63081		29.670327	-50.595303	28.004535
63082		30.258371	-50.426100	28.081588
63083		30.865016	-50.254124	28.205329
63084		31.359792	-50.119444	28.342987
63085		31.687709	-50.024304	28.451132
63086		31.878024	-49.958226	28.530158
63087		32.043045	-49.907151	28.574694
63088		32.317068	-49.848636	28.589901
63089		32.794256	-49.757403	28.595890
63090		33.533364	-49.614905	28.621460
63091		34.536907	-49.418383	28.678921
63092		35.713897	-49.185417	28.786638
63093		36.948073	-48.945827	28.943997
63094		38.134660	-48.719776	29.135739
63095		39.164834	-48.534388	29.350177
63096		39.939960	-48.422120	29.546183
63097		40.455814	-48.376983	29.689547
63098		40.807202	-48.375577	29.755908
63099		41.100540	-48.397387	29.761914
63100		41.462332	-48.420466	29.718382
63101		41.963710	-48.425046	29.664934
63102		42.656349	-48.385333	29.624452
63103		43.566135	-48.295549	29.618392
63104		44.668590	-48.156699	29.675628
63105		45.909804	-47.984044	29.804563
63106		47.234172	-47.794713	29.983800
63107		48.572026	-47.610282	30.195359
63108		49.864420	-47.438622	30.424081
63109		51.081123	-47.287425	30.631012
63110		52.218503	-47.168401	30.800879
63111		53.267504	-47.088042	30.925556
63112		54.259095	-47.039022	31.006114
63113		55.203960	-47.015656	31.055281
63114		56.126828	-47.009119	31.073735
63115		57.027093	-47.017836	31.072419
63116		57.893411	-47.034792	31.064778
63117		58.727928	-47.062192	31.043103
63118		59.552027	-47.089657	31.008034
63119		60.366302	-47.122276	30.969158
63120		61.172225	-47.159755	30.932338
63121		61.974954	-47.195628	30.895956
63122		62.793832	-47.218080	30.867169
63123		63.628946	-47.234845	30.844250
63124		64.457772	-47.253347	30.830057
63125		65.273366	-47.284760	30.816069
63126		66.073652	-47.322640	30.801070
63127		66.853916	-47.363240	30.775747
63128		67.631948	-47.394750	30.747290
63129		68.439174	-47.420184	30.728676
63130		69.279896	-47.442387	30.726565
63131		70.139391	-47.466369	30.733582
63132		71.006326	-47.492814	30.738842
63133		71.849202	-47.521057	30.728595
63134		72.656732	-47.560440	30.700763
63135		73.431654	-47.611972	30.661264
63136		74.209609	-47.668371	30.629043
63137		75.002522	-47.726055	30.624606
63138		75.817122	-47.779362	30.637458
63139		76.637726	-47.825851	30.660817
63140		77.444408	-47.863423	30.703861
63141		78.229435	-47.903069	30.761828
63142		78.989036	-47.946233	30.821049
63143		79.712508	-48.001963	30.878387
63144		80.403881	-48.073106	30.926939
63145		81.071326	-48.154594	30.959470
63146		81.746508	-48.227603	30.983366
63147		82.490863	-48.271066	31.019837
63148		83.323761	-48.291926	31.092470
63149		84.231621	-48.299236	31.191730
63150		85.175623	-48.308085	31.291575
63151		86.089446	-48.330612	31.386913
63152		86.954204	-48.371738	31.456927
63153		87.771126	-48.425642	31.500931
63154		88.545658	-48.497066	31.525411
63155		89.280794	-48.576441	31.517957
63156		89.974627	-48.652219	31.474061
63157		90.635533	-48.723570	31.385423
63158		91.247066	-48.795394	31.265352
63159		91.825818	-48.863528	31.131330
63160		92.401373	-48.921661	31.016565
63161		92.985517	-48.968505	30.931353
63162		93.581014	-49.000918	30.885371
63163		94.177991	-49.020950	30.873191
63164		94.745890	-49.031863	30.888747
63165		95.264131	-49.045102	30.916759
63166		95.723234	-49.067119	30.946590
63167		96.125587	-49.100512	30.985492
63168		96.487868	-49.141567	31.026944
63169		96.835217	-49.177411	31.073455
63170		97.189586	-49.203692	31.131060
63171		97.556218	-49.233874	31.196771
63172		97.939885	-49.263027	31.269247
63173		98.328644	-49.289062	31.346722
63174		98.712741	-49.303713	31.413991
63175		99.093140	-49.306639	31.473596
63176		99.458232	-49.309422	31.517238
63177		99.796862	-49.321990	31.540644
63178		100.098874	-49.345772	31.541750
63179		100.359224	-49.367818	31.515747
63180		100.577659	-49.390462	31.472969
63181		100.761951	-49.411193	31.422425
63182		100.926487	-49.434931	31.373286
63183		101.097678	-49.481370	31.348288
63184		101.285682	-49.541208	31.367281
63185		101.557105	-49.591338	31.445871
63186		101.934098	-49.628002	31.594646
63187		102.391175	-49.649318	31.793909
63188		102.908261	-49.669812	31.996876
63189		103.414720	-49.685943	32.170671
63190		103.871984	-49.707453	32.282655
63191		104.244227	-49.721113	32.321564
63192		104.513723	-49.720993	32.296291
63193		104.680510	-49.712779	32.217960
63194		104.749481	-49.708015	32.118837
63195		104.748379	-49.709050	32.012971
63196		104.681243	-49.712651	31.927182
63197		104.556967	-49.713538	31.851586
63198		104.367267	-49.712699	31.790024
63199		104.138579	-49.711155	31.729137
63200		103.906336	-49.706404	31.678746
63201		103.687604	-49.696603	31.645956
63202		103.493118	-49.680213	31.627289
63203		103.321027	-49.655402	31.609713
63204		103.184470	-49.630792	31.593288
63205		103.108917	-49.606910	31.594570
63206		103.085921	-49.595816	31.617804
63207		103.117070	-49.582696	31.650349
63208		103.159321	-49.565211	31.681718
63209		103.185989	-49.555144	31.700513
63210		103.179181	-49.545259	31.702607
63211		103.126334	-49.538577	31.691735
63212		103.029950	-49.532140	31.666017
63213		102.896628	-49.523161	31.633070
63214		102.730013	-49.523460	31.602338
63215		102.543819	-49.524419	31.567516
63216		102.331285	-49.523381	31.536999
63217		102.103307	-49.518208	31.500917
63218		101.857480	-49.513344	31.452812
63219		101.590475	-49.507367	31.390761
63220		101.295656	-49.499796	31.322611
63221		100.971845	-49.488282	31.235345
63222		100.611575	-49.471532	31.125579
63223		100.197960	-49.449658	30.992713
63224		99.726350	-49.421302	30.836783
63225		99.191796	-49.380171	30.654509
63226		98.589313	-49.319327	30.451150
63227		97.927039	-49.241530	30.221493
63228		97.203082	-49.155997	29.967331
63229		96.429801	-49.071463	29.694674
63230		95.624039	-49.018829	29.408511
63231		94.801731	-49.012316	29.126043
63232		93.966730	-49.046066	28.871964
63233		93.139684	-49.090836	28.655166
63234		92.315619	-49.131042	28.489345
63235		91.510526	-49.159965	28.356680
63236		90.718889	-49.184678	28.250838
63237		89.939613	-49.216362	28.146247
63238		89.156890	-49.247221	28.009137
63239		88.342670	-49.286887	27.845664
63240		87.498036	-49.340647	27.660522
63241		86.629647	-49.413999	27.468586
63242		85.746095	-49.496577	27.281033
63243		84.829060	-49.596823	27.085259
63244		83.815018	-49.722806	26.850994
63245		82.683467	-49.871789	26.588389
63246		81.442230	-50.033647	26.314777
63247		80.147169	-50.199929	26.042129
63248		78.844754	-50.352857	25.790721
63249		77.573151	-50.502577	25.573938
63250		76.242799	-50.682740	25.383499
63251		74.738487	-50.896266	25.174412
63252		73.032749	-51.150609	24.952516
63253		71.058724	-51.467917	24.716006
63254		68.804796	-51.835426	24.472264
63255		66.371846	-52.228972	24.229997
63256		63.867985	-52.584269	24.054977
63257		61.477807	-52.892778	23.955369
63258		59.324524	-53.129830	23.949903
63259		57.475799	-53.289592	24.021256
63260		55.872790	-53.408146	24.150648
63261		54.333526	-53.549347	24.292070
63262		52.732127	-53.735919	24.419490
63263		51.009625	-53.961548	24.528396
63264		49.152905	-54.213198	24.607310
63265		47.321378	-54.430565	24.654209
63266		45.652744	-54.579743	24.693083
63267		44.279076	-54.646486	24.738280
63268		43.237929	-54.646560	24.805093
63269		42.424835	-54.616594	24.912529
63270		41.704116	-54.593645	25.040908
63271		40.924253	-54.586240	25.203873
63272		39.947230	-54.620355	25.404126
63273		38.813425	-54.668646	25.578270
63274		37.665972	-54.678548	25.722531
63275		36.620312	-54.645415	25.858155
63276		35.749560	-54.571130	25.971899
63277		35.055027	-54.457666	26.095542
63278		34.484709	-54.322154	26.242208
63279		33.977648	-54.167102	26.406794
63280		33.416182	-54.018112	26.600215
63281		32.762635	-53.885349	26.772968
63282		32.049040	-53.750942	26.914242
63283		31.321344	-53.618515	27.035942
63284		30.655814	-53.496542	27.117798
63285		30.149798	-53.371738	27.150402
63286		29.816078	-53.243118	27.178856
63287		29.607681	-53.126387	27.232357
63288		29.448803	-53.035337	27.306560
63289		29.276654	-52.955909	27.398598
63290		28.999917	-52.899323	27.507388
63291		28.644375	-52.871673	27.576134
63292		28.275856	-52.854451	27.615657
63293		27.992868	-52.834997	27.629938
63294		27.820833	-52.827552	27.634643
63295		27.708934	-52.839832	27.629830
63296		27.624720	-52.872480	27.609357
63297		27.555075	-52.900841	27.589704
63298		27.517652	-52.902017	27.586156
63299		27.495303	-52.889743	27.623905
63300		27.429521	-52.883464	27.666495
63301		27.337255	-52.883203	27.688791
63302		27.201572	-52.893084	27.712234
63303		27.069511	-52.907053	27.708515
63304		26.969880	-52.917657	27.686746
63305		26.943069	-52.915976	27.653239
63306		27.011277	-52.897017	27.621727
63307		27.168221	-52.864558	27.596522
63308		27.333265	-52.830231	27.591676
63309		27.440866	-52.814755	27.579417
63310		27.486189	-52.806367	27.558824
63311		27.494908	-52.796867	27.524898
63312		27.515450	-52.784889	27.482751
63313		27.567850	-52.767901	27.435161
63314		27.650888	-52.750895	27.383099
63315		27.758975	-52.730126	27.332715
63316		27.890431	-52.701240	27.287242
63317		27.985169	-52.687127	27.247106
63318		28.026421	-52.677166	27.201311
63319		28.048628	-52.669671	27.154977
63320		28.044002	-52.669233	27.107585
63321		28.045409	-52.670473	27.055122
63322		28.091177	-52.664554	27.003379
63323		28.216300	-52.641985	26.950080
63324		28.403052	-52.608288	26.905597
63325		28.623532	-52.580304	26.868620
63326		28.796871	-52.557499	26.856369
63327		28.879272	-52.549898	26.847188
63328		28.916388	-52.541403	26.826785
63329		28.981254	-52.518235	26.795683
63330		29.133264	-52.473658	26.760262
63331		29.410675	-52.408385	26.725417
63332		29.850672	-52.320746	26.692112
63333		30.414605	-52.202278	26.686888
63334		31.002867	-52.079476	26.732973
63335		31.458418	-51.988788	26.814817
63336		31.727613	-51.935553	26.886624
63337		31.864137	-51.913991	26.920907
63338		31.943796	-51.903955	26.918728
63339		32.067600	-51.890658	26.887411
63340		32.345272	-51.852653	26.846061
63341		32.803805	-51.785901	26.823682
63342		33.440309	-51.681281	26.836974
63343		34.205276	-51.550931	26.890132
63344		34.940434	-51.434110	26.982235
63345		35.547020	-51.348257	27.076485
63346		36.027278	-51.287365	27.151360
63347		36.427066	-51.247279	27.199786
63348		36.770019	-51.226005	27.215192
63349		37.118905	-51.223378	27.189136
63350		37.524639	-51.212703	27.140601
63351		38.040605	-51.194732	27.085589
63352		38.675190	-51.168889	27.038570
63353		39.402130	-51.144238	27.009042
63354		40.178415	-51.123392	27.002940
63355		40.973150	-51.105929	27.001211
63356		41.754460	-51.091297	27.000459
63357		42.518794	-51.080411	26.996885
63358		43.278095	-51.077672	26.991441
63359		44.061388	-51.075951	26.986685
63360		44.899295	-51.064747	26.996103
63361		45.811746	-51.030338	27.030284
63362		46.790012	-50.980401	27.085489
63363		47.793169	-50.927822	27.143329
63364		48.785588	-50.872946	27.214660
63365		49.757152	-50.826044	27.297294
63366		50.699826	-50.783448	27.381843
63367		51.607704	-50.744347	27.462583
63368		52.498943	-50.709244	27.533717
63369		53.366953	-50.682281	27.600282
63370		54.256568	-50.658276	27.667190
63371		55.200728	-50.630556	27.752969
63372		56.192275	-50.604330	27.863419
63373		57.230675	-50.589830	27.984192
63374		58.292530	-50.582403	28.108646
63375		59.344593	-50.588296	28.222614
63376		60.370513	-50.607102	28.307430
63377		61.350968	-50.634853	28.354351
63378		62.303518	-50.664958	28.368544
63379		63.238217	-50.697462	28.369066
63380		64.161214	-50.739247	28.367469
63381		65.073723	-50.790551	28.362943
63382		65.993730	-50.842167	28.360165
63383		66.924543	-50.891935	28.371814
63384		67.879605	-50.927354	28.396378
63385		68.838479	-50.952509	28.444254
63386		69.800951	-50.967225	28.498391
63387		70.764251	-50.969926	28.577758
63388		71.722435	-50.973815	28.687660
63389		72.668543	-50.971643	28.810246
63390		73.605594	-50.964523	28.941130
63391		74.523520	-50.950826	29.063057
63392		75.428864	-50.926703	29.175081
63393		76.319999	-50.903726	29.290984
63394		77.206946	-50.873848	29.405420
63395		78.102429	-50.832988	29.532779
63396		79.029391	-50.782130	29.654134
63397		79.945480	-50.734922	29.785195
63398		80.838038	-50.697459	29.913363
63399		81.689536	-50.667737	30.034669
63400		82.504268	-50.642496	30.154322
63401		83.295436	-50.617571	30.275783
63402		84.073871	-50.586231	30.390757
63403		84.834305	-50.558456	30.498273
63404		85.592176	-50.533064	30.589584
63405		86.348809	-50.503223	30.681557
63406		87.152786	-50.474967	30.786470
63407		88.019906	-50.441657	30.921681
63408		88.952206	-50.412454	31.089136
63409		89.899531	-50.384891	31.280705
63410		90.822399	-50.365041	31.472073
63411		91.676877	-50.355642	31.635117
63412		92.428911	-50.360298	31.750309
63413		93.073543	-50.380859	31.820103
63414		93.627172	-50.411375	31.853184
63415		94.130270	-50.442794	31.853309
63416		94.613238	-50.465925	31.833680
63417		95.083895	-50.484505	31.790444
63418		95.560986	-50.490631	31.746645
63419		96.128664	-50.484591	31.750577
63420		96.808012	-50.474605	31.815579
63421		97.580430	-50.472831	31.936029
63422		98.404168	-50.471504	32.074254
63423		99.218485	-50.482403	32.199025
63424		99.967082	-50.503391	32.275621
63425		100.614841	-50.531495	32.284357
63426		101.141639	-50.546191	32.215590
63427		101.529570	-50.551021	32.092754
63428		101.807817	-50.543422	31.935858
63429		102.007814	-50.540861	31.770139
63430		102.133106	-50.534434	31.614094
63431		102.218840	-50.527411	31.468780
63432		102.343278	-50.504609	31.379982
63433		102.595279	-50.479876	31.377852
63434		102.964938	-50.451401	31.458373
63435		103.443312	-50.416933	31.581372
63436		103.966439	-50.381237	31.714608
63437		104.457638	-50.350856	31.826777
63438		104.881514	-50.320740	31.875302
63439		105.196791	-50.302580	31.861412
63440		105.393318	-50.283324	31.790475
63441		105.457824	-50.270841	31.673174
63442		105.383127	-50.261290	31.516340
63443		105.171788	-50.267291	31.335927
63444		104.864535	-50.282057	31.163457
63445		104.537893	-50.297541	31.016008
63446		104.240254	-50.314587	30.930162
63447		104.012492	-50.322516	30.895264
63448		103.867958	-50.321933	30.896453
63449		103.768119	-50.322386	30.924408
63450		103.693646	-50.313299	30.954515
63451		103.639938	-50.302807	30.980842
63452		103.584393	-50.290406	30.990147
63453		103.517986	-50.270919	30.982008
63454		103.440159	-50.248456	30.949719
63455		103.324530	-50.232389	30.906641
63456		103.174705	-50.223650	30.849547
63457		102.984334	-50.221865	30.784242
63458		102.748210	-50.229288	30.715057
63459		102.464069	-50.245047	30.646090
63460		102.138142	-50.265444	30.592049
63461		101.810571	-50.286608	30.558119
63462		101.510032	-50.303615	30.562497
63463		101.257353	-50.320060	30.598130
63464		101.064070	-50.330465	30.652132
63465		100.911673	-50.334273	30.708856
63466		100.776672	-50.338533	30.745453
63467		100.611962	-50.339029	30.751895
63468		100.397867	-50.342320	30.716646
63469		100.107623	-50.343801	30.651057
63470		99.742353	-50.345261	30.556801
63471		99.302874	-50.340771	30.454632
63472		98.817009	-50.327947	30.354467
63473		98.321503	-50.308397	30.261712
63474		97.835177	-50.280012	30.191007
63475		97.380403	-50.232327	30.134105
63476		96.941082	-50.177099	30.094515
63477		96.518959	-50.129669	30.058406
63478		96.087335	-50.087406	30.024810
63479		95.651255	-50.046920	29.974651
63480		95.189007	-50.008569	29.909173
63481		94.706922	-49.974026	29.820027
63482		94.205033	-49.942687	29.710561
63483		93.692842	-49.920278	29.582510
63484		93.163854	-49.905131	29.445278
63485		92.617385	-49.900380	29.311991
63486		92.049466	-49.898912	29.189393
63487		91.469441	-49.900458	29.072122
63488		90.875080	-49.909461	28.965981
63489		90.260537	-49.924125	28.856449
63490		89.614050	-49.946248	28.721902
63491		88.932896	-49.971497	28.553291
63492		88.169733	-50.008453	28.332463
63493		87.307453	-50.062176	28.052483
63494		86.348216	-50.117261	27.737066
63495		85.316839	-50.175957	27.404631
63496		84.229636	-50.234530	27.081286
63497		83.131270	-50.285959	26.778021
63498		82.044095	-50.331630	26.502685
63499		80.974280	-50.372836	26.260771
63500		79.933594	-50.426452	26.067968
63501		78.939434	-50.497601	25.924351
63502		77.995014	-50.587683	25.829463
63503		77.119193	-50.688273	25.774215
63504		76.333073	-50.784463	25.747489
63505		75.649707	-50.864283	25.740362
63506		75.072153	-50.925266	25.743920
63507		74.599990	-50.973399	25.753581
63508		74.203635	-51.007678	25.769118
63509		73.849373	-51.035020	25.790519
63510		73.488130	-51.072315	25.805754
63511		73.047287	-51.131167	25.789809
63512		72.495566	-51.212093	25.739878
63513		71.839259	-51.313366	25.663817
63514		71.090547	-51.430100	25.588402
63515		70.321008	-51.543732	25.513245
63516		69.553795	-51.651018	25.461673
63517		68.827610	-51.741614	25.432291
63518		68.167024	-51.811345	25.434222
63519		67.588240	-51.850025	25.459532
63520		67.056644	-51.871843	25.502163
63521		66.480566	-51.910119	25.540121
63522		65.673698	-52.010021	25.541816
63523		64.364158	-52.233823	25.425466
63524		62.465618	-52.555487	25.116333
63525		60.156184	-52.915469	24.683596
63526		57.684990	-53.232955	24.232196
63527		55.307832	-53.465926	23.864506
63528		53.231395	-53.606267	23.596610
63529		51.568758	-53.671315	23.425074
63530		50.236953	-53.700777	23.356443
63531		49.069689	-53.741069	23.392208
63532		47.764485	-53.873168	23.499445
63533		46.172710	-54.095210	23.600330
63534		44.292055	-54.367680	23.671115
63535		42.267652	-54.630316	23.716558
63536		40.375245	-54.814012	23.763342
63537		38.869883	-54.884101	23.827931
63538		37.830091	-54.855320	23.909253
63539		37.194437	-54.764703	24.035390
63540		36.769646	-54.673036	24.219951
63541		36.372805	-54.579794	24.453134
63542		35.827166	-54.499896	24.739203
63543		35.086057	-54.438842	25.028010
63544		34.159244	-54.389768	25.297682
63545		33.227561	-54.341392	25.503685
63546		32.463915	-54.274949	25.654527
63547		32.011095	-54.162178	25.743137
63548		31.836342	-54.028427	25.826079
63549		31.817894	-53.910609	25.888800
63550		31.829422	-53.784543	25.967031
63551		31.760150	-53.649394	26.070118
63552		31.558237	-53.528920	26.173822
63553		31.250413	-53.429130	26.263486
63554		30.880408	-53.357503	26.343952
63555		30.509237	-53.321864	26.373877
63556		30.213297	-53.309978	26.349607
63557		30.047412	-53.295570	26.297701
63558		30.036593	-53.264642	26.246200
63559		30.144090	-53.217184	26.218967
63560		30.294032	-53.155680	26.211570
63561		30.367445	-53.100448	26.215309
63562		30.293316	-53.065736	26.217367
63563		30.082926	-53.059976	26.219517
63564		29.824319	-53.069840	26.208830
63565		29.626943	-53.082583	26.184671
63566		29.524702	-53.096567	26.155409
63567		29.540057	-53.100383	26.110989
63568		29.628008	-53.086801	26.080425
63569		29.766623	-53.050823	26.064831
63570		29.872931	-53.008340	26.079082
63571		29.854788	-52.992402	26.092754
63572		29.720760	-53.005483	26.089065
63573		29.559379	-53.025542	26.065923
63574		29.470482	-53.035936	26.044565
63575		29.534840	-53.030481	26.018932
63576		29.706215	-53.013847	26.005721
63577		29.884340	-52.996082	26.002828
63578		30.005349	-52.975047	26.002224
63579		30.040065	-52.952601	26.009152
63580		29.987572	-52.940246	26.025051
63581		29.878817	-52.944886	26.038385
63582		29.759689	-52.958419	26.029869
63583		29.680740	-52.976340	26.013258
63584		29.697855	-52.977208	25.999552
63585		29.835625	-52.951237	25.997316
63586		30.036858	-52.908165	26.022734
63587		30.186366	-52.865102	26.066094
63588		30.255486	-52.829689	26.104433
63589		30.249610	-52.797242	26.153358
63590		30.169639	-52.782077	26.197931
63591		30.058121	-52.791349	26.218993
63592		29.970062	-52.807858	26.222672
63593		29.976174	-52.816276	26.215353
63594		30.098654	-52.811003	26.209718
63595		30.320525	-52.785006	26.220297
63596		30.590641	-52.737275	26.249316
63597		30.861932	-52.679542	26.292511
63598		31.074820	-52.629732	26.354936
63599		31.178587	-52.605083	26.417262
63600		31.201956	-52.605500	26.448193
63601		31.218009	-52.618360	26.447054
63602		31.305335	-52.630262	26.430832
63603		31.530335	-52.626621	26.401871
63604		31.896823	-52.594301	26.381287
63605		32.378629	-52.534643	26.378345
63606		32.886186	-52.459605	26.410582
63607		33.345689	-52.387546	26.458031
63608		33.677654	-52.338471	26.515978
63609		33.861373	-52.321602	26.561915
63610		33.950002	-52.326570	26.583256
63611		34.038133	-52.337236	26.579514
63612		34.223464	-52.335959	26.556214
63613		34.570887	-52.301803	26.519848
63614		35.101358	-52.235548	26.493074
63615		35.829219	-52.114027	26.489309
63616		36.726180	-51.956617	26.527219
63617		37.586161	-51.819960	26.611766
63618		38.230295	-51.743076	26.705702
63619		38.637844	-51.732808	26.735326
63620		38.860475	-51.761728	26.711257
63621		39.039216	-51.804696	26.640967
63622		39.320446	-51.833858	26.538277
63623		39.803957	-51.835984	26.425938
63624		40.532300	-51.790511	26.328210
63625		41.510828	-51.689161	26.271024
63626		42.689167	-51.542372	26.263561
63627		43.952240	-51.381568	26.300064
63628		45.161625	-51.240096	26.359646
63629		46.219247	-51.152541	26.411188
63630		47.082819	-51.119359	26.417885
63631		47.768515	-51.144118	26.368210
63632		48.330134	-51.215819	26.269659
63633		48.850033	-51.314543	26.122324
63634		49.410476	-51.411853	25.953023
63635		50.075637	-51.485213	25.812091
63636		50.914018	-51.507148	25.735069
63637		51.955206	-51.472201	25.762396
63638		53.174830	-51.380704	25.890965
63639		54.509305	-51.248699	26.102806
63640		55.880532	-51.094372	26.378334
63641		57.223949	-50.927893	26.681389
63642		58.501805	-50.766163	26.970405
63643		59.709274	-50.636691	27.200019
63644		60.786919	-50.543757	27.406644
63645		61.756340	-50.483380	27.571192
63646		62.699014	-50.451028	27.649891
63647		63.604826	-50.437422	27.681676
63648		64.486121	-50.433835	27.673721
63649		65.376690	-50.437406	27.623439
63650		66.271149	-50.442835	27.560779
63651		67.166156	-50.441823	27.503432
63652		68.073877	-50.439279	27.449583
63653		68.986630	-50.436600	27.406180
63654		69.864700	-50.445153	27.397145
63655		70.691977	-50.450160	27.422548
63656		71.477577	-50.449154	27.455257
63657		72.216550	-50.452608	27.484509
63658		72.913271	-50.457650	27.523074
63659		73.599813	-50.468461	27.584788
63660		74.310068	-50.480242	27.659769
63661		75.068055	-50.478526	27.754568
63662		75.882629	-50.460419	27.856338
63663		76.709579	-50.440600	27.967216
63664		77.513696	-50.420361	28.074833
63665		78.271831	-50.399672	28.157085
63666		78.991763	-50.377583	28.212702
63667		79.688719	-50.361697	28.279876
63668		80.379921	-50.349538	28.358678
63669		81.125696	-50.321584	28.455414
63670		81.987780	-50.273740	28.598112
63671		82.956025	-50.218233	28.790303
63672		83.998106	-50.163227	29.012716
63673		85.055029	-50.123948	29.233373
63674		86.066711	-50.107895	29.424121
63675		86.994361	-50.100529	29.553391
63676		87.824464	-50.095758	29.596810
63677		88.532421	-50.093811	29.560475
63678		89.113985	-50.096525	29.458067
63679		89.601318	-50.102481	29.319974
63680		90.027343	-50.115230	29.182338
63681		90.453305	-50.117260	29.066189
63682		90.954680	-50.101579	29.008559
63683		91.533961	-50.075683	29.019491
63684		92.182782	-50.040603	29.069805
63685		92.856600	-50.003271	29.134917
63686		93.504834	-49.966971	29.192977
63687		94.090203	-49.938448	29.224022
63688		94.587844	-49.918799	29.222528
63689		94.988430	-49.902303	29.187976
63690		95.315891	-49.883489	29.116498
63691		95.580496	-49.866071	29.017441
63692		95.796424	-49.849873	28.907237
63693		95.977657	-49.840335	28.795963
63694		96.145182	-49.823193	28.703268
63695		96.358798	-49.801255	28.664451
63696		96.634812	-49.768489	28.685090
63697		96.974416	-49.727335	28.749975
63698		97.341503	-49.679240	28.844303
63699		97.692798	-49.635078	28.943342
63700		97.998661	-49.592718	29.021099
63701		98.237976	-49.558085	29.067603
63702		98.403903	-49.542193	29.076035
63703		98.496876	-49.545774	29.048790
63704		98.517501	-49.558194	28.995166
63705		98.469473	-49.568854	28.927785
63706		98.354433	-49.580884	28.852964
63707		98.173148	-49.599291	28.770500
63708		97.936298	-49.619496	28.686188
63709		97.666994	-49.642291	28.606477
63710		97.371767	-49.662672	28.538234
63711		97.074447	-49.679742	28.481717
63712		96.801067	-49.696664	28.446281
63713		96.569541	-49.713499	28.441153
63714		96.393171	-49.722935	28.461102
63715		96.275411	-49.731190	28.495076
63716		96.194366	-49.739893	28.538149
63717		96.141762	-49.748747	28.568502
63718		96.090069	-49.750051	28.591085
63719		96.027567	-49.753154	28.602874
63720		95.945904	-49.754819	28.602531
63721		95.819652	-49.760581	28.597404
63722		95.640876	-49.765824	28.590442
63723		95.415458	-49.774010	28.573667
63724		95.160159	-49.786452	28.552851
63725		94.905057	-49.800921	28.540230
63726		94.682466	-49.815311	28.543986
63727		94.507607	-49.820929	28.568019
63728		94.375082	-49.817367	28.608063
63729		94.275012	-49.812595	28.650884
63730		94.190157	-49.806219	28.690081
63731		94.107328	-49.796116	28.720416
63732		94.005198	-49.782654	28.741920
63733		93.869031	-49.769203	28.747968
63734		93.688891	-49.763980	28.726659
63735		93.454057	-49.767233	28.683931
63736		93.152341	-49.777769	28.617635
63737		92.783688	-49.794060	28.519236
63738		92.342460	-49.806456	28.394652
63739		91.833649	-49.825962	28.244181
63740		91.236590	-49.849654	28.085757
63741		90.595386	-49.885534	27.886693
63742		89.841855	-49.937187	27.710751
63743		88.948508	-49.994269	27.605454
63744		88.045427	-50.040015	27.458531
63745		87.040221	-50.092061	27.341195
63746		85.977598	-50.135799	27.229947
63747		84.886043	-50.182946	27.118753
63748		83.759180	-50.225598	27.026363
63749		82.628698	-50.278053	26.970705
63750		81.504729	-50.325699	26.957608
63751		80.384590	-50.389277	26.972970
63752		79.234273	-50.462536	26.992856
63753		78.068227	-50.539269	26.996404
63754		76.865506	-50.628880	26.975166
63755		75.606595	-50.738114	26.931875
63756		74.311746	-50.859042	26.891153
63757		73.006358	-50.981563	26.881601
63758		71.711948	-51.101733	26.914159
63759		70.469717	-51.207366	26.961469
63760		69.323772	-51.296191	27.033174
63761		68.273464	-51.366648	27.139846
63762		67.326240	-51.412933	27.286052
63763		66.488421	-51.446017	27.477155
63764		65.719906	-51.471895	27.686152
63765		64.947958	-51.511749	27.893146
63766		64.064224	-51.586119	28.040936
63767		62.970481	-51.728772	28.118248
63768		61.520968	-51.977660	28.078146
63769		59.794756	-52.264051	27.931520
63770		57.952604	-52.530339	27.795461
63771		56.165332	-52.735334	27.724623
63772		54.581387	-52.848023	27.777301
63773		53.218647	-52.895335	27.966787
63774		51.906899	-52.928186	28.197893
63775		50.564390	-52.949246	28.400529
63776		48.985592	-53.011973	28.552532
63777		47.008103	-53.164445	28.626696
63778		44.710443	-53.359454	28.554182
63779		42.374660	-53.530820	28.415048
63780		40.142266	-53.635789	28.317137
63781		38.271122	-53.639590	28.232363
63782		36.891567	-53.529992	28.198207
63783		35.936812	-53.344139	28.250278
63784		35.294344	-53.118022	28.380355
63785		34.777673	-52.899929	28.567779
63786		34.188890	-52.732210	28.757443
63787		33.495035	-52.585750	28.930338
63788		32.692915	-52.452344	29.087458
63789		31.869990	-52.312893	29.184342
63790		31.169912	-52.137934	29.201699
63791		30.661418	-51.918034	29.157332
63792		30.294345	-51.661077	29.101193
63793		29.991375	-51.398947	29.041966
63794		29.695645	-51.139966	29.013519
63795		29.365543	-50.884982	29.021777
63796		28.993772	-50.651225	29.040891
63797		28.606719	-50.444801	29.020809
63798		28.262702	-50.262958	28.947107
63799		28.003637	-50.088035	28.834167
63800		27.816226	-49.910112	28.718782
63801		27.683557	-49.747404	28.569763
63802		27.574284	-49.602022	28.402466
63803		27.444457	-49.486645	28.237264
63804		27.308497	-49.401875	28.066041
63805		27.187173	-49.335007	27.890482
63806		27.114991	-49.287073	27.699635
63807		27.115406	-49.253000	27.498835
63808		27.187232	-49.216528	27.307723
63809		27.301297	-49.177686	27.157289
63810		27.366555	-49.157634	27.060733
63811		27.347992	-49.157826	26.994470
63812		27.230951	-49.166199	26.962529
63813		27.056702	-49.170841	26.958710
63814		26.903060	-49.164929	26.965739
63815		26.821175	-49.150845	26.978214
63816		26.782000	-49.141377	26.979293
63817		26.757302	-49.145697	26.954894
63818		26.726111	-49.166213	26.908565
63819		26.699216	-49.196572	26.856569
63820		26.678671	-49.227733	26.812641
63821		26.661771	-49.271813	26.772239
63822		26.658192	-49.315420	26.728940
63823		26.679357	-49.355977	26.700251
63824		26.718633	-49.392544	26.701691
63825		26.738276	-49.437634	26.702706
63826		26.724545	-49.486941	26.690179
63827		26.697172	-49.537313	26.683459
63828		26.715214	-49.570063	26.689038
63829		26.756111	-49.588355	26.718165
63830		26.785355	-49.601604	26.723021
63831		26.782826	-49.612597	26.717347
63832		26.777454	-49.616047	26.715953
63833		26.830937	-49.602283	26.728768
63834		26.947190	-49.563832	26.762990
63835		27.112576	-49.512403	26.813143
63836		27.297663	-49.442789	26.868383
63837		27.455523	-49.374552	26.935745
63838		27.491452	-49.336369	26.998027
63839		27.408472	-49.331574	27.024337
63840		27.261883	-49.341482	27.031900
63841		27.146520	-49.351320	27.042700
63842		27.151902	-49.342178	27.070230
63843		27.319621	-49.296135	27.110177
63844		27.656539	-49.211816	27.166686
63845		28.164743	-49.086415	27.243175
63846		28.797026	-48.926668	27.349444
63847		29.417091	-48.776360	27.491580
63848		29.868281	-48.676173	27.624576
63849		30.115537	-48.635925	27.703170
63850		30.219892	-48.630317	27.726788
63851		30.287430	-48.647077	27.702321
63852		30.423580	-48.656147	27.665985
63853		30.714941	-48.644132	27.632791
63854		31.175157	-48.621082	27.587125
63855		31.750888	-48.600780	27.539425
63856		32.325301	-48.610722	27.507365
63857		32.775399	-48.665419	27.472345
63858		33.101482	-48.752492	27.434223
63859		33.365786	-48.857397	27.391919
63860		33.660867	-48.960191	27.339056
63861		34.087284	-49.036515	27.276317
63862		34.692364	-49.095588	27.219588
63863		35.431951	-49.137693	27.167362
63864		36.269294	-49.167696	27.115271
63865		37.151333	-49.200615	27.072423
63866		38.036324	-49.238350	27.033315
63867		38.883516	-49.282579	26.993878
63868		39.684992	-49.345190	26.950642
63869		40.453037	-49.419702	26.906823
63870		41.214727	-49.501357	26.862249
63871		42.012271	-49.584830	26.814076
63872		42.875101	-49.666173	26.775058
63873		43.805682	-49.734767	26.749657
63874		44.789115	-49.795007	26.743925
63875		45.815353	-49.857549	26.761599
63876		46.868507	-49.919022	26.803872
63877		47.973938	-49.976461	26.855517
63878		49.154714	-50.019469	26.919624
63879		50.404654	-50.057159	27.016071
63880		51.710819	-50.097959	27.152683
63881		53.039639	-50.130014	27.316358
63882		54.361268	-50.166172	27.495232
63883		55.647055	-50.215021	27.676603
63884		56.859967	-50.283106	27.873868
63885		57.990033	-50.380484	28.097549
63886		59.037867	-50.503465	28.357139
63887		60.033762	-50.637395	28.664507
63888		61.012450	-50.770636	29.012514
63889		61.981988	-50.895441	29.366815
63890		62.949079	-50.995801	29.682924
63891		63.888909	-51.070152	29.948723
63892		64.764764	-51.121405	30.161249
63893		65.544497	-51.164643	30.347445
63894		66.222443	-51.212627	30.524396
63895		66.821126	-51.255109	30.711209
63896		67.386222	-51.284492	30.916921
63897		67.938990	-51.299964	31.130107
63898		68.502602	-51.300898	31.320665
63899		69.082685	-51.299227	31.471156
63900		69.664166	-51.301680	31.585808
63901		70.254674	-51.321163	31.668028
63902		70.873678	-51.356618	31.728119
63903		71.523237	-51.399387	31.789091
63904		72.230736	-51.436716	31.868451
63905		72.982082	-51.465736	31.959557
63906		73.757338	-51.485418	32.049057
63907		74.533253	-51.510808	32.124260
63908		75.287651	-51.538744	32.181222
63909		76.036207	-51.567083	32.216417
63910		76.785191	-51.595471	32.244327
63911		77.582996	-51.624629	32.266120
63912		78.471395	-51.638775	32.313108
63913		79.449181	-51.649593	32.390972
63914		80.493782	-51.662855	32.469298
63915		81.550371	-51.696265	32.533126
63916		82.572351	-51.742084	32.554491
63917		83.501610	-51.802257	32.509519
63918		84.333573	-51.874548	32.404091
63919		85.062704	-51.956069	32.243347
63920		85.727684	-52.055890	32.043510
63921		86.364451	-52.164311	31.841527
63922		86.998705	-52.273935	31.653578
63923		87.651345	-52.370070	31.475808
63924		88.324528	-52.452470	31.319838
63925		89.013276	-52.512899	31.183418
63926		89.709678	-52.560679	31.066900
63927		90.394148	-52.593434	30.960723
63928		91.049541	-52.615443	30.849853
63929		91.665976	-52.628171	30.715323
63930		92.246421	-52.644609	30.548238
63931		92.773089	-52.658035	30.366103
63932		93.285889	-52.673410	30.170576
63933		93.828773	-52.684467	29.976118
63934		94.408021	-52.687256	29.786943
63935		95.023487	-52.684804	29.613911
63936		95.645951	-52.676146	29.451563
63937		96.252428	-52.662433	29.292210
63938		96.801079	-52.638113	29.139132
63939		97.285020	-52.615547	28.989450
63940		97.704224	-52.590927	28.842336
63941		98.049454	-52.564708	28.696544
63942		98.339556	-52.550740	28.558027
63943		98.589606	-52.537394	28.423247
63944		98.818210	-52.540523	28.298489
63945		99.043127	-52.551479	28.191224
63946		99.291225	-52.567010	28.079051
63947		99.562771	-52.582846	27.952838
63948		99.847969	-52.596444	27.799482
63949		100.118849	-52.610302	27.632424
63950		100.367901	-52.619848	27.450693
63951		100.585153	-52.619415	27.261879
63952		100.774547	-52.610783	27.062543
63953		100.941169	-52.597786	26.859357
63954		101.081679	-52.573971	26.657306
63955		101.209384	-52.553810	26.458650
63956		101.333440	-52.533503	26.276837
63957		101.465979	-52.525538	26.123569
63958		101.614444	-52.520114	25.992197
63959		101.762056	-52.519235	25.881445
63960		101.904880	-52.523376	25.789070
63961		102.015301	-52.525280	25.720184
63962		102.077840	-52.523266	25.672256
63963		102.080881	-52.520023	25.643548
63964		102.031028	-52.510377	25.628796
63965		101.938612	-52.505565	25.610637
63966		101.813983	-52.498860	25.590948
63967		101.674032	-52.502175	25.573509
63968		101.533564	-52.511436	25.558310
63969		101.398100	-52.521717	25.547406
63970		101.269239	-52.527366	25.531929
63971		101.147714	-52.527844	25.510608
63972		101.028936	-52.525379	25.479691
63973		100.912814	-52.516117	25.442026
63974		100.784553	-52.502596	25.410115
63975		100.647614	-52.492019	25.379464
63976		100.510173	-52.483655	25.347721
63977		100.363690	-52.476448	25.313387
63978		100.199915	-52.465815	25.277276
63979		100.046552	-52.456955	25.219242
63980		99.894328	-52.448104	25.161808
63981		99.734685	-52.430493	25.099601
63982		99.581234	-52.414876	25.028075
63983		99.412808	-52.399385	24.965239
63984		99.222378	-52.382872	24.914399
63985		99.011672	-52.370389	24.869050
63986		98.785724	-52.359237	24.824689
63987		98.561844	-52.349316	24.771436
63988		98.340386	-52.328315	24.699594
63989		98.122738	-52.302524	24.602446
63990		97.891524	-52.276040	24.486525
63991		97.616003	-52.256097	24.372612
63992		97.313700	-52.245316	24.252846
63993		96.977224	-52.237207	24.134623
63994		96.609174	-52.232422	24.017172
63995		96.213055	-52.232002	23.900169
63996		95.785286	-52.238239	23.783683
63997		95.314117	-52.255790	23.663958
63998		94.809686	-52.286906	23.535506
63999		94.273115	-52.325008	23.407678
64000		93.709787	-52.366660	23.281570
64001		93.129600	-52.414396	23.157342
64002		92.538970	-52.460399	23.042453
64003		91.949375	-52.497608	22.933987
64004		91.370337	-52.529799	22.835018
64005		90.799494	-52.551014	22.747427
64006		90.223737	-52.569039	22.670480
64007		89.645614	-52.598027	22.588836
64008		89.045444	-52.644306	22.497984
64009		88.400692	-52.719528	22.398345
64010		87.682769	-52.819993	22.289049
64011		86.907944	-52.942792	22.173315
64012		86.088738	-53.089056	22.071998
64013		85.253233	-53.256182	21.982400
64014		84.434939	-53.440119	21.913069
64015		83.653734	-53.616238	21.871609
64016		82.915736	-53.780020	21.860039
64017		82.230954	-53.923197	21.863742
64018		81.583387	-54.057351	21.883836
64019		80.891250	-54.214482	21.887418
64020		80.079336	-54.393050	21.832173
64021		79.109454	-54.599591	21.719852
64022		77.956493	-54.833494	21.575452
64023		76.654953	-55.079747	21.414538
64024		75.267555	-55.314144	21.280564
64025		73.891320	-55.525729	21.208384
64026		72.595769	-55.694565	21.216959
64027		71.453899	-55.821682	21.299549
64028		70.485767	-55.915731	21.454681
64029		69.657857	-55.985679	21.644281
64030		68.890234	-56.063247	21.857931
64031		67.999515	-56.204293	22.032221
64032		66.889231	-56.390282	22.107006
64033		65.605219	-56.598468	22.122115
64034		64.195188	-56.814230	22.151906
64035		62.766264	-57.005670	22.213945
64036		61.448564	-57.148540	22.341509
64037		60.318445	-57.238860	22.531244
64038		59.344625	-57.275635	22.817573
64039		58.470320	-57.275123	23.198363
64040		57.547279	-57.269645	23.657687
64041		56.397996	-57.300849	24.155080
64042		54.985481	-57.352976	24.646042
64043		53.305690	-57.433752	25.119456
64044		51.439108	-57.502699	25.571697
64045		49.628949	-57.519295	26.007023
64046		48.047852	-57.477367	26.420601
64047		46.785703	-57.384524	26.829872
64048		45.784311	-57.270019	27.243632
64049		44.850583	-57.190239	27.631827
64050		43.798202	-57.169780	27.977440
64051		42.492415	-57.210108	28.273999
64052		40.879347	-57.304962	28.538348
64053		39.088713	-57.397582	28.741038
64054		37.347350	-57.421680	28.909334
64055		35.834316	-57.372003	29.063501
64056		34.593878	-57.275294	29.199361
64057		33.620288	-57.151843	29.297782
64058		32.822952	-57.011163	29.382832
64059		32.121927	-56.861658	29.438933
64060		31.477184	-56.706839	29.472097
64061		30.857602	-56.566835	29.478558
64062		30.255565	-56.444256	29.439988
64063		29.658931	-56.345990	29.360259
64064		29.101251	-56.270750	29.282328
64065		28.667216	-56.194584	29.203658
64066		28.391424	-56.115031	29.129805
64067		28.265606	-56.038869	29.043816
64068		28.215528	-55.972862	28.963506
64069		28.156379	-55.914058	28.892855
64070		28.053834	-55.858618	28.824379
64071		27.908856	-55.788478	28.747945
64072		27.760055	-55.694076	28.635222
64073		27.651304	-55.579644	28.493973
64074		27.588596	-55.457954	28.339686
64075		27.582569	-55.338253	28.177766
64076		27.655204	-55.218665	28.009523
64077		27.762799	-55.111370	27.854907
64078		27.857718	-55.029028	27.705340
64079		27.913342	-54.963108	27.558804
64080		27.970919	-54.924004	27.338193
64081		27.964961	-54.943955	27.126039
64082		27.950069	-54.857459	27.051589
64083		28.079618	-54.737551	26.943309
64084		28.227391	-54.640842	26.852900
64085		28.463569	-54.533933	26.746242
64086		28.669761	-54.463390	26.659210
64087		28.791014	-54.438753	26.553224
64088		28.809110	-54.435966	26.461189
64089		28.774539	-54.435449	26.378264
64090		28.767486	-54.436593	26.276498
64091		28.827505	-54.429661	26.168069
64092		28.955731	-54.406905	26.081426
64093		29.139365	-54.375152	26.011016
64094		29.320055	-54.340227	25.969511
64095		29.447506	-54.315456	25.964952
64096		29.497062	-54.291631	25.989374
64097		29.508586	-54.265543	26.005814
64098		29.524435	-54.258347	25.991892
64099		29.566532	-54.262208	25.973730
64100		29.629936	-54.263294	25.975819
64101		29.711499	-54.249376	25.992731
64102		29.800215	-54.215972	26.019228
64103		29.905770	-54.176912	26.047222
64104		30.029044	-54.140049	26.081407
64105		30.178325	-54.092676	26.132159
64106		30.293816	-54.049817	26.204339
64107		30.316936	-54.021805	26.273666
64108		30.249940	-54.005482	26.344156
64109		30.163614	-53.988199	26.416810
64110		30.127286	-53.954562	26.503168
64111		30.182550	-53.905753	26.587102
64112		30.341306	-53.838510	26.664440
64113		30.597894	-53.753555	26.746948
64114		30.939476	-53.655028	26.839366
64115		31.284340	-53.565196	26.957396
64116		31.540007	-53.503580	27.079713
64117		31.670670	-53.468762	27.185397
64118		31.679748	-53.451067	27.273286
64119		31.641789	-53.438661	27.342857
64120		31.661414	-53.422343	27.387496
64121		31.816236	-53.393304	27.412402
64122		32.157151	-53.340180	27.430738
64123		32.709784	-53.252660	27.458502
64124		33.397374	-53.137683	27.527827
64125		34.045108	-53.039325	27.652261
64126		34.518872	-52.992925	27.779543
64127		34.756701	-53.003271	27.872229
64128		34.798174	-53.056487	27.930859
64129		34.781132	-53.123582	27.950381
64130		34.851372	-53.183649	27.941163
64131		35.122854	-53.208064	27.916456
64132		35.611569	-53.195656	27.904935
64133		36.276720	-53.150773	27.930921
64134		37.039916	-53.098304	27.998350
64135		37.841202	-53.049302	28.077677
64136		38.596587	-53.011687	28.173459
64137		39.239319	-53.006183	28.293857
64138		39.741207	-53.038355	28.433626
64139		40.134756	-53.098713	28.574978
64140		40.508313	-53.190474	28.701065
64141		40.945791	-53.287405	28.800966
64142		41.527609	-53.372137	28.880017
64143		42.304702	-53.433955	28.944117
64144		43.281245	-53.472745	29.014317
64145		44.414450	-53.495072	29.099850
64146		45.620296	-53.525906	29.196065
64147		46.803500	-53.584151	29.300626
64148		47.921088	-53.680134	29.380325
64149		48.933450	-53.813423	29.420813
64150		49.856852	-53.977376	29.404497
64151		50.734102	-54.155067	29.339916
64152		51.631625	-54.326070	29.233915
64153		52.607048	-54.470655	29.106073
64154		53.698435	-54.578226	28.985699
64155		54.911980	-54.637106	28.896106
64156		56.219809	-54.647213	28.859089
64157		57.575896	-54.634461	28.877888
64158		58.928242	-54.624888	28.931439
64159		60.235988	-54.626691	28.997047
64160		61.471433	-54.648759	29.045043
64161		62.640535	-54.687793	29.055475
64162		63.775272	-54.737676	29.014246
64163		64.933519	-54.781516	28.923513
64164		66.188859	-54.801013	28.823753
64165		67.542051	-54.782873	28.751518
64166		68.968656	-54.729214	28.711615
64167		70.414692	-54.648217	28.704089
64168		71.829227	-54.553936	28.716736
64169		73.158118	-54.457335	28.748195
64170		74.383562	-54.376656	28.778840
64171		75.482198	-54.313437	28.801007
64172		76.471731	-54.262297	28.823231
64173		77.365248	-54.224962	28.838183
64174		78.195987	-54.178757	28.837787
64175		79.005213	-54.118924	28.832062
64176		79.801520	-54.043809	28.829489
64177		80.607240	-53.958088	28.837345
64178		81.428071	-53.868269	28.851324
64179		82.221981	-53.773549	28.880964
64180		82.977235	-53.683201	28.912027
64181		83.658326	-53.605685	28.937091
64182		84.268734	-53.534861	28.950706
64183		84.814306	-53.467872	28.957075
64184		85.368870	-53.389575	28.963706
64185		85.967003	-53.305711	28.991018
64186		86.618213	-53.220584	29.026634
64187		87.313731	-53.134506	29.046022
64188		88.010677	-53.052441	29.045522
64189		88.665668	-52.985720	29.020561
64190		89.259218	-52.929416	28.973561
64191		89.826540	-52.887157	28.912597
64192		90.359274	-52.849624	28.874826
64193		90.898543	-52.818482	28.854265
64194		91.459871	-52.789515	28.830784
64195		92.013173	-52.769225	28.810226
64196		92.554166	-52.761473	28.762434
64197		93.071040	-52.757748	28.689590
64198		93.560416	-52.762575	28.609311
64199		94.021595	-52.774809	28.539575
64200		94.488567	-52.788956	28.475487
64201		94.958360	-52.803205	28.424538
64202		95.442728	-52.809365	28.383414
64203		95.926737	-52.815154	28.362643
64204		96.418936	-52.807881	28.333505
64205		96.887434	-52.802544	28.293449
64206		97.313887	-52.796509	28.233122
64207		97.675727	-52.797493	28.150287
64208		97.964958	-52.806148	28.041979
64209		98.168914	-52.820256	27.914445
64210		98.315153	-52.834057	27.778738
64211		98.453738	-52.859406	27.662257
64212		98.621069	-52.878477	27.569519
64213		98.843764	-52.890288	27.523838
64214		99.154582	-52.887439	27.525330
64215		99.522999	-52.870216	27.574416
64216		99.929898	-52.845335	27.637790
64217		100.330535	-52.818394	27.690338
64218		100.694069	-52.796838	27.713010
64219		100.991471	-52.779483	27.689004
64220		101.207580	-52.771927	27.621709
64221		101.335373	-52.771633	27.516910
64222		101.374506	-52.776293	27.372482
64223		101.360276	-52.787697	27.223059
64224		101.352286	-52.802384	27.104751
64225		101.368927	-52.824528	27.035247
64226		101.428322	-52.836825	27.005300
64227		101.516674	-52.842231	27.001742
64228		101.610031	-52.841582	26.995151
64229		101.663916	-52.832821	26.977321
64230		101.675667	-52.822688	26.938806
64231		101.644187	-52.814743	26.881696
64232		101.570489	-52.817826	26.810117
64233		101.472992	-52.825709	26.734869
64234		101.398454	-52.834259	26.682528
64235		101.362491	-52.849552	26.668065
64236		101.389089	-52.860736	26.678762
64237		101.462229	-52.868268	26.704031
64238		101.567532	-52.869381	26.744025
64239		101.685577	-52.865362	26.783473
64240		101.803127	-52.851495	26.806969
64241		101.900338	-52.836292	26.811110
64242		101.966082	-52.824712	26.791109
64243		101.998352	-52.807657	26.747087
64244		101.999884	-52.796052	26.690327
64245		101.975791	-52.789045	26.638161
64246		101.954974	-52.789125	26.592765
64247		101.952275	-52.787346	26.554058
64248		101.955460	-52.783836	26.535867
64249		101.960872	-52.777022	26.529500
