// General information: 
//  MT Manager version: 2022.2.0 
//  XDA version: 2022.2.0 build 7381 rev 124627 built on 2023-07-19
// Device information: 
//  DeviceId: 00B44877
//  ProductCode: MTW2-3A7G6
//  Firmware Version: 4.3.5
//  Hardware Version: 2.0.0
// Device settings: 
//  Filter Profile: human(46.1)
//  Option Flags: Orientation Smoother Disabled, Position/Velocity Smoother Disabled, Continuous Zero Rotation Update Disabled, AHS Disabled, ICC Disabled
// Coordinate system: ENU
PacketCounter	SampleTimeFine	Roll	Pitch	Yaw
61122		-13.286073	18.555291	-35.129545
61123		-13.279610	18.549382	-35.154019
61124		-13.283525	18.542376	-35.176639
61125		-13.293055	18.536603	-35.195655
61126		-13.301167	18.532461	-35.205324
61127		-13.311972	18.529863	-35.210933
61128		-13.323402	18.526566	-35.216932
61129		-13.340308	18.522837	-35.221487
61130		-13.355469	18.525773	-35.225438
61131		-13.373836	18.535314	-35.226073
61132		-13.388622	18.550228	-35.225432
61133		-13.404821	18.568600	-35.221823
61134		-13.417651	18.585921	-35.214920
61135		-13.427192	18.599919	-35.207383
61136		-13.436034	18.613093	-35.198953
61137		-13.444415	18.622553	-35.186826
61138		-13.447031	18.632922	-35.178206
61139		-13.452828	18.638753	-35.173677
61140		-13.458073	18.641950	-35.172961
61141		-13.466103	18.644899	-35.172659
61142		-13.465469	18.646770	-35.172106
61143		-13.460332	18.652652	-35.167625
61144		-13.462766	18.667444	-35.162289
61145		-13.502333	18.646429	-35.161331
61146		-13.490131	18.637745	-35.164496
61147		-13.476472	18.648271	-35.162272
61148		-13.478023	18.649472	-35.169341
61149		-13.489055	18.645075	-35.183095
61150		-13.498406	18.645859	-35.205222
61151		-13.504553	18.645355	-35.232238
61152		-13.506317	18.640075	-35.264069
61153		-13.500464	18.635454	-35.291257
61154		-13.495995	18.634362	-35.309526
61155		-13.495998	18.626198	-35.321836
61156		-13.498804	18.612049	-35.331979
61157		-13.505607	18.603400	-35.337196
61158		-13.516248	18.595127	-35.340091
61159		-13.522391	18.579398	-35.342200
61160		-13.517024	18.564536	-35.341410
61161		-13.505268	18.554579	-35.339499
61162		-13.501084	18.545816	-35.337672
61163		-13.510098	18.537332	-35.335967
61164		-13.525958	18.523243	-35.335709
61165		-13.531783	18.515256	-35.330991
61166		-13.536245	18.517325	-35.325008
61167		-13.533116	18.522385	-35.321196
61168		-13.529966	18.534121	-35.324077
61169		-13.533250	18.544415	-35.330743
61170		-13.521337	18.555900	-35.345701
61171		-13.506909	18.575152	-35.367533
61172		-13.504312	18.599870	-35.398004
61173		-13.514143	18.632177	-35.431108
61174		-13.549601	18.663338	-35.468746
61175		-13.617334	18.686876	-35.509405
61176		-13.693670	18.693485	-35.538391
61177		-13.758169	18.690061	-35.548656
61178		-13.797454	18.677570	-35.550964
61179		-13.807889	18.660920	-35.545826
61180		-13.809181	18.652338	-35.547901
61181		-13.809170	18.659869	-35.555793
61182		-13.814417	18.677803	-35.565303
61183		-13.815482	18.709576	-35.572336
61184		-13.815429	18.748928	-35.577277
61185		-13.812370	18.794674	-35.583116
61186		-13.804717	18.839486	-35.591128
61187		-13.793959	18.884915	-35.603055
61188		-13.781926	18.924790	-35.618036
61189		-13.767075	18.964443	-35.630576
61190		-13.749553	19.000036	-35.639245
61191		-13.732417	19.032715	-35.644895
61192		-13.717623	19.064024	-35.649273
61193		-13.701739	19.096697	-35.652835
61194		-13.701737	19.130608	-35.661903
61195		-13.688547	19.168272	-35.675689
61196		-13.686796	19.213709	-35.695405
61197		-13.669717	19.262507	-35.725310
61198		-13.644657	19.317690	-35.759002
61199		-13.610054	19.359783	-35.804938
61200		-13.576759	19.385307	-35.863939
61201		-13.557599	19.392624	-35.934916
61202		-13.549012	19.384900	-36.009753
61203		-13.554082	19.366694	-36.086274
61204		-13.565532	19.348361	-36.150678
61205		-13.576463	19.335575	-36.201486
61206		-13.584761	19.331447	-36.235358
61207		-13.600773	19.329603	-36.247774
61208		-13.615883	19.334173	-36.243786
61209		-13.635195	19.339152	-36.226302
61210		-13.671557	19.344578	-36.203228
61211		-13.728593	19.351095	-36.179330
61212		-13.796322	19.359652	-36.149693
61213		-13.872837	19.354527	-36.117301
61214		-13.951038	19.343582	-36.088224
61215		-14.027229	19.324710	-36.051873
61216		-14.089846	19.303912	-36.010454
61217		-14.134235	19.277371	-35.963416
61218		-14.160606	19.247699	-35.916234
61219		-14.173516	19.219862	-35.871243
61220		-14.167896	19.201991	-35.829115
61221		-14.150909	19.201138	-35.790043
61222		-14.126922	19.209374	-35.757888
61223		-14.107706	19.218707	-35.730231
61224		-14.098296	19.228379	-35.710356
61225		-14.097690	19.235223	-35.696456
61226		-14.109429	19.236180	-35.683734
61227		-14.135238	19.232383	-35.675146
61228		-14.163415	19.221147	-35.664093
61229		-14.190357	19.207451	-35.654210
61230		-14.214297	19.188510	-35.644733
61231		-14.234703	19.168476	-35.634340
61232		-14.251335	19.144013	-35.621405
61233		-14.264732	19.120177	-35.608965
61234		-14.266090	19.096402	-35.598678
61235		-14.264881	19.067933	-35.584842
61236		-14.251920	19.038984	-35.571351
61237		-14.236075	19.009908	-35.555326
61238		-14.211816	18.981231	-35.535886
61239		-14.184695	18.952203	-35.509243
61240		-14.161261	18.925544	-35.477173
61241		-14.140208	18.900849	-35.439835
61242		-14.118378	18.881082	-35.394770
61243		-14.102211	18.868682	-35.347285
61244		-14.089364	18.861407	-35.296083
61245		-14.087774	18.855252	-35.244203
61246		-14.091106	18.852271	-35.193400
61247		-14.097043	18.849303	-35.143859
61248		-14.100381	18.846648	-35.097497
61249		-14.095473	18.841864	-35.052590
61250		-14.084993	18.839991	-35.013605
61251		-14.091689	18.829078	-34.980404
61252		-14.088868	18.800982	-34.958217
61253		-14.056440	18.790132	-34.935877
61254		-14.027773	18.776065	-34.914640
61255		-14.002667	18.756678	-34.894499
61256		-13.980546	18.739119	-34.874768
61257		-13.962876	18.726988	-34.855999
61258		-13.953191	18.715253	-34.837765
61259		-13.942477	18.708836	-34.819821
61260		-13.927990	18.712076	-34.800714
61261		-13.924445	18.711111	-34.782883
61262		-13.922225	18.704742	-34.770524
61263		-13.907985	18.697906	-34.758499
61264		-13.890881	18.703236	-34.743723
61265		-13.888196	18.707228	-34.728999
61266		-13.884498	18.710930	-34.715408
61267		-13.885319	18.715925	-34.703872
61268		-13.891059	18.720005	-34.694560
61269		-13.896334	18.722656	-34.684921
61270		-13.897265	18.719945	-34.677789
61271		-13.891129	18.717254	-34.669822
61272		-13.881076	18.716863	-34.666002
61273		-13.871448	18.717817	-34.664834
61274		-13.870476	18.718243	-34.663847
61275		-13.871527	18.721459	-34.663749
61276		-13.873513	18.723503	-34.662159
61277		-13.874397	18.723082	-34.662028
61278		-13.877013	18.726107	-34.658787
61279		-13.874692	18.730046	-34.653373
61280		-13.872397	18.734223	-34.648948
61281		-13.875131	18.736755	-34.643777
61282		-13.883656	18.741091	-34.640428
61283		-13.900367	18.747148	-34.636982
61284		-13.923651	18.751879	-34.635005
61285		-13.942835	18.754383	-34.633966
61286		-13.953002	18.756090	-34.626482
61287		-13.952189	18.759268	-34.612300
61288		-13.948053	18.763375	-34.593783
61289		-13.947313	18.766325	-34.575088
61290		-13.954024	18.766438	-34.555366
61291		-13.966591	18.763788	-34.536705
61292		-13.979087	18.757467	-34.517777
61293		-13.994597	18.746555	-34.499398
61294		-14.003132	18.734232	-34.483441
61295		-14.007509	18.722022	-34.471614
61296		-14.012075	18.711695	-34.458739
61297		-14.018570	18.700256	-34.445590
61298		-14.026446	18.689184	-34.434655
61299		-14.035811	18.675824	-34.424173
61300		-14.043099	18.661544	-34.411507
61301		-14.044094	18.650409	-34.402073
61302		-14.056689	18.640318	-34.388769
61303		-14.069740	18.627379	-34.375911
61304		-14.079607	18.617401	-34.364567
61305		-14.087736	18.607896	-34.357330
61306		-14.095245	18.597931	-34.357325
61307		-14.102009	18.590889	-34.360161
61308		-14.109539	18.581272	-34.368079
61309		-14.114258	18.569540	-34.378093
61310		-14.120936	18.559133	-34.385198
61311		-14.126037	18.550873	-34.394365
61312		-14.135024	18.547179	-34.403723
61313		-14.142988	18.538538	-34.409986
61314		-14.148125	18.530161	-34.412295
61315		-14.154917	18.521184	-34.412958
61316		-14.160403	18.512361	-34.416711
61317		-14.167083	18.507439	-34.419650
61318		-14.173240	18.501873	-34.428589
61319		-14.178022	18.496331	-34.443069
61320		-14.178325	18.487575	-34.456648
61321		-14.178651	18.476381	-34.465885
61322		-14.178418	18.464122	-34.473266
61323		-14.177875	18.451745	-34.473818
61324		-14.175120	18.440981	-34.476618
61325		-14.174583	18.430962	-34.483827
61326		-14.174444	18.420681	-34.493574
61327		-14.176591	18.410885	-34.503126
61328		-14.180543	18.402513	-34.511073
61329		-14.179091	18.393843	-34.517578
61330		-14.176123	18.389359	-34.519140
61331		-14.176900	18.380957	-34.518642
61332		-14.180995	18.373918	-34.516600
61333		-14.184105	18.368355	-34.520595
61334		-14.191432	18.360853	-34.524933
61335		-14.198195	18.351915	-34.528865
61336		-14.200040	18.344296	-34.529219
61337		-14.200381	18.336583	-34.528386
61338		-14.196304	18.327321	-34.520947
61339		-14.186173	18.318691	-34.512567
61340		-14.179680	18.312899	-34.502931
61341		-14.175437	18.311671	-34.495486
61342		-14.178213	18.312198	-34.484443
61343		-14.176026	18.315868	-34.474559
61344		-14.168009	18.318185	-34.461372
61345		-14.162150	18.317041	-34.446770
61346		-14.160576	18.317741	-34.430544
61347		-14.155518	18.319592	-34.420201
61348		-14.156112	18.319585	-34.415002
61349		-14.163010	18.316105	-34.411237
61350		-14.176928	18.314739	-34.411681
61351		-14.191024	18.311000	-34.414676
61352		-14.196776	18.307751	-34.417616
61353		-14.194102	18.304559	-34.421637
61354		-14.178391	18.303064	-34.428251
61355		-14.154000	18.300138	-34.435981
61356		-14.132893	18.298586	-34.442048
61357		-14.118114	18.293484	-34.449717
61358		-14.107892	18.291770	-34.452409
61359		-14.095153	18.293548	-34.452956
61360		-14.086270	18.297655	-34.450216
61361		-14.081971	18.302708	-34.445250
61362		-14.080308	18.306273	-34.444736
61363		-14.072084	18.311421	-34.447409
61364		-14.064842	18.317400	-34.450715
61365		-14.050222	18.322062	-34.456252
61366		-14.038509	18.328822	-34.463253
61367		-14.020452	18.336572	-34.471451
61368		-14.001693	18.339837	-34.480797
61369		-13.979115	18.340546	-34.488744
61370		-13.971093	18.343880	-34.495740
61371		-13.958686	18.347424	-34.501196
61372		-13.943175	18.355970	-34.510222
61373		-13.925831	18.362928	-34.517767
61374		-13.909799	18.368328	-34.528491
61375		-13.897105	18.372841	-34.540068
61376		-13.881324	18.379982	-34.552139
61377		-13.868376	18.388794	-34.566909
61378		-13.855038	18.398555	-34.582379
61379		-13.841480	18.408500	-34.595768
61380		-13.835106	18.415610	-34.604249
61381		-13.824219	18.417044	-34.611117
61382		-13.812165	18.420085	-34.610876
61383		-13.795021	18.424520	-34.610730
61384		-13.780277	18.429622	-34.611334
61385		-13.767770	18.435092	-34.611819
61386		-13.756447	18.439175	-34.613366
61387		-13.745679	18.442420	-34.617739
61388		-13.733934	18.445340	-34.623348
61389		-13.718256	18.451838	-34.630034
61390		-13.705987	18.455776	-34.639618
61391		-13.689492	18.457868	-34.647641
61392		-13.674373	18.458042	-34.657868
61393		-13.657049	18.459353	-34.668393
61394		-13.637438	18.462209	-34.677755
61395		-13.619331	18.466742	-34.688372
61396		-13.599052	18.474660	-34.697102
61397		-13.583117	18.481894	-34.705331
61398		-13.569952	18.485012	-34.710635
61399		-13.558191	18.485531	-34.711622
61400		-13.547679	18.486194	-34.708230
61401		-13.539005	18.486004	-34.705581
61402		-13.532631	18.486679	-34.704950
61403		-13.523821	18.492857	-34.704329
61404		-13.517564	18.495524	-34.706041
61405		-13.503716	18.497490	-34.711690
61406		-13.486721	18.496328	-34.717805
61407		-13.465201	18.495773	-34.726344
61408		-13.448184	18.492697	-34.733531
61409		-13.433009	18.488387	-34.737109
61410		-13.419960	18.485182	-34.740207
61411		-13.413394	18.481615	-34.737442
61412		-13.409525	18.476636	-34.739124
61413		-13.410206	18.472919	-34.743061
61414		-13.408267	18.469327	-34.748785
61415		-13.403201	18.464492	-34.759613
61416		-13.396761	18.457895	-34.771128
61417		-13.395531	18.451325	-34.783212
61418		-13.394636	18.446416	-34.793246
61419		-13.392867	18.440531	-34.801433
61420		-13.392314	18.436702	-34.803988
61421		-13.391698	18.430329	-34.802186
61422		-13.391417	18.423735	-34.799425
61423		-13.394507	18.419624	-34.794439
61424		-13.398175	18.415139	-34.790936
61425		-13.401211	18.411365	-34.787002
61426		-13.402119	18.408886	-34.780904
61427		-13.407255	18.405958	-34.775407
61428		-13.404371	18.405286	-34.771313
61429		-13.405593	18.404350	-34.768972
61430		-13.409667	18.405519	-34.768080
61431		-13.412244	18.406873	-34.770633
61432		-13.411027	18.408099	-34.772559
61433		-13.408045	18.407715	-34.773212
61434		-13.406355	18.409638	-34.774689
61435		-13.401849	18.407202	-34.771504
61436		-13.402537	18.407158	-34.766309
61437		-13.409996	18.408856	-34.761060
61438		-13.414766	18.410665	-34.754135
61439		-13.415285	18.412579	-34.747700
61440		-13.414473	18.410786	-34.743318
61441		-13.414425	18.407954	-34.744291
61442		-13.412708	18.405707	-34.743511
61443		-13.412181	18.405476	-34.746189
61444		-13.415841	18.403242	-34.746013
61445		-13.416482	18.405216	-34.743055
61446		-13.421774	18.404477	-34.741073
61447		-13.424771	18.404812	-34.736017
61448		-13.431958	18.405055	-34.730250
61449		-13.438569	18.408012	-34.722787
61450		-13.443648	18.411235	-34.712805
61451		-13.450844	18.413229	-34.704938
61452		-13.454036	18.413223	-34.695410
61453		-13.457860	18.416226	-34.686627
61454		-13.458723	18.417857	-34.679357
61455		-13.459873	18.419186	-34.673533
61456		-13.460171	18.419918	-34.671300
61457		-13.459121	18.422590	-34.670134
61458		-13.460489	18.423919	-34.671134
61459		-13.463358	18.426744	-34.670362
61460		-13.467399	18.425993	-34.670539
61461		-13.470902	18.427651	-34.667933
61462		-13.474047	18.427972	-34.662809
61463		-13.478385	18.428402	-34.658882
61464		-13.483851	18.429335	-34.654829
61465		-13.489998	18.429204	-34.652539
61466		-13.499933	18.429690	-34.652697
61467		-13.505914	18.427781	-34.652803
61468		-13.511637	18.430453	-34.650100
61469		-13.513324	18.431102	-34.648137
61470		-13.514530	18.434547	-34.645628
61471		-13.519204	18.436437	-34.641979
61472		-13.527986	18.438509	-34.638816
61473		-13.540124	18.439304	-34.635540
61474		-13.548993	18.439198	-34.632462
61475		-13.554504	18.437697	-34.627471
61476		-13.557615	18.433857	-34.620087
61477		-13.559973	18.429099	-34.614411
61478		-13.559758	18.428615	-34.612795
61479		-13.562681	18.427370	-34.613120
61480		-13.569137	18.431082	-34.612213
61481		-13.573033	18.438264	-34.608981
61482		-13.573051	18.447409	-34.601990
61483		-13.578491	18.452277	-34.599036
61484		-13.587115	18.456470	-34.592373
61485		-13.595604	18.460711	-34.585758
61486		-13.595356	18.462093	-34.579645
61487		-13.597196	18.464452	-34.575545
61488		-13.606923	18.467375	-34.576605
61489		-13.622846	18.469021	-34.582350
61490		-13.637122	18.471548	-34.591035
61491		-13.643366	18.473642	-34.595732
61492		-13.647764	18.480730	-34.598427
61493		-13.656896	18.488547	-34.601330
61494		-13.662111	18.492246	-34.602575
61495		-13.669761	18.496041	-34.602862
61496		-13.677825	18.499332	-34.601228
61497		-13.685495	18.503160	-34.601592
61498		-13.692829	18.507660	-34.601489
61499		-13.700075	18.514176	-34.600206
61500		-13.710468	18.518074	-34.599649
61501		-13.714630	18.523183	-34.600072
61502		-13.721365	18.526398	-34.597180
61503		-13.727025	18.526857	-34.591292
61504		-13.731355	18.529409	-34.583910
61505		-13.733729	18.532614	-34.574799
61506		-13.737641	18.537797	-34.565898
61507		-13.742841	18.545095	-34.560426
61508		-13.745529	18.550629	-34.561493
61509		-13.760297	18.560185	-34.562812
61510		-13.766228	18.566794	-34.561367
61511		-13.768113	18.573246	-34.559644
61512		-13.762277	18.577087	-34.553787
61513		-13.757429	18.577064	-34.547914
61514		-13.758461	18.574379	-34.540779
61515		-13.764487	18.568075	-34.534192
61516		-13.775270	18.564500	-34.520683
61517		-13.787747	18.566437	-34.506547
61518		-13.807356	18.572338	-34.499087
61519		-13.826911	18.580230	-34.493915
61520		-13.845742	18.587649	-34.492386
61521		-13.858990	18.595134	-34.489977
61522		-13.867644	18.599363	-34.483313
61523		-13.873348	18.601815	-34.476243
61524		-13.881077	18.601100	-34.466504
61525		-13.889687	18.600913	-34.459958
61526		-13.896817	18.601155	-34.450761
61527		-13.904553	18.600182	-34.440089
61528		-13.911007	18.601328	-34.428022
61529		-13.919528	18.603285	-34.414814
61530		-13.929363	18.605264	-34.399248
61531		-13.940508	18.604952	-34.383772
61532		-13.953688	18.603954	-34.370259
61533		-13.963660	18.601391	-34.353796
61534		-13.976521	18.596735	-34.339992
61535		-13.985750	18.589386	-34.330625
61536		-13.992784	18.579432	-34.321371
61537		-13.996046	18.566958	-34.314319
61538		-13.997972	18.552384	-34.303601
61539		-14.004492	18.538811	-34.290538
61540		-14.008534	18.529161	-34.277330
61541		-14.020584	18.521418	-34.264941
61542		-14.031339	18.515971	-34.252473
61543		-14.047250	18.510840	-34.241627
61544		-14.057741	18.505897	-34.231134
61545		-14.067879	18.499422	-34.222449
61546		-14.072124	18.491808	-34.214993
61547		-14.075294	18.481543	-34.207707
61548		-14.077608	18.474807	-34.199539
61549		-14.078147	18.468468	-34.192055
61550		-14.080840	18.467666	-34.190929
61551		-14.084646	18.467191	-34.192193
61552		-14.090129	18.468517	-34.195927
61553		-14.093476	18.470937	-34.203473
61554		-14.093301	18.472756	-34.208555
61555		-14.096182	18.473727	-34.212291
61556		-14.096344	18.474757	-34.210993
61557		-14.095660	18.474808	-34.211194
61558		-14.094028	18.474576	-34.212669
61559		-14.092246	18.474375	-34.214106
61560		-14.092077	18.476196	-34.219182
61561		-14.091161	18.478985	-34.224854
61562		-14.094785	18.483461	-34.234613
61563		-14.097105	18.485470	-34.242065
61564		-14.102335	18.487294	-34.247769
61565		-14.104535	18.489545	-34.252953
61566		-14.105036	18.494243	-34.251942
61567		-14.106104	18.499962	-34.252701
61568		-14.107741	18.503048	-34.254997
61569		-14.112092	18.503804	-34.259011
61570		-14.115664	18.508237	-34.265353
61571		-14.114060	18.514517	-34.275651
61572		-14.111186	18.520949	-34.289253
61573		-14.111300	18.524594	-34.305829
61574		-14.118555	18.525915	-34.323445
61575		-14.123182	18.527017	-34.340707
61576		-14.131242	18.529070	-34.355725
61577		-14.139255	18.535008	-34.365206
61578		-14.148578	18.540872	-34.369144
61579		-14.157061	18.543533	-34.371347
61580		-14.167106	18.545967	-34.370424
61581		-14.170711	18.545801	-34.372403
61582		-14.174760	18.545081	-34.372514
61583		-14.176213	18.546300	-34.372474
61584		-14.174546	18.548276	-34.373841
61585		-14.170304	18.551915	-34.373866
61586		-14.166972	18.554278	-34.372542
61587		-14.161637	18.555350	-34.370575
61588		-14.161164	18.557312	-34.366391
61589		-14.161523	18.559826	-34.358647
61590		-14.162181	18.563958	-34.348841
61591		-14.166128	18.566805	-34.335574
61592		-14.175037	18.570524	-34.323556
61593		-14.185077	18.572422	-34.313819
61594		-14.186997	18.574691	-34.306329
61595		-14.193211	18.574207	-34.299852
61596		-14.189116	18.569200	-34.294521
61597		-14.184634	18.564783	-34.291002
61598		-14.178814	18.560453	-34.287370
61599		-14.180078	18.555271	-34.281574
61600		-14.185642	18.549959	-34.278698
61601		-14.192173	18.544946	-34.277907
61602		-14.200616	18.543685	-34.278834
61603		-14.201851	18.543179	-34.280856
61604		-14.201114	18.543745	-34.283099
61605		-14.194510	18.547065	-34.286435
61606		-14.187729	18.550790	-34.288493
61607		-14.181555	18.557535	-34.287687
61608		-14.177841	18.562547	-34.284845
61609		-14.178816	18.568278	-34.278602
61610		-14.178561	18.573831	-34.267905
61611		-14.186159	18.575377	-34.258002
61612		-14.189816	18.576971	-34.248815
61613		-14.190889	18.576093	-34.239369
61614		-14.191944	18.575694	-34.235522
61615		-14.193873	18.573996	-34.235896
61616		-14.192713	18.568960	-34.238890
61617		-14.185553	18.564634	-34.240947
61618		-14.175612	18.560687	-34.242288
61619		-14.167054	18.554429	-34.243933
61620		-14.162703	18.549925	-34.240561
61621		-14.158067	18.543503	-34.234804
61622		-14.154595	18.541669	-34.227791
61623		-14.155939	18.540452	-34.221300
61624		-14.159343	18.542541	-34.214089
61625		-14.163934	18.544731	-34.208000
61626		-14.167130	18.545132	-34.202831
61627		-14.169304	18.545107	-34.201313
61628		-14.166836	18.544129	-34.201909
61629		-14.162821	18.541132	-34.205704
61630		-14.158563	18.541123	-34.212373
61631		-14.153489	18.540135	-34.220643
61632		-14.146707	18.540077	-34.231581
61633		-14.138071	18.540718	-34.244137
61634		-14.128926	18.544490	-34.257224
61635		-14.118502	18.552440	-34.274751
61636		-14.109336	18.560638	-34.291074
61637		-14.096284	18.570735	-34.305858
61638		-14.089008	18.580238	-34.322817
61639		-14.081504	18.589703	-34.336329
61640		-14.075482	18.597007	-34.347826
61641		-14.069068	18.602360	-34.353461
61642		-14.066989	18.605063	-34.354333
61643		-14.062106	18.607658	-34.352773
61644		-14.056492	18.609459	-34.350302
61645		-14.053201	18.613737	-34.348070
61646		-14.056780	18.617798	-34.343200
61647		-14.059289	18.623621	-34.341894
61648		-14.061458	18.632332	-34.343376
61649		-14.062483	18.640875	-34.349504
61650		-14.059978	18.646521	-34.353236
61651		-14.058932	18.649899	-34.357386
61652		-14.054813	18.653752	-34.358499
61653		-14.050492	18.657654	-34.359389
61654		-14.042249	18.661567	-34.357691
61655		-14.038839	18.666223	-34.356209
61656		-14.038319	18.670684	-34.356288
61657		-14.036135	18.673445	-34.357224
61658		-14.034690	18.677430	-34.360855
61659		-14.033975	18.680347	-34.369691
61660		-14.029761	18.684798	-34.379531
61661		-14.025412	18.689331	-34.389269
61662		-14.017696	18.688807	-34.400279
61663		-14.013363	18.684727	-34.408131
61664		-14.009051	18.680592	-34.412470
61665		-14.007108	18.678696	-34.412579
61666		-14.005826	18.679904	-34.407541
61667		-14.003510	18.682636	-34.401562
61668		-14.004020	18.683199	-34.398234
61669		-14.002833	18.684258	-34.395604
61670		-14.000127	18.687890	-34.393591
61671		-13.989529	18.693529	-34.397498
61672		-13.981455	18.695663	-34.406984
61673		-13.977495	18.693178	-34.418200
61674		-13.979727	18.689612	-34.429828
61675		-13.985807	18.685902	-34.440883
61676		-13.993232	18.684382	-34.446354
61677		-14.003856	18.685883	-34.448232
61678		-14.014684	18.687056	-34.445840
61679		-14.023874	18.686273	-34.439745
61680		-14.031656	18.683656	-34.434528
61681		-14.033882	18.681104	-34.428572
61682		-14.033728	18.680697	-34.426825
61683		-14.029622	18.684408	-34.423408
61684		-14.026714	18.686364	-34.423420
61685		-14.020273	18.689775	-34.426747
61686		-14.018117	18.692754	-34.428553
61687		-14.015770	18.695746	-34.430252
61688		-14.017119	18.697383	-34.432096
61689		-14.018173	18.699327	-34.431495
61690		-14.020030	18.699958	-34.429423
61691		-14.023816	18.699469	-34.427156
61692		-14.024088	18.700544	-34.425776
61693		-14.028152	18.699842	-34.426069
61694		-14.022570	18.699790	-34.427976
61695		-14.028036	18.698900	-34.428388
61696		-14.027797	18.696558	-34.427687
61697		-14.027140	18.696604	-34.424521
61698		-14.028065	18.692339	-34.422756
61699		-14.029806	18.688319	-34.416253
61700		-14.030657	18.684009	-34.411106
61701		-14.034120	18.679927	-34.408366
61702		-14.037021	18.678888	-34.406207
61703		-14.041926	18.678740	-34.406015
61704		-14.045873	18.680454	-34.407002
61705		-14.047356	18.681604	-34.406914
61706		-14.049295	18.682282	-34.408219
61707		-14.050861	18.683169	-34.403773
61708		-14.051395	18.683746	-34.400432
61709		-14.051815	18.684341	-34.397221
61710		-14.050436	18.685821	-34.393144
61711		-14.050475	18.686896	-34.388324
61712		-14.050429	18.688435	-34.385513
61713		-14.051130	18.688563	-34.383607
61714		-14.050281	18.689376	-34.383354
61715		-14.051250	18.689344	-34.387197
61716		-14.048594	18.688914	-34.389660
61717		-14.047180	18.684261	-34.393441
61718		-14.045970	18.679215	-34.392960
61719		-14.045764	18.676672	-34.391347
61720		-14.047213	18.675829	-34.388895
61721		-14.052150	18.675635	-34.385296
61722		-14.058326	18.675648	-34.380706
61723		-14.065068	18.674840	-34.378958
61724		-14.068103	18.673553	-34.375817
61725		-14.069128	18.673233	-34.375275
61726		-14.068469	18.669417	-34.374185
61727		-14.067535	18.670289	-34.374024
61728		-14.071679	18.663283	-34.378672
61729		-14.065604	18.657513	-34.380213
61730		-14.060871	18.656012	-34.379605
61731		-14.063083	18.651561	-34.378037
61732		-14.065017	18.647817	-34.376102
61733		-14.064363	18.646023	-34.373918
61734		-14.069115	18.644040	-34.369113
61735		-14.073117	18.643046	-34.364888
61736		-14.078649	18.639891	-34.361951
61737		-14.082484	18.637272	-34.359593
61738		-14.084292	18.633781	-34.358632
61739		-14.080015	18.629144	-34.357610
61740		-14.080112	18.626351	-34.358310
61741		-14.078071	18.622549	-34.359360
61742		-14.079626	18.619560	-34.360349
61743		-14.079464	18.614846	-34.362039
61744		-14.078709	18.609095	-34.361990
61745		-14.078474	18.604393	-34.360209
61746		-14.080158	18.601153	-34.360222
61747		-14.080404	18.600127	-34.358926
61748		-14.082467	18.602749	-34.359170
61749		-14.081359	18.603927	-34.362987
61750		-14.085426	18.603492	-34.367409
61751		-14.088700	18.601904	-34.372103
61752		-14.087865	18.598639	-34.376323
61753		-14.085559	18.591205	-34.380568
61754		-14.081407	18.584665	-34.383902
61755		-14.082276	18.578263	-34.385611
61756		-14.083073	18.570168	-34.389284
61757		-14.080822	18.562522	-34.392274
61758		-14.079690	18.557530	-34.395141
61759		-14.079162	18.553527	-34.399891
61760		-14.080262	18.547164	-34.404911
61761		-14.079922	18.540809	-34.408785
61762		-14.078831	18.537717	-34.407237
61763		-14.082457	18.533354	-34.407054
61764		-14.085989	18.529165	-34.404428
61765		-14.092786	18.523659	-34.398413
61766		-14.096017	18.517741	-34.394436
61767		-14.100205	18.510178	-34.390520
61768		-14.103242	18.504471	-34.384150
61769		-14.106248	18.502895	-34.376754
61770		-14.108218	18.503249	-34.370333
61771		-14.110673	18.502760	-34.366693
61772		-14.118406	18.502611	-34.365773
61773		-14.123295	18.500466	-34.366737
61774		-14.128055	18.501005	-34.369576
61775		-14.124505	18.501786	-34.373478
61776		-14.122843	18.499992	-34.380159
61777		-14.127812	18.496054	-34.389025
61778		-14.137028	18.493843	-34.396166
61779		-14.149818	18.494209	-34.404615
61780		-14.166435	18.499225	-34.407627
61781		-14.185136	18.507257	-34.412748
61782		-14.202945	18.514766	-34.417932
61783		-14.213632	18.518794	-34.424176
61784		-14.215445	18.517831	-34.430828
61785		-14.205445	18.516601	-34.439575
61786		-14.195890	18.514878	-34.449714
61787		-14.187000	18.514244	-34.461594
61788		-14.179341	18.513804	-34.472395
61789		-14.172940	18.515398	-34.479998
61790		-14.171438	18.519651	-34.481150
61791		-14.176858	18.525358	-34.481181
61792		-14.188744	18.531390	-34.478549
61793		-14.203481	18.536796	-34.475354
61794		-14.215325	18.538408	-34.469491
61795		-14.222150	18.539461	-34.463348
61796		-14.228253	18.537211	-34.452112
61797		-14.225687	18.533830	-34.441561
61798		-14.231997	18.539850	-34.428119
61799		-14.247263	18.550181	-34.405745
61800		-14.272090	18.568766	-34.378836
61801		-14.304045	18.588625	-34.349921
61802		-14.333475	18.599533	-34.318763
61803		-14.363626	18.605061	-34.292846
61804		-14.388493	18.608641	-34.270704
61805		-14.400312	18.607557	-34.256189
61806		-14.412881	18.603303	-34.241228
61807		-14.421869	18.598298	-34.229613
61808		-14.428006	18.589508	-34.218540
61809		-14.437764	18.576744	-34.205564
61810		-14.451462	18.564270	-34.194062
61811		-14.464438	18.552816	-34.182999
61812		-14.482952	18.541228	-34.172744
61813		-14.489824	18.531377	-34.166837
61814		-14.494879	18.524549	-34.160184
61815		-14.488839	18.518427	-34.154167
61816		-14.484632	18.513785	-34.149665
61817		-14.484018	18.507690	-34.144138
61818		-14.490710	18.502634	-34.140107
61819		-14.499254	18.496536	-34.135530
61820		-14.510907	18.487727	-34.131898
61821		-14.523436	18.479540	-34.131296
61822		-14.535417	18.468070	-34.129136
61823		-14.541147	18.455784	-34.130979
61824		-14.541145	18.444485	-34.132835
61825		-14.539078	18.432231	-34.138316
61826		-14.535968	18.419658	-34.144958
61827		-14.528916	18.411142	-34.150080
61828		-14.534333	18.404168	-34.155899
61829		-14.539425	18.393339	-34.163881
61830		-14.549037	18.383791	-34.168236
61831		-14.554155	18.374936	-34.171675
61832		-14.559127	18.368676	-34.177046
61833		-14.560665	18.363613	-34.184596
61834		-14.561505	18.357759	-34.194840
61835		-14.559875	18.351323	-34.200808
61836		-14.557183	18.344622	-34.207700
61837		-14.554380	18.338009	-34.214487
61838		-14.553844	18.332090	-34.220104
61839		-14.553005	18.326784	-34.227740
61840		-14.551825	18.319907	-34.238273
61841		-14.547860	18.315428	-34.250822
61842		-14.541748	18.307935	-34.261069
61843		-14.532729	18.300812	-34.271164
61844		-14.526248	18.295962	-34.276586
61845		-14.519897	18.290698	-34.280025
61846		-14.519575	18.284265	-34.280336
61847		-14.523633	18.279227	-34.280415
61848		-14.528120	18.271465	-34.282035
61849		-14.527345	18.265835	-34.285384
61850		-14.520686	18.261211	-34.288417
61851		-14.509662	18.255130	-34.294078
61852		-14.495608	18.249588	-34.296683
61853		-14.489793	18.243180	-34.296513
61854		-14.485818	18.236152	-34.294448
61855		-14.484797	18.228278	-34.287559
61856		-14.486796	18.219882	-34.278011
61857		-14.489465	18.210390	-34.270309
61858		-14.488614	18.200238	-34.263586
61859		-14.483616	18.190249	-34.257483
61860		-14.478015	18.181454	-34.252803
61861		-14.469348	18.177429	-34.247433
61862		-14.461854	18.169556	-34.242025
61863		-14.456352	18.162481	-34.235330
61864		-14.454883	18.155456	-34.225739
61865		-14.453343	18.148445	-34.213053
61866		-14.451261	18.140166	-34.200699
61867		-14.449898	18.128285	-34.189237
61868		-14.447040	18.117106	-34.182817
61869		-14.445988	18.109412	-34.180395
61870		-14.443875	18.101432	-34.175714
61871		-14.434797	18.096021	-34.169887
61872		-14.427053	18.088641	-34.166424
61873		-14.421838	18.079138	-34.162332
61874		-14.421452	18.068263	-34.156059
61875		-14.415534	18.064095	-34.148899
61876		-14.419657	18.085297	-34.148405
61877		-14.501417	18.055027	-34.166007
61878		-14.492988	18.031965	-34.186489
61879		-14.484958	18.034285	-34.205843
61880		-14.472373	18.031068	-34.219686
61881		-14.464715	18.023892	-34.229541
61882		-14.456710	18.021407	-34.227905
61883		-14.461652	18.021489	-34.222220
61884		-14.473224	18.016967	-34.211798
61885		-14.484479	18.014919	-34.198854
61886		-14.495169	18.016222	-34.187451
61887		-14.504462	18.013107	-34.178356
61888		-14.501739	18.006078	-34.170853
61889		-14.487316	18.002898	-34.164367
61890		-14.479883	17.999447	-34.162196
61891		-14.486888	17.987410	-34.169693
61892		-14.484648	17.969044	-34.177234
61893		-14.466769	17.956736	-34.185130
61894		-14.449710	17.954077	-34.188052
61895		-14.447031	17.949422	-34.193757
61896		-14.445627	17.944948	-34.198466
61897		-14.435194	17.944505	-34.200129
61898		-14.420697	17.946267	-34.198772
61899		-14.429620	17.952676	-34.192292
61900		-14.438912	17.956391	-34.183908
61901		-14.443810	17.960545	-34.173485
61902		-14.438771	17.966123	-34.164561
61903		-14.436062	17.969903	-34.155767
61904		-14.439501	17.972559	-34.153922
61905		-14.442100	17.972196	-34.156811
61906		-14.444648	17.970033	-34.165240
61907		-14.443903	17.971110	-34.178057
61908		-14.441919	17.967929	-34.194276
61909		-14.434915	17.964282	-34.210086
61910		-14.424064	17.962587	-34.222171
61911		-14.412312	17.962080	-34.225887
61912		-14.406667	17.964548	-34.225239
61913		-14.407549	17.966586	-34.218978
61914		-14.416683	17.972708	-34.208183
61915		-14.430411	17.977822	-34.199664
61916		-14.438576	17.983466	-34.192352
61917		-14.445545	17.991205	-34.186003
61918		-14.444210	17.995213	-34.182837
61919		-14.439773	18.000064	-34.183260
61920		-14.434611	18.004036	-34.186326
61921		-14.426990	18.005371	-34.188229
61922		-14.419275	18.004608	-34.184568
61923		-14.412906	18.005887	-34.181060
61924		-14.409373	18.006907	-34.175857
61925		-14.407947	18.010969	-34.172595
61926		-14.410579	18.017284	-34.173155
61927		-14.415313	18.022233	-34.175773
61928		-14.418246	18.025884	-34.177789
61929		-14.417731	18.028650	-34.178695
61930		-14.413849	18.030446	-34.179723
61931		-14.407804	18.031236	-34.181118
61932		-14.398120	18.031685	-34.181013
61933		-14.392654	18.033701	-34.178564
61934		-14.387468	18.037656	-34.178272
61935		-14.385251	18.043094	-34.177705
61936		-14.386264	18.047650	-34.175646
61937		-14.387810	18.051009	-34.172184
61938		-14.390220	18.053133	-34.167136
61939		-14.390401	18.059001	-34.163202
61940		-14.390403	18.063052	-34.161281
61941		-14.385766	18.070510	-34.163683
61942		-14.387622	18.076125	-34.170081
61943		-14.382497	18.082496	-34.179643
61944		-14.376639	18.090200	-34.191746
61945		-14.366097	18.099124	-34.208157
61946		-14.358909	18.109299	-34.226567
61947		-14.351199	18.118050	-34.247957
61948		-14.343453	18.127011	-34.266933
61949		-14.338509	18.135629	-34.286517
61950		-14.331474	18.143380	-34.303991
61951		-14.325487	18.151511	-34.320246
61952		-14.321637	18.160535	-34.336328
61953		-14.317286	18.168127	-34.352116
61954		-14.316151	18.174750	-34.366477
61955		-14.314550	18.179738	-34.376093
61956		-14.314443	18.184362	-34.382741
61957		-14.317204	18.190590	-34.385530
61958		-14.322374	18.197204	-34.386228
61959		-14.330661	18.200486	-34.384656
61960		-14.340739	18.202973	-34.378165
61961		-14.349483	18.205251	-34.372679
61962		-14.351308	18.208323	-34.364816
61963		-14.348596	18.210168	-34.360307
61964		-14.340453	18.221407	-34.356828
61965		-14.336113	18.244005	-34.354544
61966		-14.342840	18.279182	-34.352474
61967		-14.364785	18.308145	-34.343658
61968		-14.390793	18.323545	-34.330140
61969		-14.417605	18.332876	-34.313368
61970		-14.432864	18.357627	-34.299049
61971		-14.430014	18.397536	-34.286542
61972		-14.398357	18.446452	-34.278800
61973		-14.349002	18.505309	-34.280123
61974		-14.293660	18.584310	-34.292003
61975		-14.242401	18.672590	-34.308434
61976		-14.195047	18.749328	-34.316789
61977		-14.143661	18.818835	-34.312774
61978		-14.093522	18.888281	-34.299948
61979		-14.049484	18.950880	-34.272539
61980		-14.012076	19.006343	-34.236485
61981		-13.975909	19.061253	-34.192951
61982		-13.944042	19.113219	-34.143787
61983		-13.909107	19.163371	-34.094092
61984		-13.875162	19.214302	-34.045036
61985		-13.837427	19.267292	-34.000864
61986		-13.796705	19.319230	-33.965766
61987		-13.751804	19.376429	-33.939306
61988		-13.702338	19.439659	-33.918956
61989		-13.647876	19.504889	-33.902238
61990		-13.594880	19.567938	-33.890204
61991		-13.547468	19.623850	-33.880673
61992		-13.505968	19.667291	-33.870874
61993		-13.473497	19.699948	-33.867189
61994		-13.446917	19.725180	-33.868445
61995		-13.422607	19.751433	-33.878287
61996		-13.412768	19.775630	-33.889311
61997		-13.404459	19.799540	-33.899606
61998		-13.390910	19.827833	-33.908910
61999		-13.374040	19.857171	-33.915922
62000		-13.355117	19.883420	-33.924391
62001		-13.340880	19.906247	-33.937543
62002		-13.329763	19.924189	-33.955122
62003		-13.321484	19.939608	-33.976592
62004		-13.316399	19.949921	-34.001530
62005		-13.309266	19.961245	-34.022209
62006		-13.295544	19.967896	-34.040010
62007		-13.282231	19.975816	-34.053708
62008		-13.276291	19.984436	-34.064892
62009		-13.274806	19.991613	-34.074076
62010		-13.281512	19.993980	-34.082819
62011		-13.284878	19.992722	-34.088437
62012		-13.284060	19.998864	-34.093940
62013		-13.278932	20.008118	-34.101534
62014		-13.264949	20.021512	-34.109949
62015		-13.249570	20.029924	-34.115170
62016		-13.239878	20.033247	-34.119741
62017		-13.240770	20.031282	-34.124414
62018		-13.250516	20.027947	-34.127828
62019		-13.261934	20.026190	-34.132885
62020		-13.279472	20.032003	-34.134676
62021		-13.289263	20.051105	-34.134507
62022		-13.298018	20.069761	-34.132327
62023		-13.307398	20.086722	-34.126514
62024		-13.329368	20.100332	-34.121338
62025		-13.366602	20.112199	-34.116092
62026		-13.417122	20.130506	-34.106033
62027		-13.466830	20.152568	-34.094894
62028		-13.511348	20.181053	-34.078320
62029		-13.554416	20.211429	-34.055972
62030		-13.608909	20.242989	-34.035924
62031		-13.675729	20.266790	-34.018504
62032		-13.753612	20.278666	-34.005091
62033		-13.831481	20.279251	-33.996542
62034		-13.903742	20.273703	-33.986204
62035		-13.959394	20.267661	-33.980346
62036		-14.003674	20.269877	-33.971479
62037		-14.036247	20.276379	-33.964023
62038		-14.056230	20.291290	-33.955655
62039		-14.071923	20.311770	-33.950255
62040		-14.081458	20.335887	-33.943071
62041		-14.090123	20.363836	-33.937854
62042		-14.102912	20.391721	-33.933575
62043		-14.123271	20.418073	-33.932669
62044		-14.141737	20.438725	-33.934330
62045		-14.159031	20.454503	-33.939602
62046		-14.164363	20.459290	-33.947885
62047		-14.165578	20.445684	-33.956626
62048		-14.168769	20.416996	-33.963871
62049		-14.175972	20.378942	-33.972385
62050		-14.188308	20.338840	-33.980545
62051		-14.202281	20.302890	-33.987747
62052		-14.226256	20.276938	-33.993306
62053		-14.254594	20.259464	-34.000328
62054		-14.284276	20.249359	-34.011487
62055		-14.312858	20.236068	-34.020914
62056		-14.334415	20.216720	-34.026919
62057		-14.347697	20.193194	-34.029492
62058		-14.350056	20.163236	-34.030527
62059		-14.351728	20.129970	-34.032231
62060		-14.353128	20.101723	-34.033300
62061		-14.362344	20.082586	-34.028148
62062		-14.378173	20.070194	-34.020594
62063		-14.398272	20.059131	-34.009644
62064		-14.422838	20.040456	-33.999002
62065		-14.444842	20.012144	-33.989984
62066		-14.460990	19.978413	-33.983950
62067		-14.464471	19.943658	-33.974301
62068		-14.455789	19.907401	-33.970357
62069		-14.446218	19.872726	-33.965486
62070		-14.447604	19.842014	-33.962276
62071		-14.459187	19.813910	-33.960216
62072		-14.473592	19.790502	-33.958330
62073		-14.486331	19.772441	-33.957639
62074		-14.492838	19.751116	-33.951237
62075		-14.486220	19.722663	-33.939978
62076		-14.481413	19.693319	-33.930658
62077		-14.481116	19.665608	-33.925665
62078		-14.481056	19.632657	-33.917864
62079		-14.482662	19.608331	-33.910267
62080		-14.489118	19.591659	-33.901354
62081		-14.495349	19.579532	-33.885383
62082		-14.502423	19.566018	-33.868207
62083		-14.507793	19.553360	-33.852520
62084		-14.515576	19.538910	-33.841497
62085		-14.520909	19.522027	-33.837119
62086		-14.523856	19.507318	-33.836622
62087		-14.524584	19.492156	-33.838527
62088		-14.522706	19.483779	-33.841705
62089		-14.517654	19.480756	-33.849168
62090		-14.508842	19.480164	-33.857155
62091		-14.497647	19.479120	-33.870733
62092		-14.491533	19.476392	-33.884689
62093		-14.485324	19.466375	-33.892605
62094		-14.483045	19.456542	-33.898717
62095		-14.476275	19.445215	-33.900561
62096		-14.468482	19.433331	-33.902530
62097		-14.463167	19.426383	-33.905823
62098		-14.455556	19.425792	-33.908436
62099		-14.444564	19.426845	-33.917368
62100		-14.433610	19.425520	-33.926533
62101		-14.423121	19.420844	-33.934348
62102		-14.417060	19.413200	-33.943169
62103		-14.411602	19.406585	-33.950596
62104		-14.405550	19.403612	-33.960245
62105		-14.398872	19.403634	-33.969194
62106		-14.392124	19.409020	-33.982027
62107		-14.384332	19.414140	-33.997982
62108		-14.371018	19.417260	-34.011061
62109		-14.350142	19.417527	-34.023293
62110		-14.323775	19.413382	-34.031695
62111		-14.297604	19.411370	-34.038999
62112		-14.278187	19.406571	-34.047656
62113		-14.268386	19.398425	-34.054128
62114		-14.266800	19.385203	-34.062149
62115		-14.261173	19.374554	-34.070292
62116		-14.254578	19.358589	-34.077937
62117		-14.243072	19.339680	-34.087484
62118		-14.230498	19.318018	-34.093982
62119		-14.222155	19.293284	-34.100417
62120		-14.217962	19.270721	-34.107512
62121		-14.217738	19.247956	-34.114426
62122		-14.221304	19.225439	-34.119301
62123		-14.223277	19.203329	-34.125134
62124		-14.227520	19.182067	-34.132748
62125		-14.225303	19.151404	-34.145740
62126		-14.216476	19.121002	-34.156331
62127		-14.204344	19.091282	-34.167054
62128		-14.193424	19.062356	-34.178767
62129		-14.187462	19.035998	-34.186446
62130		-14.187311	19.013236	-34.193106
62131		-14.188957	18.989245	-34.196301
62132		-14.191503	18.968419	-34.197892
62133		-14.196947	18.949149	-34.195875
62134		-14.200638	18.926391	-34.199756
62135		-14.201500	18.901701	-34.205432
62136		-14.195829	18.879686	-34.216414
62137		-14.189094	18.857242	-34.230872
62138		-14.182233	18.835275	-34.247176
62139		-14.170767	18.809962	-34.263588
62140		-14.159399	18.786758	-34.279908
62141		-14.147141	18.765037	-34.295371
62142		-14.135360	18.746919	-34.304518
62143		-14.128847	18.733268	-34.312188
62144		-14.124947	18.721750	-34.315638
62145		-14.125685	18.711032	-34.317204
62146		-14.128744	18.698526	-34.316644
62147		-14.130157	18.686292	-34.312456
62148		-14.127691	18.674223	-34.308678
62149		-14.124104	18.661713	-34.308245
62150		-14.120312	18.645282	-34.309900
62151		-14.111330	18.629015	-34.316311
62152		-14.098421	18.612849	-34.323160
62153		-14.087039	18.598690	-34.333822
62154		-14.076197	18.588500	-34.348822
62155		-14.068761	18.583108	-34.359503
62156		-14.061676	18.582489	-34.374369
62157		-14.051986	18.579585	-34.388887
62158		-14.050228	18.574088	-34.403774
62159		-14.047694	18.569914	-34.420137
62160		-14.043612	18.566409	-34.438046
62161		-14.036804	18.558621	-34.456738
62162		-14.031317	18.548239	-34.472576
62163		-14.027551	18.536657	-34.484864
62164		-14.024046	18.527224	-34.497171
62165		-14.025137	18.523189	-34.505126
62166		-14.023993	18.518598	-34.511897
62167		-14.023394	18.517426	-34.514799
62168		-14.021130	18.516937	-34.515941
62169		-14.014255	18.515212	-34.517131
62170		-14.006111	18.513444	-34.513720
62171		-14.000985	18.510930	-34.513534
62172		-13.996693	18.511631	-34.511559
62173		-13.998244	18.513312	-34.506762
62174		-14.001058	18.510274	-34.498955
62175		-14.006240	18.509932	-34.489228
62176		-14.008713	18.509830	-34.480922
62177		-14.008386	18.510288	-34.472170
62178		-14.006121	18.509470	-34.465777
62179		-14.001249	18.508469	-34.459078
62180		-13.991553	18.507199	-34.456279
62181		-13.978307	18.504979	-34.452269
62182		-13.970894	18.504176	-34.447343
62183		-13.964974	18.503084	-34.444876
62184		-13.967319	18.501066	-34.440867
62185		-13.977553	18.498885	-34.433801
62186		-13.981320	18.494131	-34.425937
62187		-13.982491	18.489009	-34.414739
62188		-13.980308	18.480773	-34.402373
62189		-13.976621	18.470750	-34.392976
62190		-13.971672	18.460902	-34.389875
62191		-13.971323	18.449542	-34.388441
62192		-13.971540	18.442174	-34.388058
62193		-13.974569	18.438774	-34.388040
62194		-13.978531	18.436296	-34.386702
62195		-13.984642	18.431862	-34.382245
62196		-13.986330	18.428591	-34.375506
62197		-13.989725	18.421952	-34.368430
62198		-13.990687	18.417718	-34.363197
62199		-13.993628	18.412426	-34.357866
62200		-13.991866	18.403791	-34.353471
62201		-13.987996	18.396699	-34.350276
62202		-13.980504	18.391526	-34.348745
62203		-13.974454	18.390658	-34.347230
62204		-13.971104	18.387476	-34.348530
62205		-13.968637	18.387474	-34.350298
62206		-13.969374	18.386246	-34.351144
62207		-13.971718	18.384430	-34.353555
62208		-13.976566	18.380526	-34.356391
62209		-13.980153	18.378623	-34.360067
62210		-13.982305	18.374985	-34.364578
62211		-13.989312	18.371609	-34.365274
62212		-13.996030	18.368901	-34.365542
62213		-14.003144	18.365277	-34.361975
62214		-14.009396	18.363265	-34.358514
62215		-14.009901	18.361986	-34.352775
62216		-14.008611	18.359460	-34.346324
62217		-14.004093	18.357995	-34.341186
62218		-14.002727	18.353264	-34.334787
62219		-14.004123	18.345917	-34.332450
62220		-14.007559	18.334807	-34.325694
62221		-14.012016	18.326647	-34.319986
62222		-14.023673	18.316981	-34.311433
62223		-14.036496	18.311973	-34.301739
62224		-14.050311	18.310155	-34.293753
62225		-14.062013	18.309573	-34.285931
62226		-14.070512	18.310491	-34.281247
62227		-14.077063	18.315042	-34.276485
62228		-14.079263	18.315747	-34.274318
62229		-14.077536	18.316540	-34.274915
62230		-14.072537	18.316290	-34.274429
62231		-14.069358	18.317412	-34.274586
62232		-14.066485	18.320344	-34.273825
62233		-14.072432	18.326086	-34.274059
62234		-14.078416	18.329538	-34.277568
62235		-14.091156	18.330215	-34.281199
62236		-14.106819	18.325597	-34.288117
62237		-14.124456	18.319605	-34.290543
62238		-14.133913	18.314176	-34.288229
62239		-14.135910	18.310227	-34.288321
62240		-14.138584	18.305602	-34.292304
62241		-14.146864	18.302604	-34.301741
62242		-14.151198	18.304663	-34.313419
62243		-14.151820	18.306335	-34.329174
62244		-14.142622	18.309701	-34.345930
62245		-14.140275	18.309606	-34.361044
62246		-14.138411	18.309036	-34.377602
62247		-14.144732	18.307454	-34.391484
62248		-14.155299	18.307512	-34.400694
62249		-14.167725	18.308626	-34.406157
62250		-14.181060	18.308130	-34.409469
62251		-14.191779	18.307088	-34.404990
62252		-14.197109	18.306805	-34.401585
62253		-14.204024	18.307948	-34.393279
62254		-14.212911	18.312744	-34.383340
62255		-14.220942	18.319066	-34.372605
62256		-14.234307	18.327537	-34.363570
62257		-14.248382	18.334782	-34.356715
62258		-14.262360	18.339839	-34.349552
62259		-14.281214	18.350027	-34.343796
62260		-14.300343	18.360006	-34.340269
62261		-14.318171	18.367548	-34.337927
62262		-14.329107	18.368697	-34.330186
62263		-14.334221	18.368422	-34.323493
62264		-14.334954	18.369374	-34.317696
62265		-14.334369	18.370384	-34.313944
62266		-14.330231	18.370882	-34.310977
62267		-14.342026	18.372809	-34.307458
62268		-14.353174	18.375916	-34.298729
62269		-14.364429	18.383378	-34.290023
62270		-14.375908	18.388192	-34.279359
62271		-14.385959	18.391034	-34.270617
62272		-14.397835	18.390475	-34.262810
62273		-14.401961	18.387396	-34.255071
62274		-14.402174	18.384404	-34.244687
62275		-14.406159	18.381434	-34.231652
62276		-14.413108	18.382565	-34.216795
62277		-14.423599	18.389158	-34.196557
62278		-14.437107	18.399589	-34.179982
62279		-14.455850	18.409889	-34.164222
62280		-14.477236	18.417880	-34.151136
62281		-14.491702	18.421925	-34.140334
62282		-14.495373	18.422133	-34.130963
62283		-14.490270	18.419212	-34.115478
62284		-14.487349	18.416925	-34.095523
62285		-14.489710	18.414072	-34.072334
62286		-14.500717	18.414691	-34.049571
62287		-14.514905	18.416568	-34.028896
62288		-14.531132	18.417199	-34.007969
62289		-14.547389	18.417851	-33.990463
62290		-14.561480	18.415601	-33.980577
62291		-14.572738	18.408669	-33.970450
62292		-14.578491	18.395651	-33.963872
62293		-14.587340	18.381758	-33.956027
62294		-14.595920	18.365770	-33.942640
62295		-14.610753	18.352487	-33.927764
62296		-14.625923	18.338707	-33.914166
62297		-14.642389	18.327172	-33.905063
62298		-14.658352	18.316851	-33.897435
62299		-14.674171	18.308858	-33.894197
62300		-14.686114	18.301256	-33.891146
62301		-14.700725	18.295642	-33.886314
62302		-14.709388	18.289267	-33.882160
62303		-14.718212	18.282452	-33.876082
62304		-14.727092	18.278039	-33.870943
62305		-14.734902	18.275682	-33.866940
62306		-14.746127	18.274225	-33.867163
62307		-14.752342	18.274834	-33.871085
62308		-14.758297	18.273637	-33.876981
62309		-14.762937	18.274859	-33.886134
62310		-14.764995	18.276126	-33.895665
62311		-14.763630	18.278938	-33.905041
62312		-14.763538	18.284132	-33.913330
62313		-14.764505	18.287111	-33.919763
62314		-14.767037	18.289846	-33.926414
62315		-14.770641	18.295233	-33.929869
62316		-14.773925	18.298946	-33.935028
62317		-14.779919	18.304750	-33.938404
62318		-14.787147	18.308463	-33.947397
62319		-14.795778	18.311927	-33.956846
62320		-14.801330	18.316382	-33.967398
62321		-14.803183	18.318282	-33.978905
62322		-14.802553	18.319810	-33.990086
62323		-14.806106	18.320432	-33.997772
62324		-14.803908	18.324649	-33.999703
62325		-14.799602	18.325548	-33.997714
62326		-14.801256	18.327287	-33.992740
62327		-14.808870	18.327311	-33.982965
62328		-14.818517	18.330985	-33.974858
62329		-14.826006	18.338779	-33.968736
62330		-14.832367	18.343954	-33.970298
62331		-14.829619	18.347095	-33.976208
62332		-14.830920	18.347386	-33.983925
62333		-14.829479	18.345280	-33.991318
62334		-14.827123	18.345090	-33.996579
62335		-14.830179	18.346904	-33.999623
62336		-14.837395	18.345691	-34.000231
62337		-14.843935	18.345488	-34.001260
62338		-14.845006	18.346014	-34.000096
62339		-14.844193	18.345150	-33.997215
62340		-14.843039	18.344945	-33.993929
62341		-14.840795	18.344249	-33.987628
62342		-14.838274	18.346499	-33.980702
62343		-14.838843	18.349737	-33.974558
62344		-14.841716	18.349271	-33.970890
62345		-14.843902	18.352464	-33.969759
62346		-14.844311	18.356679	-33.970960
62347		-14.836809	18.358767	-33.974549
62348		-14.827684	18.359100	-33.978559
62349		-14.813660	18.359039	-33.982332
62350		-14.805413	18.360103	-33.983910
62351		-14.801140	18.360923	-33.981938
62352		-14.798961	18.360233	-33.978749
62353		-14.811711	18.360528	-33.968550
62354		-14.821370	18.359279	-33.955362
62355		-14.828196	18.363239	-33.948882
62356		-14.831180	18.364982	-33.945182
62357		-14.828713	18.364768	-33.947237
62358		-14.825454	18.363850	-33.951633
62359		-14.819398	18.363386	-33.957500
62360		-14.812386	18.364703	-33.964562
62361		-14.808128	18.365425	-33.969186
62362		-14.805418	18.368182	-33.967411
62363		-14.811706	18.370674	-33.954138
62364		-14.822935	18.373842	-33.945448
62365		-14.835368	18.374680	-33.940194
62366		-14.842930	18.377634	-33.939798
62367		-14.844243	18.380274	-33.937638
62368		-14.840268	18.380586	-33.936934
62369		-14.832306	18.381065	-33.935524
62370		-14.824869	18.380663	-33.937953
62371		-14.810808	18.382797	-33.941432
62372		-14.798540	18.386602	-33.944263
62373		-14.792410	18.388577	-33.944590
62374		-14.785406	18.392099	-33.941792
62375		-14.780172	18.397308	-33.937285
62376		-14.775086	18.399585	-33.931048
62377		-14.770854	18.402773	-33.925485
62378		-14.768348	18.407492	-33.919454
62379		-14.766699	18.408078	-33.915707
62380		-14.760388	18.407914	-33.913810
62381		-14.756711	18.407772	-33.914700
62382		-14.747964	18.409843	-33.916739
62383		-14.737456	18.412634	-33.920404
62384		-14.728314	18.415446	-33.922001
62385		-14.722349	18.419495	-33.922406
62386		-14.719530	18.424967	-33.922465
62387		-14.721241	18.426600	-33.919609
62388		-14.719344	18.430347	-33.919601
62389		-14.720374	18.433094	-33.918346
62390		-14.718758	18.436351	-33.919717
62391		-14.715542	18.440194	-33.924861
62392		-14.710983	18.444219	-33.929756
62393		-14.705421	18.449958	-33.938012
62394		-14.699751	18.456218	-33.948118
62395		-14.697036	18.464192	-33.955739
62396		-14.693676	18.473386	-33.964670
62397		-14.692958	18.480062	-33.972291
62398		-14.689051	18.485319	-33.976637
62399		-14.687901	18.492726	-33.982428
62400		-14.685711	18.499699	-33.989403
62401		-14.685986	18.506552	-33.995733
62402		-14.686387	18.513504	-34.002009
62403		-14.689289	18.520576	-34.010736
62404		-14.687512	18.529276	-34.019051
62405		-14.688262	18.533150	-34.021564
62406		-14.683291	18.533005	-34.020910
62407		-14.680363	18.530870	-34.013760
62408		-14.678285	18.527481	-34.005418
62409		-14.678778	18.531209	-33.994941
62410		-14.680642	18.537366	-33.983358
62411		-14.682529	18.545849	-33.971651
62412		-14.689129	18.550502	-33.964802
62413		-14.691168	18.551242	-33.956049
62414		-14.687425	18.553533	-33.951057
62415		-14.674894	18.555551	-33.945161
62416		-14.660177	18.556720	-33.943463
62417		-14.655222	18.556294	-33.945054
62418		-14.659480	18.555822	-33.945928
62419		-14.669072	18.555033	-33.946584
62420		-14.680452	18.555724	-33.946830
62421		-14.695382	18.559360	-33.944052
62422		-14.706211	18.563496	-33.942445
62423		-14.712573	18.566242	-33.943130
62424		-14.713336	18.567528	-33.944750
62425		-14.707176	18.569666	-33.952474
62426		-14.699010	18.573527	-33.965563
62427		-14.688297	18.577226	-33.978409
62428		-14.675444	18.580153	-33.989103
62429		-14.663811	18.580573	-33.997061
62430		-14.657393	18.580967	-34.003495
62431		-14.652760	18.582664	-34.007297
62432		-14.654701	18.586647	-34.008787
62433		-14.663629	18.589250	-34.008764
62434		-14.674124	18.594125	-34.009985
62435		-14.681717	18.599521	-34.010637
62436		-14.682799	18.605247	-34.015444
62437		-14.678675	18.608570	-34.024030
62438		-14.676060	18.611644	-34.032900
62439		-14.675173	18.610919	-34.040675
62440		-14.666478	18.613329	-34.050060
62441		-14.659602	18.617227	-34.061179
62442		-14.652230	18.619631	-34.071845
62443		-14.648708	18.619379	-34.081108
62444		-14.655536	18.616680	-34.087836
62445		-14.659682	18.616508	-34.096163
62446		-14.661068	18.614369	-34.102872
62447		-14.666293	18.614583	-34.108057
62448		-14.667536	18.615149	-34.113355
62449		-14.669467	18.614308	-34.116261
62450		-14.670415	18.612902	-34.119272
62451		-14.669665	18.614456	-34.120511
62452		-14.667072	18.619731	-34.119566
62453		-14.665402	18.622971	-34.117696
62454		-14.663463	18.624549	-34.117659
62455		-14.661494	18.625908	-34.116631
62456		-14.661610	18.625979	-34.115506
62457		-14.662635	18.624531	-34.114253
62458		-14.667135	18.621096	-34.112330
62459		-14.666635	18.619868	-34.107458
62460		-14.667355	18.616233	-34.103987
62461		-14.668034	18.610208	-34.102861
62462		-14.665828	18.607361	-34.102881
62463		-14.664972	18.601830	-34.105640
62464		-14.660605	18.595824	-34.109121
62465		-14.659980	18.589792	-34.113066
62466		-14.659278	18.584236	-34.119032
62467		-14.657466	18.580951	-34.123917
62468		-14.657526	18.576366	-34.128415
62469		-14.656555	18.573826	-34.134038
62470		-14.657929	18.569227	-34.139821
62471		-14.659891	18.560711	-34.142324
62472		-14.660022	18.550948	-34.144066
62473		-14.659987	18.541276	-34.145628
62474		-14.658299	18.532523	-34.146580
62475		-14.657193	18.524802	-34.152208
62476		-14.658501	18.517730	-34.153830
62477		-14.655108	18.509886	-34.159445
62478		-14.651234	18.500433	-34.161509
62479		-14.646757	18.489506	-34.163202
62480		-14.643390	18.479061	-34.164767
62481		-14.640150	18.470831	-34.166450
62482		-14.639688	18.464780	-34.170530
62483		-14.642119	18.460386	-34.175342
62484		-14.640646	18.456325	-34.180418
62485		-14.641058	18.448344	-34.183321
62486		-14.639535	18.439355	-34.186577
62487		-14.638666	18.428902	-34.187494
62488		-14.637077	18.417440	-34.186594
62489		-14.637371	18.407363	-34.186258
62490		-14.638387	18.398322	-34.185593
62491		-14.642752	18.390089	-34.188115
62492		-14.648760	18.383935	-34.192124
62493		-14.651601	18.378911	-34.197178
62494		-14.651638	18.366952	-34.202175
62495		-14.650187	18.355665	-34.207875
62496		-14.648499	18.342005	-34.210238
62497		-14.648180	18.330444	-34.210820
62498		-14.646607	18.323905	-34.208492
62499		-14.647703	18.321845	-34.203437
62500		-14.649319	18.316749	-34.207330
62501		-14.658425	18.311969	-34.214482
62502		-14.662906	18.303879	-34.221401
62503		-14.661452	18.292063	-34.229446
62504		-14.651032	18.278086	-34.237150
62505		-14.638038	18.261960	-34.249240
62506		-14.632324	18.246444	-34.261663
62507		-14.632594	18.231341	-34.269301
62508		-14.635781	18.220819	-34.277260
62509		-14.639753	18.213261	-34.279318
62510		-14.646494	18.208057	-34.278619
62511		-14.650823	18.202444	-34.273580
62512		-14.654236	18.193590	-34.266687
62513		-14.655981	18.185025	-34.259178
62514		-14.655124	18.176986	-34.251242
62515		-14.653852	18.167318	-34.248456
62516		-14.649483	18.161339	-34.248669
62517		-14.646577	18.152468	-34.250554
62518		-14.638398	18.146581	-34.256632
62519		-14.632641	18.140763	-34.261841
62520		-14.628078	18.135300	-34.267157
62521		-14.626424	18.129147	-34.269017
62522		-14.626413	18.122094	-34.266102
62523		-14.630838	18.116231	-34.260008
62524		-14.634411	18.107134	-34.255421
62525		-14.636402	18.098627	-34.251403
62526		-14.629761	18.087024	-34.247662
62527		-14.631182	18.077022	-34.243290
62528		-14.628330	18.070514	-34.239680
62529		-14.625489	18.066243	-34.239189
62530		-14.624324	18.061423	-34.234972
62531		-14.623620	18.053131	-34.232648
62532		-14.627496	18.046003	-34.230342
62533		-14.628480	18.036937	-34.229798
62534		-14.632771	18.031528	-34.228838
62535		-14.635818	18.028415	-34.229702
62536		-14.637560	18.025523	-34.230326
62537		-14.638119	18.022170	-34.227769
62538		-14.640423	18.018012	-34.220494
62539		-14.641021	18.014606	-34.208450
62540		-14.646375	18.011845	-34.194449
62541		-14.647530	18.007294	-34.180802
62542		-14.651438	17.999891	-34.167861
62543		-14.652029	17.988942	-34.155112
62544		-14.649844	17.976005	-34.144075
62545		-14.642640	17.962930	-34.133663
62546		-14.634127	17.949866	-34.121760
62547		-14.632268	17.936169	-34.108030
62548		-14.627711	17.922762	-34.089340
62549		-14.631193	17.916083	-34.069736
62550		-14.640519	17.910531	-34.051270
62551		-14.650268	17.906843	-34.037409
62552		-14.660440	17.904740	-34.024866
62553		-14.668961	17.900677	-34.015259
62554		-14.670771	17.895061	-34.010805
62555		-14.667477	17.889231	-34.010090
62556		-14.662589	17.881783	-34.009886
62557		-14.656103	17.874930	-34.010283
62558		-14.655360	17.869371	-34.009734
62559		-14.655077	17.865289	-34.009644
62560		-14.658624	17.863829	-34.008732
62561		-14.665254	17.863820	-34.007648
62562		-14.670895	17.863310	-34.009794
62563		-14.676976	17.864376	-34.015485
62564		-14.675032	17.866235	-34.019627
62565		-14.672011	17.870105	-34.024767
62566		-14.668677	17.874701	-34.029473
62567		-14.667462	17.880117	-34.033020
62568		-14.670471	17.887292	-34.036280
62569		-14.676041	17.891978	-34.038056
62570		-14.678229	17.895719	-34.038621
62571		-14.680157	17.897261	-34.035961
62572		-14.677937	17.899614	-34.035498
62573		-14.677258	17.906541	-34.036118
62574		-14.675896	17.914792	-34.039261
62575		-14.676502	17.924076	-34.042189
62576		-14.680809	17.933681	-34.041181
62577		-14.686417	17.940513	-34.039705
62578		-14.687584	17.946244	-34.038034
62579		-14.687231	17.947334	-34.037439
62580		-14.684481	17.948226	-34.036551
62581		-14.685617	17.949049	-34.039643
62582		-14.686723	17.949855	-34.036142
62583		-14.683264	17.954460	-34.027956
62584		-14.682816	17.958244	-34.019493
62585		-14.685940	17.962459	-34.010354
62586		-14.692735	17.964621	-34.005938
62587		-14.699332	17.967001	-34.005678
62588		-14.700245	17.968319	-34.010493
62589		-14.693640	17.971816	-34.016373
62590		-14.688102	17.973274	-34.021231
62591		-14.683151	17.973516	-34.024724
62592		-14.685323	17.974800	-34.024364
62593		-14.689705	17.979008	-34.019624
62594		-14.696231	17.984120	-34.008305
62595		-14.710262	17.989386	-33.995846
62596		-14.720166	17.995417	-33.985645
62597		-14.725040	18.001061	-33.974883
62598		-14.725397	18.005826	-33.968194
62599		-14.725428	18.008713	-33.965589
62600		-14.723099	18.011328	-33.966032
62601		-14.720677	18.011571	-33.968715
62602		-14.716521	18.010291	-33.972996
62603		-14.709221	18.010061	-33.972074
62604		-14.700323	18.013069	-33.973482
62605		-14.694513	18.017481	-33.971565
62606		-14.691801	18.023301	-33.966030
62607		-14.690445	18.031309	-33.955378
62608		-14.694050	18.042150	-33.939660
62609		-14.702079	18.054557	-33.928167
62610		-14.710815	18.065552	-33.924969
62611		-14.729676	18.074183	-33.925576
62612		-14.736830	18.078324	-33.929894
62613		-14.735105	18.082182	-33.936215
62614		-14.729309	18.084145	-33.939674
62615		-14.719560	18.083743	-33.947999
62616		-14.710803	18.081596	-33.959526
62617		-14.701565	18.080168	-33.970611
62618		-14.695553	18.080181	-33.981461
62619		-14.692892	18.085817	-33.984466
62620		-14.690789	18.093123	-33.985785
62621		-14.692771	18.107345	-33.982017
62622		-14.696656	18.122881	-33.973649
62623		-14.704786	18.137654	-33.963175
62624		-14.717161	18.151518	-33.953716
62625		-14.728147	18.162943	-33.945295
62626		-14.735830	18.171008	-33.941267
62627		-14.741189	18.176027	-33.937305
62628		-14.736913	18.177469	-33.936940
62629		-14.727903	18.177999	-33.940621
62630		-14.718223	18.177602	-33.945727
62631		-14.710130	18.176559	-33.949246
62632		-14.705111	18.177041	-33.953544
62633		-14.702016	18.181196	-33.956326
62634		-14.700775	18.186761	-33.954343
62635		-14.702849	18.193294	-33.953466
62636		-14.705372	18.199019	-33.953049
62637		-14.705766	18.206299	-33.950489
62638		-14.707184	18.214273	-33.951990
62639		-14.705628	18.220623	-33.956145
62640		-14.702801	18.226981	-33.962102
62641		-14.696935	18.231778	-33.967316
62642		-14.690352	18.237981	-33.971698
62643		-14.686569	18.243640	-33.980042
62644		-14.680192	18.252067	-33.987623
62645		-14.680655	18.256941	-33.993779
62646		-14.680536	18.262990	-33.998152
62647		-14.681758	18.268816	-33.999703
62648		-14.679383	18.274174	-33.998709
62649		-14.676711	18.280040	-33.996446
62650		-14.675060	18.283897	-33.993099
62651		-14.676112	18.289949	-33.989164
62652		-14.676283	18.295239	-33.984302
62653		-14.677358	18.298624	-33.978409
62654		-14.679471	18.302636	-33.976636
62655		-14.681520	18.306731	-33.974840
62656		-14.682798	18.312498	-33.976343
62657		-14.684311	18.317879	-33.979219
62658		-14.683886	18.321964	-33.981305
62659		-14.681549	18.327145	-33.982475
62660		-14.678607	18.328579	-33.983359
62661		-14.676843	18.330070	-33.978997
62662		-14.675892	18.329966	-33.975601
62663		-14.677328	18.330363	-33.970401
62664		-14.679472	18.331655	-33.963565
62665		-14.680160	18.333327	-33.959517
62666		-14.682075	18.335121	-33.954536
62667		-14.683283	18.335798	-33.953202
62668		-14.684160	18.334665	-33.953822
62669		-14.684835	18.331050	-33.950278
62670		-14.684700	18.331916	-33.948662
62671		-14.683131	18.335544	-33.944423
62672		-14.679932	18.337480	-33.943936
62673		-14.681915	18.339022	-33.944444
62674		-14.687922	18.340475	-33.948845
62675		-14.689038	18.346482	-33.951329
62676		-14.688055	18.351828	-33.958042
62677		-14.682650	18.355885	-33.966944
62678		-14.683174	18.355771	-33.980921
62679		-14.688635	18.355804	-33.997686
62680		-14.692815	18.356089	-34.014169
62681		-14.697478	18.357859	-34.027933
62682		-14.699612	18.362143	-34.036729
62683		-14.700148	18.366702	-34.045052
62684		-14.700200	18.372520	-34.048467
62685		-14.698803	18.375961	-34.052789
62686		-14.700764	18.380491	-34.056076
62687		-14.702431	18.385634	-34.057930
62688		-14.704134	18.390664	-34.059854
62689		-14.702370	18.394903	-34.060523
62690		-14.700459	18.399545	-34.063147
62691		-14.695579	18.404842	-34.061664
62692		-14.694153	18.413669	-34.063329
62693		-14.696479	18.419969	-34.064731
62694		-14.695991	18.424326	-34.067716
62695		-14.696686	18.428672	-34.068781
62696		-14.696424	18.432527	-34.069911
62697		-14.698203	18.434623	-34.069052
62698		-14.699397	18.435469	-34.068709
62699		-14.694720	18.435369	-34.070069
62700		-14.700017	18.435599	-34.068538
62701		-14.699607	18.436963	-34.065675
62702		-14.701439	18.439022	-34.061613
62703		-14.701081	18.440240	-34.057613
62704		-14.701234	18.437899	-34.052287
62705		-14.705679	18.434479	-34.047169
62706		-14.709934	18.431522	-34.040655
62707		-14.709713	18.429698	-34.033956
62708		-14.713187	18.430966	-34.028409
62709		-14.717379	18.430771	-34.023782
62710		-14.723203	18.432466	-34.019460
62711		-14.727046	18.433031	-34.017586
62712		-14.729701	18.436059	-34.015307
62713		-14.730032	18.438690	-34.011983
62714		-14.729407	18.440578	-34.007619
62715		-14.730593	18.441193	-34.006290
62716		-14.729443	18.441616	-34.004716
62717		-14.730969	18.442099	-34.005821
62718		-14.730563	18.441019	-34.005117
62719		-14.729239	18.439274	-34.006825
62720		-14.727263	18.436267	-34.008977
62721		-14.725825	18.432257	-34.013999
62722		-14.726199	18.429675	-34.017377
62723		-14.722808	18.424584	-34.018432
62724		-14.721464	18.417602	-34.017330
62725		-14.722209	18.414158	-34.013719
62726		-14.718563	18.409219	-34.009093
62727		-14.718285	18.404917	-34.004628
62728		-14.719784	18.399821	-33.998754
62729		-14.723490	18.395214	-33.993908
62730		-14.726260	18.390078	-33.986117
62731		-14.728561	18.385717	-33.977804
62732		-14.730030	18.380620	-33.968720
62733		-14.730628	18.374608	-33.961017
62734		-14.729332	18.370094	-33.957616
62735		-14.730749	18.367863	-33.956650
62736		-14.734628	18.365914	-33.960259
62737		-14.736286	18.363154	-33.963806
62738		-14.735054	18.358644	-33.966821
62739		-14.731813	18.353079	-33.972136
62740		-14.727143	18.345217	-33.976284
62741		-14.724513	18.338377	-33.980239
62742		-14.725695	18.328848	-33.980804
62743		-14.725827	18.321399	-33.982308
62744		-14.726691	18.315092	-33.980143
62745		-14.728224	18.309796	-33.979682
62746		-14.732815	18.306340	-33.980949
62747		-14.735589	18.303926	-33.981490
62748		-14.739505	18.299256	-33.983256
62749		-14.742910	18.293124	-33.984823
62750		-14.744994	18.284308	-33.983034
62751		-14.746255	18.274286	-33.981682
62752		-14.747749	18.264004	-33.976262
62753		-14.751716	18.253624	-33.970228
62754		-14.756205	18.244977	-33.962328
62755		-14.762208	18.238610	-33.962128
62756		-14.768441	18.234360	-33.961911
62757		-14.770804	18.225456	-33.962531
62758		-14.767379	18.217560	-33.961549
62759		-14.759464	18.205660	-33.960768
62760		-14.751862	18.195922	-33.960049
62761		-14.750434	18.186577	-33.961215
62762		-14.754809	18.180901	-33.959283
62763		-14.757394	18.181629	-33.959145
62764		-14.762552	18.184827	-33.957181
62765		-14.766588	18.185077	-33.954459
62766		-14.770791	18.182374	-33.952085
62767		-14.773999	18.179021	-33.948854
62768		-14.773067	18.173766	-33.942679
62769		-14.770849	18.168420	-33.937326
62770		-14.771182	18.160651	-33.937932
62771		-14.777714	18.153287	-33.940444
62772		-14.785466	18.146017	-33.948360
62773		-14.796942	18.136112	-33.956136
62774		-14.801451	18.124994	-33.960124
62775		-14.799224	18.109451	-33.960032
62776		-14.791431	18.089597	-33.957910
62777		-14.783444	18.067657	-33.952663
62778		-14.775639	18.047805	-33.947344
62779		-14.772699	18.028318	-33.939554
62780		-14.773537	18.016829	-33.934627
62781		-14.773006	18.005435	-33.928361
62782		-14.771757	17.993027	-33.923565
62783		-14.767536	17.981530	-33.919032
62784		-14.765478	17.968161	-33.912457
62785		-14.763982	17.953523	-33.904600
62786		-14.761733	17.937937	-33.898032
62787		-14.762388	17.924306	-33.893202
62788		-14.762539	17.914321	-33.893813
62789		-14.761131	17.902541	-33.897332
62790		-14.753089	17.893822	-33.900300
62791		-14.740562	17.881037	-33.903502
62792		-14.733124	17.871065	-33.905058
62793		-14.733913	17.862375	-33.902024
62794		-14.731410	17.857919	-33.903740
62795		-14.729462	17.852253	-33.904091
62796		-14.728252	17.847753	-33.907093
62797		-14.730893	17.845576	-33.911717
62798		-14.728654	17.840619	-33.917979
62799		-14.725282	17.837971	-33.922962
62800		-14.723194	17.837952	-33.927862
62801		-14.723251	17.835914	-33.933003
62802		-14.725025	17.835761	-33.938568
62803		-14.726485	17.833353	-33.944152
62804		-14.724649	17.832834	-33.950399
62805		-14.716557	17.832074	-33.954761
62806		-14.709856	17.836426	-33.959966
62807		-14.703787	17.839377	-33.965942
62808		-14.699258	17.839205	-33.970532
62809		-14.697583	17.838289	-33.971644
62810		-14.698471	17.834710	-33.974508
62811		-14.698371	17.832942	-33.974106
62812		-14.700289	17.829819	-33.973714
62813		-14.700001	17.828770	-33.979512
62814		-14.696522	17.829059	-33.984032
62815		-14.689540	17.826102	-33.989582
62816		-14.684687	17.823970	-33.991897
62817		-14.679788	17.821870	-33.994249
62818		-14.674691	17.820242	-33.995212
62819		-14.674655	17.818470	-33.994890
62820		-14.673040	17.817454	-33.992902
62821		-14.670675	17.815113	-33.990178
62822		-14.671989	17.813247	-33.988004
62823		-14.670668	17.811541	-33.986410
62824		-14.670099	17.810981	-33.984359
62825		-14.671121	17.809707	-33.980787
62826		-14.673611	17.808046	-33.980820
62827		-14.674269	17.804742	-33.981353
62828		-14.671292	17.801307	-33.980348
62829		-14.666897	17.798103	-33.977785
62830		-14.661936	17.793505	-33.972795
62831		-14.661745	17.789476	-33.966247
62832		-14.661748	17.787655	-33.956408
62833		-14.664061	17.788799	-33.945487
62834		-14.668345	17.788547	-33.931290
62835		-14.673746	17.788590	-33.919277
62836		-14.684956	17.787096	-33.911028
62837		-14.689666	17.788905	-33.908814
62838		-14.692127	17.789965	-33.910682
62839		-14.690359	17.789205	-33.916017
62840		-14.683884	17.787883	-33.922975
62841		-14.676978	17.787583	-33.930609
62842		-14.671191	17.787475	-33.937072
62843		-14.665963	17.789022	-33.937477
62844		-14.662632	17.796981	-33.939273
62845		-14.665947	17.806705	-33.937015
62846		-14.672499	17.817750	-33.937772
62847		-14.677300	17.827211	-33.939128
62848		-14.676902	17.834320	-33.940737
62849		-14.672403	17.839437	-33.944803
62850		-14.668074	17.844226	-33.948000
62851		-14.666268	17.848881	-33.947531
62852		-14.662014	17.853416	-33.940247
62853		-14.657144	17.853530	-33.932777
62854		-14.657141	17.854439	-33.927954
62855		-14.660943	17.852550	-33.925073
62856		-14.665434	17.849328	-33.924061
62857		-14.667478	17.848401	-33.926909
62858		-14.665394	17.851127	-33.930412
62859		-14.667503	17.858224	-33.937672
62860		-14.671136	17.864937	-33.948595
62861		-14.680149	17.876486	-33.960278
62862		-14.683744	17.888647	-33.971686
62863		-14.685952	17.903334	-33.982523
62864		-14.687652	17.919532	-33.992695
62865		-14.686786	17.935850	-34.003564
62866		-14.686626	17.953365	-34.013846
62867		-14.685213	17.968050	-34.023111
62868		-14.683927	17.979920	-34.030693
62869		-14.685311	17.994145	-34.038733
62870		-14.687070	18.004904	-34.045223
62871		-14.687085	18.016537	-34.053040
62872		-14.688629	18.027804	-34.061362
62873		-14.690657	18.040609	-34.070047
62874		-14.692904	18.050363	-34.076045
62875		-14.690794	18.058624	-34.076841
62876		-14.690438	18.068484	-34.077068
62877		-14.687514	18.078588	-34.074766
62878		-14.689480	18.086122	-34.071211
62879		-14.686944	18.092401	-34.069712
62880		-14.697674	18.100067	-34.067493
62881		-14.703826	18.109461	-34.063768
62882		-14.705773	18.122449	-34.060695
62883		-14.704736	18.133672	-34.055879
62884		-14.704121	18.144043	-34.051565
62885		-14.702702	18.150411	-34.049145
62886		-14.706814	18.153401	-34.048173
62887		-14.707345	18.156203	-34.047810
62888		-14.710300	18.158995	-34.047809
62889		-14.712835	18.165313	-34.046131
62890		-14.715058	18.172349	-34.043917
62891		-14.721319	18.178772	-34.040572
62892		-14.725882	18.183480	-34.037764
62893		-14.732279	18.192054	-34.034343
62894		-14.736332	18.200503	-34.027489
62895		-14.737703	18.206332	-34.019380
62896		-14.736597	18.212274	-34.008691
62897		-14.735178	18.216020	-33.997979
62898		-14.735114	18.219688	-33.985401
62899		-14.735552	18.219404	-33.972719
62900		-14.737384	18.221753	-33.963217
62901		-14.740641	18.223620	-33.953088
62902		-14.747761	18.225499	-33.947853
62903		-14.753859	18.226751	-33.944828
62904		-14.755512	18.226877	-33.941690
62905		-14.754809	18.226626	-33.940522
62906		-14.748413	18.227833	-33.938721
62907		-14.742000	18.231871	-33.941871
62908		-14.738896	18.236907	-33.944010
62909		-14.737211	18.239044	-33.947836
62910		-14.739035	18.241639	-33.951977
62911		-14.739603	18.244079	-33.953878
62912		-14.742005	18.245412	-33.956618
62913		-14.743905	18.247798	-33.959834
62914		-14.746919	18.250591	-33.966186
62915		-14.754259	18.255008	-33.974572
62916		-14.759867	18.257689	-33.983516
62917		-14.762668	18.261034	-33.991751
62918		-14.761625	18.261773	-34.000567
62919		-14.756994	18.262270	-34.010092
62920		-14.748375	18.263095	-34.019746
62921		-14.740537	18.264890	-34.028102
62922		-14.733399	18.267888	-34.032693
62923		-14.732297	18.268603	-34.035286
62924		-14.730371	18.271125	-34.034610
62925		-14.735645	18.274347	-34.032744
62926		-14.743509	18.277428	-34.030216
62927		-14.752235	18.281325	-34.028445
62928		-14.759185	18.283703	-34.028230
62929		-14.762379	18.285808	-34.028472
62930		-14.760021	18.289344	-34.031454
62931		-14.757398	18.290641	-34.034536
62932		-14.754081	18.290748	-34.034817
62933		-14.746829	18.288724	-34.033448
62934		-14.744518	18.286556	-34.028668
62935		-14.745242	18.283049	-34.021857
62936		-14.747922	18.280906	-34.013652
62937		-14.753027	18.278703	-34.001596
62938		-14.757784	18.277462	-33.990115
62939		-14.763796	18.275841	-33.979015
62940		-14.767066	18.275162	-33.971244
62941		-14.773634	18.272856	-33.967084
62942		-14.776840	18.275155	-33.965238
62943		-14.777699	18.279602	-33.962995
62944		-14.773345	18.284720	-33.963809
62945		-14.768850	18.290155	-33.968679
62946		-14.768277	18.292618	-33.975643
62947		-14.770924	18.296109	-33.981687
62948		-14.767813	18.304149	-33.989719
62949		-14.762142	18.306952	-33.997928
62950		-14.758560	18.307819	-34.007292
62951		-14.761193	18.308862	-34.018807
62952		-14.768485	18.307989	-34.030810
62953		-14.775909	18.312112	-34.041397
62954		-14.783662	18.318418	-34.048890
62955		-14.789174	18.323904	-34.053160
62956		-14.795474	18.330530	-34.053919
62957		-14.792769	18.332195	-34.054669
62958		-14.791707	18.335689	-34.055754
62959		-14.793930	18.337349	-34.056123
62960		-14.797642	18.338635	-34.056964
62961		-14.801353	18.339684	-34.056830
62962		-14.802370	18.341347	-34.055986
62963		-14.803493	18.342535	-34.056393
62964		-14.801003	18.343619	-34.055255
62965		-14.799264	18.345836	-34.052587
62966		-14.798638	18.348323	-34.050011
62967		-14.796772	18.350726	-34.048294
62968		-14.798281	18.354104	-34.048799
62969		-14.799835	18.357327	-34.048403
62970		-14.802263	18.361409	-34.046603
62971		-14.803615	18.362545	-34.047337
62972		-14.807120	18.364337	-34.050003
62973		-14.815956	18.362870	-34.052277
62974		-14.817678	18.363012	-34.052291
62975		-14.816652	18.360822	-34.051974
62976		-14.814342	18.355944	-34.048506
62977		-14.814333	18.351481	-34.046330
62978		-14.817665	18.348069	-34.046241
62979		-14.821479	18.349132	-34.049340
62980		-14.824392	18.349464	-34.051566
62981		-14.829805	18.349667	-34.056372
62982		-14.829247	18.352153	-34.060133
62983		-14.827358	18.354503	-34.061592
62984		-14.825365	18.354577	-34.063132
62985		-14.827567	18.353735	-34.062796
62986		-14.832428	18.355222	-34.059504
62987		-14.835493	18.354826	-34.055725
62988		-14.840559	18.353074	-34.051944
62989		-14.847797	18.352149	-34.048369
62990		-14.848648	18.348615	-34.044761
62991		-14.847899	18.343286	-34.040892
62992		-14.843099	18.335558	-34.035238
62993		-14.837382	18.326905	-34.030919
62994		-14.832119	18.317458	-34.027084
62995		-14.830168	18.308937	-34.021222
62996		-14.827336	18.299623	-34.014563
62997		-14.827572	18.291753	-34.004513
62998		-14.829015	18.283980	-33.990430
62999		-14.832482	18.277391	-33.980435
63000		-14.837494	18.272916	-33.971654
63001		-14.845871	18.269055	-33.966223
63002		-14.850691	18.265080	-33.962435
63003		-14.851853	18.260809	-33.959243
63004		-14.851394	18.251871	-33.957006
63005		-14.845370	18.244221	-33.953421
63006		-14.844197	18.236815	-33.947157
63007		-14.843178	18.231958	-33.941900
63008		-14.846745	18.230775	-33.938649
63009		-14.856307	18.232860	-33.936869
63010		-14.867760	18.236501	-33.937835
63011		-14.877377	18.238746	-33.940430
63012		-14.880171	18.236593	-33.944896
63013		-14.879203	18.237114	-33.949606
63014		-14.872876	18.232928	-33.953554
63015		-14.866070	18.229723	-33.958136
63016		-14.862708	18.230113	-33.962447
63017		-14.861802	18.233371	-33.969026
63018		-14.865081	18.241375	-33.978092
63019		-14.874281	18.250132	-33.987804
63020		-14.881077	18.258707	-33.997173
63021		-14.887530	18.262372	-34.004717
63022		-14.888394	18.264545	-34.008852
63023		-14.886704	18.261124	-34.009107
63024		-14.883672	18.255065	-34.002925
63025		-14.882535	18.247455	-33.992591
63026		-14.885895	18.243823	-33.978919
63027		-14.892669	18.243807	-33.962070
63028		-14.903389	18.243297	-33.944941
63029		-14.913352	18.244445	-33.926848
63030		-14.922419	18.242037	-33.909318
63031		-14.928237	18.238489	-33.894890
63032		-14.927728	18.232324	-33.881808
63033		-14.920196	18.222180	-33.868404
63034		-14.915179	18.209283	-33.853641
63035		-14.915862	18.197732	-33.831877
63036		-14.913477	18.192920	-33.812564
63037		-14.916363	18.187475	-33.790210
63038		-14.919363	18.184640	-33.769777
63039		-14.928663	18.176421	-33.753045
63040		-14.938674	18.169237	-33.742208
63041		-14.942553	18.164437	-33.736445
63042		-14.940866	18.161021	-33.736563
63043		-14.936803	18.154538	-33.736797
63044		-14.935015	18.148613	-33.745484
63045		-14.940908	18.142366	-33.755653
63046		-14.948259	18.138463	-33.768028
63047		-14.958764	18.136048	-33.777128
63048		-14.969853	18.134962	-33.783492
63049		-14.978031	18.135207	-33.787829
63050		-14.982349	18.135218	-33.790431
63051		-14.979371	18.134750	-33.791000
63052		-14.981555	18.131134	-33.795007
63053		-14.983055	18.134482	-33.801835
63054		-14.987431	18.137206	-33.809436
63055		-14.988255	18.142496	-33.819513
63056		-14.986497	18.147759	-33.830118
63057		-14.980837	18.150491	-33.841363
63058		-14.976607	18.152897	-33.852939
63059		-14.969326	18.153482	-33.859653
63060		-14.965799	18.157112	-33.867597
63061		-14.967566	18.160135	-33.872454
63062		-14.969492	18.162753	-33.876540
63063		-14.972331	18.168936	-33.880017
63064		-14.976868	18.174150	-33.885377
63065		-14.975754	18.177935	-33.893710
63066		-14.983325	18.181990	-33.901187
63067		-14.980054	18.184887	-33.903256
63068		-14.975218	18.188621	-33.903569
63069		-14.967675	18.190143	-33.903500
63070		-14.964266	18.187837	-33.902776
63071		-14.965827	18.185823	-33.902884
63072		-14.971997	18.184507	-33.902228
63073		-14.974934	18.184921	-33.901345
63074		-14.981604	18.185315	-33.902043
63075		-14.984234	18.188927	-33.901566
63076		-14.987106	18.192254	-33.903358
63077		-14.985314	18.191849	-33.903080
63078		-14.986148	18.194066	-33.897720
63079		-14.984885	18.195233	-33.891458
63080		-14.984305	18.197787	-33.882549
63081		-14.985809	18.198600	-33.871760
63082		-14.988580	18.199238	-33.862239
63083		-14.991424	18.197019	-33.856232
63084		-14.989895	18.196116	-33.854086
63085		-14.987642	18.193788	-33.851415
63086		-14.984198	18.188747	-33.852002
63087		-14.979903	18.182781	-33.854022
63088		-14.972237	18.175974	-33.854757
63089		-14.964729	18.169002	-33.854666
63090		-14.958214	18.162399	-33.851297
63091		-14.954579	18.154920	-33.841609
63092		-14.952811	18.154543	-33.834971
63093		-14.953116	18.152139	-33.828581
63094		-14.956607	18.151217	-33.826235
63095		-14.956915	18.148952	-33.827219
63096		-14.953205	18.147394	-33.832369
63097		-14.948576	18.145253	-33.842974
63098		-14.942965	18.139549	-33.854006
63099		-14.932622	18.130414	-33.867031
63100		-14.925582	18.122303	-33.878988
63101		-14.917490	18.110869	-33.888192
63102		-14.910316	18.103036	-33.894747
63103		-14.903351	18.097482	-33.898189
63104		-14.899412	18.096459	-33.898845
63105		-14.895647	18.098094	-33.897286
63106		-14.894917	18.101130	-33.896514
63107		-14.893822	18.104964	-33.892270
63108		-14.890536	18.108140	-33.892049
63109		-14.886721	18.106920	-33.891869
63110		-14.882908	18.105637	-33.894764
63111		-14.878730	18.102206	-33.900684
63112		-14.875891	18.095887	-33.906178
63113		-14.868868	18.088004	-33.911796
63114		-14.862190	18.081903	-33.916539
63115		-14.854602	18.078145	-33.923340
63116		-14.854211	18.077661	-33.930613
63117		-14.851682	18.076405	-33.937963
63118		-14.848509	18.076580	-33.944449
63119		-14.843991	18.076893	-33.952724
63120		-14.837548	18.076009	-33.960219
63121		-14.829407	18.072974	-33.963230
63122		-14.822509	18.067399	-33.966629
63123		-14.813447	18.063736	-33.965622
63124		-14.806705	18.060648	-33.966798
63125		-14.801488	18.057070	-33.967531
63126		-14.796522	18.055624	-33.968210
63127		-14.794938	18.052218	-33.968497
63128		-14.790035	18.047782	-33.969584
63129		-14.786009	18.041705	-33.970690
63130		-14.780052	18.036833	-33.971811
63131		-14.779814	18.030217	-33.969561
63132		-14.775376	18.027513	-33.962558
63133		-14.770220	18.023427	-33.955052
63134		-14.771455	18.019147	-33.948716
63135		-14.771289	18.015547	-33.943096
63136		-14.774877	18.011621	-33.941173
63137		-14.769829	18.007788	-33.944193
63138		-14.758953	18.005685	-33.950476
63139		-14.753902	18.004327	-33.963584
63140		-14.753348	18.004349	-33.978948
63141		-14.754828	18.005352	-33.994159
63142		-14.751821	18.005280	-34.006013
63143		-14.749180	18.003951	-34.010073
63144		-14.745290	18.002954	-34.010710
63145		-14.739545	18.003277	-34.011516
63146		-14.732437	18.003966	-34.011843
63147		-14.727422	18.005615	-34.012140
63148		-14.723217	18.005382	-34.015492
63149		-14.717494	18.008832	-34.019003
63150		-14.711849	18.011926	-34.021549
63151		-14.705546	18.013864	-34.024689
63152		-14.698568	18.014300	-34.027246
63153		-14.696697	18.014466	-34.028774
63154		-14.694859	18.011609	-34.027511
63155		-14.694095	18.008820	-34.028515
63156		-14.693313	18.006398	-34.027220
63157		-14.690583	18.008703	-34.029665
63158		-14.690293	18.010978	-34.035597
63159		-14.682309	18.013504	-34.042095
63160		-14.676939	18.016088	-34.052248
63161		-14.678138	18.020616	-34.059398
63162		-14.671215	18.026788	-34.066505
63163		-14.666159	18.031272	-34.072741
63164		-14.659816	18.033180	-34.075729
63165		-14.655606	18.032905	-34.079200
63166		-14.655800	18.031173	-34.081914
63167		-14.654794	18.029351	-34.082426
63168		-14.652604	18.030260	-34.083461
63169		-14.651808	18.033855	-34.087723
63170		-14.647901	18.035868	-34.087932
63171		-14.646615	18.037313	-34.091905
63172		-14.639620	18.040765	-34.094029
63173		-14.635440	18.043658	-34.097020
63174		-14.627123	18.050186	-34.097431
63175		-14.621190	18.054124	-34.096510
63176		-14.616112	18.055965	-34.094507
63177		-14.613760	18.057000	-34.092185
63178		-14.611231	18.058682	-34.089645
63179		-14.608489	18.060739	-34.087846
63180		-14.608717	18.061750	-34.082964
63181		-14.608967	18.065298	-34.082009
63182		-14.609067	18.069558	-34.080760
63183		-14.607003	18.070311	-34.080908
63184		-14.604599	18.071739	-34.080599
63185		-14.600123	18.072282	-34.080498
63186		-14.596979	18.072511	-34.077506
63187		-14.593067	18.074700	-34.074509
63188		-14.593091	18.076224	-34.071431
63189		-14.593975	18.081830	-34.066678
63190		-14.600317	18.085945	-34.060293
63191		-14.605369	18.090362	-34.053825
63192		-14.612107	18.096449	-34.046556
63193		-14.619887	18.100419	-34.040596
63194		-14.627013	18.102742	-34.037301
63195		-14.631518	18.105150	-34.034632
63196		-14.632578	18.110102	-34.034252
63197		-14.632437	18.114669	-34.036879
63198		-14.631819	18.120724	-34.041944
63199		-14.630635	18.128489	-34.049338
63200		-14.629712	18.135313	-34.057110
63201		-14.629185	18.141161	-34.064436
63202		-14.629999	18.143887	-34.070306
63203		-14.634851	18.145405	-34.069986
63204		-14.636371	18.146344	-34.066397
63205		-14.644512	18.148926	-34.058882
63206		-14.648644	18.149453	-34.047589
63207		-14.653995	18.149958	-34.034500
63208		-14.663725	18.151877	-34.020367
63209		-14.675399	18.155276	-34.008029
63210		-14.684819	18.157966	-33.996604
63211		-14.692851	18.160774	-33.986918
63212		-14.698355	18.163963	-33.978754
63213		-14.705839	18.168114	-33.970336
63214		-14.708931	18.168216	-33.962201
63215		-14.711092	18.167537	-33.955178
63216		-14.710299	18.165137	-33.950709
63217		-14.710804	18.163024	-33.948604
63218		-14.715111	18.163285	-33.948951
63219		-14.723353	18.168503	-33.949618
63220		-14.732678	18.174441	-33.944966
63221		-14.733918	18.182130	-33.942295
63222		-14.742623	18.189597	-33.943061
63223		-14.750808	18.195351	-33.945692
63224		-14.757418	18.201949	-33.949644
63225		-14.759574	18.207218	-33.954380
63226		-14.761005	18.214389	-33.963419
63227		-14.765733	18.222247	-33.976852
63228		-14.774118	18.230702	-33.993774
63229		-14.784287	18.237508	-34.006565
63230		-14.790097	18.246143	-34.017739
63231		-14.796395	18.253562	-34.024381
63232		-14.801440	18.261012	-34.029735
63233		-14.809034	18.268137	-34.030409
63234		-14.813818	18.273131	-34.025430
63235		-14.819785	18.278084	-34.021715
63236		-14.825754	18.280256	-34.016212
63237		-14.831738	18.282467	-34.010833
63238		-14.841623	18.287133	-34.004812
63239		-14.852399	18.290020	-34.000791
63240		-14.858900	18.290917	-33.993909
63241		-14.863493	18.290202	-33.987427
63242		-14.867547	18.288023	-33.977428
63243		-14.869104	18.285882	-33.963879
63244		-14.871672	18.281310	-33.951643
63245		-14.876706	18.279482	-33.941767
63246		-14.881310	18.279003	-33.936258
63247		-14.880719	18.275893	-33.935215
63248		-14.882077	18.274354	-33.936943
63249		-14.888909	18.268471	-33.934420
63250		-14.889497	18.262765	-33.927594
63251		-14.885836	18.255487	-33.917717
63252		-14.882904	18.246286	-33.904663
63253		-14.885983	18.237759	-33.895528
63254		-14.893797	18.232584	-33.887620
63255		-14.901379	18.231164	-33.888494
63256		-14.909852	18.233396	-33.892777
63257		-14.921716	18.236550	-33.898250
63258		-14.930569	18.229008	-33.904149
63259		-14.926355	18.217084	-33.906908
63260		-14.916249	18.210313	-33.907065
63261		-14.910253	18.208848	-33.908723
63262		-14.912658	18.213728	-33.912765
63263		-14.924924	18.222010	-33.918132
63264		-14.940922	18.229994	-33.920968
63265		-14.952341	18.236811	-33.922500
63266		-14.958893	18.240677	-33.924623
63267		-14.959281	18.241551	-33.928163
63268		-14.954482	18.239922	-33.930937
63269		-14.950287	18.239675	-33.934297
63270		-14.949724	18.242765	-33.936593
63271		-14.957533	18.246635	-33.936941
63272		-14.967699	18.247774	-33.935791
63273		-14.976864	18.248383	-33.930619
63274		-14.980642	18.246965	-33.926459
63275		-14.982867	18.243296	-33.919963
63276		-14.981217	18.240001	-33.913673
63277		-14.982759	18.235022	-33.910879
63278		-14.980577	18.230019	-33.903231
63279		-14.979975	18.226973	-33.892794
63280		-14.983296	18.223625	-33.880114
63281		-14.990732	18.219618	-33.866519
63282		-14.998119	18.212490	-33.856349
63283		-15.003129	18.205016	-33.844970
63284		-15.006812	18.194880	-33.836630
63285		-15.002559	18.185743	-33.828571
63286		-15.003165	18.177052	-33.822126
63287		-15.002447	18.168575	-33.814348
63288		-15.002513	18.161179	-33.806153
63289		-15.004541	18.154935	-33.798790
63290		-15.009502	18.150693	-33.794102
63291		-15.012748	18.147849	-33.792788
63292		-15.014951	18.144280	-33.790419
63293		-15.013980	18.142473	-33.790956
63294		-15.013424	18.139576	-33.790906
63295		-15.010572	18.139202	-33.791342
63296		-15.009486	18.137583	-33.792670
63297		-15.009508	18.136222	-33.789962
63298		-15.007550	18.133704	-33.783249
63299		-15.007234	18.133104	-33.773833
63300		-15.009638	18.132032	-33.769271
63301		-15.015629	18.131345	-33.764134
63302		-15.023144	18.129919	-33.761669
63303		-15.026554	18.126263	-33.760607
63304		-15.027480	18.125772	-33.759667
63305		-15.025163	18.124132	-33.758670
63306		-15.020022	18.123317	-33.754748
63307		-15.015506	18.120885	-33.751836
63308		-15.015789	18.118958	-33.747310
63309		-15.018593	18.116919	-33.745415
63310		-15.026006	18.115744	-33.743853
63311		-15.032502	18.116953	-33.741161
63312		-15.033208	18.119988	-33.738505
63313		-15.031729	18.125173	-33.738611
63314		-15.032236	18.128694	-33.740882
63315		-15.038124	18.131119	-33.745693
63316		-15.041409	18.133930	-33.751902
63317		-15.042335	18.142366	-33.759272
63318		-15.037135	18.147725	-33.771092
63319		-15.034011	18.150937	-33.786404
63320		-15.035438	18.152301	-33.806470
63321		-15.037251	18.152955	-33.827118
63322		-15.038895	18.153818	-33.845378
63323		-15.044935	18.156227	-33.856578
63324		-15.047812	18.160088	-33.860134
63325		-15.051539	18.168081	-33.861910
63326		-15.057275	18.171011	-33.862255
63327		-15.062800	18.177278	-33.862995
63328		-15.068554	18.183194	-33.866077
63329		-15.071265	18.187721	-33.868347
63330		-15.067230	18.190326	-33.870246
63331		-15.056087	18.192003	-33.868195
63332		-15.048726	18.193638	-33.861670
63333		-15.046267	18.195560	-33.855929
63334		-15.051023	18.197848	-33.849143
63335		-15.058258	18.200323	-33.842804
63336		-15.064307	18.202497	-33.840449
63337		-15.065641	18.204133	-33.838554
63338		-15.062974	18.203405	-33.838119
63339		-15.057814	18.202700	-33.834151
63340		-15.051721	18.198232	-33.829701
63341		-15.045760	18.193279	-33.823465
63342		-15.051548	18.190022	-33.811194
63343		-15.053951	18.189077	-33.797329
63344		-15.060614	18.192761	-33.786069
63345		-15.065933	18.196813	-33.780771
63346		-15.071566	18.196991	-33.782402
63347		-15.073074	18.195368	-33.783191
63348		-15.067030	18.193828	-33.790839
63349		-15.058022	18.190633	-33.799804
63350		-15.051788	18.192608	-33.808862
63351		-15.046398	18.195375	-33.815566
63352		-15.045582	18.199245	-33.820530
63353		-15.047848	18.201436	-33.825750
63354		-15.054362	18.205547	-33.828781
63355		-15.055945	18.212862	-33.828547
63356		-15.053515	18.214624	-33.829040
63357		-15.049422	18.220562	-33.831471
63358		-15.044446	18.222503	-33.832464
63359		-15.035992	18.226716	-33.834847
63360		-15.028257	18.229363	-33.835016
63361		-15.023447	18.230499	-33.833280
63362		-15.023128	18.233148	-33.827503
63363		-15.027256	18.233809	-33.822323
63364		-15.030317	18.231195	-33.818601
63365		-15.031571	18.229603	-33.811012
63366		-15.032176	18.226936	-33.803772
63367		-15.027515	18.224654	-33.797368
63368		-15.023027	18.222347	-33.791127
63369		-15.019653	18.220530	-33.788073
63370		-15.016471	18.221112	-33.785876
63371		-15.016056	18.220518	-33.788689
63372		-15.011084	18.219439	-33.793176
63373		-15.006010	18.222041	-33.799152
63374		-15.004579	18.224448	-33.806758
63375		-15.003250	18.226451	-33.812419
63376		-15.000545	18.228961	-33.818713
63377		-14.998619	18.232231	-33.825664
63378		-14.997915	18.232854	-33.830098
63379		-14.994944	18.233010	-33.832284
63380		-14.991238	18.231876	-33.831838
63381		-14.987715	18.230258	-33.829655
63382		-14.982316	18.230254	-33.828371
63383		-14.979692	18.229402	-33.826922
63384		-14.977256	18.228184	-33.824668
63385		-14.974545	18.227577	-33.824105
63386		-14.972759	18.227813	-33.822313
63387		-14.966702	18.229655	-33.821222
63388		-14.959817	18.230279	-33.817302
63389		-14.955645	18.230264	-33.814198
63390		-14.952237	18.228388	-33.807939
63391		-14.948186	18.225218	-33.798071
63392		-14.946013	18.220266	-33.787277
63393		-14.944772	18.215839	-33.779407
63394		-14.944315	18.212763	-33.769065
63395		-14.947130	18.210472	-33.763014
63396		-14.945315	18.207717	-33.758490
63397		-14.943413	18.208579	-33.755533
63398		-14.941631	18.208814	-33.753739
63399		-14.937241	18.206401	-33.749633
63400		-14.933401	18.202547	-33.744232
63401		-14.926042	18.198138	-33.738630
63402		-14.919356	18.195230	-33.736413
63403		-14.913173	18.191064	-33.735988
63404		-14.910128	18.191384	-33.735998
63405		-14.909786	18.194093	-33.736325
63406		-14.905625	18.200260	-33.736469
63407		-14.900525	18.205774	-33.738929
63408		-14.899970	18.209138	-33.745184
63409		-14.900743	18.212385	-33.752956
63410		-14.899017	18.215599	-33.757001
63411		-14.892909	18.220519	-33.761553
63412		-14.886737	18.222542	-33.770536
63413		-14.887859	18.222120	-33.785282
63414		-14.893073	18.223494	-33.803852
63415		-14.898868	18.223421	-33.823160
63416		-14.902813	18.224899	-33.840415
63417		-14.901683	18.226843	-33.855628
63418		-14.896512	18.229542	-33.868599
63419		-14.884657	18.227395	-33.874417
63420		-14.874428	18.227280	-33.875403
63421		-14.861383	18.225063	-33.875868
63422		-14.853531	18.228274	-33.877772
63423		-14.851115	18.233509	-33.878651
63424		-14.855358	18.237292	-33.880384
63425		-14.858391	18.240826	-33.883168
63426		-14.861260	18.244969	-33.884484
63427		-14.859596	18.245024	-33.887955
63428		-14.861072	18.246505	-33.892347
63429		-14.858820	18.241863	-33.897909
63430		-14.850761	18.242572	-33.905086
63431		-14.843380	18.244499	-33.914894
63432		-14.835899	18.246908	-33.926536
63433		-14.827081	18.246542	-33.937210
63434		-14.815001	18.245055	-33.948831
63435		-14.810605	18.242765	-33.958089
63436		-14.805903	18.241234	-33.960724
63437		-14.797957	18.238503	-33.960318
63438		-14.793478	18.239481	-33.957673
63439		-14.794290	18.236029	-33.953872
63440		-14.801101	18.233351	-33.951888
63441		-14.806524	18.231423	-33.950483
63442		-14.810405	18.229968	-33.952558
63443		-14.813734	18.227207	-33.957325
63444		-14.810734	18.224528	-33.963903
63445		-14.806004	18.222976	-33.972746
63446		-14.793323	18.223068	-33.983501
63447		-14.781825	18.223403	-33.996520
63448		-14.772153	18.225264	-34.009041
63449		-14.763410	18.227546	-34.018369
63450		-14.753012	18.224975	-34.024592
63451		-14.745803	18.220599	-34.020917
63452		-14.741858	18.214022	-34.016776
63453		-14.743433	18.206124	-34.008153
63454		-14.746729	18.196715	-33.999428
63455		-14.752248	18.187859	-33.989967
63456		-14.756669	18.181866	-33.983959
63457		-14.762640	18.178474	-33.980125
63458		-14.767440	18.174691	-33.980366
63459		-14.767468	18.170488	-33.982140
63460		-14.764061	18.168864	-33.986075
63461		-14.759321	18.161328	-33.989627
63462		-14.754748	18.153284	-33.991225
63463		-14.748856	18.142534	-33.991840
63464		-14.743261	18.130821	-33.989827
63465		-14.739991	18.119286	-33.985014
63466		-14.740017	18.108879	-33.980301
63467		-14.743484	18.098991	-33.975963
63468		-14.745282	18.093458	-33.971331
63469		-14.751717	18.091585	-33.968887
63470		-14.760880	18.089202	-33.968219
63471		-14.767724	18.083354	-33.971844
63472		-14.769346	18.078314	-33.975198
63473		-14.768621	18.070063	-33.980744
63474		-14.762140	18.060661	-33.986761
63475		-14.753922	18.052644	-33.992993
63476		-14.742404	18.046690	-33.993388
63477		-14.730530	18.038370	-33.995761
63478		-14.724333	18.028223	-33.992901
63479		-14.721014	18.020112	-33.986617
63480		-14.720636	18.010751	-33.979276
63481		-14.724592	17.999537	-33.970461
63482		-14.727148	17.988943	-33.959072
63483		-14.729812	17.978058	-33.950053
63484		-14.733443	17.967870	-33.941759
63485		-14.734084	17.956027	-33.934777
63486		-14.733367	17.944429	-33.930491
63487		-14.730330	17.932520	-33.925040
63488		-14.727183	17.920873	-33.920341
63489		-14.723341	17.907676	-33.915372
63490		-14.716701	17.895567	-33.910267
63491		-14.710463	17.882466	-33.904733
63492		-14.710062	17.870088	-33.900873
63493		-14.706471	17.859533	-33.899717
63494		-14.706022	17.850409	-33.899469
63495		-14.705502	17.841545	-33.900240
63496		-14.705154	17.832164	-33.899100
63497		-14.702245	17.819910	-33.897732
63498		-14.696231	17.806226	-33.899666
63499		-14.689377	17.791707	-33.899886
63500		-14.685140	17.776633	-33.898671
63501		-14.683333	17.761477	-33.893725
63502		-14.680869	17.751300	-33.883312
63503		-14.680259	17.742484	-33.874693
63504		-14.683213	17.734096	-33.869556
63505		-14.689382	17.726876	-33.867644
63506		-14.695723	17.719184	-33.869994
63507		-14.696792	17.712579	-33.875039
63508		-14.691028	17.707644	-33.881145
63509		-14.689950	17.703483	-33.889806
63510		-14.693400	17.700024	-33.898918
63511		-14.701103	17.698337	-33.904946
63512		-14.708304	17.697839	-33.909215
63513		-14.712073	17.696709	-33.912175
63514		-14.713912	17.697425	-33.913889
63515		-14.710997	17.697499	-33.916140
63516		-14.711214	17.696089	-33.919591
63517		-14.704476	17.693898	-33.922243
63518		-14.696645	17.691157	-33.927972
63519		-14.689550	17.689961	-33.931162
63520		-14.682081	17.689461	-33.933845
63521		-14.677558	17.691160	-33.936094
63522		-14.678496	17.694207	-33.939639
63523		-14.681395	17.698340	-33.947140
63524		-14.683487	17.695242	-33.958916
63525		-14.679817	17.691207	-33.965002
63526		-14.664197	17.683378	-33.970693
63527		-14.645314	17.677971	-33.974769
63528		-14.628855	17.675503	-33.975738
63529		-14.616459	17.672041	-33.974857
63530		-14.610579	17.670684	-33.969989
63531		-14.615461	17.673270	-33.961150
63532		-14.620932	17.680483	-33.950171
63533		-14.628926	17.693643	-33.940868
63534		-14.639093	17.698190	-33.931981
63535		-14.647877	17.697158	-33.926682
63536		-14.648860	17.690697	-33.920289
63537		-14.642156	17.682157	-33.913656
63538		-14.637724	17.673902	-33.908164
63539		-14.635651	17.669013	-33.897425
63540		-14.637164	17.667547	-33.883641
63541		-14.646326	17.668716	-33.864811
63542		-14.660705	17.671933	-33.847022
63543		-14.672914	17.674742	-33.830147
63544		-14.685510	17.673091	-33.815351
63545		-14.691402	17.670049	-33.804272
63546		-14.690932	17.664240	-33.792167
63547		-14.687812	17.658927	-33.778375
63548		-14.688409	17.653529	-33.766269
63549		-14.687759	17.651241	-33.752579
63550		-14.693323	17.645683	-33.737326
63551		-14.700393	17.642599	-33.721213
63552		-14.708541	17.639827	-33.708204
63553		-14.718663	17.638035	-33.699316
63554		-14.727962	17.635396	-33.691593
63555		-14.736420	17.634641	-33.686890
63556		-14.739112	17.630018	-33.687135
63557		-14.740569	17.628605	-33.685685
63558		-14.740093	17.629037	-33.682997
63559		-14.740680	17.630189	-33.681385
63560		-14.741920	17.632466	-33.682254
63561		-14.746579	17.635530	-33.684468
63562		-14.752162	17.639167	-33.690619
63563		-14.758900	17.642955	-33.695959
63564		-14.762358	17.645771	-33.702112
63565		-14.762004	17.648982	-33.710520
63566		-14.766065	17.650236	-33.717509
63567		-14.765636	17.650598	-33.719957
63568		-14.766886	17.652879	-33.720822
63569		-14.767515	17.656858	-33.720756
63570		-14.772624	17.661818	-33.722091
63571		-14.776930	17.668872	-33.724445
63572		-14.783192	17.673957	-33.731065
63573		-14.786739	17.682819	-33.736483
63574		-14.785984	17.690274	-33.742785
63575		-14.783774	17.698388	-33.746530
63576		-14.783832	17.703785	-33.748802
63577		-14.786833	17.708252	-33.748122
63578		-14.791866	17.713500	-33.744172
63579		-14.796424	17.720140	-33.738543
63580		-14.802320	17.726311	-33.736372
63581		-14.809204	17.732887	-33.737289
63582		-14.812934	17.741490	-33.738726
63583		-14.812555	17.748283	-33.739351
63584		-14.810667	17.755638	-33.737273
63585		-14.808927	17.762510	-33.733395
63586		-14.811167	17.765496	-33.728967
63587		-14.810111	17.767612	-33.722342
63588		-14.811881	17.768625	-33.718749
63589		-14.815374	17.771540	-33.712589
63590		-14.825471	17.776339	-33.710795
63591		-14.831114	17.783337	-33.705224
63592		-14.833031	17.790376	-33.700900
63593		-14.833171	17.798967	-33.696571
63594		-14.833724	17.806381	-33.691824
63595		-14.837153	17.809650	-33.689607
63596		-14.836068	17.814936	-33.686579
63597		-14.834703	17.817793	-33.685717
63598		-14.839940	17.822505	-33.686160
63599		-14.847949	17.826269	-33.692692
63600		-14.857566	17.829041	-33.700994
63601		-14.863634	17.831505	-33.708778
63602		-14.868298	17.834481	-33.714029
63603		-14.867980	17.841086	-33.713646
63604		-14.870974	17.848525	-33.712410
63605		-14.874077	17.855498	-33.709377
63606		-14.880480	17.863673	-33.703291
63607		-14.886913	17.871647	-33.696301
63608		-14.896616	17.880776	-33.692427
63609		-14.903725	17.890102	-33.692139
63610		-14.908856	17.898344	-33.693997
63611		-14.909739	17.904763	-33.701032
63612		-14.907117	17.907642	-33.704990
63613		-14.899565	17.914068	-33.709588
63614		-14.897723	17.918159	-33.710046
63615		-14.887098	17.926201	-33.703999
63616		-14.890392	17.936171	-33.697535
63617		-14.899184	17.944409	-33.694955
63618		-14.904330	17.952652	-33.696812
63619		-14.909869	17.966242	-33.701375
63620		-14.924265	17.972598	-33.711962
63621		-14.934462	17.973866	-33.721072
63622		-14.933128	17.973340	-33.728888
63623		-14.919557	17.972939	-33.732466
63624		-14.902961	17.970825	-33.731038
63625		-14.891504	17.971422	-33.725221
63626		-14.892405	17.974824	-33.717270
63627		-14.901184	17.980115	-33.711989
63628		-14.916272	17.987992	-33.710722
63629		-14.929303	17.998194	-33.709063
63630		-14.934764	18.005677	-33.708255
63631		-14.935054	18.010637	-33.711809
63632		-14.932934	18.015506	-33.714916
63633		-14.929652	18.020270	-33.718963
63634		-14.931619	18.027278	-33.723878
63635		-14.930502	18.032886	-33.730998
63636		-14.930921	18.037532	-33.733650
63637		-14.926278	18.042764	-33.731056
63638		-14.923674	18.052285	-33.723711
63639		-14.923522	18.061925	-33.713761
63640		-14.927730	18.069595	-33.702388
63641		-14.932238	18.076559	-33.691471
63642		-14.931088	18.088762	-33.678023
63643		-14.944329	18.101767	-33.672027
63644		-14.967239	18.095305	-33.674789
63645		-14.964122	18.089769	-33.675403
63646		-14.955785	18.091694	-33.676662
63647		-14.954102	18.088793	-33.677310
63648		-14.946937	18.087578	-33.680244
63649		-14.948275	18.092882	-33.683835
63650		-14.949870	18.097662	-33.688683
63651		-14.950631	18.101697	-33.691719
63652		-14.947657	18.112206	-33.694081
63653		-14.951872	18.123209	-33.695524
63654		-14.961740	18.118912	-33.701002
63655		-14.950547	18.118947	-33.702675
63656		-14.940669	18.125069	-33.702712
63657		-14.942352	18.132674	-33.706203
63658		-14.947172	18.135381	-33.713633
63659		-14.948026	18.138815	-33.720936
63660		-14.947984	18.141473	-33.727481
63661		-14.947543	18.145238	-33.737547
63662		-14.946918	18.146196	-33.742722
63663		-14.945770	18.145223	-33.748734
63664		-14.941055	18.144052	-33.752086
63665		-14.934956	18.143368	-33.751950
63666		-14.932191	18.146855	-33.748389
63667		-14.936456	18.150945	-33.744915
63668		-14.942352	18.154120	-33.743115
63669		-14.940626	18.158066	-33.739555
63670		-14.940487	18.161067	-33.734661
63671		-14.937676	18.164699	-33.727915
63672		-14.935685	18.166104	-33.723414
63673		-14.933812	18.167285	-33.718147
63674		-14.935905	18.167545	-33.714941
63675		-14.936619	18.167991	-33.710332
63676		-14.940375	18.170357	-33.708507
63677		-14.949448	18.171901	-33.710155
63678		-14.952434	18.176352	-33.709265
63679		-14.954456	18.180311	-33.710479
63680		-14.954713	18.182231	-33.711272
63681		-14.951338	18.184031	-33.715515
63682		-14.944885	18.184272	-33.721963
63683		-14.938859	18.183248	-33.727030
63684		-14.930567	18.185194	-33.731319
63685		-14.921038	18.193947	-33.735288
63686		-14.913550	18.200363	-33.739698
63687		-14.911646	18.208103	-33.744521
63688		-14.915823	18.212662	-33.748914
63689		-14.924891	18.216988	-33.753322
63690		-14.933172	18.223671	-33.759546
63691		-14.934061	18.230646	-33.768399
63692		-14.930586	18.236133	-33.781141
63693		-14.931450	18.236731	-33.799136
63694		-14.933135	18.238133	-33.821891
63695		-14.932966	18.241370	-33.842455
63696		-14.933989	18.244627	-33.862177
63697		-14.932439	18.251784	-33.877662
63698		-14.931423	18.257322	-33.887768
63699		-14.930749	18.261926	-33.891272
63700		-14.933088	18.264939	-33.889897
63701		-14.940627	18.266945	-33.885954
63702		-14.951235	18.270680	-33.883760
63703		-14.962162	18.273663	-33.882062
63704		-14.968766	18.275007	-33.880220
63705		-14.970793	18.278847	-33.881501
63706		-14.969861	18.284173	-33.884566
63707		-14.966535	18.289382	-33.893496
63708		-14.963092	18.294933	-33.900067
63709		-14.955076	18.299498	-33.908230
63710		-14.949871	18.303206	-33.914296
63711		-14.944757	18.303599	-33.918876
63712		-14.941626	18.301574	-33.920835
63713		-14.937244	18.299701	-33.918533
63714		-14.938170	18.296551	-33.915653
63715		-14.940671	18.295804	-33.909012
63716		-14.952337	18.289884	-33.898214
63717		-14.955745	18.286896	-33.886685
63718		-14.956360	18.284598	-33.874167
63719		-14.953886	18.284254	-33.861256
63720		-14.956498	18.286546	-33.851077
63721		-14.965296	18.288522	-33.845289
63722		-14.970414	18.287252	-33.840292
63723		-14.975844	18.285240	-33.838814
63724		-14.973775	18.283637	-33.837713
63725		-14.968397	18.284506	-33.834849
63726		-14.963519	18.283936	-33.833759
63727		-14.959728	18.283582	-33.831730
63728		-14.959147	18.284612	-33.830715
63729		-14.962094	18.286102	-33.830258
63730		-14.961129	18.288199	-33.826636
63731		-14.963829	18.286954	-33.824305
63732		-14.961692	18.288929	-33.818476
63733		-14.960774	18.287799	-33.814500
63734		-14.961645	18.288186	-33.813034
63735		-14.962980	18.287209	-33.813426
63736		-14.966069	18.284818	-33.816724
63737		-14.966988	18.282024	-33.823961
63738		-14.963082	18.278772	-33.832447
63739		-14.956094	18.273845	-33.845197
63740		-14.945737	18.275016	-33.855517
63741		-14.931783	18.292798	-33.863591
63742		-14.974894	18.284036	-33.884560
63743		-14.961925	18.265508	-33.900519
63744		-14.956822	18.258845	-33.909325
63745		-14.946606	18.242558	-33.916560
63746		-14.920137	18.237839	-33.917364
63747		-14.908610	18.239080	-33.916312
63748		-14.908481	18.242332	-33.918433
63749		-14.922978	18.242201	-33.921869
63750		-14.938415	18.239327	-33.925687
63751		-14.948063	18.232247	-33.929407
63752		-14.945989	18.220524	-33.931941
63753		-14.931883	18.208352	-33.930356
63754		-14.919943	18.200442	-33.927228
63755		-14.918031	18.191544	-33.925456
63756		-14.926365	18.181322	-33.924175
63757		-14.936574	18.165964	-33.923618
63758		-14.935285	18.155469	-33.919621
63759		-14.930368	18.148525	-33.911331
63760		-14.930890	18.143189	-33.902247
63761		-14.934580	18.135851	-33.892709
63762		-14.937674	18.126728	-33.881778
63763		-14.941277	18.116432	-33.869509
63764		-14.943348	18.103400	-33.854071
63765		-14.947737	18.090742	-33.836929
63766		-14.948318	18.081895	-33.823358
63767		-14.952519	18.073199	-33.812505
63768		-14.957398	18.065877	-33.808214
63769		-14.964849	18.061664	-33.810156
63770		-14.968842	18.053368	-33.813273
63771		-14.965269	18.042684	-33.814087
63772		-14.958530	18.030440	-33.813936
63773		-14.947636	18.016116	-33.811970
63774		-14.939832	18.003518	-33.805672
63775		-14.936398	17.995667	-33.799012
63776		-14.938672	17.988873	-33.792969
63777		-14.945402	17.986320	-33.788917
63778		-14.952381	17.983302	-33.789154
63779		-14.956932	17.973220	-33.792143
63780		-14.956310	17.960848	-33.794221
63781		-14.946064	17.948595	-33.794527
63782		-14.932013	17.939924	-33.788306
63783		-14.922673	17.934899	-33.778217
63784		-14.924026	17.930772	-33.765688
63785		-14.936340	17.926612	-33.750205
63786		-14.954727	17.925835	-33.735278
63787		-14.972725	17.923211	-33.724351
63788		-14.979017	17.918798	-33.717972
63789		-14.983528	17.912049	-33.718300
63790		-14.985359	17.902909	-33.727494
63791		-14.987349	17.890332	-33.738487
63792		-14.987372	17.876101	-33.743563
63793		-14.988938	17.864301	-33.741757
63794		-14.998140	17.851780	-33.732514
63795		-15.011376	17.841602	-33.715784
63796		-15.025825	17.834930	-33.699762
63797		-15.040129	17.828665	-33.691868
63798		-15.055478	17.826105	-33.687358
63799		-15.062769	17.822119	-33.687063
63800		-15.062269	17.819579	-33.690755
63801		-15.051862	17.814477	-33.696847
63802		-15.038285	17.807669	-33.705118
63803		-15.025823	17.797204	-33.713151
63804		-15.023696	17.789017	-33.717083
63805		-15.025960	17.778945	-33.719779
63806		-15.030140	17.770135	-33.721111
63807		-15.032687	17.762631	-33.721574
63808		-15.033148	17.757518	-33.719503
63809		-15.036110	17.755651	-33.718594
63810		-15.039537	17.755741	-33.722837
63811		-15.040379	17.756041	-33.730605
63812		-15.048912	17.755288	-33.742286
63813		-15.050198	17.747846	-33.747596
63814		-15.041776	17.740317	-33.751058
63815		-15.029602	17.729928	-33.751977
63816		-15.018990	17.718336	-33.754851
63817		-15.014424	17.706712	-33.759875
63818		-15.012567	17.697718	-33.767269
63819		-15.007812	17.690159	-33.772466
63820		-15.009790	17.684069	-33.778237
63821		-15.008160	17.681019	-33.783813
63822		-15.010020	17.678765	-33.785780
63823		-15.012742	17.674313	-33.782842
63824		-15.015193	17.670551	-33.776464
63825		-15.018337	17.668606	-33.771532
63826		-15.022922	17.665607	-33.768252
63827		-15.021795	17.661713	-33.762334
63828		-15.018447	17.653729	-33.758826
63829		-15.016145	17.649902	-33.753595
63830		-15.013692	17.642847	-33.748815
63831		-15.010848	17.637142	-33.745528
63832		-15.007941	17.631413	-33.739044
63833		-15.004441	17.623976	-33.731304
63834		-15.004621	17.616430	-33.722164
63835		-15.007175	17.609231	-33.714444
63836		-15.010300	17.603657	-33.704957
63837		-15.010790	17.595418	-33.699329
63838		-15.015053	17.589931	-33.695092
63839		-15.014610	17.584002	-33.697277
63840		-15.009240	17.578203	-33.699503
63841		-15.000171	17.572844	-33.701004
63842		-14.988289	17.564968	-33.700926
63843		-14.981786	17.559203	-33.697896
63844		-14.975952	17.551504	-33.691764
63845		-14.974776	17.548033	-33.683596
63846		-14.977342	17.544012	-33.676346
63847		-14.984261	17.537781	-33.672947
63848		-14.988120	17.533288	-33.675290
63849		-14.992234	17.528027	-33.681128
63850		-14.983358	17.521819	-33.685926
63851		-14.969871	17.515174	-33.694229
63852		-14.958928	17.511488	-33.696480
63853		-14.951907	17.503866	-33.695378
63854		-14.950972	17.499433	-33.690707
63855		-14.954722	17.498946	-33.683106
63856		-14.961362	17.500560	-33.676088
63857		-14.970022	17.506489	-33.673554
63858		-14.977128	17.510005	-33.674891
63859		-14.979856	17.515227	-33.679666
63860		-14.972068	17.516229	-33.686457
63861		-14.962295	17.519497	-33.692906
63862		-14.958764	17.518816	-33.696185
63863		-14.955453	17.517624	-33.697835
63864		-14.953209	17.516849	-33.696326
63865		-14.954929	17.518318	-33.694642
63866		-14.958847	17.520682	-33.692861
63867		-14.960010	17.520609	-33.692770
63868		-14.964320	17.518369	-33.692141
63869		-14.964387	17.514594	-33.691513
63870		-14.963666	17.516467	-33.687057
63871		-14.960791	17.517667	-33.679462
63872		-14.958121	17.518246	-33.673198
63873		-14.955525	17.518669	-33.669084
63874		-14.954630	17.517495	-33.668006
63875		-14.951807	17.515307	-33.666225
63876		-14.949609	17.517788	-33.668310
63877		-14.947255	17.520919	-33.672147
63878		-14.948415	17.527571	-33.677024
63879		-14.954119	17.535061	-33.685467
63880		-14.959988	17.545483	-33.693573
63881		-14.964675	17.559513	-33.700845
63882		-14.966215	17.575469	-33.708662
63883		-14.968345	17.592947	-33.716848
63884		-14.971420	17.607968	-33.726389
63885		-14.970953	17.625978	-33.735836
63886		-14.971922	17.636687	-33.743894
63887		-14.969555	17.646881	-33.753652
63888		-14.965873	17.657084	-33.762070
63889		-14.961986	17.667472	-33.771378
63890		-14.959200	17.678581	-33.781576
63891		-14.957108	17.691477	-33.790202
63892		-14.956858	17.702343	-33.796935
63893		-14.957483	17.714152	-33.802427
63894		-14.956524	17.727143	-33.807045
63895		-14.955369	17.740418	-33.809438
63896		-14.954158	17.754229	-33.810594
63897		-14.956517	17.768252	-33.811336
63898		-14.958100	17.777437	-33.814108
63899		-14.962752	17.788083	-33.817799
63900		-14.970988	17.795548	-33.817555
63901		-14.972650	17.804977	-33.814220
63902		-14.969866	17.812917	-33.811659
63903		-14.961253	17.820255	-33.807343
63904		-14.956330	17.827444	-33.801672
63905		-14.955539	17.833268	-33.796455
63906		-14.957347	17.838453	-33.789941
63907		-14.967848	17.846397	-33.785998
63908		-14.976109	17.853913	-33.779662
63909		-14.985141	17.866516	-33.775314
63910		-14.991958	17.878236	-33.770846
63911		-14.994770	17.887631	-33.766757
63912		-14.997916	17.895956	-33.762112
63913		-14.997680	17.903462	-33.755160
63914		-14.997607	17.910650	-33.747375
63915		-14.998866	17.913623	-33.740726
63916		-14.999607	17.918455	-33.731128
63917		-15.003699	17.920406	-33.721487
63918		-15.006145	17.923782	-33.711865
63919		-15.010194	17.929318	-33.703572
63920		-15.015676	17.934346	-33.698848
63921		-15.022145	17.940067	-33.695084
63922		-15.025107	17.945344	-33.693810
63923		-15.023022	17.951108	-33.693504
63924		-15.017637	17.956025	-33.693818
63925		-15.014214	17.962288	-33.695963
63926		-15.010261	17.966518	-33.698888
63927		-15.004027	17.970379	-33.699472
63928		-15.002499	17.974592	-33.702871
63929		-15.004589	17.979065	-33.705882
63930		-15.007815	17.983496	-33.711113
63931		-15.013957	17.990001	-33.718973
63932		-15.017906	17.995871	-33.724701
63933		-15.018179	18.005108	-33.732270
63934		-15.020426	18.012412	-33.741065
63935		-15.015934	18.017852	-33.748433
63936		-15.012268	18.024815	-33.756235
63937		-15.009502	18.032859	-33.762685
63938		-15.005848	18.039851	-33.767438
63939		-15.004403	18.051231	-33.770763
63940		-15.005343	18.062544	-33.774447
63941		-15.009876	18.074144	-33.777723
63942		-15.011265	18.084124	-33.783108
63943		-15.015418	18.093653	-33.787419
63944		-15.016977	18.099553	-33.792661
63945		-15.015318	18.104095	-33.796901
63946		-15.010958	18.109634	-33.804187
63947		-15.008832	18.115572	-33.809598
63948		-15.007255	18.120063	-33.813854
63949		-15.005860	18.124138	-33.816338
63950		-15.006710	18.128630	-33.818032
63951		-15.010339	18.135393	-33.817172
63952		-15.015594	18.141196	-33.815087
63953		-15.021543	18.145140	-33.811932
63954		-15.025085	18.148865	-33.808432
63955		-15.027555	18.152302	-33.804865
63956		-15.027930	18.151045	-33.801990
63957		-15.026314	18.152196	-33.798639
63958		-15.026512	18.151452	-33.797519
63959		-15.030298	18.154490	-33.794397
63960		-15.033492	18.159296	-33.788319
63961		-15.035088	18.165144	-33.781698
63962		-15.038457	18.169411	-33.776908
63963		-15.043124	18.170073	-33.772086
63964		-15.053739	18.170718	-33.767322
63965		-15.056433	18.173341	-33.764182
63966		-15.056015	18.174477	-33.760066
63967		-15.054870	18.174167	-33.761604
63968		-15.056583	18.172418	-33.768304
63969		-15.060609	18.171209	-33.777400
63970		-15.063139	18.170614	-33.786767
63971		-15.068195	18.173222	-33.796076
63972		-15.071458	18.174122	-33.799860
63973		-15.073611	18.178345	-33.801916
63974		-15.075009	18.181280	-33.801383
63975		-15.077083	18.185697	-33.798365
63976		-15.083705	18.191095	-33.796735
63977		-15.098473	18.193545	-33.795982
63978		-15.105768	18.193264	-33.795027
63979		-15.106253	18.195376	-33.795715
63980		-15.103071	18.197577	-33.794614
63981		-15.097568	18.199713	-33.795133
63982		-15.091791	18.202457	-33.795295
63983		-15.089062	18.207010	-33.794231
63984		-15.089942	18.211544	-33.792873
63985		-15.092169	18.215633	-33.790841
63986		-15.097547	18.221189	-33.787886
63987		-15.098324	18.225604	-33.786631
63988		-15.104314	18.229281	-33.786664
63989		-15.102220	18.231931	-33.788651
63990		-15.109084	18.232929	-33.792083
63991		-15.109759	18.230869	-33.792775
63992		-15.109147	18.228930	-33.795049
63993		-15.104121	18.226387	-33.793906
63994		-15.101908	18.225689	-33.792277
63995		-15.105748	18.225411	-33.794800
63996		-15.109548	18.224776	-33.793318
63997		-15.113781	18.226761	-33.795816
63998		-15.118787	18.229770	-33.797974
63999		-15.123383	18.234125	-33.801548
64000		-15.121646	18.235637	-33.803050
64001		-15.119508	18.239043	-33.804940
64002		-15.119675	18.242119	-33.806112
64003		-15.120554	18.243282	-33.803257
64004		-15.120248	18.244153	-33.801294
64005		-15.124948	18.244733	-33.798370
64006		-15.127671	18.243748	-33.793805
64007		-15.129394	18.241884	-33.787410
64008		-15.131730	18.238409	-33.781873
64009		-15.134649	18.236484	-33.773663
64010		-15.135125	18.235022	-33.766852
64011		-15.140450	18.234082	-33.763030
64012		-15.143736	18.235048	-33.760725
64013		-15.146530	18.229916	-33.759096
64014		-15.144582	18.228429	-33.757868
64015		-15.142799	18.223181	-33.754547
64016		-15.138391	18.218213	-33.748349
64017		-15.136296	18.214213	-33.742309
64018		-15.135261	18.213681	-33.736799
64019		-15.142689	18.213391	-33.733074
64020		-15.149959	18.216970	-33.728365
64021		-15.158795	18.215261	-33.724237
64022		-15.163512	18.215555	-33.721508
64023		-15.166363	18.210792	-33.717820
64024		-15.165630	18.205632	-33.713440
64025		-15.164870	18.200754	-33.710075
64026		-15.164222	18.195306	-33.707857
64027		-15.158361	18.191076	-33.705120
64028		-15.154430	18.188316	-33.702054
64029		-15.151635	18.182449	-33.700758
64030		-15.153375	18.180830	-33.695277
64031		-15.157828	18.182098	-33.689048
64032		-15.166056	18.182769	-33.683822
64033		-15.176701	18.184091	-33.677972
64034		-15.187867	18.183130	-33.674061
64035		-15.188245	18.182222	-33.669135
64036		-15.186521	18.183774	-33.667590
64037		-15.191904	18.182420	-33.665986
64038		-15.182440	18.181846	-33.662853
64039		-15.182728	18.180791	-33.656764
64040		-15.183866	18.181030	-33.651337
64041		-15.188022	18.183261	-33.648739
64042		-15.197242	18.184538	-33.647471
64043		-15.204084	18.185895	-33.642798
64044		-15.208761	18.182646	-33.638629
64045		-15.209501	18.176816	-33.636955
64046		-15.205471	18.166937	-33.634031
64047		-15.198127	18.155964	-33.627916
64048		-15.194844	18.147555	-33.622468
64049		-15.197643	18.142747	-33.614534
64050		-15.204115	18.145183	-33.607167
64051		-15.214160	18.155433	-33.604147
64052		-15.224512	18.160636	-33.604368
64053		-15.232573	18.162092	-33.604970
64054		-15.235047	18.161883	-33.603030
64055		-15.233272	18.159996	-33.600047
64056		-15.225319	18.158468	-33.598642
64057		-15.218247	18.157891	-33.602043
64058		-15.219877	18.156397	-33.609573
64059		-15.228376	18.156070	-33.618902
64060		-15.238784	18.153529	-33.626627
64061		-15.249271	18.150568	-33.632494
64062		-15.259687	18.148062	-33.637182
64063		-15.263674	18.146879	-33.638894
64064		-15.265894	18.147439	-33.639578
64065		-15.268849	18.145711	-33.641432
64066		-15.270922	18.142944	-33.644579
64067		-15.271307	18.138492	-33.650296
64068		-15.268284	18.136608	-33.652037
64069		-15.260347	18.131220	-33.657442
64070		-15.254924	18.125508	-33.662429
64071		-15.248236	18.119996	-33.666138
64072		-15.244901	18.115335	-33.669058
64073		-15.242620	18.111139	-33.672030
64074		-15.241627	18.106726	-33.673291
64075		-15.239928	18.104648	-33.672316
64076		-15.242335	18.104698	-33.671252
64077		-15.247317	18.100380	-33.669660
64078		-15.245737	18.097860	-33.667947
64079		-15.239090	18.096239	-33.670982
64080		-15.219592	18.130813	-33.670263
64081		-15.309030	18.126003	-33.692779
64082		-15.310438	18.072438	-33.706358
64083		-15.266909	18.062731	-33.703787
64084		-15.233670	18.053890	-33.699628
64085		-15.202622	18.057092	-33.695616
64086		-15.205567	18.066757	-33.695394
64087		-15.227634	18.077028	-33.698716
64088		-15.260060	18.077132	-33.707603
64089		-15.275994	18.072201	-33.714427
64090		-15.265875	18.073725	-33.718261
64091		-15.253384	18.074735	-33.719831
64092		-15.233029	18.074504	-33.719399
64093		-15.225937	18.077687	-33.716108
64094		-15.236745	18.085359	-33.717332
64095		-15.264934	18.083969	-33.723197
64096		-15.284152	18.072691	-33.729506
64097		-15.268046	18.062917	-33.729133
64098		-15.242760	18.066886	-33.727859
64099		-15.228081	18.075559	-33.729672
64100		-15.234146	18.079163	-33.735786
64101		-15.244178	18.074190	-33.739581
64102		-15.250873	18.068330	-33.740993
64103		-15.255438	18.062107	-33.737296
64104		-15.256059	18.056550	-33.733348
64105		-15.249839	18.050203	-33.730472
64106		-15.243955	18.042353	-33.729266
64107		-15.238075	18.038710	-33.728346
64108		-15.241339	18.036069	-33.730656
64109		-15.242824	18.031632	-33.735561
64110		-15.243768	18.024948	-33.737201
64111		-15.239069	18.013727	-33.736870
64112		-15.231807	17.998957	-33.731441
64113		-15.225564	17.984594	-33.723057
64114		-15.222978	17.974141	-33.713625
64115		-15.221786	17.963324	-33.704757
64116		-15.230760	17.958025	-33.699341
64117		-15.238265	17.949848	-33.699028
64118		-15.241647	17.939312	-33.698847
64119		-15.235523	17.928171	-33.700045
64120		-15.221988	17.917955	-33.699382
64121		-15.208247	17.907948	-33.699577
64122		-15.201475	17.899217	-33.696583
64123		-15.200630	17.890788	-33.691698
64124		-15.206202	17.884904	-33.684864
64125		-15.213081	17.878343	-33.683576
64126		-15.217704	17.871471	-33.684020
64127		-15.218481	17.865087	-33.686477
64128		-15.215244	17.860159	-33.691526
64129		-15.210044	17.853614	-33.696982
64130		-15.203996	17.842415	-33.701250
64131		-15.199652	17.826197	-33.704262
64132		-15.194637	17.811862	-33.704107
64133		-15.190874	17.801493	-33.702610
64134		-15.187537	17.793380	-33.698017
64135		-15.184893	17.786716	-33.690942
64136		-15.185955	17.779810	-33.688690
64137		-15.189425	17.768964	-33.687758
64138		-15.190071	17.755699	-33.688244
64139		-15.186515	17.744644	-33.687000
64140		-15.185193	17.733991	-33.681928
64141		-15.178232	17.726250	-33.672483
64142		-15.172449	17.714680	-33.662925
64143		-15.167534	17.704433	-33.653006
64144		-15.165247	17.693182	-33.643997
64145		-15.163866	17.682999	-33.633691
64146		-15.164375	17.674149	-33.629185
64147		-15.161731	17.667515	-33.628098
64148		-15.162485	17.665142	-33.633805
64149		-15.164818	17.661735	-33.643301
64150		-15.168684	17.660672	-33.656060
64151		-15.167725	17.659165	-33.672006
64152		-15.161193	17.656862	-33.685268
64153		-15.151535	17.653251	-33.697548
64154		-15.138477	17.649042	-33.705355
64155		-15.123262	17.644133	-33.708893
64156		-15.111491	17.639821	-33.711987
64157		-15.101735	17.640539	-33.712204
64158		-15.095620	17.644958	-33.714544
64159		-15.092547	17.647233	-33.716476
64160		-15.089832	17.648390	-33.720931
64161		-15.086541	17.650931	-33.726601
64162		-15.082147	17.653548	-33.734085
64163		-15.076238	17.653310	-33.740565
64164		-15.067418	17.654672	-33.751740
64165		-15.058452	17.652476	-33.761481
64166		-15.047000	17.650901	-33.769428
64167		-15.034574	17.648819	-33.773386
64168		-15.017360	17.646801	-33.773376
64169		-15.010625	17.646468	-33.770827
64170		-15.008096	17.647492	-33.762345
64171		-15.003707	17.650908	-33.753513
64172		-15.003837	17.654904	-33.745239
64173		-14.999449	17.653803	-33.741374
64174		-14.997531	17.652622	-33.741006
64175		-14.996142	17.649432	-33.745544
64176		-14.994345	17.647650	-33.752480
64177		-14.991671	17.648648	-33.762009
64178		-14.986953	17.652314	-33.772960
64179		-14.986055	17.655663	-33.781885
64180		-14.981134	17.660191	-33.786400
64181		-14.979246	17.662892	-33.788395
64182		-14.977279	17.665838	-33.785181
64183		-14.977104	17.671180	-33.781468
64184		-14.980471	17.676259	-33.776360
