// General information: 
//  MT Manager version: 2022.2.0 
//  XDA version: 2022.2.0 build 7381 rev 124627 built on 2023-07-19
// Device information: 
//  DeviceId: 00B44877
//  ProductCode: MTW2-3A7G6
//  Firmware Version: 4.3.5
//  Hardware Version: 2.0.0
// Device settings: 
//  Filter Profile: human(46.1)
//  Option Flags: Orientation Smoother Disabled, Position/Velocity Smoother Disabled, Continuous Zero Rotation Update Disabled, AHS Disabled, ICC Disabled
// Coordinate system: ENU
PacketCounter	SampleTimeFine	Roll	Pitch	Yaw
08055		3.934993	20.156891	-0.948713
08056		3.937875	20.160519	-0.946809
08057		3.941416	20.161225	-0.944681
08058		3.943210	20.162459	-0.939734
08059		3.944081	20.162083	-0.938954
08060		3.946987	20.160825	-0.935115
08061		3.945642	20.162958	-0.931163
08062		3.946639	20.164427	-0.928309
08063		3.948229	20.162921	-0.925721
08064		3.949389	20.162040	-0.923983
08065		3.951052	20.162231	-0.921483
08066		3.954662	20.161449	-0.920924
08067		3.956949	20.160379	-0.918410
08068		3.962069	20.157397	-0.918072
08069		3.962936	20.154534	-0.916447
08070		3.960613	20.151961	-0.917949
08071		3.957862	20.149686	-0.918123
08072		3.955930	20.149031	-0.919383
08073		3.956410	20.148363	-0.919493
08074		3.955987	20.146321	-0.921295
08075		3.957251	20.142738	-0.922735
08076		3.959671	20.142715	-0.925474
08077		3.958566	20.143397	-0.925631
08078		3.959327	20.143854	-0.925423
08079		3.961720	20.141288	-0.924866
08080		3.963208	20.137336	-0.926003
08081		3.963854	20.133435	-0.926896
08082		3.964387	20.131252	-0.928687
08083		3.964481	20.128494	-0.928868
08084		3.964459	20.126742	-0.929784
08085		3.962633	20.126823	-0.931168
08086		3.959191	20.129179	-0.932532
08087		3.957748	20.130330	-0.933379
08088		3.957157	20.133079	-0.935032
08089		3.957292	20.132879	-0.935942
08090		3.958064	20.131707	-0.935086
08091		3.956815	20.131253	-0.937092
08092		3.954890	20.131408	-0.938674
08093		3.952531	20.134322	-0.939857
08094		3.952895	20.136930	-0.941497
08095		3.953528	20.139580	-0.945000
08096		3.953502	20.141082	-0.947202
08097		3.953541	20.140923	-0.948969
08098		3.955810	20.143252	-0.950584
08099		3.958420	20.143878	-0.952772
08100		3.962443	20.143393	-0.951314
08101		3.965187	20.145125	-0.951737
08102		3.966511	20.146779	-0.953041
08103		3.966585	20.143375	-0.953372
08104		3.965858	20.141960	-0.951330
08105		3.967358	20.143706	-0.947438
08106		3.971055	20.144664	-0.942464
08107		3.977566	20.145153	-0.943042
08108		3.983729	20.144588	-0.938592
08109		3.986703	20.143260	-0.934924
08110		3.986185	20.148552	-0.932499
08111		3.988768	20.154264	-0.932401
08112		3.994853	20.157662	-0.934604
08113		4.002715	20.157206	-0.938319
08114		4.011222	20.154094	-0.944153
08115		4.022710	20.149826	-0.944803
08116		4.033908	20.147833	-0.949162
08117		4.047705	20.144281	-0.953651
08118		4.062166	20.139722	-0.956118
08119		4.075795	20.135329	-0.958376
08120		4.086839	20.131616	-0.960014
08121		4.099309	20.126153	-0.964615
08122		4.113554	20.120586	-0.969725
08123		4.130398	20.111774	-0.974345
08124		4.150498	20.099674	-0.984242
08125		4.171498	20.091340	-0.993297
08126		4.191381	20.080679	-1.006803
08127		4.207852	20.068388	-1.019203
08128		4.223760	20.059003	-1.031011
08129		4.238617	20.050334	-1.041057
08130		4.250368	20.043755	-1.049730
08131		4.262807	20.038401	-1.054870
08132		4.274599	20.035178	-1.059790
08133		4.285326	20.031206	-1.062607
08134		4.295221	20.025816	-1.066593
08135		4.305224	20.019497	-1.070031
08136		4.315874	20.009705	-1.075361
08137		4.328013	20.000055	-1.079343
08138		4.338482	19.993425	-1.083882
08139		4.352912	19.991085	-1.089705
08140		4.360685	19.988222	-1.097643
08141		4.371317	19.980677	-1.101234
08142		4.378183	19.975602	-1.103192
08143		4.382540	19.971999	-1.102169
08144		4.381227	19.970979	-1.099299
08145		4.377867	19.974160	-1.096235
08146		4.373322	19.977427	-1.090859
08147		4.368085	19.979177	-1.086909
08148		4.365662	19.982364	-1.078545
08149		4.361473	19.987381	-1.070337
08150		4.356579	19.989639	-1.060492
08151		4.347613	19.990535	-1.050674
08152		4.338335	19.992953	-1.039699
08153		4.325915	19.997097	-1.030128
08154		4.316811	20.002058	-1.022189
08155		4.306868	20.008701	-1.014621
08156		4.301770	20.011587	-1.008054
08157		4.296252	20.015762	-1.000567
08158		4.289986	20.020219	-0.997615
08159		4.286096	20.025457	-0.994128
08160		4.277710	20.030806	-0.994488
08161		4.268041	20.035966	-0.995984
08162		4.260999	20.041469	-0.995444
08163		4.252914	20.042784	-0.996077
08164		4.244718	20.044971	-0.997228
08165		4.237924	20.046465	-0.997413
08166		4.226860	20.049873	-0.998935
08167		4.217061	20.054075	-0.997655
08168		4.208118	20.057408	-0.996186
08169		4.199958	20.062034	-0.993832
08170		4.189879	20.066224	-0.990629
08171		4.182157	20.071150	-0.987000
08172		4.172260	20.075434	-0.985872
08173		4.161680	20.077484	-0.985905
08174		4.151763	20.079221	-0.988842
08175		4.145938	20.081257	-0.994068
08176		4.142500	20.083473	-1.000484
08177		4.142252	20.086122	-1.003836
08178		4.137883	20.089393	-1.005561
08179		4.132476	20.092695	-1.005198
08180		4.123358	20.095934	-1.001662
08181		4.113365	20.101732	-0.994199
08182		4.097574	20.109280	-0.987051
08183		4.082001	20.118537	-0.978112
08184		4.064891	20.128481	-0.967808
08185		4.048898	20.139069	-0.957292
08186		4.037529	20.148207	-0.946877
08187		4.025090	20.154784	-0.938531
08188		4.011998	20.163474	-0.929906
08189		4.002678	20.166500	-0.921819
08190		3.991692	20.170946	-0.913613
08191		3.981409	20.174029	-0.905543
08192		3.974244	20.179564	-0.897906
08193		3.965371	20.183658	-0.892149
08194		3.957998	20.190616	-0.888117
08195		3.951706	20.196586	-0.883502
08196		3.944887	20.199747	-0.884071
08197		3.938925	20.203466	-0.882929
08198		3.930960	20.210738	-0.883065
08199		3.927707	20.217200	-0.880848
08200		3.924146	20.220251	-0.880471
08201		3.918247	20.220754	-0.877680
08202		3.908794	20.224643	-0.870326
08203		3.897588	20.233612	-0.864324
08204		3.886043	20.248369	-0.854124
08205		3.873432	20.267057	-0.843455
08206		3.861516	20.279084	-0.833170
08207		3.846518	20.288766	-0.822343
08208		3.833475	20.300033	-0.809685
08209		3.825559	20.312386	-0.794204
08210		3.817892	20.326736	-0.778891
08211		3.811855	20.339653	-0.764036
08212		3.799989	20.354251	-0.749698
08213		3.790240	20.366858	-0.733788
08214		3.777998	20.381165	-0.720337
08215		3.765490	20.393569	-0.707027
08216		3.753054	20.404422	-0.695238
08217		3.742319	20.417193	-0.684712
08218		3.733682	20.429007	-0.678512
08219		3.726421	20.434339	-0.669223
08220		3.711289	20.436629	-0.661038
08221		3.695707	20.436985	-0.651009
08222		3.678278	20.439254	-0.643758
08223		3.661140	20.443181	-0.639091
08224		3.646757	20.447566	-0.634817
08225		3.633221	20.449088	-0.632470
08226		3.618812	20.452532	-0.632903
08227		3.610472	20.455399	-0.630059
08228		3.602010	20.457434	-0.627061
08229		3.599067	20.453178	-0.626949
08230		3.594584	20.452188	-0.629976
08231		3.587865	20.450268	-0.633795
08232		3.581262	20.450956	-0.640481
08233		3.574938	20.451477	-0.648958
08234		3.568129	20.452759	-0.658927
08235		3.567374	20.454219	-0.665948
08236		3.565163	20.457180	-0.674698
08237		3.561157	20.457112	-0.682028
08238		3.558584	20.459909	-0.686634
08239		3.556100	20.461866	-0.690944
08240		3.557356	20.463315	-0.695121
08241		3.559370	20.460343	-0.701348
08242		3.564443	20.457064	-0.708815
08243		3.568694	20.453875	-0.715958
08244		3.574732	20.448029	-0.722420
08245		3.580237	20.443357	-0.728713
08246		3.583596	20.443809	-0.734582
08247		3.586441	20.444540	-0.739717
08248		3.589040	20.447777	-0.743635
08249		3.589825	20.449683	-0.746986
08250		3.589950	20.449560	-0.748466
08251		3.591306	20.447597	-0.751215
08252		3.592006	20.446231	-0.753226
08253		3.594091	20.445738	-0.754929
08254		3.594412	20.447454	-0.754106
08255		3.595155	20.448562	-0.752434
08256		3.595863	20.449764	-0.750399
08257		3.595534	20.450942	-0.746158
08258		3.593955	20.452246	-0.740037
08259		3.591908	20.453059	-0.737646
08260		3.589175	20.454279	-0.734507
08261		3.589753	20.456178	-0.731017
08262		3.589698	20.456783	-0.730750
08263		3.592145	20.455952	-0.731701
08264		3.594012	20.453047	-0.730073
08265		3.593087	20.448862	-0.727972
08266		3.589977	20.446537	-0.724413
08267		3.588979	20.448009	-0.725057
08268		3.591226	20.447837	-0.723523
08269		3.592814	20.448639	-0.724267
08270		3.599274	20.448101	-0.726758
08271		3.606080	20.446029	-0.730251
08272		3.610435	20.443915	-0.735097
08273		3.615267	20.443618	-0.739630
08274		3.619044	20.445182	-0.744925
08275		3.624863	20.446478	-0.749952
08276		3.626724	20.449118	-0.755630
08277		3.633264	20.448537	-0.758286
08278		3.637625	20.447371	-0.758436
08279		3.644884	20.442498	-0.757766
08280		3.645800	20.438911	-0.755841
08281		3.643569	20.438747	-0.754448
08282		3.636039	20.440617	-0.751463
08283		3.628803	20.442506	-0.750493
08284		3.625115	20.442904	-0.752084
08285		3.625209	20.444076	-0.756765
08286		3.626323	20.442870	-0.762901
08287		3.628684	20.439216	-0.770251
08288		3.630379	20.437581	-0.777242
08289		3.631393	20.432840	-0.785139
08290		3.632519	20.428390	-0.789968
08291		3.631748	20.426608	-0.796409
08292		3.636706	20.424881	-0.802426
08293		3.636938	20.426028	-0.806048
08294		3.639980	20.424562	-0.812123
08295		3.643574	20.421703	-0.816071
08296		3.646827	20.415452	-0.822250
08297		3.654326	20.407826	-0.829075
08298		3.663356	20.400660	-0.840091
08299		3.672516	20.389345	-0.849225
08300		3.680221	20.379578	-0.860175
08301		3.688126	20.371601	-0.869367
08302		3.697529	20.364062	-0.874159
08303		3.706451	20.358509	-0.878648
08304		3.714488	20.354182	-0.880647
08305		3.721127	20.348007	-0.884122
08306		3.726113	20.342228	-0.888508
08307		3.731242	20.336545	-0.890853
08308		3.733721	20.334699	-0.895751
08309		3.738867	20.331205	-0.900470
08310		3.746362	20.324741	-0.905648
08311		3.752982	20.319160	-0.911228
08312		3.760473	20.315944	-0.917711
08313		3.764982	20.314628	-0.922794
08314		3.771104	20.312186	-0.925507
08315		3.776188	20.306342	-0.929926
08316		3.782530	20.299114	-0.932745
08317		3.790433	20.291298	-0.931571
08318		3.795976	20.288473	-0.933106
08319		3.803913	20.285653	-0.933701
08320		3.809252	20.281932	-0.932848
08321		3.814470	20.280517	-0.930952
08322		3.823819	20.278934	-0.928008
08323		3.832678	20.277819	-0.924300
08324		3.839519	20.277730	-0.920891
08325		3.845646	20.273709	-0.918398
08326		3.853454	20.271056	-0.913980
08327		3.862797	20.268583	-0.911497
08328		3.871192	20.264690	-0.907608
08329		3.880879	20.261458	-0.905800
08330		3.891195	20.258931	-0.902499
08331		3.901766	20.257150	-0.901850
08332		3.914384	20.253043	-0.896954
08333		3.921114	20.251049	-0.896194
08334		3.929345	20.248563	-0.895902
08335		3.934771	20.246419	-0.895834
08336		3.939366	20.245340	-0.898054
08337		3.943300	20.240288	-0.900750
08338		3.948114	20.235237	-0.903405
08339		3.953275	20.230933	-0.908034
08340		3.959475	20.228362	-0.915753
08341		3.965990	20.225837	-0.919949
08342		3.974279	20.223227	-0.924660
08343		3.981479	20.222322	-0.928149
08344		3.985334	20.219835	-0.931811
08345		3.990103	20.217335	-0.931194
08346		3.994281	20.212837	-0.927996
08347		3.996605	20.210013	-0.925532
08348		3.996341	20.208072	-0.922261
08349		3.998142	20.207489	-0.919289
08350		3.998464	20.208370	-0.918168
08351		4.001371	20.206982	-0.917538
08352		4.006354	20.204580	-0.918223
08353		4.011876	20.202455	-0.917524
08354		4.014344	20.200733	-0.917423
08355		4.019861	20.198507	-0.916670
08356		4.022702	20.197083	-0.915686
08357		4.023672	20.195929	-0.915201
08358		4.024369	20.196295	-0.912873
08359		4.026098	20.196522	-0.910799
08360		4.029313	20.196210	-0.909255
08361		4.030684	20.195371	-0.907705
08362		4.031821	20.193474	-0.908519
08363		4.031456	20.190443	-0.908244
08364		4.034895	20.186158	-0.907134
08365		4.035218	20.184236	-0.907485
08366		4.036134	20.187937	-0.908514
08367		4.038354	20.188205	-0.910015
08368		4.039496	20.185496	-0.910504
08369		4.041430	20.181701	-0.908983
08370		4.041760	20.178519	-0.906241
08371		4.045349	20.176667	-0.905786
08372		4.042268	20.174161	-0.907293
08373		4.039271	20.170004	-0.908321
08374		4.036413	20.166773	-0.911559
08375		4.039966	20.166510	-0.911994
08376		4.047263	20.166596	-0.912693
08377		4.056170	20.166207	-0.914747
08378		4.064064	20.164245	-0.915645
08379		4.068628	20.159701	-0.919740
08380		4.076525	20.155303	-0.919665
08381		4.083705	20.148498	-0.921194
08382		4.091828	20.143376	-0.922851
08383		4.098971	20.139878	-0.926041
08384		4.105907	20.135606	-0.926002
08385		4.112969	20.133001	-0.926515
08386		4.121834	20.129290	-0.926732
08387		4.129090	20.126694	-0.929485
08388		4.135661	20.118061	-0.928709
08389		4.135384	20.115766	-0.928041
08390		4.136903	20.113353	-0.927652
08391		4.139691	20.112365	-0.929998
08392		4.142034	20.111240	-0.933160
08393		4.147882	20.110840	-0.938368
08394		4.158403	20.108085	-0.945035
08395		4.166797	20.104435	-0.951812
08396		4.176219	20.099159	-0.960478
08397		4.183379	20.098791	-0.966877
08398		4.186093	20.099590	-0.969806
08399		4.184845	20.102275	-0.971165
08400		4.182275	20.102704	-0.969838
08401		4.181159	20.100683	-0.966341
08402		4.181855	20.100228	-0.963701
08403		4.181228	20.100454	-0.957293
08404		4.178428	20.104855	-0.955533
08405		4.176352	20.104739	-0.952881
08406		4.173187	20.107215	-0.951356
08407		4.169547	20.110160	-0.948963
08408		4.167852	20.113026	-0.943582
08409		4.165529	20.116952	-0.940724
08410		4.165998	20.120471	-0.937649
08411		4.168477	20.122874	-0.934405
08412		4.170744	20.124309	-0.933543
08413		4.172952	20.122143	-0.934474
08414		4.177983	20.121372	-0.935789
08415		4.183717	20.120875	-0.938237
08416		4.187650	20.120016	-0.942523
08417		4.187823	20.118738	-0.946606
08418		4.189227	20.117737	-0.949795
08419		4.188885	20.114453	-0.951372
08420		4.184493	20.114189	-0.954783
08421		4.179756	20.118519	-0.955825
08422		4.171631	20.124642	-0.958720
08423		4.165738	20.127270	-0.962612
08424		4.160383	20.128751	-0.966708
08425		4.156122	20.128475	-0.970002
08426		4.155000	20.128955	-0.972740
08427		4.154586	20.128937	-0.976292
08428		4.153335	20.130827	-0.982613
08429		4.152787	20.131388	-0.989452
08430		4.151539	20.130842	-0.994799
08431		4.147448	20.130654	-1.000739
08432		4.145362	20.132068	-1.003839
08433		4.142155	20.135132	-1.005836
08434		4.138738	20.137989	-1.010506
08435		4.136503	20.138464	-1.011433
08436		4.134183	20.139790	-1.012481
08437		4.128103	20.143220	-1.014390
08438		4.125912	20.143137	-1.011856
08439		4.120836	20.142292	-1.011704
08440		4.114288	20.141367	-1.012814
08441		4.109147	20.143001	-1.014229
08442		4.105261	20.145683	-1.014797
08443		4.100456	20.152513	-1.017524
08444		4.098264	20.158924	-1.017590
08445		4.097482	20.161370	-1.015333
08446		4.094565	20.163931	-1.015861
08447		4.093900	20.165447	-1.018273
08448		4.091588	20.167584	-1.019644
08449		4.088301	20.166344	-1.022655
08450		4.082729	20.162860	-1.022750
08451		4.077984	20.164716	-1.022972
08452		4.073861	20.169746	-1.022468
08453		4.068064	20.176769	-1.019462
08454		4.057895	20.185682	-1.018453
08455		4.049426	20.193116	-1.017685
08456		4.042768	20.197999	-1.016094
08457		4.041079	20.200615	-1.013481
08458		4.040713	20.200890	-1.014115
08459		4.043602	20.199914	-1.016202
08460		4.046864	20.200083	-1.022861
08461		4.052168	20.203143	-1.030666
08462		4.059792	20.199758	-1.039953
08463		4.070156	20.195635	-1.049202
08464		4.083476	20.188883	-1.060195
08465		4.095910	20.181380	-1.071130
08466		4.103676	20.171378	-1.082791
08467		4.108772	20.161926	-1.091613
08468		4.115314	20.157987	-1.095639
08469		4.120121	20.154467	-1.097033
08470		4.122297	20.154888	-1.098757
08471		4.127975	20.154601	-1.096129
08472		4.133535	20.153562	-1.093266
08473		4.139812	20.150365	-1.090547
08474		4.145149	20.144024	-1.091590
08475		4.151095	20.137019	-1.096385
08476		4.154988	20.134336	-1.102907
08477		4.159617	20.128689	-1.109105
08478		4.160134	20.125843	-1.119562
08479		4.162074	20.123179	-1.129294
08480		4.162096	20.121782	-1.136308
08481		4.163179	20.120980	-1.143692
08482		4.166832	20.118212	-1.148166
08483		4.172777	20.114458	-1.154358
08484		4.178119	20.112991	-1.157352
08485		4.180310	20.112292	-1.161563
08486		4.174883	20.111093	-1.167623
08487		4.166753	20.110408	-1.170977
08488		4.159345	20.116281	-1.171827
08489		4.155274	20.121199	-1.171647
08490		4.150783	20.121039	-1.170090
08491		4.145452	20.120960	-1.168418
08492		4.139995	20.118483	-1.165927
08493		4.135396	20.114902	-1.160733
08494		4.128715	20.114892	-1.157216
08495		4.126015	20.115187	-1.153923
08496		4.124181	20.116213	-1.150842
08497		4.122330	20.116916	-1.150807
08498		4.121363	20.115984	-1.149956
08499		4.120996	20.112700	-1.152331
08500		4.120642	20.110535	-1.151993
08501		4.119765	20.111132	-1.151910
08502		4.113593	20.110481	-1.152158
08503		4.106565	20.109006	-1.152026
08504		4.098198	20.109314	-1.150644
08505		4.089331	20.110791	-1.148731
08506		4.082391	20.114752	-1.144804
08507		4.075181	20.116709	-1.141318
08508		4.067888	20.117932	-1.137293
08509		4.058155	20.118882	-1.132136
08510		4.050250	20.120527	-1.127274
08511		4.042421	20.122664	-1.125066
08512		4.035641	20.125680	-1.125781
08513		4.029568	20.127429	-1.127164
08514		4.022789	20.130445	-1.127880
08515		4.018586	20.132522	-1.132136
08516		4.016304	20.132217	-1.132528
08517		4.009711	20.135118	-1.132552
08518		4.003192	20.135783	-1.134330
08519		3.996278	20.137024	-1.132262
08520		3.988890	20.138027	-1.131162
08521		3.982509	20.136162	-1.131730
08522		3.974672	20.131772	-1.132470
08523		3.969753	20.120017	-1.135584
08524		3.970891	20.100298	-1.143205
08525		3.980189	20.067691	-1.158351
08526		3.994809	20.027938	-1.183010
08527		4.015964	19.984625	-1.207604
08528		4.035136	19.943193	-1.232599
08529		4.050967	19.900821	-1.255805
08530		4.060390	19.864149	-1.274672
08531		4.061523	19.836411	-1.287482
08532		4.060153	19.818156	-1.294690
08533		4.050042	19.808536	-1.297399
08534		4.036108	19.800674	-1.294725
08535		4.021468	19.797304	-1.287854
08536		4.008823	19.795897	-1.275753
08537		3.994418	19.796458	-1.261511
08538		3.979367	19.801828	-1.245120
08539		3.962941	19.809413	-1.225401
08540		3.945146	19.820447	-1.205272
08541		3.928808	19.834130	-1.185100
08542		3.917626	19.849380	-1.161673
08543		3.909277	19.869798	-1.137711
08544		3.901369	19.891503	-1.115894
08545		3.889031	19.910583	-1.094823
08546		3.876566	19.930519	-1.074287
08547		3.865394	19.948499	-1.057807
08548		3.850132	19.965984	-1.044304
08549		3.832513	19.983259	-1.029079
08550		3.815765	20.002327	-1.012202
08551		3.797249	20.023108	-0.995567
08552		3.780342	20.048006	-0.976035
08553		3.762359	20.075251	-0.955169
08554		3.743631	20.103050	-0.933804
08555		3.727620	20.129275	-0.912523
08556		3.709448	20.154812	-0.894259
08557		3.693359	20.183315	-0.877055
08558		3.679354	20.212525	-0.862291
08559		3.665389	20.239782	-0.849638
08560		3.650956	20.266838	-0.838023
08561		3.636273	20.289133	-0.827783
08562		3.627741	20.306202	-0.820137
08563		3.616408	20.318407	-0.812775
08564		3.603549	20.332162	-0.807816
08565		3.590900	20.347445	-0.802699
08566		3.576008	20.361199	-0.800767
08567		3.564229	20.372122	-0.796964
08568		3.556748	20.383831	-0.795181
08569		3.550723	20.395723	-0.792345
08570		3.543956	20.405623	-0.787810
08571		3.535668	20.414893	-0.784605
08572		3.531104	20.423018	-0.781349
08573		3.525969	20.428778	-0.778848
08574		3.521922	20.433006	-0.778023
08575		3.516345	20.437671	-0.776768
08576		3.512658	20.445445	-0.776383
08577		3.508879	20.452873	-0.779647
08578		3.508365	20.459566	-0.780817
08579		3.505597	20.464256	-0.784952
08580		3.504728	20.471448	-0.787333
08581		3.502691	20.475947	-0.789226
08582		3.498910	20.481866	-0.791104
08583		3.493623	20.486480	-0.793991
08584		3.487546	20.490700	-0.796195
08585		3.484102	20.491716	-0.798293
08586		3.481035	20.495019	-0.797085
08587		3.477017	20.502407	-0.798235
08588		3.475633	20.507835	-0.795872
08589		3.477637	20.509129	-0.790714
08590		3.478554	20.513020	-0.786700
08591		3.478297	20.514976	-0.782530
08592		3.479214	20.516439	-0.777522
08593		3.478256	20.515374	-0.774063
08594		3.476781	20.514900	-0.772304
08595		3.477231	20.515478	-0.774194
08596		3.476990	20.514962	-0.774421
08597		3.479483	20.516195	-0.775841
08598		3.482420	20.515410	-0.777944
08599		3.485821	20.513736	-0.780915
08600		3.484517	20.510669	-0.783123
08601		3.484305	20.509784	-0.786076
08602		3.488574	20.515669	-0.789891
08603		3.493007	20.519327	-0.790048
08604		3.496657	20.516737	-0.789392
08605		3.497282	20.515128	-0.786765
08606		3.500670	20.513273	-0.784401
08607		3.497708	20.514928	-0.782597
08608		3.495002	20.517729	-0.780180
08609		3.490840	20.520941	-0.776699
08610		3.486455	20.523234	-0.776099
08611		3.484581	20.523852	-0.772931
08612		3.484970	20.525338	-0.774974
08613		3.486075	20.528608	-0.778748
08614		3.491505	20.527744	-0.784808
08615		3.497319	20.524429	-0.791767
08616		3.503988	20.518671	-0.797820
08617		3.510265	20.514998	-0.802885
08618		3.513487	20.512670	-0.806356
08619		3.515792	20.507988	-0.809278
08620		3.515475	20.502378	-0.810435
08621		3.512092	20.499336	-0.810550
08622		3.508860	20.498109	-0.813531
08623		3.507481	20.498952	-0.814824
08624		3.505846	20.499615	-0.819567
08625		3.506452	20.496801	-0.825487
08626		3.511110	20.491035	-0.834563
08627		3.521717	20.482158	-0.842324
08628		3.531435	20.471623	-0.854416
08629		3.543905	20.458113	-0.863259
08630		3.550167	20.444533	-0.870124
08631		3.553137	20.430937	-0.872459
08632		3.552123	20.422274	-0.874386
08633		3.550065	20.419192	-0.875878
08634		3.551976	20.418287	-0.880947
08635		3.556786	20.413622	-0.887904
08636		3.563339	20.404165	-0.898457
08637		3.573976	20.394437	-0.905792
08638		3.579561	20.384284	-0.916071
08639		3.575382	20.373615	-0.920686
08640		3.567633	20.368393	-0.921087
08641		3.558842	20.370790	-0.919464
08642		3.551167	20.377133	-0.921588
08643		3.546989	20.379106	-0.926514
08644		3.550365	20.378810	-0.938837
08645		3.564208	20.374318	-0.952865
08646		3.574268	20.367922	-0.968628
08647		3.578918	20.356726	-0.981668
08648		3.585298	20.348250	-0.987593
08649		3.587813	20.344601	-0.987002
08650		3.585138	20.345198	-0.980703
08651		3.578090	20.349056	-0.974510
08652		3.574094	20.352688	-0.970472
08653		3.574633	20.352343	-0.971446
08654		3.583036	20.348741	-0.976325
08655		3.594030	20.343109	-0.987057
08656		3.608434	20.337643	-0.999118
08657		3.623228	20.330609	-1.012573
08658		3.635976	20.319779	-1.024464
08659		3.645149	20.306100	-1.037759
08660		3.649825	20.295260	-1.047748
08661		3.656613	20.285966	-1.055384
08662		3.665030	20.279946	-1.059276
08663		3.675579	20.276053	-1.063428
08664		3.684628	20.273660	-1.069796
08665		3.694152	20.269730	-1.076956
08666		3.701885	20.266326	-1.083929
08667		3.707506	20.262029	-1.091063
08668		3.712262	20.254668	-1.099465
08669		3.715889	20.247872	-1.105818
08670		3.717203	20.243345	-1.108415
08671		3.720971	20.239666	-1.109937
08672		3.727272	20.239928	-1.108410
08673		3.734011	20.240477	-1.106127
08674		3.740314	20.239929	-1.104269
08675		3.750674	20.239740	-1.102169
08676		3.758877	20.235504	-1.101781
08677		3.765336	20.231377	-1.100688
08678		3.771246	20.227043	-1.101296
08679		3.777007	20.224931	-1.100507
08680		3.781995	20.224178	-1.099587
08681		3.787759	20.223217	-1.096717
08682		3.792456	20.224005	-1.094428
08683		3.796976	20.223189	-1.089533
08684		3.800013	20.221840	-1.088399
08685		3.802551	20.219992	-1.085875
08686		3.805640	20.217258	-1.081173
08687		3.808162	20.212998	-1.077771
08688		3.812177	20.209922	-1.075918
08689		3.814316	20.207844	-1.074766
08690		3.818040	20.207928	-1.072205
08691		3.820536	20.208376	-1.073607
08692		3.824848	20.207807	-1.074772
08693		3.830641	20.204788	-1.073412
08694		3.832658	20.201692	-1.074584
08695		3.833789	20.197770	-1.075538
08696		3.833901	20.195121	-1.073922
08697		3.833182	20.194876	-1.072993
08698		3.829685	20.197590	-1.075624
08699		3.828915	20.197545	-1.075257
08700		3.827372	20.199235	-1.077438
08701		3.827224	20.203422	-1.079829
08702		3.831203	20.203353	-1.082198
08703		3.833007	20.202379	-1.085176
08704		3.834057	20.202629	-1.087724
08705		3.832985	20.205412	-1.089202
08706		3.830810	20.207521	-1.090564
08707		3.828061	20.207243	-1.092922
08708		3.823974	20.207369	-1.090509
08709		3.821321	20.211797	-1.088828
08710		3.823142	20.213142	-1.083806
08711		3.827300	20.213509	-1.080533
08712		3.832692	20.214117	-1.076146
08713		3.835556	20.213800	-1.070816
08714		3.835084	20.215852	-1.067125
08715		3.837151	20.219515	-1.062025
08716		3.838341	20.225325	-1.057837
08717		3.838411	20.230067	-1.053560
08718		3.837265	20.233112	-1.052285
08719		3.838615	20.235619	-1.049156
08720		3.841083	20.238974	-1.045939
08721		3.846914	20.242100	-1.044435
08722		3.852278	20.244903	-1.043936
08723		3.852900	20.244182	-1.041793
08724		3.857963	20.244478	-1.038277
08725		3.858562	20.244581	-1.036660
08726		3.862013	20.248639	-1.033710
08727		3.865252	20.250839	-1.030911
08728		3.869337	20.248811	-1.026466
08729		3.874000	20.246220	-1.019790
08730		3.880338	20.240821	-1.015925
08731		3.886823	20.234742	-1.011575
08732		3.893800	20.228115	-1.008198
08733		3.900239	20.222650	-1.004353
08734		3.905263	20.219471	-1.002421
08735		3.908166	20.215990	-1.000842
08736		3.915795	20.216231	-1.001250
08737		3.925410	20.217738	-1.002713
08738		3.933378	20.217482	-1.001912
08739		3.940429	20.216277	-1.003856
08740		3.947344	20.210801	-1.006945
08741		3.953119	20.204272	-1.010117
08742		3.960374	20.199110	-1.012328
08743		3.967438	20.195114	-1.015703
08744		3.975640	20.188806	-1.020425
08745		3.986341	20.182432	-1.023298
08746		3.999814	20.177767	-1.024583
08747		4.014810	20.170788	-1.023096
08748		4.026328	20.167143	-1.024838
08749		4.039938	20.160067	-1.024914
08750		4.051455	20.154801	-1.026000
08751		4.065382	20.151469	-1.024013
08752		4.079564	20.148470	-1.020973
08753		4.096540	20.141522	-1.016581
08754		4.115617	20.135571	-1.012241
08755		4.134427	20.129937	-1.009260
08756		4.155781	20.125478	-1.007475
08757		4.175904	20.120036	-1.006521
08758		4.195608	20.114247	-1.006230
08759		4.210499	20.109811	-1.006804
08760		4.221043	20.103026	-1.007310
08761		4.224262	20.097313	-1.006852
08762		4.225372	20.095346	-1.005528
08763		4.221451	20.094535	-1.002224
08764		4.214110	20.098903	-0.999662
08765		4.206240	20.102734	-0.995807
08766		4.197889	20.103736	-0.994897
08767		4.190626	20.100338	-0.994957
08768		4.186810	20.096232	-0.995863
08769		4.185788	20.091375	-0.996789
08770		4.187857	20.087458	-0.997638
08771		4.189726	20.083562	-1.002069
08772		4.193433	20.082369	-1.004979
08773		4.193984	20.081911	-1.009197
08774		4.190187	20.083475	-1.012400
08775		4.186148	20.086699	-1.014693
08776		4.182373	20.089301	-1.015326
08777		4.176329	20.090067	-1.016851
08778		4.169605	20.090546	-1.016694
08779		4.161622	20.089640	-1.020254
08780		4.157498	20.086259	-1.019467
08781		4.150957	20.087264	-1.021889
08782		4.146841	20.086313	-1.022086
08783		4.143536	20.085751	-1.023092
08784		4.142706	20.088047	-1.023530
08785		4.142668	20.091378	-1.025097
08786		4.141179	20.094668	-1.027947
08787		4.139777	20.097235	-1.030750
08788		4.137634	20.098510	-1.031802
08789		4.130350	20.102576	-1.032383
08790		4.125942	20.104203	-1.028651
08791		4.120058	20.106088	-1.026644
08792		4.115637	20.107485	-1.025808
08793		4.111706	20.110796	-1.024452
08794		4.112193	20.111685	-1.023285
08795		4.108972	20.116206	-1.022978
08796		4.106853	20.119333	-1.021789
08797		4.105527	20.124712	-1.019441
08798		4.100782	20.127415	-1.020140
08799		4.097840	20.131384	-1.018984
08800		4.096061	20.136444	-1.017575
08801		4.095056	20.141904	-1.017259
08802		4.097859	20.147764	-1.017050
08803		4.101082	20.152008	-1.018217
08804		4.104201	20.155520	-1.019037
08805		4.106153	20.157646	-1.022901
08806		4.108277	20.159408	-1.026024
08807		4.109759	20.163192	-1.029831
08808		4.114165	20.163214	-1.034177
08809		4.114917	20.161970	-1.036851
08810		4.109516	20.161034	-1.035100
08811		4.110228	20.163356	-1.033714
08812		4.107455	20.165854	-1.034281
08813		4.106796	20.166452	-1.033675
08814		4.104981	20.165145	-1.038646
08815		4.105303	20.163593	-1.042992
08816		4.107761	20.166249	-1.048457
08817		4.109951	20.170877	-1.056120
08818		4.112074	20.172986	-1.065356
08819		4.114671	20.172701	-1.075267
08820		4.119070	20.168214	-1.083745
08821		4.115675	20.166043	-1.093744
08822		4.110911	20.163181	-1.101155
08823		4.106048	20.162624	-1.106690
08824		4.101625	20.162738	-1.111318
08825		4.100173	20.160685	-1.118618
08826		4.104593	20.158863	-1.125186
08827		4.105229	20.155414	-1.133818
08828		4.110947	20.147097	-1.139694
08829		4.116160	20.139630	-1.147608
08830		4.124184	20.134671	-1.153787
08831		4.129342	20.132390	-1.161407
08832		4.133769	20.129529	-1.170536
08833		4.138293	20.126660	-1.179808
08834		4.142399	20.124297	-1.190143
08835		4.145677	20.119534	-1.199132
08836		4.149452	20.112808	-1.208696
08837		4.152710	20.107834	-1.211827
08838		4.151894	20.106657	-1.213838
08839		4.150567	20.106865	-1.212155
08840		4.146133	20.107900	-1.205227
08841		4.137599	20.112640	-1.194570
08842		4.126602	20.115951	-1.181805
08843		4.112712	20.118653	-1.169298
08844		4.100731	20.120447	-1.155943
08845		4.092178	20.124609	-1.142218
08846		4.084149	20.131685	-1.130891
08847		4.078223	20.137477	-1.121821
08848		4.073479	20.139826	-1.116425
08849		4.071490	20.139092	-1.110486
08850		4.070021	20.136135	-1.107800
08851		4.068087	20.136795	-1.105051
08852		4.066622	20.137312	-1.100795
08853		4.065268	20.134204	-1.097965
08854		4.061844	20.135491	-1.097071
08855		4.059193	20.136220	-1.096850
08856		4.058719	20.136405	-1.095411
08857		4.056475	20.134893	-1.095674
08858		4.055025	20.134940	-1.097196
08859		4.055054	20.133319	-1.099569
08860		4.052293	20.128865	-1.103277
08861		4.050982	20.128861	-1.104555
08862		4.046578	20.127581	-1.105631
08863		4.040320	20.128123	-1.107552
08864		4.034609	20.130908	-1.108340
08865		4.029334	20.133940	-1.108216
08866		4.020996	20.136522	-1.108013
08867		4.011205	20.137676	-1.108690
08868		4.003187	20.138146	-1.106619
08869		3.997905	20.140451	-1.106273
08870		3.993180	20.142330	-1.106658
08871		3.990829	20.143443	-1.105850
08872		3.990372	20.142586	-1.106962
08873		3.991445	20.143585	-1.107002
08874		3.990333	20.144761	-1.107972
08875		3.988978	20.145746	-1.106983
08876		3.985565	20.147844	-1.106419
08877		3.979682	20.147982	-1.103687
08878		3.974287	20.150511	-1.100382
08879		3.967457	20.152692	-1.095230
08880		3.961724	20.154333	-1.089584
08881		3.957385	20.154319	-1.085455
08882		3.954275	20.152927	-1.079471
08883		3.952956	20.152562	-1.074567
08884		3.952146	20.153723	-1.068553
08885		3.950841	20.154382	-1.060883
08886		3.947069	20.152595	-1.053765
08887		3.943743	20.152134	-1.042993
08888		3.940946	20.152109	-1.033578
08889		3.938851	20.155116	-1.023881
08890		3.934428	20.161266	-1.016056
08891		3.927884	20.167243	-1.008757
08892		3.921169	20.172461	-1.001626
08893		3.910728	20.179663	-0.994721
08894		3.897452	20.186684	-0.987568
08895		3.890189	20.194643	-0.980641
08896		3.885450	20.199673	-0.973360
08897		3.881132	20.202505	-0.967401
08898		3.878038	20.201930	-0.961741
08899		3.871401	20.200925	-0.958398
08900		3.866010	20.203703	-0.952207
08901		3.858829	20.211492	-0.947769
08902		3.848532	20.223084	-0.942389
08903		3.837141	20.233638	-0.936836
08904		3.825543	20.241532	-0.933968
08905		3.815042	20.244244	-0.931928
08906		3.805413	20.246851	-0.929802
08907		3.796848	20.252502	-0.929204
08908		3.788220	20.259058	-0.928664
08909		3.781049	20.263151	-0.928842
08910		3.773736	20.266451	-0.928905
08911		3.766952	20.271191	-0.924801
08912		3.761606	20.277779	-0.923157
08913		3.754783	20.285656	-0.920674
08914		3.745499	20.292627	-0.919338
08915		3.737636	20.299302	-0.913744
08916		3.728335	20.305710	-0.909192
08917		3.719801	20.312655	-0.902745
08918		3.711156	20.321320	-0.897108
08919		3.702569	20.329941	-0.891868
08920		3.693267	20.339024	-0.885433
08921		3.688403	20.348720	-0.877588
08922		3.685990	20.358998	-0.868389
08923		3.680777	20.369665	-0.859212
08924		3.678671	20.378894	-0.845584
08925		3.674796	20.391413	-0.832774
08926		3.669418	20.400611	-0.820258
08927		3.663455	20.410169	-0.807208
08928		3.654793	20.420393	-0.793254
08929		3.647931	20.430021	-0.779659
08930		3.640927	20.440545	-0.766757
08931		3.633128	20.449507	-0.752599
08932		3.629739	20.454232	-0.741137
08933		3.623244	20.458162	-0.729996
08934		3.617242	20.459767	-0.722333
08935		3.612368	20.462888	-0.715068
08936		3.608677	20.464374	-0.709252
08937		3.607727	20.466032	-0.704441
08938		3.608656	20.469951	-0.700435
08939		3.606125	20.470000	-0.699680
08940		3.600834	20.470443	-0.701468
08941		3.596391	20.469717	-0.703157
08942		3.596678	20.466840	-0.704336
08943		3.596026	20.462145	-0.708327
08944		3.597317	20.458923	-0.712309
08945		3.598116	20.455415	-0.714780
08946		3.599061	20.447024	-0.717636
08947		3.601737	20.437383	-0.717867
08948		3.616153	20.425720	-0.719801
08949		3.639233	20.410436	-0.720755
08950		3.661545	20.403917	-0.721501
08951		3.680796	20.406712	-0.720468
08952		3.691602	20.410236	-0.718875
08953		3.688993	20.411449	-0.716219
08954		3.676067	20.413708	-0.709141
08955		3.653726	20.418256	-0.699324
08956		3.621393	20.424609	-0.690780
08957		3.582667	20.437519	-0.684026
08958		3.536601	20.451426	-0.682188
08959		3.489367	20.466451	-0.685076
08960		3.437098	20.475255	-0.688380
08961		3.386927	20.485206	-0.695378
08962		3.333068	20.494004	-0.703745
08963		3.288511	20.504734	-0.721299
08964		3.234125	20.516676	-0.744980
08965		3.175308	20.533293	-0.769572
08966		3.117305	20.551803	-0.792217
08967		3.059822	20.572149	-0.814109
08968		2.998824	20.591426	-0.831281
08969		2.942861	20.607870	-0.847192
08970		2.889077	20.623569	-0.861576
08971		2.835934	20.633495	-0.872446
08972		2.787375	20.642860	-0.879950
08973		2.744164	20.652849	-0.886617
08974		2.711021	20.662285	-0.891454
08975		2.689193	20.670967	-0.894044
08976		2.677704	20.675958	-0.895993
08977		2.680408	20.679663	-0.899030
08978		2.688609	20.685233	-0.900301
08979		2.700535	20.686294	-0.897287
08980		2.716912	20.688506	-0.892751
08981		2.739921	20.691269	-0.879922
08982		2.769016	20.694170	-0.863089
08983		2.803689	20.696590	-0.841250
08984		2.844225	20.697232	-0.814933
08985		2.889066	20.695582	-0.783651
08986		2.935480	20.694551	-0.750373
08987		2.979354	20.693829	-0.719561
08988		3.025750	20.689789	-0.682045
08989		3.067710	20.688583	-0.647588
08990		3.106262	20.686591	-0.614319
08991		3.140999	20.686328	-0.584942
08992		3.169400	20.684653	-0.556293
08993		3.194029	20.682196	-0.530024
08994		3.215560	20.681704	-0.505198
08995		3.234692	20.684869	-0.480003
08996		3.232543	20.688506	-0.455044
08997		3.257443	20.692503	-0.424889
08998		3.262900	20.688623	-0.406401
08999		3.277418	20.690135	-0.392575
09000		3.303389	20.693907	-0.383273
09001		3.330409	20.690726	-0.374056
09002		3.348793	20.681884	-0.367843
09003		3.373893	20.674455	-0.362760
09004		3.400204	20.665400	-0.359073
09005		3.421983	20.652820	-0.356234
09006		3.441669	20.646876	-0.347194
09007		3.451957	20.644622	-0.338906
09008		3.460783	20.639719	-0.330826
09009		3.471355	20.634974	-0.323803
09010		3.481168	20.626489	-0.317180
09011		3.491127	20.615739	-0.315533
09012		3.506914	20.605365	-0.313816
09013		3.525420	20.596427	-0.317088
09014		3.549836	20.584371	-0.321229
09015		3.573815	20.573808	-0.330653
09016		3.598011	20.564164	-0.342770
09017		3.622411	20.556874	-0.355283
09018		3.646363	20.549901	-0.372492
09019		3.671104	20.543244	-0.390751
09020		3.693126	20.535416	-0.410680
09021		3.716573	20.525341	-0.428411
09022		3.732322	20.512917	-0.447742
09023		3.748760	20.502193	-0.463035
09024		3.760784	20.492834	-0.473875
09025		3.767314	20.487776	-0.482612
09026		3.764463	20.484351	-0.490671
09027		3.767943	20.483090	-0.498735
09028		3.772094	20.482812	-0.510723
09029		3.784393	20.478006	-0.525887
09030		3.797542	20.471307	-0.543716
09031		3.812427	20.462689	-0.558551
09032		3.824504	20.455775	-0.570384
09033		3.830057	20.451094	-0.576077
09034		3.829092	20.452269	-0.577003
09035		3.822529	20.456393	-0.572550
09036		3.815892	20.457877	-0.569918
09037		3.814147	20.458768	-0.573295
09038		3.819204	20.457283	-0.578775
09039		3.830050	20.455403	-0.587686
09040		3.844108	20.451797	-0.597789
09041		3.856265	20.445112	-0.606751
09042		3.864006	20.439554	-0.614387
09043		3.867437	20.440614	-0.613927
09044		3.868703	20.446463	-0.609719
09045		3.866769	20.455106	-0.601379
09046		3.866988	20.466390	-0.593506
09047		3.866729	20.472734	-0.588372
09048		3.868695	20.473881	-0.586159
09049		3.876098	20.471161	-0.587110
09050		3.888745	20.470496	-0.590540
09051		3.900796	20.470946	-0.593689
09052		3.910122	20.472096	-0.596054
09053		3.922123	20.472027	-0.595997
09054		3.930080	20.471574	-0.595790
09055		3.938806	20.473629	-0.591086
09056		3.943348	20.477096	-0.584734
09057		3.947286	20.482604	-0.578669
09058		3.950493	20.488511	-0.571405
09059		3.953156	20.492921	-0.565661
09060		3.955746	20.493087	-0.561030
09061		3.961786	20.493796	-0.558460
09062		3.964101	20.491778	-0.556915
09063		3.967822	20.489165	-0.554075
09064		3.970098	20.489009	-0.550322
09065		3.974148	20.489371	-0.544354
09066		3.979038	20.489676	-0.538666
09067		3.983012	20.490023	-0.533288
09068		3.987517	20.488632	-0.524941
09069		3.988946	20.487650	-0.520547
09070		3.992186	20.484165	-0.515375
09071		3.994859	20.482666	-0.510159
09072		3.998460	20.484357	-0.506100
09073		4.003852	20.486314	-0.502996
09074		4.008866	20.486939	-0.503380
09075		4.014401	20.484309	-0.503791
09076		4.019749	20.480966	-0.504511
09077		4.030500	20.476616	-0.503285
09078		4.035239	20.474249	-0.506422
09079		4.039705	20.469233	-0.506318
09080		4.042735	20.463320	-0.507104
09081		4.046501	20.459644	-0.506887
09082		4.049467	20.459882	-0.504253
09083		4.049552	20.458794	-0.501242
09084		4.045536	20.462330	-0.497373
09085		4.039620	20.460973	-0.494899
09086		4.034947	20.460630	-0.491457
09087		4.029406	20.461908	-0.488703
09088		4.023782	20.465702	-0.487011
09089		4.018508	20.468229	-0.484256
09090		4.012557	20.470083	-0.482777
09091		4.002619	20.475084	-0.477013
09092		3.992045	20.480134	-0.476114
09093		3.982223	20.482522	-0.471705
09094		3.969291	20.487676	-0.469000
09095		3.957777	20.492205	-0.464882
09096		3.943543	20.497126	-0.463149
09097		3.932429	20.500882	-0.460413
09098		3.923542	20.506244	-0.460540
09099		3.918452	20.510989	-0.461016
09100		3.914623	20.518895	-0.464877
09101		3.914936	20.522883	-0.469593
09102		3.917112	20.528392	-0.475096
09103		3.917132	20.532128	-0.480632
09104		3.914627	20.535167	-0.484396
09105		3.912217	20.539255	-0.485312
09106		3.910543	20.546182	-0.481709
09107		3.906022	20.553282	-0.478163
09108		3.900708	20.562503	-0.474725
09109		3.898230	20.571733	-0.475250
09110		3.899278	20.576209	-0.474441
09111		3.898511	20.577297	-0.475081
09112		3.898979	20.578454	-0.477894
09113		3.897985	20.578178	-0.481771
09114		3.896476	20.580320	-0.485106
09115		3.893456	20.582878	-0.487290
09116		3.886966	20.583841	-0.490435
09117		3.881232	20.583608	-0.494305
09118		3.873404	20.587818	-0.496887
09119		3.865119	20.594709	-0.498856
09120		3.858620	20.601581	-0.501466
09121		3.848984	20.605742	-0.507172
09122		3.839846	20.608906	-0.510395
09123		3.830934	20.611786	-0.516109
09124		3.823846	20.613717	-0.521673
09125		3.819496	20.614168	-0.527684
09126		3.820659	20.614918	-0.531268
09127		3.818995	20.616672	-0.535175
09128		3.819422	20.619700	-0.535780
09129		3.816272	20.624953	-0.536817
09130		3.812353	20.629063	-0.536152
09131		3.807835	20.634302	-0.535238
09132		3.804530	20.638251	-0.532487
09133		3.801396	20.638655	-0.531100
09134		3.792179	20.640446	-0.530795
09135		3.785320	20.644767	-0.530963
09136		3.778129	20.650429	-0.532134
09137		3.771692	20.656633	-0.531319
09138		3.768757	20.659041	-0.529888
09139		3.769689	20.658077	-0.530522
09140		3.768403	20.656754	-0.528436
09141		3.767196	20.660529	-0.525585
09142		3.764955	20.663335	-0.525267
09143		3.764546	20.665314	-0.528720
09144		3.764419	20.665020	-0.532932
09145		3.759334	20.662627	-0.537171
09146		3.752920	20.660905	-0.542179
09147		3.750603	20.662572	-0.541484
09148		3.747437	20.664404	-0.543795
09149		3.743131	20.666851	-0.547177
09150		3.742008	20.665835	-0.551150
09151		3.740687	20.664344	-0.555925
09152		3.737585	20.664307	-0.560429
09153		3.735244	20.664909	-0.562976
09154		3.733831	20.665184	-0.568493
09155		3.730168	20.665415	-0.572044
09156		3.722335	20.667186	-0.573639
09157		3.712065	20.670316	-0.574093
09158		3.705527	20.671521	-0.574378
09159		3.700372	20.672953	-0.573944
09160		3.697821	20.674628	-0.574166
09161		3.698740	20.674390	-0.575307
09162		3.700248	20.675474	-0.577993
09163		3.698579	20.677212	-0.582177
09164		3.694085	20.674759	-0.583786
09165		3.692288	20.674611	-0.580853
09166		3.689651	20.675731	-0.577878
09167		3.692412	20.678316	-0.574214
09168		3.698340	20.678608	-0.568353
09169		3.708401	20.678501	-0.561708
09170		3.719695	20.678444	-0.557332
09171		3.734413	20.676798	-0.550770
09172		3.748411	20.678587	-0.547972
09173		3.763094	20.679322	-0.542823
09174		3.776160	20.678515	-0.541982
09175		3.790764	20.669269	-0.542142
09176		3.803667	20.656062	-0.546079
09177		3.815101	20.637909	-0.553082
09178		3.823203	20.615475	-0.562431
09179		3.825034	20.591065	-0.569355
09180		3.827553	20.567591	-0.580621
09181		3.829486	20.550409	-0.590350
09182		3.836367	20.533399	-0.603012
09183		3.838666	20.504435	-0.616617
09184		3.839214	20.459603	-0.625101
09185		3.845389	20.403428	-0.629998
09186		3.858109	20.336658	-0.630590
09187		3.896310	20.268611	-0.624085
09188		3.956274	20.196437	-0.614548
09189		4.041751	20.127640	-0.609941
09190		4.144463	20.076669	-0.607603
09191		4.257312	20.048059	-0.601383
09192		4.370822	20.040761	-0.588754
09193		4.466194	20.053197	-0.570624
09194		4.530472	20.065103	-0.551165
09195		4.561614	20.074518	-0.527455
09196		4.569418	20.079038	-0.503626
09197		4.555361	20.077224	-0.478169
09198		4.538703	20.070482	-0.459191
09199		4.520844	20.062611	-0.447264
09200		4.509155	20.056074	-0.444804
09201		4.519913	20.050983	-0.450217
09202		4.538202	20.039897	-0.463718
09203		4.563358	20.022812	-0.484563
09204		4.586445	20.004885	-0.508772
09205		4.610234	19.989257	-0.532190
09206		4.622974	19.972896	-0.555721
09207		4.630583	19.959727	-0.575356
09208		4.629414	19.952833	-0.593764
09209		4.626419	19.950931	-0.607852
09210		4.614295	19.951625	-0.620195
09211		4.600299	19.951678	-0.632308
09212		4.586836	19.948075	-0.643975
09213		4.571213	19.945121	-0.650478
09214		4.554815	19.942546	-0.655859
09215		4.542510	19.942326	-0.658449
09216		4.535265	19.939577	-0.659232
09217		4.530052	19.934194	-0.659190
09218		4.528032	19.926501	-0.656636
09219		4.527504	19.918289	-0.652173
09220		4.532636	19.910587	-0.645216
09221		4.538685	19.902933	-0.642378
09222		4.549555	19.898478	-0.637360
09223		4.561797	19.893326	-0.637759
09224		4.573728	19.886145	-0.641406
09225		4.584519	19.878770	-0.645839
09226		4.592580	19.870868	-0.652397
09227		4.601855	19.865254	-0.659285
09228		4.607573	19.863100	-0.666365
09229		4.614181	19.862945	-0.674897
09230		4.617384	19.863529	-0.678334
09231		4.619942	19.867118	-0.678790
09232		4.619228	19.872051	-0.677366
09233		4.616946	19.877450	-0.675149
09234		4.610409	19.883416	-0.670592
09235		4.605203	19.889654	-0.672401
09236		4.596798	19.897189	-0.678444
09237		4.587925	19.905628	-0.687003
09238		4.576090	19.914144	-0.698595
09239		4.560541	19.921095	-0.712425
09240		4.545419	19.929520	-0.725189
09241		4.527690	19.934401	-0.735559
09242		4.505298	19.942221	-0.742668
09243		4.484440	19.951080	-0.748324
09244		4.464527	19.962052	-0.751639
09245		4.444754	19.971290	-0.753950
09246		4.423075	19.977069	-0.754286
09247		4.404250	19.981151	-0.758368
09248		4.388686	19.985413	-0.760622
09249		4.375048	19.989998	-0.763229
09250		4.361501	19.995724	-0.765947
09251		4.349771	20.001676	-0.769727
09252		4.339697	20.010485	-0.768550
09253		4.327731	20.020983	-0.768439
09254		4.320646	20.028749	-0.766630
09255		4.311415	20.029577	-0.766380
09256		4.302804	20.029244	-0.766276
09257		4.294599	20.030770	-0.766092
09258		4.285451	20.033836	-0.769391
09259		4.271745	20.038382	-0.772545
09260		4.257198	20.043371	-0.775043
09261		4.242236	20.050910	-0.780523
09262		4.222741	20.060331	-0.785194
09263		4.202836	20.069873	-0.791633
09264		4.180348	20.079521	-0.796617
09265		4.158705	20.087932	-0.801883
09266		4.136210	20.096768	-0.806541
09267		4.113680	20.103321	-0.807303
09268		4.093632	20.112901	-0.807174
09269		4.074288	20.123073	-0.805295
09270		4.058416	20.135350	-0.802045
09271		4.039091	20.147273	-0.800979
09272		4.016660	20.160165	-0.800432
09273		3.994492	20.170390	-0.801568
09274		3.970297	20.178891	-0.805253
09275		3.947989	20.190130	-0.810771
09276		3.928191	20.195977	-0.815014
09277		3.907901	20.203007	-0.818200
09278		3.888105	20.208852	-0.822447
09279		3.870812	20.216465	-0.825719
09280		3.851614	20.224582	-0.828898
09281		3.829512	20.231343	-0.831940
09282		3.807590	20.237588	-0.833560
09283		3.779110	20.242979	-0.834119
09284		3.751755	20.247099	-0.833286
09285		3.727191	20.254894	-0.831376
09286		3.702162	20.263237	-0.831149
09287		3.681114	20.268090	-0.832771
09288		3.662716	20.269077	-0.836877
09289		3.648583	20.269406	-0.843235
09290		3.636633	20.274057	-0.850367
09291		3.623115	20.278294	-0.856274
09292		3.609364	20.288528	-0.861933
09293		3.595736	20.293675	-0.869176
09294		3.580961	20.300749	-0.873594
09295		3.564896	20.305299	-0.874832
09296		3.548845	20.312157	-0.873337
09297		3.530535	20.318981	-0.869708
09298		3.511929	20.326177	-0.863615
09299		3.494390	20.332478	-0.857461
09300		3.477944	20.340932	-0.847783
09301		3.465783	20.346962	-0.839280
09302		3.452046	20.354866	-0.830153
09303		3.441513	20.363190	-0.820310
09304		3.430060	20.370475	-0.809760
09305		3.417585	20.374759	-0.801787
09306		3.405564	20.382192	-0.793319
09307		3.388007	20.390471	-0.784420
09308		3.369598	20.400707	-0.775649
09309		3.350168	20.407942	-0.769460
09310		3.330484	20.418732	-0.762012
09311		3.311515	20.428389	-0.758676
09312		3.293097	20.437770	-0.756468
09313		3.278466	20.447320	-0.755392
09314		3.262466	20.455814	-0.754601
09315		3.245098	20.463482	-0.752077
09316		3.228959	20.471438	-0.748108
09317		3.214775	20.481197	-0.742148
09318		3.194392	20.491602	-0.733621
09319		3.175724	20.502568	-0.723145
09320		3.156648	20.514854	-0.714324
09321		3.140060	20.526899	-0.707565
09322		3.127131	20.540897	-0.701953
09323		3.112396	20.552316	-0.698743
09324		3.101588	20.564286	-0.695072
09325		3.088915	20.579452	-0.692981
09326		3.079709	20.594439	-0.688487
09327		3.073895	20.611120	-0.683679
09328		3.065106	20.624559	-0.680475
09329		3.049864	20.633828	-0.677901
09330		3.023193	20.641061	-0.676477
09331		2.994061	20.646169	-0.676346
09332		2.962962	20.653558	-0.680301
09333		2.933950	20.659110	-0.683469
09334		2.907445	20.669294	-0.686269
09335		2.887923	20.675724	-0.687674
09336		2.873774	20.679447	-0.688695
09337		2.861134	20.682289	-0.691422
09338		2.844992	20.686158	-0.692671
09339		2.830059	20.689659	-0.696992
09340		2.814341	20.693585	-0.700212
09341		2.797345	20.699825	-0.702498
09342		2.784784	20.704956	-0.702015
09343		2.773486	20.708835	-0.703729
09344		2.765335	20.712928	-0.704419
09345		2.761316	20.716647	-0.704433
09346		2.757860	20.719235	-0.705080
09347		2.754736	20.722098	-0.705376
09348		2.752982	20.723398	-0.706320
09349		2.748766	20.724109	-0.709246
09350		2.744287	20.722740	-0.708284
09351		2.740416	20.722234	-0.709207
09352		2.740949	20.723729	-0.709052
09353		2.744892	20.727638	-0.708658
09354		2.752844	20.729494	-0.710015
09355		2.761883	20.727990	-0.709875
09356		2.767531	20.726428	-0.710952
09357		2.773273	20.723179	-0.711363
09358		2.775933	20.722639	-0.713128
09359		2.778894	20.725903	-0.712436
09360		2.782021	20.730348	-0.711346
09361		2.784700	20.733328	-0.711547
09362		2.783806	20.734028	-0.709194
09363		2.782649	20.735472	-0.704917
09364		2.778637	20.739084	-0.701106
09365		2.777495	20.742835	-0.697796
09366		2.779606	20.744129	-0.695441
09367		2.782445	20.743505	-0.696743
09368		2.788118	20.743558	-0.698501
09369		2.791837	20.741397	-0.699918
09370		2.794498	20.739246	-0.700989
09371		2.794953	20.737677	-0.703793
09372		2.795164	20.732385	-0.701750
09373		2.794836	20.731409	-0.700373
09374		2.796793	20.730474	-0.701035
09375		2.801851	20.731654	-0.702528
09376		2.808518	20.730027	-0.703478
09377		2.813602	20.727918	-0.703185
09378		2.819138	20.728254	-0.702104
09379		2.827412	20.733016	-0.700514
09380		2.836680	20.736852	-0.694671
09381		2.841490	20.738714	-0.690323
09382		2.847299	20.736969	-0.687338
09383		2.852510	20.736298	-0.683889
09384		2.856315	20.733886	-0.680794
09385		2.863127	20.732003	-0.678478
09386		2.874376	20.730772	-0.677218
09387		2.886738	20.730238	-0.676239
09388		2.895016	20.732442	-0.676706
09389		2.898664	20.735970	-0.677409
09390		2.900531	20.740953	-0.677644
09391		2.897543	20.746182	-0.678220
09392		2.891120	20.750580	-0.679920
09393		2.883844	20.755791	-0.681909
09394		2.875994	20.761005	-0.682107
09395		2.868407	20.766647	-0.685522
09396		2.860709	20.771582	-0.688556
09397		2.851824	20.777041	-0.693137
09398		2.848271	20.780615	-0.698188
09399		2.843487	20.783879	-0.704712
09400		2.840657	20.787851	-0.710859
09401		2.834538	20.793495	-0.715921
09402		2.826836	20.797622	-0.718614
09403		2.819271	20.803170	-0.721818
09404		2.813589	20.809578	-0.725308
09405		2.810184	20.812221	-0.729714
09406		2.813029	20.808993	-0.733255
09407		2.817995	20.803961	-0.735739
09408		2.816959	20.800013	-0.735366
09409		2.824446	20.797480	-0.733081
09410		2.843279	20.789935	-0.733333
09411		2.864456	20.780866	-0.732049
09412		2.882560	20.776235	-0.725710
09413		2.899611	20.773743	-0.720674
09414		2.912589	20.773760	-0.713823
09415		2.922044	20.768387	-0.707178
09416		2.926941	20.760077	-0.697500
09417		2.934443	20.748455	-0.687619
09418		2.943747	20.735898	-0.677710
09419		2.957890	20.727452	-0.670394
09420		2.972831	20.718370	-0.666405
09421		2.990636	20.707866	-0.662276
09422		3.002866	20.695210	-0.662939
09423		3.020018	20.681878	-0.663265
09424		3.034978	20.669487	-0.664789
09425		3.052067	20.661708	-0.668323
09426		3.062098	20.657726	-0.673877
09427		3.072221	20.656149	-0.680809
09428		3.087139	20.650414	-0.689122
09429		3.100037	20.646575	-0.695334
09430		3.107056	20.641187	-0.700563
09431		3.110412	20.637162	-0.706187
09432		3.116947	20.639170	-0.716580
09433		3.126409	20.638954	-0.733387
09434		3.142187	20.631874	-0.755842
09435		3.167692	20.622334	-0.781441
09436		3.196716	20.609225	-0.809979
09437		3.228112	20.593954	-0.829147
09438		3.252684	20.575282	-0.842911
09439		3.269677	20.555603	-0.852347
09440		3.281724	20.540148	-0.859756
09441		3.288871	20.526599	-0.868603
09442		3.297120	20.514372	-0.880686
09443		3.308160	20.500112	-0.896234
09444		3.326699	20.485295	-0.916128
09445		3.352252	20.466950	-0.937946
09446		3.380438	20.446528	-0.959507
09447		3.410187	20.430143	-0.977473
09448		3.436331	20.413967	-0.994129
09449		3.457039	20.399875	-1.006631
09450		3.466633	20.390370	-1.018769
09451		3.468440	20.381907	-1.027916
09452		3.463167	20.374555	-1.034455
09453		3.461853	20.367027	-1.037480
09454		3.464831	20.353041	-1.039470
09455		3.471827	20.341386	-1.038712
09456		3.482489	20.331461	-1.035811
09457		3.496170	20.322375	-1.029492
09458		3.511399	20.313676	-1.024727
09459		3.524272	20.305739	-1.018595
09460		3.534298	20.298424	-1.011946
09461		3.543721	20.295461	-1.006396
09462		3.553265	20.294746	-1.004546
09463		3.562368	20.292576	-1.004167
09464		3.572365	20.290320	-1.003591
09465		3.581702	20.284612	-1.004132
09466		3.591701	20.282356	-1.003557
09467		3.602856	20.280749	-1.002942
09468		3.619146	20.277643	-1.000445
09469		3.627339	20.272010	-0.994377
09470		3.634088	20.265350	-0.989302
09471		3.638759	20.259957	-0.985413
09472		3.641823	20.260350	-0.982668
09473		3.644796	20.262695	-0.981430
09474		3.647077	20.265317	-0.982644
09475		3.651980	20.264425	-0.991487
09476		3.659026	20.260910	-1.001466
09477		3.665451	20.256983	-1.010368
09478		3.673785	20.254552	-1.019699
09479		3.683705	20.256064	-1.024950
09480		3.693414	20.256929	-1.030624
09481		3.704450	20.252676	-1.036636
09482		3.714596	20.249577	-1.042566
09483		3.724151	20.247667	-1.047957
09484		3.732637	20.246430	-1.049914
09485		3.740760	20.245981	-1.053848
09486		3.751807	20.246100	-1.054169
09487		3.764445	20.245344	-1.055924
09488		3.775152	20.243730	-1.060458
09489		3.787019	20.241169	-1.064154
09490		3.795979	20.239204	-1.067723
09491		3.805668	20.240544	-1.073819
09492		3.812169	20.241051	-1.076694
09493		3.818153	20.240949	-1.082097
09494		3.824840	20.238775	-1.086774
09495		3.831647	20.235672	-1.090969
09496		3.840817	20.232649	-1.097015
09497		3.852590	20.227851	-1.103937
09498		3.862166	20.222704	-1.114941
09499		3.869373	20.215121	-1.123001
09500		3.876955	20.205830	-1.128534
09501		3.880406	20.196908	-1.131747
09502		3.878536	20.191090	-1.133753
09503		3.879792	20.185584	-1.132140
09504		3.881295	20.183747	-1.130587
09505		3.882952	20.185629	-1.127016
09506		3.887326	20.190341	-1.124990
09507		3.894110	20.196009	-1.122123
09508		3.903299	20.199867	-1.116332
09509		3.912376	20.207147	-1.109421
09510		3.918800	20.209898	-1.102450
09511		3.925642	20.212216	-1.094016
09512		3.933837	20.211862	-1.082631
09513		3.939705	20.213279	-1.073563
09514		3.947685	20.217445	-1.065072
09515		3.959529	20.224285	-1.058694
09516		3.973243	20.232253	-1.060061
09517		3.986540	20.237827	-1.062276
09518		4.000886	20.239150	-1.065701
09519		4.015862	20.239737	-1.070434
09520		4.034718	20.240100	-1.074976
09521		4.054916	20.239862	-1.078457
09522		4.072753	20.238669	-1.082446
09523		4.088749	20.238858	-1.083265
09524		4.106460	20.241738	-1.082104
09525		4.120788	20.243792	-1.078844
09526		4.136768	20.244464	-1.072030
09527		4.150341	20.244458	-1.066914
09528		4.163033	20.244970	-1.061338
09529		4.173746	20.242539	-1.058672
09530		4.177743	20.238224	-1.057822
09531		4.182218	20.235017	-1.055798
09532		4.180449	20.233007	-1.055498
09533		4.180067	20.230441	-1.053848
09534		4.178364	20.230631	-1.050540
09535		4.176262	20.229802	-1.045045
09536		4.172587	20.230690	-1.038305
09537		4.168870	20.232849	-1.032473
09538		4.163218	20.237095	-1.027329
09539		4.160581	20.237387	-1.024558
09540		4.154803	20.237232	-1.025428
09541		4.154452	20.236316	-1.024450
09542		4.153516	20.237737	-1.022556
09543		4.151494	20.236339	-1.019838
09544		4.147697	20.232826	-1.019112
09545		4.143252	20.230680	-1.021983
09546		4.136459	20.229772	-1.022642
09547		4.126368	20.228308	-1.024340
09548		4.113992	20.226211	-1.027021
09549		4.102456	20.226054	-1.031845
09550		4.087302	20.222844	-1.033359
09551		4.069940	20.216162	-1.034741
09552		4.049962	20.209524	-1.034324
09553		4.029897	20.207135	-1.033022
09554		4.016623	20.208696	-1.029479
09555		4.012614	20.214596	-1.026761
09556		4.021889	20.223327	-1.022967
09557		4.048460	20.232279	-1.013681
09558		4.081446	20.237925	-1.004237
09559		4.126561	20.240429	-0.992784
09560		4.175643	20.239472	-0.978953
09561		4.221237	20.234715	-0.965907
09562		4.259441	20.230656	-0.950918
09563		4.287987	20.229032	-0.936615
09564		4.307332	20.228589	-0.920157
09565		4.323517	20.228706	-0.905126
09566		4.334302	20.231297	-0.892755
09567		4.345365	20.233580	-0.883621
09568		4.355831	20.233637	-0.875124
09569		4.367705	20.229997	-0.867080
09570		4.380342	20.225873	-0.863479
09571		4.396139	20.224717	-0.860980
09572		4.414649	20.224777	-0.859493
09573		4.430890	20.220721	-0.861527
09574		4.443727	20.213920	-0.859736
09575		4.457002	20.209055	-0.857430
09576		4.465338	20.204827	-0.855210
09577		4.469515	20.200202	-0.850153
09578		4.469033	20.196587	-0.844201
09579		4.467702	20.191283	-0.837056
09580		4.465962	20.187157	-0.828088
09581		4.463565	20.185829	-0.819794
09582		4.463395	20.185791	-0.814312
09583		4.464366	20.187282	-0.809407
09584		4.467990	20.187493	-0.804615
09585		4.474258	20.188404	-0.801814
09586		4.483373	20.185409	-0.800997
09587		4.492573	20.180741	-0.799523
09588		4.500365	20.174227	-0.798367
09589		4.505162	20.164774	-0.800307
09590		4.503917	20.162833	-0.801973
09591		4.499760	20.163477	-0.805295
09592		4.495333	20.167627	-0.806876
09593		4.491396	20.169361	-0.810051
09594		4.490467	20.170997	-0.812185
09595		4.491697	20.170080	-0.812686
09596		4.491173	20.166366	-0.818429
09597		4.492857	20.164076	-0.824263
09598		4.489841	20.163057	-0.833334
09599		4.484033	20.166155	-0.843988
09600		4.477074	20.171850	-0.856248
09601		4.472527	20.178763	-0.871739
09602		4.467587	20.184582	-0.887750
09603		4.461682	20.189555	-0.904010
09604		4.455660	20.190560	-0.918142
09605		4.449135	20.192738	-0.931055
09606		4.441610	20.194754	-0.947719
09607		4.432606	20.194250	-0.961944
09608		4.422558	20.196046	-0.972922
09609		4.413069	20.197664	-0.982389
09610		4.404274	20.197878	-0.987693
09611		4.398145	20.199368	-0.991377
09612		4.394928	20.200211	-0.998305
09613		4.394460	20.199911	-1.001727
09614		4.391177	20.196122	-1.010647
09615		4.387973	20.193089	-1.020288
09616		4.384470	20.191399	-1.031080
09617		4.380380	20.190829	-1.041175
09618		4.375910	20.192202	-1.049433
09619		4.372897	20.193716	-1.056115
09620		4.370454	20.194981	-1.064112
09621		4.367669	20.198324	-1.067053
09622		4.361238	20.204200	-1.069579
09623		4.356522	20.210587	-1.069676
09624		4.349830	20.215896	-1.069064
09625		4.344992	20.216639	-1.067179
09626		4.335443	20.216765	-1.063741
09627		4.323575	20.217802	-1.062308
09628		4.313088	20.223427	-1.057352
09629		4.298195	20.228644	-1.054439
09630		4.287967	20.234606	-1.048618
09631		4.279190	20.241002	-1.045367
09632		4.275313	20.248025	-1.042232
09633		4.271561	20.252016	-1.041431
09634		4.268633	20.253770	-1.043815
09635		4.267806	20.252999	-1.045025
09636		4.265110	20.252886	-1.049537
09637		4.265188	20.249819	-1.054195
09638		4.262940	20.245511	-1.054954
09639		4.259249	20.245164	-1.056278
09640		4.259330	20.244911	-1.053587
09641		4.258799	20.245776	-1.050343
09642		4.262407	20.243834	-1.048515
09643		4.271250	20.244653	-1.043257
09644		4.281948	20.241765	-1.044166
09645		4.296358	20.237976	-1.045872
09646		4.310134	20.236786	-1.051060
09647		4.322006	20.232603	-1.058850
09648		4.325636	20.229732	-1.068360
09649		4.319194	20.227896	-1.075960
09650		4.303605	20.229595	-1.081678
09651		4.284902	20.230651	-1.080026
09652		4.267237	20.230371	-1.077333
09653		4.251289	20.230859	-1.076316
09654		4.242000	20.230734	-1.075691
09655		4.234713	20.230360	-1.078960
09656		4.231791	20.230721	-1.084671
09657		4.235060	20.231823	-1.094200
09658		4.243553	20.230797	-1.104903
09659		4.250118	20.225203	-1.117653
09660		4.254265	20.220803	-1.128405
09661		4.251154	20.215573	-1.140781
09662		4.245396	20.212365	-1.144343
09663		4.235842	20.213084	-1.145283
09664		4.223541	20.216928	-1.142755
09665		4.212512	20.221000	-1.140053
09666		4.203705	20.221314	-1.133704
09667		4.195819	20.222187	-1.132316
09668		4.188281	20.221394	-1.128292
09669		4.179915	20.219109	-1.127132
09670		4.174691	20.219591	-1.126311
09671		4.171486	20.221957	-1.126302
09672		4.169104	20.226007	-1.127633
09673		4.169385	20.228934	-1.125973
09674		4.170494	20.229454	-1.123479
09675		4.170995	20.229221	-1.115322
09676		4.169249	20.226758	-1.107016
09677		4.163588	20.227695	-1.100753
09678		4.158092	20.231218	-1.090493
09679		4.149510	20.236797	-1.081978
09680		4.143546	20.242081	-1.074461
09681		4.138764	20.247189	-1.066339
09682		4.135071	20.251901	-1.057348
09683		4.135580	20.253374	-1.050085
09684		4.134154	20.253909	-1.045925
09685		4.130157	20.255565	-1.040851
09686		4.125703	20.257060	-1.037437
09687		4.117549	20.259742	-1.034137
09688		4.108063	20.263917	-1.032420
09689		4.100532	20.267738	-1.030895
09690		4.093870	20.273859	-1.030650
09691		4.087911	20.278121	-1.026740
09692		4.082460	20.280479	-1.023801
09693		4.080527	20.278863	-1.016564
09694		4.077854	20.279926	-1.013739
09695		4.074081	20.279014	-1.010657
09696		4.069096	20.277406	-1.007952
09697		4.061537	20.275441	-1.003597
09698		4.054834	20.278322	-1.001997
09699		4.052878	20.280782	-0.997070
09700		4.051484	20.282946	-0.993581
09701		4.049042	20.287074	-0.991491
09702		4.049426	20.288803	-0.988591
09703		4.050251	20.290212	-0.988003
09704		4.047832	20.289403	-0.987292
09705		4.045345	20.289750	-0.987697
09706		4.037379	20.290130	-0.990081
09707		4.031903	20.290690	-0.990552
09708		4.022196	20.293936	-0.993367
09709		4.013372	20.297549	-0.997270
09710		4.000841	20.298847	-0.998617
09711		3.985432	20.301060	-1.000417
09712		3.970614	20.301305	-1.002565
09713		3.956217	20.301023	-1.002952
09714		3.945717	20.302225	-1.004022
09715		3.938216	20.304618	-1.005710
09716		3.931296	20.306570	-1.008633
09717		3.924528	20.310206	-1.012153
09718		3.918097	20.312026	-1.013009
09719		3.911543	20.312683	-1.014191
09720		3.906626	20.315134	-1.013181
09721		3.901107	20.317876	-1.011018
09722		3.895904	20.319773	-1.006876
09723		3.886257	20.321817	-1.001201
09724		3.874933	20.323786	-0.993900
09725		3.859716	20.325708	-0.986637
09726		3.850178	20.330273	-0.977289
09727		3.842824	20.333841	-0.966860
09728		3.837622	20.337962	-0.959743
09729		3.837884	20.344507	-0.952026
09730		3.835500	20.349766	-0.946035
09731		3.828692	20.352042	-0.940874
09732		3.816947	20.358199	-0.937350
09733		3.805304	20.362724	-0.933084
09734		3.790283	20.369495	-0.931188
09735		3.773366	20.375522	-0.929009
09736		3.754506	20.380395	-0.925791
09737		3.731661	20.383699	-0.922576
09738		3.707459	20.389073	-0.917275
09739		3.682883	20.395726	-0.906313
09740		3.659939	20.400590	-0.899668
09741		3.643222	20.405087	-0.891923
09742		3.624614	20.409504	-0.887505
09743		3.609166	20.409869	-0.884792
09744		3.600504	20.412265	-0.887127
09745		3.598397	20.417313	-0.892511
09746		3.593647	20.421204	-0.903818
09747		3.586573	20.426862	-0.917758
09748		3.579324	20.431780	-0.931761
09749		3.571153	20.433653	-0.948711
09750		3.561587	20.432046	-0.965110
09751		3.550155	20.426705	-0.983713
09752		3.534227	20.418752	-1.003069
09753		3.514380	20.412420	-1.019434
09754		3.493643	20.411909	-1.033741
09755		3.468234	20.416333	-1.041479
09756		3.439853	20.421318	-1.049282
09757		3.415409	20.426356	-1.053387
09758		3.390262	20.430539	-1.055566
09759		3.367517	20.431848	-1.059192
09760		3.348216	20.432379	-1.063989
09761		3.330691	20.433617	-1.070037
09762		3.307909	20.437632	-1.078715
09763		3.286076	20.442836	-1.088455
09764		3.261271	20.446934	-1.097421
09765		3.232309	20.453044	-1.104523
09766		3.204705	20.456805	-1.112716
09767		3.178253	20.461010	-1.116584
09768		3.148850	20.467435	-1.121254
09769		3.120575	20.470550	-1.124156
09770		3.095938	20.475414	-1.124630
09771		3.072484	20.480973	-1.124921
09772		3.051664	20.486125	-1.126030
09773		3.036529	20.487081	-1.126484
09774		3.021298	20.486618	-1.130354
09775		3.008438	20.487920	-1.133954
09776		2.990921	20.490241	-1.136374
09777		2.971516	20.495619	-1.136138
09778		2.951967	20.501882	-1.136600
09779		2.930542	20.510627	-1.138292
09780		2.905426	20.519458	-1.138607
09781		2.887219	20.525173	-1.137887
09782		2.874519	20.530793	-1.138199
09783		2.867573	20.535376	-1.138861
09784		2.866023	20.536671	-1.139820
09785		2.865650	20.535670	-1.143349
09786		2.866902	20.537298	-1.145079
09787		2.864701	20.537441	-1.144472
09788		2.858556	20.542695	-1.141846
09789		2.854021	20.545475	-1.140056
09790		2.853206	20.547817	-1.138434
09791		2.853021	20.546137	-1.136729
09792		2.855000	20.542530	-1.137072
09793		2.858090	20.538745	-1.137225
09794		2.862598	20.537367	-1.136256
09795		2.869723	20.536466	-1.133189
09796		2.873219	20.540604	-1.130822
09797		2.881664	20.543420	-1.128020
09798		2.888177	20.545010	-1.124163
09799		2.893755	20.548926	-1.121794
09800		2.900028	20.550167	-1.118797
09801		2.909740	20.549282	-1.117214
09802		2.919356	20.545453	-1.118451
09803		2.927547	20.544723	-1.119333
09804		2.937407	20.546717	-1.118165
09805		2.944552	20.546765	-1.115502
09806		2.946740	20.544938	-1.111697
09807		2.946754	20.545810	-1.106258
09808		2.949471	20.548720	-1.102479
09809		2.956383	20.551446	-1.097802
09810		2.967516	20.554557	-1.095971
09811		2.980306	20.557566	-1.095818
09812		2.991686	20.555551	-1.094672
09813		3.001678	20.554207	-1.091621
09814		3.009506	20.554668	-1.090045
09815		3.015444	20.554300	-1.088010
09816		3.023032	20.554413	-1.087292
09817		3.029868	20.553300	-1.085645
09818		3.035924	20.549525	-1.085402
09819		3.043923	20.547440	-1.082015
09820		3.055869	20.552589	-1.081934
09821		3.068059	20.557022	-1.076792
09822		3.080388	20.559447	-1.069608
09823		3.087247	20.558813	-1.063685
09824		3.091926	20.555166	-1.056824
09825		3.096688	20.553826	-1.051304
09826		3.103485	20.551901	-1.048829
09827		3.114864	20.548003	-1.051270
09828		3.129945	20.542272	-1.057825
09829		3.149717	20.537017	-1.061711
09830		3.167275	20.528670	-1.064859
09831		3.184927	20.516260	-1.066002
09832		3.205515	20.506177	-1.068013
09833		3.232894	20.497500	-1.071538
09834		3.258386	20.491729	-1.075752
09835		3.273159	20.497004	-1.080926
09836		3.273500	20.509799	-1.083688
09837		3.254333	20.523475	-1.082196
09838		3.208219	20.539022	-1.078518
09839		3.143635	20.553704	-1.069543
09840		3.068947	20.568385	-1.061421
09841		2.994477	20.582984	-1.052798
09842		2.930091	20.594430	-1.049772
09843		2.879585	20.606988	-1.055615
09844		2.829815	20.621198	-1.071483
09845		2.786689	20.635796	-1.085070
09846		2.746022	20.653503	-1.097371
09847		2.708573	20.676669	-1.111707
09848		2.672484	20.698949	-1.123470
09849		2.638155	20.721172	-1.136343
09850		2.610351	20.739609	-1.157118
09851		2.583125	20.750709	-1.176648
09852		2.560683	20.767849	-1.199100
09853		2.540880	20.776177	-1.223494
09854		2.526093	20.786819	-1.247968
09855		2.514114	20.794586	-1.272414
09856		2.490606	20.798181	-1.293021
09857		2.467554	20.805923	-1.301258
09858		2.458262	20.816765	-1.306452
09859		2.454592	20.827173	-1.308886
09860		2.467828	20.833538	-1.308068
09861		2.492324	20.837889	-1.309174
09862		2.532976	20.835375	-1.304641
09863		2.584917	20.829959	-1.296928
09864		2.649395	20.824894	-1.286075
09865		2.721756	20.817316	-1.270158
09866		2.796731	20.810606	-1.247376
09867		2.870826	20.801523	-1.219440
09868		2.948115	20.795657	-1.183038
09869		3.025593	20.792177	-1.143405
09870		3.103118	20.789628	-1.103561
09871		3.179456	20.784819	-1.059442
09872		3.251103	20.778709	-1.017927
09873		3.317772	20.770368	-0.980212
09874		3.381107	20.761901	-0.943751
09875		3.435996	20.753211	-0.914113
09876		3.487505	20.744272	-0.885936
09877		3.530186	20.736733	-0.858520
09878		3.567639	20.726220	-0.830627
09879		3.602554	20.714232	-0.805007
09880		3.634953	20.701658	-0.780853
09881		3.664358	20.689879	-0.757621
09882		3.694741	20.678983	-0.734479
09883		3.722646	20.670394	-0.710745
09884		3.747237	20.664926	-0.689739
09885		3.775977	20.659196	-0.668135
09886		3.801137	20.654606	-0.649389
09887		3.827527	20.646123	-0.628121
09888		3.855698	20.634307	-0.609817
09889		3.888151	20.620048	-0.593285
09890		3.920567	20.607664	-0.581993
09891		3.952455	20.595946	-0.573513
09892		3.979929	20.582560	-0.570281
09893		4.009425	20.569774	-0.571798
09894		4.037765	20.555409	-0.572922
09895		4.062641	20.541170	-0.576777
09896		4.087006	20.527187	-0.582505
09897		4.113855	20.515840	-0.587636
09898		4.137463	20.503057	-0.593006
09899		4.163204	20.489334	-0.597637
09900		4.189596	20.473661	-0.602396
09901		4.214662	20.461959	-0.606547
09902		4.241367	20.449881	-0.611811
09903		4.270515	20.438011	-0.615432
09904		4.298267	20.426714	-0.620889
09905		4.325027	20.415756	-0.626561
09906		4.345640	20.404742	-0.633104
09907		4.361245	20.394695	-0.640930
09908		4.373212	20.387968	-0.648493
09909		4.387850	20.380129	-0.652685
09910		4.397262	20.375827	-0.659665
09911		4.404488	20.373307	-0.664419
09912		4.407692	20.370638	-0.669030
09913		4.406191	20.370870	-0.674474
09914		4.402514	20.370435	-0.679980
09915		4.394176	20.371379	-0.685147
09916		4.389245	20.370642	-0.691668
09917		4.381596	20.372711	-0.699131
09918		4.372847	20.374091	-0.706085
09919		4.362633	20.375295	-0.711130
09920		4.347081	20.377393	-0.713476
09921		4.330065	20.379354	-0.713936
09922		4.308298	20.383078	-0.713922
09923		4.286894	20.390903	-0.710378
09924		4.265310	20.397995	-0.706894
09925		4.247776	20.410017	-0.701429
09926		4.228073	20.419946	-0.699858
09927		4.212649	20.429616	-0.697047
09928		4.195814	20.440716	-0.696556
09929		4.181886	20.450565	-0.696309
09930		4.166363	20.458943	-0.697413
09931		4.151336	20.467063	-0.700974
09932		4.136940	20.474810	-0.705555
09933		4.124293	20.481546	-0.710937
09934		4.113116	20.491022	-0.719703
09935		4.108577	20.499640	-0.724912
09936		4.107852	20.509092	-0.731246
09937		4.105158	20.515308	-0.736295
09938		4.098239	20.521730	-0.742212
09939		4.088035	20.528532	-0.745802
09940		4.070390	20.538474	-0.752757
09941		4.053608	20.545515	-0.759276
09942		4.035826	20.554427	-0.761926
09943		4.016902	20.564577	-0.766486
09944		3.999154	20.575112	-0.769825
09945		3.980927	20.587848	-0.772700
09946		3.964467	20.600314	-0.775710
09947		3.948296	20.609714	-0.776350
09948		3.933107	20.617019	-0.779918
09949		3.920670	20.628078	-0.782239
09950		3.911925	20.639573	-0.785707
09951		3.901253	20.650290	-0.788978
09952		3.895358	20.662148	-0.793173
09953		3.889301	20.670352	-0.796659
09954		3.880821	20.677532	-0.801184
09955		3.874782	20.684149	-0.803663
09956		3.871060	20.690602	-0.804278
09957		3.870707	20.696470	-0.803416
09958		3.865376	20.702058	-0.801946
09959		3.858302	20.706394	-0.799320
09960		3.852154	20.710739	-0.796463
09961		3.849103	20.714956	-0.793716
09962		3.847836	20.718785	-0.790915
09963		3.852073	20.724370	-0.786990
09964		3.848019	20.731082	-0.784842
09965		3.848480	20.734071	-0.783146
09966		3.848209	20.736242	-0.779496
09967		3.845761	20.738069	-0.777070
09968		3.842655	20.740689	-0.773044
09969		3.837890	20.742828	-0.767653
09970		3.833436	20.746553	-0.761369
09971		3.833422	20.744793	-0.759161
09972		3.849801	20.736631	-0.755526
09973		3.868617	20.728774	-0.759198
09974		3.895436	20.718257	-0.760852
09975		3.920234	20.709880	-0.763901
09976		3.940969	20.702006	-0.767562
09977		3.955304	20.694581	-0.769535
09978		3.969852	20.690760	-0.771919
09979		3.986258	20.685616	-0.774717
09980		4.000468	20.680510	-0.782447
09981		4.016922	20.667522	-0.794322
09982		4.037478	20.652309	-0.808528
09983		4.062057	20.631906	-0.824706
09984		4.086001	20.606824	-0.841057
09985		4.107993	20.580110	-0.856835
09986		4.131867	20.557265	-0.870261
09987		4.141520	20.535001	-0.881715
09988		4.144448	20.516805	-0.884580
09989		4.149232	20.503596	-0.886606
09990		4.158984	20.493334	-0.885036
09991		4.169349	20.476690	-0.882265
09992		4.190609	20.460141	-0.879298
09993		4.210753	20.446235	-0.873859
09994		4.220060	20.432156	-0.867838
09995		4.225927	20.423784	-0.862826
09996		4.220409	20.418894	-0.852136
09997		4.212131	20.410253	-0.838866
09998		4.210035	20.401079	-0.823927
09999		4.215227	20.396869	-0.810099
10000		4.228269	20.397906	-0.799236
10001		4.242676	20.402308	-0.793429
10002		4.245930	20.407478	-0.788640
10003		4.237933	20.416629	-0.787809
10004		4.225793	20.427746	-0.783870
10005		4.205543	20.438986	-0.781402
10006		4.181900	20.449301	-0.779768
10007		4.158475	20.457209	-0.780972
10008		4.141447	20.464866	-0.784063
10009		4.127880	20.470414	-0.793442
10010		4.120258	20.475658	-0.806784
10011		4.113909	20.479462	-0.823160
10012		4.108085	20.478701	-0.843419
10013		4.096249	20.481274	-0.866343
10014		4.082079	20.483659	-0.890131
10015		4.064647	20.489532	-0.912998
10016		4.042450	20.497150	-0.935332
10017		4.016741	20.506291	-0.956859
10018		3.989297	20.515452	-0.976746
10019		3.961801	20.525789	-0.997941
10020		3.934536	20.532844	-1.015948
10021		3.904871	20.537547	-1.035233
10022		3.879050	20.543628	-1.050676
10023		3.857542	20.551909	-1.066007
10024		3.838891	20.557783	-1.080306
10025		3.824419	20.560226	-1.092361
10026		3.807620	20.554670	-1.101504
10027		3.793168	20.550779	-1.105467
10028		3.774456	20.549474	-1.111846
10029		3.765369	20.552266	-1.117577
10030		3.760940	20.556864	-1.120457
10031		3.756156	20.558215	-1.123826
10032		3.752819	20.557309	-1.128079
10033		3.753423	20.555024	-1.132381
10034		3.755746	20.550826	-1.136323
10035		3.760444	20.548533	-1.140048
10036		3.765025	20.543817	-1.142456
10037		3.767695	20.540625	-1.145812
10038		3.767031	20.538271	-1.146128
10039		3.764539	20.535546	-1.146402
10040		3.760442	20.534341	-1.144806
10041		3.757727	20.533350	-1.141925
10042		3.752814	20.531707	-1.139291
10043		3.750231	20.527643	-1.138819
10044		3.747508	20.524531	-1.139117
10045		3.746513	20.520593	-1.140680
10046		3.745620	20.517081	-1.141504
10047		3.742637	20.516469	-1.144773
10048		3.739532	20.515909	-1.148169
10049		3.736777	20.517249	-1.151425
10050		3.730964	20.522940	-1.152072
10051		3.726443	20.526437	-1.150789
10052		3.720123	20.527372	-1.151420
10053		3.715970	20.524939	-1.149783
10054		3.713881	20.523543	-1.152664
10055		3.712706	20.524157	-1.157591
10056		3.715153	20.525649	-1.163941
10057		3.718495	20.525036	-1.170167
10058		3.722309	20.523811	-1.178061
10059		3.729845	20.519269	-1.185979
10060		3.734892	20.517557	-1.192503
10061		3.743419	20.518492	-1.198370
10062		3.753264	20.520163	-1.202696
10063		3.763604	20.519877	-1.208800
10064		3.771922	20.516819	-1.213275
10065		3.780144	20.513392	-1.218515
10066		3.789042	20.508803	-1.224190
10067		3.799998	20.505411	-1.230348
10068		3.810775	20.502867	-1.237583
10069		3.822810	20.495553	-1.246306
10070		3.832739	20.492435	-1.257313
10071		3.842165	20.489154	-1.266460
10072		3.849270	20.486595	-1.272306
10073		3.855157	20.486754	-1.276247
10074		3.859028	20.485680	-1.279337
10075		3.861077	20.487097	-1.278521
10076		3.858420	20.487228	-1.280215
10077		3.859634	20.490780	-1.279924
10078		3.860327	20.494441	-1.281640
10079		3.861888	20.496095	-1.283559
10080		3.863716	20.495069	-1.286982
10081		3.863622	20.492317	-1.289562
10082		3.863790	20.489595	-1.290570
10083		3.861189	20.487217	-1.291320
10084		3.855698	20.487900	-1.287858
10085		3.849556	20.490620	-1.279561
10086		3.838393	20.493897	-1.271285
10087		3.828173	20.495977	-1.263066
10088		3.815986	20.499280	-1.254959
10089		3.807594	20.503354	-1.248685
10090		3.801327	20.506037	-1.245226
10091		3.799202	20.507559	-1.245768
10092		3.796899	20.504187	-1.248817
10093		3.795999	20.501812	-1.250794
10094		3.791702	20.501734	-1.255566
10095		3.788209	20.502631	-1.257320
10096		3.782151	20.506336	-1.258157
10097		3.772909	20.509809	-1.255680
10098		3.763154	20.512003	-1.249641
10099		3.751728	20.516139	-1.243521
10100		3.738986	20.522605	-1.234923
10101		3.724688	20.527202	-1.228592
10102		3.715363	20.530770	-1.225991
10103		3.707075	20.530012	-1.226344
10104		3.701723	20.527520	-1.230237
10105		3.700193	20.525033	-1.235313
10106		3.700156	20.521826	-1.241954
10107		3.702541	20.519448	-1.252063
10108		3.706012	20.517546	-1.261631
10109		3.707189	20.515887	-1.268364
10110		3.708569	20.510923	-1.272082
10111		3.709569	20.509852	-1.275133
10112		3.710420	20.509670	-1.279047
10113		3.710233	20.509901	-1.283635
10114		3.707823	20.511056	-1.289610
10115		3.707386	20.510858	-1.295321
10116		3.709643	20.508775	-1.301110
10117		3.712877	20.505439	-1.306607
10118		3.712489	20.504787	-1.316345
10119		3.712814	20.505170	-1.323748
10120		3.711560	20.501638	-1.331411
10121		3.710878	20.500404	-1.337932
10122		3.708840	20.498866	-1.345605
10123		3.707063	20.494371	-1.351024
10124		3.704424	20.493552	-1.357159
10125		3.701840	20.489393	-1.361835
10126		3.694031	20.486233	-1.367782
10127		3.686367	20.482216	-1.372957
10128		3.676969	20.482229	-1.378579
10129		3.670207	20.483607	-1.382094
10130		3.660611	20.484227	-1.384123
10131		3.649542	20.485468	-1.384310
10132		3.636669	20.486751	-1.383261
10133		3.621123	20.490738	-1.382470
10134		3.605856	20.496379	-1.380768
10135		3.591110	20.496837	-1.379032
10136		3.581455	20.493396	-1.379316
10137		3.572114	20.491850	-1.379655
10138		3.561075	20.491936	-1.378766
10139		3.553202	20.492718	-1.377956
10140		3.548517	20.492234	-1.374832
10141		3.541087	20.491947	-1.376061
10142		3.536136	20.486902	-1.376838
10143		3.530783	20.474425	-1.381258
10144		3.523967	20.452461	-1.392511
10145		3.521685	20.425137	-1.408782
10146		3.522815	20.394921	-1.430736
10147		3.526158	20.363714	-1.456532
10148		3.525717	20.337638	-1.473721
10149		3.522242	20.318704	-1.485250
10150		3.515209	20.310290	-1.489758
10151		3.505746	20.310130	-1.486091
10152		3.491412	20.313452	-1.478388
10153		3.472853	20.316549	-1.467426
10154		3.454988	20.317751	-1.456453
10155		3.437301	20.319641	-1.445331
10156		3.418619	20.319441	-1.437765
10157		3.400475	20.320616	-1.433780
10158		3.384486	20.321289	-1.428103
10159		3.369295	20.322765	-1.424201
10160		3.355202	20.326303	-1.420436
10161		3.340418	20.330861	-1.416180
10162		3.327353	20.334385	-1.412243
10163		3.312609	20.337448	-1.406858
10164		3.297304	20.343249	-1.400385
10165		3.278080	20.350571	-1.394825
10166		3.260524	20.356055	-1.389550
10167		3.245855	20.361579	-1.384988
10168		3.229750	20.366783	-1.382276
10169		3.216017	20.373063	-1.378677
10170		3.201169	20.380231	-1.375647
10171		3.188518	20.386492	-1.371437
10172		3.173648	20.392039	-1.367706
10173		3.158498	20.399402	-1.361793
10174		3.144847	20.406270	-1.352603
10175		3.130478	20.412564	-1.342251
10176		3.113324	20.418944	-1.330499
10177		3.096496	20.429707	-1.319997
10178		3.081895	20.442450	-1.308668
10179		3.068437	20.453502	-1.296136
10180		3.055663	20.464242	-1.284606
10181		3.042612	20.472588	-1.273628
10182		3.030217	20.479818	-1.263420
10183		3.016126	20.488984	-1.253225
10184		2.998832	20.497469	-1.243397
10185		2.980940	20.506243	-1.231939
10186		2.961001	20.516307	-1.221291
10187		2.941848	20.529833	-1.208922
10188		2.917289	20.547365	-1.195499
10189		2.895301	20.563958	-1.179094
10190		2.866240	20.581848	-1.163654
10191		2.830414	20.604351	-1.145207
10192		2.796275	20.624961	-1.126939
10193		2.763178	20.643005	-1.107802
10194		2.733172	20.665381	-1.084762
10195		2.706431	20.687767	-1.060665
10196		2.678324	20.711399	-1.038846
10197		2.657738	20.733446	-1.018693
10198		2.634141	20.754126	-1.002629
10199		2.613314	20.774033	-0.987707
10200		2.597092	20.792148	-0.978064
10201		2.583855	20.812276	-0.969979
10202		2.578145	20.832816	-0.963558
10203		2.575607	20.850610	-0.960076
10204		2.573265	20.862521	-0.957076
10205		2.570249	20.872304	-0.951681
10206		2.567003	20.878924	-0.945515
10207		2.558187	20.887820	-0.939085
10208		2.549287	20.900321	-0.929645
10209		2.543642	20.914265	-0.919921
10210		2.537798	20.925097	-0.909226
10211		2.528824	20.930067	-0.901815
10212		2.518586	20.934747	-0.894992
10213		2.508508	20.941079	-0.888654
10214		2.499143	20.948624	-0.883930
10215		2.490592	20.958507	-0.881662
10216		2.478040	20.971414	-0.880837
10217		2.471866	20.983305	-0.877457
10218		2.467693	20.993806	-0.878048
10219		2.463804	21.001393	-0.876091
10220		2.459338	21.006875	-0.870598
10221		2.457133	21.014002	-0.864837
10222		2.449365	21.018567	-0.855595
10223		2.437232	21.024142	-0.844350
10224		2.422480	21.028584	-0.830386
10225		2.408466	21.029751	-0.816284
10226		2.395495	21.029554	-0.805810
10227		2.388116	21.027334	-0.796536
10228		2.390140	21.027574	-0.790527
10229		2.394423	21.033601	-0.781686
10230		2.390577	21.038354	-0.777713
10231		2.390248	21.040278	-0.774996
10232		2.391481	21.041503	-0.773466
10233		2.388917	21.042350	-0.771355
10234		2.390498	21.040249	-0.766331
10235		2.392416	21.033778	-0.762949
10236		2.392279	21.027575	-0.754443
10237		2.396451	21.023903	-0.740882
10238		2.393278	21.020180	-0.734002
10239		2.392588	21.021722	-0.727800
10240		2.394227	21.022860	-0.724207
10241		2.394352	21.023653	-0.723469
10242		2.396628	21.024658	-0.726543
10243		2.394748	21.025305	-0.730720
10244		2.393947	21.025348	-0.738777
10245		2.395690	21.027605	-0.745758
10246		2.405401	21.031286	-0.747761
10247		2.406395	21.034133	-0.748719
10248		2.403711	21.034168	-0.746359
10249		2.400468	21.032350	-0.741322
10250		2.395508	21.032260	-0.735394
10251		2.395887	21.032427	-0.728360
10252		2.389294	21.032080	-0.725529
10253		2.389867	21.033608	-0.722892
10254		2.391915	21.033649	-0.721666
10255		2.393656	21.031208	-0.721047
10256		2.397953	21.029755	-0.722671
10257		2.401341	21.028283	-0.724303
10258		2.408141	21.028129	-0.728999
10259		2.412308	21.025498	-0.731125
10260		2.412711	21.024472	-0.732639
10261		2.411936	21.022312	-0.735013
10262		2.409882	21.022417	-0.734530
10263		2.406145	21.022837	-0.733013
10264		2.404298	21.023304	-0.731678
10265		2.405192	21.025561	-0.728005
10266		2.406454	21.027602	-0.726828
10267		2.415658	21.026257	-0.724038
10268		2.420585	21.025894	-0.723104
10269		2.427242	21.022990	-0.722511
10270		2.431759	21.021903	-0.723280
10271		2.438122	21.020824	-0.724978
10272		2.449634	21.018260	-0.729720
10273		2.460621	21.012938	-0.736056
10274		2.471096	21.007760	-0.744697
10275		2.482285	21.002961	-0.750320
10276		2.489700	20.998642	-0.759877
10277		2.494809	20.997784	-0.768292
10278		2.504913	20.995334	-0.775281
10279		2.517231	20.994490	-0.782320
10280		2.527150	20.992493	-0.790516
10281		2.534237	20.987454	-0.796787
10282		2.539592	20.984180	-0.802293
10283		2.549124	20.978288	-0.805749
10284		2.554080	20.976923	-0.809246
10285		2.562046	20.979152	-0.815029
10286		2.575355	20.982350	-0.823954
10287		2.589593	20.980870	-0.836150
10288		2.605709	20.974367	-0.850997
10289		2.628910	20.964936	-0.863948
10290		2.649074	20.956964	-0.872556
10291		2.665603	20.947237	-0.878905
10292		2.682879	20.938859	-0.886869
10293		2.696969	20.931940	-0.891955
10294		2.707505	20.926808	-0.900600
10295		2.719613	20.918838	-0.910195
10296		2.733202	20.908618	-0.920920
10297		2.746539	20.896759	-0.932371
10298		2.757419	20.882244	-0.944598
10299		2.769473	20.870810	-0.958028
10300		2.784308	20.857521	-0.971072
10301		2.795635	20.848116	-0.984114
10302		2.808883	20.838823	-0.997257
10303		2.821248	20.831101	-1.011063
10304		2.837036	20.826573	-1.023912
10305		2.853340	20.822639	-1.034788
10306		2.867631	20.816782	-1.044394
10307		2.883124	20.809884	-1.057969
10308		2.897221	20.799435	-1.071422
10309		2.910107	20.787724	-1.085951
10310		2.930513	20.773526	-1.095658
10311		2.949034	20.761667	-1.106442
10312		2.965999	20.752652	-1.116130
10313		2.985181	20.744354	-1.125332
10314		3.002171	20.736159	-1.135377
10315		3.018850	20.728274	-1.142278
10316		3.036646	20.722331	-1.149282
10317		3.054895	20.715339	-1.153774
10318		3.070196	20.710500	-1.158792
10319		3.087012	20.705452	-1.161340
10320		3.107617	20.698496	-1.163512
10321		3.132807	20.690458	-1.162310
10322		3.158971	20.684992	-1.162206
10323		3.178753	20.678419	-1.158830
10324		3.197714	20.673011	-1.160039
10325		3.213498	20.669484	-1.163804
10326		3.228342	20.664111	-1.165764
10327		3.244878	20.660744	-1.170743
10328		3.261834	20.657798	-1.173389
10329		3.280143	20.656671	-1.175553
10330		3.299344	20.653256	-1.176622
10331		3.315965	20.650480	-1.176217
10332		3.331598	20.646539	-1.174784
10333		3.344873	20.640155	-1.174384
10334		3.355709	20.635336	-1.171486
10335		3.362406	20.632490	-1.170841
10336		3.371309	20.634194	-1.171138
10337		3.381812	20.633105	-1.172385
10338		3.395892	20.630548	-1.174745
10339		3.407576	20.626444	-1.178949
10340		3.420740	20.620183	-1.178889
10341		3.431575	20.615724	-1.176504
10342		3.438340	20.613374	-1.175419
10343		3.447233	20.614283	-1.170415
10344		3.455779	20.617574	-1.162737
10345		3.466476	20.619059	-1.153655
10346		3.478751	20.620797	-1.146570
10347		3.488661	20.617672	-1.139155
10348		3.498895	20.615197	-1.135453
10349		3.511640	20.610703	-1.133929
10350		3.524096	20.610502	-1.135667
10351		3.538234	20.609130	-1.138728
10352		3.554721	20.607585	-1.144971
10353		3.572045	20.603946	-1.151566
10354		3.588981	20.600522	-1.159819
10355		3.605673	20.595201	-1.163405
10356		3.616926	20.589624	-1.168841
10357		3.626503	20.583120	-1.172594
10358		3.632206	20.581901	-1.178019
10359		3.633453	20.584109	-1.182867
10360		3.632986	20.589590	-1.187470
10361		3.631208	20.590949	-1.191848
10362		3.625668	20.591924	-1.194445
10363		3.626320	20.593166	-1.196399
10364		3.625615	20.595850	-1.200800
10365		3.625826	20.603087	-1.203139
10366		3.624059	20.609999	-1.204724
10367		3.619935	20.616199	-1.208371
10368		3.616913	20.621132	-1.210293
10369		3.616672	20.625272	-1.213508
10370		3.616198	20.629942	-1.217759
10371		3.626058	20.636534	-1.221544
10372		3.640342	20.640536	-1.226683
10373		3.655119	20.645076	-1.229855
10374		3.670513	20.643728	-1.231496
10375		3.681596	20.640254	-1.234297
10376		3.688915	20.639295	-1.236617
10377		3.693047	20.638769	-1.240725
10378		3.695389	20.638184	-1.243151
10379		3.699282	20.638138	-1.249006
10380		3.706829	20.639167	-1.251175
10381		3.711153	20.638943	-1.254428
10382		3.719404	20.638945	-1.252148
10383		3.724698	20.638077	-1.249523
10384		3.727090	20.637178	-1.245993
10385		3.723942	20.638142	-1.241456
10386		3.720901	20.639496	-1.236028
10387		3.718320	20.640580	-1.228392
10388		3.715245	20.640304	-1.222264
10389		3.713910	20.640138	-1.212460
10390		3.714295	20.639746	-1.203706
10391		3.712490	20.639688	-1.196814
10392		3.712366	20.640679	-1.191658
10393		3.709486	20.640196	-1.190464
10394		3.707280	20.636472	-1.194302
10395		3.704638	20.632404	-1.200850
10396		3.704850	20.623845	-1.210860
10397		3.708984	20.621989	-1.219835
10398		3.711375	20.618318	-1.231561
10399		3.715020	20.613320	-1.241691
10400		3.719246	20.606846	-1.252829
10401		3.722576	20.600315	-1.263784
10402		3.721382	20.596905	-1.273382
10403		3.719695	20.594926	-1.281318
10404		3.718584	20.593647	-1.286014
10405		3.720911	20.591852	-1.288327
10406		3.725735	20.586132	-1.290962
10407		3.728431	20.581349	-1.289761
10408		3.725632	20.579650	-1.286845
10409		3.720883	20.582943	-1.281144
10410		3.716566	20.588981	-1.274122
10411		3.708686	20.598152	-1.266782
10412		3.700272	20.605828	-1.261235
10413		3.693373	20.611981	-1.257934
10414		3.688433	20.614825	-1.258355
10415		3.684996	20.615254	-1.260581
10416		3.682236	20.616319	-1.264664
10417		3.680728	20.616946	-1.267665
10418		3.679206	20.619182	-1.271056
10419		3.673934	20.619612	-1.272588
10420		3.669811	20.620469	-1.272963
10421		3.663705	20.622826	-1.274670
10422		3.659749	20.623225	-1.273845
10423		3.657227	20.624670	-1.271472
10424		3.657244	20.625526	-1.271069
10425		3.657507	20.625022	-1.269038
10426		3.659322	20.621445	-1.267336
10427		3.661764	20.618921	-1.263206
10428		3.662447	20.617938	-1.258004
10429		3.663758	20.624140	-1.253679
10430		3.667075	20.632839	-1.250255
10431		3.669255	20.643518	-1.249364
10432		3.669973	20.651967	-1.249225
10433		3.667667	20.657170	-1.247836
10434		3.661274	20.663529	-1.247163
10435		3.656531	20.673786	-1.245329
10436		3.650834	20.687739	-1.244924
10437		3.640345	20.698573	-1.247767
10438		3.629431	20.703406	-1.249226
10439		3.618918	20.704273	-1.252303
10440		3.612394	20.705237	-1.255119
10441		3.604842	20.707397	-1.259152
10442		3.599461	20.713255	-1.263883
10443		3.593973	20.719417	-1.269981
10444		3.589576	20.722828	-1.273460
10445		3.584766	20.726404	-1.274187
10446		3.576144	20.733225	-1.275116
10447		3.569865	20.740256	-1.274746
10448		3.563645	20.746162	-1.272882
10449		3.559994	20.750212	-1.267102
10450		3.559718	20.751691	-1.263137
10451		3.564833	20.758004	-1.260128
10452		3.571392	20.763823	-1.253842
10453		3.578901	20.769905	-1.248542
10454		3.581590	20.772662	-1.245535
10455		3.584966	20.772997	-1.243559
10456		3.590996	20.771070	-1.241742
10457		3.599094	20.769432	-1.240101
10458		3.608759	20.768072	-1.240739
10459		3.616551	20.769909	-1.242862
10460		3.623763	20.767018	-1.245241
10461		3.633560	20.760558	-1.248568
10462		3.642247	20.754155	-1.252038
10463		3.655047	20.748170	-1.255551
10464		3.664755	20.740955	-1.258473
10465		3.671743	20.736462	-1.261680
10466		3.677582	20.733677	-1.266308
10467		3.679543	20.730280	-1.270352
10468		3.684041	20.729231	-1.277929
10469		3.689979	20.726662	-1.288442
10470		3.694958	20.723734	-1.298011
10471		3.698647	20.722417	-1.310752
10472		3.700395	20.721576	-1.322820
10473		3.700772	20.720854	-1.331634
10474		3.697384	20.722131	-1.339812
10475		3.693444	20.722075	-1.339168
10476		3.688474	20.722466	-1.338556
10477		3.681498	20.719452	-1.336498
10478		3.675227	20.723711	-1.333952
10479		3.669884	20.727659	-1.332227
10480		3.664132	20.731670	-1.332376
10481		3.656112	20.735778	-1.334546
10482		3.649236	20.743510	-1.337504
10483		3.637765	20.749725	-1.337705
10484		3.624652	20.756618	-1.341514
10485		3.613616	20.758608	-1.342667
10486		3.606884	20.756755	-1.345289
10487		3.607187	20.754078	-1.347794
10488		3.610645	20.751911	-1.349258
10489		3.614739	20.747324	-1.352227
10490		3.613157	20.743859	-1.353142
10491		3.610704	20.744075	-1.349992
10492		3.596552	20.751464	-1.348423
10493		3.583577	20.756679	-1.345310
10494		3.569962	20.765143	-1.341204
10495		3.557205	20.771595	-1.337475
10496		3.552785	20.773066	-1.334320
10497		3.549701	20.770598	-1.333534
10498		3.546411	20.767842	-1.333150
10499		3.549576	20.763974	-1.336031
10500		3.555925	20.759022	-1.336666
10501		3.554267	20.758964	-1.340391
10502		3.550367	20.760183	-1.339929
10503		3.542196	20.765222	-1.337689
10504		3.529651	20.775323	-1.334101
10505		3.512932	20.784684	-1.325578
10506		3.494559	20.789303	-1.317836
10507		3.482793	20.789960	-1.310804
10508		3.465130	20.786372	-1.306106
10509		3.448367	20.778231	-1.299928
10510		3.439609	20.770713	-1.293683
10511		3.433916	20.765294	-1.288809
10512		3.431344	20.763979	-1.285030
10513		3.432162	20.767014	-1.282086
10514		3.432650	20.771069	-1.281025
10515		3.432642	20.775316	-1.283398
10516		3.426504	20.776173	-1.284182
10517		3.418018	20.780413	-1.283368
10518		3.401926	20.785710	-1.280325
10519		3.388320	20.790035	-1.274412
10520		3.374816	20.795609	-1.268072
10521		3.360157	20.801576	-1.263512
10522		3.347616	20.802560	-1.260778
10523		3.336829	20.799480	-1.257763
10524		3.328519	20.795435	-1.256819
10525		3.320079	20.792198	-1.257489
10526		3.314740	20.789442	-1.257490
10527		3.311790	20.788637	-1.256801
10528		3.305627	20.787867	-1.256870
10529		3.297125	20.791349	-1.255769
10530		3.289840	20.795630	-1.253441
10531		3.279129	20.795749	-1.251781
10532		3.276236	20.794544	-1.250036
10533		3.274645	20.794514	-1.247696
10534		3.276814	20.795429	-1.246844
10535		3.278900	20.795043	-1.246230
10536		3.283582	20.791635	-1.245878
10537		3.283188	20.788151	-1.246363
10538		3.282074	20.788686	-1.246968
10539		3.280368	20.787724	-1.244969
10540		3.276284	20.786967	-1.244631
10541		3.271227	20.788185	-1.239808
10542		3.267511	20.788965	-1.238135
10543		3.260304	20.789013	-1.233328
10544		3.253984	20.790039	-1.229378
10545		3.246356	20.796102	-1.224547
10546		3.233762	20.803778	-1.219943
10547		3.223376	20.810543	-1.214032
10548		3.213666	20.815435	-1.208591
10549		3.206251	20.816006	-1.205466
10550		3.200993	20.817860	-1.201666
10551		3.202782	20.821366	-1.199138
10552		3.206195	20.823473	-1.197580
10553		3.211955	20.823630	-1.199393
10554		3.216958	20.826301	-1.200670
10555		3.216083	20.826720	-1.200158
10556		3.213428	20.826170	-1.203495
10557		3.210034	20.825172	-1.205401
10558		3.204842	20.825971	-1.212753
10559		3.199135	20.825783	-1.216895
10560		3.190526	20.829626	-1.222407
10561		3.184210	20.832235	-1.225985
10562		3.175722	20.833992	-1.229583
10563		3.172333	20.835334	-1.232937
10564		3.170913	20.835971	-1.235577
10565		3.173886	20.830654	-1.238974
10566		3.171705	20.826582	-1.243564
10567		3.169673	20.823243	-1.248109
10568		3.165280	20.822585	-1.249811
10569		3.156037	20.826704	-1.247634
10570		3.141131	20.831550	-1.243248
10571		3.127541	20.838810	-1.232712
10572		3.114205	20.847733	-1.221090
10573		3.104113	20.852893	-1.206490
10574		3.092231	20.855859	-1.194841
10575		3.086234	20.858588	-1.184268
10576		3.084490	20.865815	-1.174378
10577		3.079772	20.873780	-1.165200
10578		3.072792	20.878518	-1.155275
10579		3.065476	20.885894	-1.143251
10580		3.053117	20.898560	-1.134061
10581		3.037496	20.915844	-1.123486
10582		3.015731	20.934323	-1.113956
10583		2.991144	20.951361	-1.102965
10584		2.970162	20.965419	-1.092288
10585		2.950429	20.977376	-1.079456
10586		2.937526	20.988702	-1.066879
10587		2.925612	20.999645	-1.054647
10588		2.914829	21.012626	-1.042370
10589		2.904625	21.021859	-1.031008
10590		2.892828	21.033477	-1.024157
10591		2.883886	21.044346	-1.018319
10592		2.865908	21.057549	-1.013452
10593		2.848063	21.073867	-1.010198
10594		2.832932	21.089634	-1.007831
10595		2.817171	21.101049	-1.001083
10596		2.806255	21.112326	-0.994875
10597		2.797093	21.119529	-0.988304
10598		2.787949	21.124753	-0.980002
10599		2.782567	21.129631	-0.973462
10600		2.776229	21.135785	-0.966933
10601		2.764532	21.142403	-0.957061
10602		2.753705	21.149978	-0.948217
10603		2.741730	21.162492	-0.943642
10604		2.729948	21.173324	-0.936453
10605		2.722862	21.180621	-0.929607
10606		2.715556	21.189221	-0.924372
10607		2.707520	21.197630	-0.918077
10608		2.699336	21.205775	-0.911852
10609		2.693366	21.214629	-0.905229
10610		2.686835	21.218800	-0.898824
10611		2.681150	21.223736	-0.894281
10612		2.670869	21.228866	-0.892975
10613		2.666612	21.234905	-0.892589
10614		2.662416	21.239164	-0.896417
10615		2.661974	21.242186	-0.901514
10616		2.660545	21.245740	-0.906388
10617		2.658497	21.249169	-0.909350
10618		2.655844	21.253721	-0.910072
10619		2.653026	21.259294	-0.906890
10620		2.646015	21.264001	-0.903745
10621		2.636852	21.269583	-0.896391
10622		2.629211	21.270491	-0.888763
10623		2.625425	21.271915	-0.882730
10624		2.621320	21.274656	-0.879062
10625		2.619082	21.278124	-0.877142
10626		2.615381	21.281855	-0.877717
10627		2.615346	21.284426	-0.880270
10628		2.617335	21.286299	-0.881724
10629		2.618615	21.289179	-0.882410
10630		2.618915	21.293397	-0.883329
10631		2.621110	21.295634	-0.884316
10632		2.620968	21.295042	-0.885116
10633		2.625039	21.292740	-0.884140
10634		2.628378	21.293728	-0.882967
10635		2.633428	21.295138	-0.884293
10636		2.632156	21.297432	-0.887598
10637		2.628611	21.297262	-0.885448
10638		2.623356	21.302073	-0.883929
10639		2.620807	21.303693	-0.882989
10640		2.621035	21.304652	-0.882462
10641		2.625306	21.307652	-0.883551
10642		2.629425	21.311182	-0.885290
10643		2.631834	21.311286	-0.883623
10644		2.635572	21.312452	-0.886326
10645		2.635602	21.312545	-0.886948
10646		2.630640	21.313452	-0.887506
10647		2.623690	21.315102	-0.888917
10648		2.617902	21.317996	-0.889571
10649		2.613403	21.322918	-0.890200
10650		2.610773	21.327477	-0.890926
10651		2.605760	21.329481	-0.892983
10652		2.603498	21.326425	-0.893128
10653		2.604308	21.323778	-0.893607
10654		2.604709	21.322102	-0.896713
10655		2.605538	21.320241	-0.897523
10656		2.607868	21.319038	-0.901399
10657		2.610334	21.319347	-0.905805
10658		2.613745	21.319789	-0.910185
10659		2.613300	21.319971	-0.914085
10660		2.609969	21.322247	-0.917823
10661		2.608991	21.320353	-0.917473
10662		2.608041	21.321757	-0.918366
10663		2.605629	21.323324	-0.916421
10664		2.601994	21.322529	-0.913993
10665		2.599489	21.324092	-0.912752
10666		2.597143	21.326941	-0.910711
10667		2.593163	21.331337	-0.907769
10668		2.589930	21.333726	-0.904742
10669		2.590515	21.332000	-0.901000
10670		2.589962	21.329612	-0.897192
10671		2.590692	21.331991	-0.894925
10672		2.594778	21.333092	-0.895564
10673		2.597749	21.331314	-0.895595
10674		2.597072	21.327182	-0.897828
10675		2.602026	21.325365	-0.898113
10676		2.602409	21.322062	-0.900489
10677		2.601944	21.316601	-0.901097
10678		2.599657	21.311914	-0.900518
10679		2.597979	21.306861	-0.902742
10680		2.593356	21.304676	-0.905733
10681		2.580720	21.293497	-0.910067
10682		2.574607	21.288819	-0.920996
10683		2.572960	21.284552	-0.929746
10684		2.567965	21.280000	-0.933693
10685		2.563056	21.275392	-0.937555
10686		2.560624	21.271155	-0.938175
10687		2.560352	21.267578	-0.938733
10688		2.559538	21.263897	-0.942164
10689		2.561320	21.260307	-0.948745
10690		2.568588	21.256261	-0.958022
10691		2.578767	21.252165	-0.968370
10692		2.584401	21.246749	-0.974474
10693		2.589976	21.242158	-0.975439
10694		2.591288	21.237803	-0.971314
10695		2.585361	21.234674	-0.963325
10696		2.577625	21.233930	-0.955026
10697		2.572859	21.236474	-0.949454
10698		2.573311	21.239452	-0.948809
10699		2.581205	21.238079	-0.956269
10700		2.594778	21.231940	-0.969046
10701		2.612229	21.223397	-0.981770
10702		2.628378	21.213762	-0.995326
10703		2.643629	21.206526	-1.003726
10704		2.656014	21.202317	-1.005987
10705		2.663393	21.200560	-1.003610
10706		2.665985	21.199852	-0.999880
10707		2.669272	21.198803	-0.991942
10708		2.673924	21.197310	-0.987409
10709		2.680206	21.195875	-0.985766
10710		2.691397	21.191286	-0.989085
10711		2.709034	21.186960	-0.996827
10712		2.729056	21.181317	-1.007440
10713		2.749096	21.174829	-1.017955
10714		2.772393	21.168797	-1.026706
10715		2.789955	21.161203	-1.033076
10716		2.803016	21.153841	-1.035721
10717		2.816002	21.150527	-1.035203
10718		2.828060	21.149418	-1.035049
10719		2.841425	21.147737	-1.033009
10720		2.853426	21.144177	-1.031773
10721		2.865084	21.139495	-1.032509
10722		2.879238	21.133791	-1.035658
10723		2.891116	21.125901	-1.039775
10724		2.906356	21.121854	-1.043426
10725		2.921696	21.117644	-1.046794
10726		2.936900	21.111964	-1.049726
10727		2.950484	21.106000	-1.050306
10728		2.963232	21.102550	-1.050899
10729		2.975226	21.100964	-1.051451
10730		2.984231	21.096087	-1.049325
10731		2.994242	21.093199	-1.048917
10732		3.005673	21.089906	-1.045029
10733		3.017206	21.088176	-1.041906
10734		3.030721	21.084919	-1.037576
10735		3.041762	21.078757	-1.034987
10736		3.052131	21.074627	-1.030963
10737		3.059747	21.072393	-1.026739
10738		3.070247	21.073172	-1.024872
10739		3.081895	21.073749	-1.022421
10740		3.094279	21.072563	-1.020233
10741		3.104241	21.067272	-1.018736
10742		3.114860	21.061337	-1.018698
10743		3.129236	21.057331	-1.015351
10744		3.145429	21.053855	-1.013243
10745		3.161906	21.046018	-1.013768
10746		3.177400	21.038630	-1.013949
10747		3.195661	21.030932	-1.016150
10748		3.210546	21.022909	-1.020057
10749		3.222576	21.015987	-1.024011
10750		3.235016	21.011003	-1.025939
10751		3.243149	21.004638	-1.029400
10752		3.252464	20.999599	-1.031995
10753		3.260511	20.994501	-1.036823
10754		3.269558	20.990375	-1.041817
10755		3.279949	20.986501	-1.045156
10756		3.291949	20.981255	-1.049967
10757		3.304013	20.977524	-1.055825
10758		3.318395	20.972229	-1.058154
10759		3.326369	20.965391	-1.062509
10760		3.331882	20.962645	-1.065031
10761		3.334856	20.961597	-1.065788
10762		3.334849	20.958909	-1.064725
10763		3.337106	20.955756	-1.062193
10764		3.342025	20.953262	-1.062057
10765		3.353317	20.952444	-1.061268
10766		3.364386	20.951349	-1.061354
10767		3.375385	20.949821	-1.062127
10768		3.384237	20.949143	-1.063855
10769		3.393000	20.947365	-1.065968
10770		3.397568	20.942508	-1.066801
10771		3.401071	20.938798	-1.069240
10772		3.408994	20.936827	-1.069637
10773		3.414197	20.931549	-1.073331
10774		3.421921	20.927576	-1.073854
10775		3.431633	20.922351	-1.074290
10776		3.444468	20.919763	-1.075254
10777		3.456479	20.916521	-1.075019
10778		3.467206	20.913072	-1.076072
10779		3.479234	20.912756	-1.077546
10780		3.489251	20.910832	-1.077499
10781		3.500279	20.905925	-1.076018
10782		3.509554	20.903010	-1.080529
10783		3.518718	20.897128	-1.084425
10784		3.525662	20.890530	-1.088798
10785		3.533236	20.885778	-1.090400
10786		3.542976	20.883954	-1.092392
10787		3.551600	20.882604	-1.088820
10788		3.559021	20.884165	-1.087994
10789		3.569279	20.883768	-1.087744
10790		3.579565	20.880933	-1.085306
10791		3.588363	20.878262	-1.086769
10792		3.595953	20.873936	-1.088140
10793		3.602714	20.870486	-1.089206
10794		3.611269	20.868284	-1.092261
10795		3.619902	20.865162	-1.094673
10796		3.628413	20.861320	-1.097017
10797		3.638491	20.857764	-1.096083
10798		3.646636	20.857809	-1.096359
10799		3.652840	20.855518	-1.095094
10800		3.657040	20.853732	-1.093519
10801		3.662494	20.852665	-1.091159
10802		3.669575	20.851867	-1.091303
10803		3.677873	20.851488	-1.090731
10804		3.685826	20.849532	-1.091134
10805		3.692919	20.845423	-1.089570
10806		3.703985	20.842718	-1.088944
10807		3.711272	20.840502	-1.087253
10808		3.715326	20.838355	-1.086520
10809		3.718641	20.837294	-1.085014
10810		3.719735	20.836259	-1.084471
10811		3.722961	20.835196	-1.083640
10812		3.722958	20.837060	-1.085583
10813		3.723506	20.838692	-1.083956
10814		3.728856	20.840216	-1.083577
10815		3.733937	20.838739	-1.083760
10816		3.741007	20.837126	-1.083545
10817		3.747868	20.833858	-1.084285
10818		3.752053	20.828751	-1.088010
10819		3.753707	20.829926	-1.092677
10820		3.757917	20.830209	-1.099727
10821		3.759470	20.830522	-1.104599
10822		3.760349	20.828729	-1.112454
10823		3.762897	20.828872	-1.117316
10824		3.762307	20.829296	-1.122619
10825		3.759120	20.830574	-1.125840
10826		3.752227	20.832528	-1.126493
10827		3.749586	20.833737	-1.125713
10828		3.747749	20.834635	-1.125719
10829		3.745642	20.840660	-1.124181
10830		3.748779	20.845109	-1.119795
10831		3.751554	20.850473	-1.119165
10832		3.753056	20.853452	-1.118362
10833		3.756182	20.853733	-1.119238
10834		3.763148	20.852597	-1.120205
10835		3.767360	20.850382	-1.118942
10836		3.766157	20.851044	-1.121596
10837		3.767145	20.851600	-1.123525
10838		3.766792	20.850284	-1.126081
10839		3.765506	20.848835	-1.128525
10840		3.765303	20.847881	-1.130241
10841		3.766710	20.849548	-1.129855
10842		3.765927	20.850473	-1.129635
10843		3.763698	20.852284	-1.133721
10844		3.759778	20.853130	-1.134184
10845		3.757771	20.851605	-1.134466
10846		3.754702	20.850474	-1.134829
10847		3.749573	20.850530	-1.136760
10848		3.746579	20.851865	-1.138189
10849		3.740664	20.855087	-1.140510
10850		3.736650	20.857218	-1.142523
10851		3.732873	20.857170	-1.141908
10852		3.729590	20.857783	-1.145014
10853		3.728682	20.854130	-1.143305
10854		3.725472	20.852639	-1.144506
10855		3.721477	20.854199	-1.146597
10856		3.719438	20.856845	-1.149348
10857		3.715432	20.856384	-1.150172
10858		3.712395	20.856077	-1.150889
10859		3.707606	20.857210	-1.151056
10860		3.707002	20.859326	-1.150350
10861		3.704305	20.861309	-1.150585
10862		3.703219	20.860697	-1.151682
10863		3.699940	20.856226	-1.152045
10864		3.697541	20.851115	-1.152428
10865		3.699821	20.848764	-1.150491
10866		3.703091	20.849448	-1.150190
10867		3.707575	20.847888	-1.147481
10868		3.720562	20.841653	-1.145749
10869		3.747072	20.829576	-1.145675
10870		3.775487	20.819718	-1.147471
10871		3.797739	20.815011	-1.146280
10872		3.807148	20.815503	-1.145448
10873		3.821212	20.815955	-1.140704
10874		3.821826	20.818851	-1.131395
10875		3.804300	20.818090	-1.119453
10876		3.779199	20.821759	-1.105823
10877		3.751637	20.828778	-1.090751
10878		3.723177	20.837870	-1.083174
10879		3.696346	20.846460	-1.078874
10880		3.671497	20.850073	-1.078659
10881		3.655174	20.851189	-1.081902
10882		3.645040	20.849361	-1.089379
10883		3.641804	20.846538	-1.098303
10884		3.638789	20.847066	-1.114811
10885		3.633610	20.844037	-1.130587
10886		3.620352	20.847101	-1.149631
10887		3.596336	20.849457	-1.165817
10888		3.570447	20.849279	-1.178658
10889		3.541806	20.850987	-1.191173
10890		3.518609	20.857704	-1.203547
10891		3.493861	20.861143	-1.210793
10892		3.473969	20.864565	-1.219013
10893		3.458943	20.866122	-1.228089
10894		3.454695	20.868357	-1.232130
10895		3.457168	20.871352	-1.232354
10896		3.460831	20.871515	-1.228800
10897		3.465704	20.869436	-1.222816
10898		3.473047	20.870325	-1.214864
10899		3.480889	20.873488	-1.205127
10900		3.490351	20.875259	-1.197069
10901		3.503168	20.878196	-1.187871
10902		3.522450	20.880511	-1.174858
10903		3.543270	20.880565	-1.164557
10904		3.564055	20.876090	-1.151084
10905		3.584338	20.871818	-1.134316
10906		3.599905	20.872161	-1.117452
10907		3.613741	20.875510	-1.100774
10908		3.621652	20.881990	-1.084561
10909		3.630568	20.887190	-1.068075
10910		3.637426	20.889066	-1.049111
10911		3.644153	20.890200	-1.031140
10912		3.653874	20.891436	-1.013152
10913		3.665477	20.893179	-0.997128
10914		3.680770	20.896525	-0.984548
10915		3.697166	20.897429	-0.970091
10916		3.715815	20.894963	-0.958982
10917		3.735428	20.892884	-0.948955
10918		3.757787	20.891551	-0.941332
10919		3.776922	20.887903	-0.934009
10920		3.791671	20.881882	-0.927081
10921		3.805412	20.875646	-0.920397
10922		3.814631	20.872900	-0.911394
10923		3.825975	20.871491	-0.903034
10924		3.835418	20.871574	-0.894261
10925		3.842739	20.869903	-0.885410
10926		3.849667	20.865085	-0.877004
10927		3.856522	20.862004	-0.870841
10928		3.865039	20.857444	-0.866029
10929		3.873354	20.851555	-0.862445
10930		3.881813	20.849102	-0.859537
10931		3.893957	20.844864	-0.858730
10932		3.907689	20.843384	-0.855009
10933		3.915553	20.843813	-0.851411
10934		3.925513	20.843297	-0.846112
10935		3.935070	20.838409	-0.841428
10936		3.945099	20.831637	-0.839150
10937		3.952972	20.824840	-0.838371
10938		3.962696	20.820280	-0.840024
10939		3.973161	20.814910	-0.843746
10940		3.983409	20.809762	-0.848870
10941		3.990131	20.802530	-0.856814
10942		3.999277	20.795707	-0.861465
10943		4.005807	20.790571	-0.864452
10944		4.007394	20.785668	-0.865955
10945		4.006534	20.782081	-0.864184
10946		4.008097	20.781322	-0.860768
10947		4.009715	20.778268	-0.855809
10948		4.019638	20.773174	-0.847555
10949		4.026142	20.766064	-0.841371
10950		4.033551	20.754859	-0.840664
10951		4.039696	20.742805	-0.841857
10952		4.044018	20.728189	-0.847128
10953		4.048436	20.715196	-0.853295
10954		4.051218	20.705721	-0.858293
10955		4.053604	20.699264	-0.861001
10956		4.051164	20.695421	-0.862963
10957		4.046033	20.696578	-0.858027
10958		4.038584	20.697439	-0.854572
10959		4.029344	20.698050	-0.849546
10960		4.020070	20.699570	-0.844887
10961		4.012898	20.701539	-0.840603
10962		4.006150	20.702999	-0.840130
10963		4.003329	20.703395	-0.840647
10964		3.998030	20.703938	-0.844242
10965		3.994816	20.700971	-0.845554
10966		3.989596	20.700227	-0.847603
10967		3.985484	20.698555	-0.848856
10968		3.980450	20.696062	-0.848169
10969		3.972926	20.695680	-0.845013
10970		3.967740	20.697796	-0.840608
10971		3.962975	20.700560	-0.833902
10972		3.959976	20.705214	-0.830089
10973		3.953203	20.707025	-0.830691
10974		3.951436	20.707928	-0.830714
10975		3.949359	20.708401	-0.833540
10976		3.946197	20.709834	-0.837016
10977		3.942989	20.711683	-0.841724
10978		3.938943	20.714269	-0.844956
10979		3.932220	20.718553	-0.846912
10980		3.922099	20.725813	-0.844985
10981		3.910560	20.729453	-0.844346
10982		3.900833	20.734043	-0.837301
10983		3.888848	20.740186	-0.833769
10984		3.877788	20.746955	-0.830890
10985		3.870109	20.749872	-0.831458
10986		3.861790	20.749856	-0.834568
10987		3.855452	20.749967	-0.838811
10988		3.848022	20.748797	-0.842163
10989		3.840068	20.752785	-0.845666
10990		3.829960	20.758007	-0.850551
10991		3.818174	20.763322	-0.853141
10992		3.804157	20.766201	-0.855047
10993		3.788601	20.769594	-0.854031
10994		3.773833	20.773989	-0.854860
10995		3.763583	20.781370	-0.854729
10996		3.749951	20.788272	-0.856393
10997		3.734786	20.788154	-0.857904
10998		3.721901	20.789785	-0.858027
10999		3.709997	20.791733	-0.859264
11000		3.698134	20.792575	-0.858792
11001		3.688522	20.793363	-0.857159
11002		3.682799	20.787418	-0.859910
11003		3.682699	20.779430	-0.865774
11004		3.680616	20.771345	-0.870552
11005		3.682978	20.761598	-0.880045
11006		3.687957	20.755964	-0.887088
11007		3.692707	20.747849	-0.894833
11008		3.696294	20.738983	-0.902710
11009		3.701349	20.731550	-0.908480
11010		3.706785	20.728659	-0.913735
11011		3.706663	20.723987	-0.913784
11012		3.703708	20.723685	-0.914510
11013		3.702856	20.721664	-0.913971
11014		3.700236	20.720807	-0.911480
11015		3.697010	20.722525	-0.907905
11016		3.690099	20.728615	-0.903748
11017		3.680733	20.736378	-0.896305
11018		3.671246	20.741711	-0.887623
11019		3.658448	20.743961	-0.879468
11020		3.644576	20.750021	-0.865429
11021		3.630153	20.757827	-0.849353
11022		3.613489	20.766989	-0.835440
11023		3.594902	20.773112	-0.819064
11024		3.576692	20.777860	-0.806461
11025		3.561587	20.784381	-0.795341
11026		3.548508	20.792703	-0.785001
11027		3.534012	20.803984	-0.772248
11028		3.519395	20.814528	-0.759414
11029		3.501238	20.827931	-0.744854
11030		3.479059	20.841219	-0.729304
11031		3.451300	20.858977	-0.713301
11032		3.424113	20.884516	-0.697680
11033		3.390153	20.912016	-0.681290
11034		3.352770	20.937962	-0.666438
11035		3.317463	20.965203	-0.652891
11036		3.283402	20.989569	-0.643292
11037		3.253697	21.015711	-0.633264
11038		3.223432	21.042057	-0.627495
11039		3.196186	21.069172	-0.623228
11040		3.169672	21.092920	-0.618288
11041		3.147117	21.114302	-0.613165
11042		3.121385	21.133612	-0.607025
11043		3.101191	21.156274	-0.600268
11044		3.079972	21.181042	-0.594502
11045		3.059299	21.205552	-0.584688
11046		3.036505	21.230917	-0.575730
11047		3.014643	21.253313	-0.565977
11048		2.998448	21.274618	-0.558394
11049		2.993132	21.294373	-0.552666
11050		2.992301	21.310077	-0.548398
11051		2.994448	21.323726	-0.543756
11052		2.996107	21.331021	-0.537984
11053		2.998918	21.336068	-0.530017
11054		2.998394	21.340824	-0.523651
11055		2.998082	21.347499	-0.517464
11056		2.994576	21.353343	-0.511367
11057		2.992025	21.358806	-0.506013
11058		2.987742	21.365357	-0.498495
11059		2.990395	21.370588	-0.492074
11060		2.989521	21.372137	-0.486285
11061		2.987139	21.369893	-0.482268
11062		2.978962	21.369095	-0.476293
11063		2.963752	21.373175	-0.473742
11064		2.948521	21.380363	-0.473132
11065		2.934964	21.387742	-0.476137
11066		2.924849	21.392629	-0.481906
11067		2.919203	21.397495	-0.484880
11068		2.911537	21.399812	-0.493710
11069		2.907944	21.397293	-0.499472
11070		2.901126	21.393884	-0.505509
11071		2.889898	21.395353	-0.510129
11072		2.873511	21.402955	-0.510978
11073		2.858227	21.412630	-0.513235
11074		2.846823	21.419672	-0.514510
11075		2.833226	21.422384	-0.514492
11076		2.822947	21.422332	-0.518083
11077		2.818579	21.424149	-0.525126
11078		2.816881	21.427215	-0.535687
11079		2.819052	21.429251	-0.547680
11080		2.819133	21.430003	-0.558679
11081		2.820371	21.431048	-0.569188
11082		2.823977	21.432207	-0.576574
11083		2.830847	21.433302	-0.582750
11084		2.836366	21.432521	-0.589739
11085		2.840517	21.433007	-0.592804
11086		2.844281	21.431621	-0.597065
11087		2.844415	21.430725	-0.598555
11088		2.846609	21.430751	-0.599985
11089		2.849343	21.431785	-0.598268
11090		2.850857	21.432064	-0.597086
11091		2.856706	21.431890	-0.593838
11092		2.859719	21.432035	-0.597047
11093		2.868018	21.428436	-0.596359
11094		2.876113	21.423834	-0.596129
11095		2.883701	21.422641	-0.594648
11096		2.888455	21.425508	-0.593807
11097		2.892495	21.430687	-0.592586
11098		2.893296	21.437066	-0.593373
11099		2.895162	21.441649	-0.592982
11100		2.891150	21.446848	-0.590602
11101		2.889140	21.448759	-0.586530
11102		2.890180	21.448388	-0.580343
11103		2.895347	21.446052	-0.572805
11104		2.900489	21.446289	-0.566809
11105		2.903861	21.449662	-0.561303
11106		2.902493	21.453502	-0.552802
11107		2.901220	21.455159	-0.542398
11108		2.896612	21.456411	-0.533560
11109		2.890301	21.458224	-0.522948
11110		2.886835	21.461989	-0.514950
11111		2.884086	21.465431	-0.509758
11112		2.880976	21.469478	-0.507596
11113		2.876425	21.472738	-0.509027
11114		2.874532	21.475084	-0.512550
11115		2.872236	21.476158	-0.519017
11116		2.866787	21.480195	-0.528086
11117		2.866634	21.478977	-0.532088
11118		2.864075	21.475717	-0.537119
11119		2.861980	21.470527	-0.537313
11120		2.859352	21.468556	-0.535209
11121		2.855305	21.469583	-0.530711
11122		2.853895	21.475533	-0.524138
11123		2.850469	21.481148	-0.517799
11124		2.845860	21.482407	-0.508965
11125		2.843617	21.481821	-0.505275
11126		2.844521	21.477326	-0.505950
11127		2.843994	21.471655	-0.509772
11128		2.837716	21.465138	-0.518156
11129		2.829304	21.459707	-0.528741
11130		2.813570	21.452823	-0.539404
11131		2.801716	21.444033	-0.550924
11132		2.796568	21.436279	-0.557486
11133		2.795806	21.431811	-0.564388
11134		2.795396	21.429459	-0.569267
11135		2.798786	21.431506	-0.571660
11136		2.802574	21.436007	-0.571786
11137		2.804677	21.441426	-0.570041
11138		2.806729	21.443215	-0.565522
11139		2.809679	21.444058	-0.561966
11140		2.814482	21.441105	-0.556521
11141		2.824587	21.438693	-0.550309
11142		2.832281	21.438044	-0.548056
11143		2.841569	21.438447	-0.542258
11144		2.852899	21.438587	-0.535551
11145		2.866161	21.436449	-0.528644
11146		2.877082	21.434646	-0.524067
11147		2.885569	21.429560	-0.520870
11148		2.896502	21.421071	-0.520035
11149		2.906334	21.412739	-0.520576
11150		2.915507	21.409481	-0.530292
11151		2.922920	21.410491	-0.541374
11152		2.928487	21.411032	-0.549877
11153		2.927899	21.407026	-0.555843
11154		2.920536	21.399641	-0.555440
11155		2.915686	21.395112	-0.553794
11156		2.912838	21.393218	-0.553727
11157		2.914316	21.391388	-0.552154
11158		2.912832	21.391930	-0.550900
11159		2.910316	21.391932	-0.549679
11160		2.903729	21.393458	-0.549234
11161		2.891894	21.393828	-0.549831
11162		2.873705	21.396985	-0.554118
11163		2.853136	21.398904	-0.561179
11164		2.834165	21.401926	-0.572377
11165		2.822893	21.401361	-0.585578
11166		2.817065	21.398042	-0.602066
11167		2.818587	21.393795	-0.616680
11168		2.824801	21.387040	-0.632324
11169		2.830652	21.381584	-0.643935
11170		2.834432	21.376112	-0.654999
11171		2.831120	21.371050	-0.666515
11172		2.824351	21.368894	-0.674116
11173		2.818709	21.366228	-0.680850
11174		2.809180	21.368807	-0.689387
11175		2.802588	21.367813	-0.696844
11176		2.800686	21.363939	-0.705286
11177		2.800523	21.358867	-0.716101
11178		2.802708	21.354803	-0.724349
11179		2.809423	21.355451	-0.732671
11180		2.817201	21.354839	-0.739078
11181		2.827343	21.346645	-0.746611
11182		2.833443	21.340374	-0.754762
11183		2.840749	21.336602	-0.763744
11184		2.847304	21.333928	-0.770505
11185		2.855099	21.330810	-0.775556
11186		2.865445	21.325558	-0.783049
11187		2.878221	21.318110	-0.785890
11188		2.889988	21.311095	-0.788349
11189		2.901019	21.306824	-0.790959
11190		2.910503	21.300172	-0.786459
11191		2.917524	21.295028	-0.778227
11192		2.923724	21.293267	-0.770047
11193		2.929427	21.293370	-0.759215
11194		2.936619	21.292933	-0.752339
11195		2.951011	21.293231	-0.746280
11196		2.964585	21.292254	-0.746165
11197		2.984149	21.285780	-0.743682
11198		3.001341	21.280203	-0.744398
11199		3.016663	21.273565	-0.743218
11200		3.031146	21.268508	-0.741026
11201		3.041624	21.263503	-0.738747
11202		3.055472	21.261165	-0.735055
11203		3.069332	21.260087	-0.732811
11204		3.084963	21.257558	-0.731457
11205		3.101453	21.253137	-0.730991
11206		3.121937	21.248082	-0.730113
11207		3.141331	21.243374	-0.730707
11208		3.158455	21.238264	-0.732626
11209		3.175721	21.233928	-0.734495
11210		3.191858	21.230428	-0.737400
11211		3.200976	21.227523	-0.739958
11212		3.212468	21.226462	-0.740367
11213		3.222844	21.223976	-0.741220
11214		3.231555	21.218491	-0.745199
11215		3.238621	21.215631	-0.747989
11216		3.250064	21.215859	-0.749954
11217		3.264503	21.215806	-0.753248
11218		3.279497	21.214841	-0.759519
11219		3.296494	21.210294	-0.764111
11220		3.316514	21.202962	-0.766192
11221		3.335346	21.195183	-0.770432
11222		3.356320	21.190478	-0.775366
11223		3.375161	21.186404	-0.781986
11224		3.393688	21.180500	-0.789926
11225		3.412976	21.172414	-0.799448
11226		3.430730	21.161826	-0.811279
11227		3.447478	21.148165	-0.821089
11228		3.463591	21.138961	-0.830123
11229		3.476613	21.129895	-0.840373
11230		3.492426	21.124513	-0.845418
11231		3.504790	21.117760	-0.853717
11232		3.517237	21.109379	-0.859281
11233		3.528777	21.102487	-0.865616
11234		3.540544	21.095991	-0.869316
11235		3.551168	21.089534	-0.874988
11236		3.559614	21.083811	-0.881843
11237		3.569288	21.077422	-0.886913
11238		3.576859	21.073675	-0.893920
11239		3.584829	21.071457	-0.899012
11240		3.591462	21.068029	-0.905448
11241		3.599260	21.063244	-0.910011
11242		3.608886	21.057950	-0.915779
11243		3.613571	21.051105	-0.919070
11244		3.622417	21.045206	-0.921890
11245		3.627480	21.042974	-0.925234
11246		3.632457	21.040917	-0.928874
11247		3.636803	21.038971	-0.929413
11248		3.641940	21.035992	-0.930675
11249		3.647326	21.033478	-0.930392
11250		3.656653	21.029882	-0.930259
11251		3.663202	21.030570	-0.931420
11252		3.668499	21.026668	-0.930305
11253		3.671816	21.022658	-0.929181
11254		3.674310	21.020528	-0.926718
11255		3.677267	21.021099	-0.922401
11256		3.678218	21.023647	-0.918584
11257		3.676893	21.023043	-0.915104
11258		3.674473	21.022579	-0.911811
11259		3.668159	21.021725	-0.906921
11260		3.663913	21.023548	-0.903210
11261		3.659976	21.028603	-0.900047
11262		3.659972	21.033588	-0.897570
11263		3.659355	21.034882	-0.898898
11264		3.661440	21.034237	-0.902013
11265		3.666668	21.032929	-0.904986
11266		3.676653	21.030879	-0.910163
11267		3.686780	21.026871	-0.912818
11268		3.695855	21.025966	-0.917787
11269		3.706816	21.021029	-0.921965
11270		3.713936	21.019094	-0.925077
11271		3.722948	21.015139	-0.928514
11272		3.734444	21.012496	-0.928211
11273		3.744169	21.010323	-0.926244
11274		3.754762	21.006701	-0.923825
11275		3.763350	21.003325	-0.921552
11276		3.768515	21.000359	-0.922810
11277		3.775826	20.995744	-0.922506
11278		3.781834	20.992101	-0.925161
11279		3.788006	20.988759	-0.926979
11280		3.792961	20.985062	-0.929894
11281		3.799298	20.982901	-0.931065
11282		3.803454	20.978590	-0.931038
11283		3.808879	20.975407	-0.930112
11284		3.811447	20.974940	-0.928375
11285		3.809952	20.973121	-0.925543
11286		3.812071	20.968236	-0.924849
11287		3.814171	20.961982	-0.924098
11288		3.815161	20.957506	-0.924852
11289		3.814313	20.954472	-0.925043
11290		3.813370	20.949789	-0.924304
11291		3.813725	20.947518	-0.923719
11292		3.817357	20.944985	-0.919815
11293		3.819273	20.944575	-0.914971
11294		3.819240	20.944481	-0.908334
11295		3.820452	20.944590	-0.900329
11296		3.822566	20.945436	-0.893530
11297		3.821624	20.945289	-0.886517
11298		3.819657	20.944986	-0.878387
11299		3.811802	20.946961	-0.870605
11300		3.810783	20.948473	-0.864947
11301		3.810550	20.947994	-0.860957
11302		3.808022	20.947156	-0.858509
11303		3.805992	20.949812	-0.854431
11304		3.805988	20.954799	-0.851967
11305		3.809211	20.961381	-0.850056
11306		3.815650	20.969194	-0.847099
11307		3.820508	20.971273	-0.845849
11308		3.824004	20.973921	-0.848124
11309		3.829326	20.972667	-0.850110
11310		3.832580	20.973753	-0.853678
11311		3.833689	20.972946	-0.857163
11312		3.835856	20.973147	-0.860634
11313		3.836203	20.975102	-0.863976
11314		3.839842	20.978951	-0.865783
11315		3.842546	20.983379	-0.867907
11316		3.846466	20.987497	-0.866873
11317		3.850123	20.990748	-0.868257
11318		3.856665	20.990250	-0.868300
11319		3.861174	20.990358	-0.869273
11320		3.864617	20.989226	-0.868919
11321		3.867880	20.988979	-0.872336
11322		3.870944	20.989341	-0.877555
11323		3.874961	20.988451	-0.883113
11324		3.878061	20.989646	-0.888691
11325		3.883102	20.990116	-0.895544
11326		3.889138	20.989923	-0.901625
11327		3.894089	20.987416	-0.907351
11328		3.899140	20.986702	-0.912509
11329		3.903113	20.983307	-0.916619
11330		3.904141	20.983095	-0.921179
11331		3.903192	20.983980	-0.926227
11332		3.901083	20.984426	-0.931938
11333		3.898525	20.987393	-0.934068
11334		3.897197	20.989936	-0.932808
11335		3.892916	20.992122	-0.930380
11336		3.888890	20.995488	-0.925421
11337		3.883044	20.999441	-0.919119
11338		3.874241	21.006474	-0.913259
11339		3.868486	21.013730	-0.908752
11340		3.862384	21.017814	-0.904683
11341		3.856296	21.024353	-0.903507
11342		3.853955	21.027673	-0.902870
11343		3.851386	21.031069	-0.905847
11344		3.848539	21.032557	-0.909340
11345		3.844831	21.035050	-0.912578
11346		3.841986	21.036539	-0.916071
11347		3.839544	21.038627	-0.916820
11348		3.837996	21.043869	-0.920663
11349		3.834799	21.050287	-0.921635
11350		3.829056	21.056124	-0.926903
11351		3.826479	21.058732	-0.929400
11352		3.821590	21.059639	-0.932238
11353		3.816355	21.063911	-0.931320
11354		3.806480	21.065620	-0.933012
11355		3.795378	21.067358	-0.937454
11356		3.781475	21.071689	-0.940471
11357		3.767817	21.077772	-0.943401
11358		3.760230	21.083760	-0.946367
11359		3.757795	21.089694	-0.950307
11360		3.758176	21.096458	-0.957176
11361		3.759624	21.102011	-0.963603
11362		3.758649	21.105486	-0.971306
11363		3.759914	21.106352	-0.975314
11364		3.758904	21.104741	-0.978835
11365		3.757208	21.103233	-0.979370
11366		3.749025	21.102761	-0.983475
11367		3.741677	21.106920	-0.983091
11368		3.734158	21.110316	-0.982968
11369		3.727718	21.114443	-0.983403
11370		3.725228	21.117877	-0.984778
11371		3.722475	21.119260	-0.988160
11372		3.721671	21.118387	-0.990026
