// General information: 
//  MT Manager version: 2022.2.0 
//  XDA version: 2022.2.0 build 7381 rev 124627 built on 2023-07-19
// Device information: 
//  DeviceId: 00B44805
//  ProductCode: MTW2-3A7G6
//  Firmware Version: 4.3.5
//  Hardware Version: 2.0.0
// Device settings: 
//  Filter Profile: human(46.1)
//  Option Flags: Orientation Smoother Disabled, Position/Velocity Smoother Disabled, Continuous Zero Rotation Update Disabled, AHS Disabled, ICC Disabled
// Coordinate system: ENU
PacketCounter	SampleTimeFine	Roll	Pitch	Yaw
08055		60.345432	-66.852123	32.484871
08056		60.337421	-66.851728	32.487766
08057		60.328694	-66.850342	32.494777
08058		60.328862	-66.850485	32.494612
08059		60.328584	-66.848016	32.496035
08060		60.334721	-66.848317	32.493267
08061		60.327018	-66.843874	32.502853
08062		60.324830	-66.842351	32.506911
08063		60.314932	-66.840099	32.515626
08064		60.304616	-66.838463	32.521485
08065		60.290148	-66.834453	32.531113
08066		60.285142	-66.831988	32.533137
08067		60.282437	-66.828954	32.534603
08068		60.278042	-66.827048	32.539114
08069		60.284579	-66.825934	32.535804
08070		60.293145	-66.824040	32.528436
08071		60.296279	-66.820609	32.526766
08072		60.303738	-66.818524	32.519629
08073		60.305439	-66.814844	32.516157
08074		60.311743	-66.812139	32.510505
08075		60.310443	-66.809764	32.512561
08076		60.308436	-66.805232	32.513722
08077		60.307506	-66.802163	32.514774
08078		60.301302	-66.798650	32.519533
08079		60.302318	-66.795453	32.519157
08080		60.304420	-66.793766	32.517109
08081		60.300374	-66.793435	32.522185
08082		60.297835	-66.793563	32.525196
08083		60.290991	-66.792974	32.529033
08084		60.282800	-66.795582	32.534821
08085		60.274198	-66.794472	32.542468
08086		60.273955	-66.795840	32.542521
08087		60.267307	-66.798922	32.546194
08088		60.268258	-66.801337	32.543515
08089		60.268236	-66.803280	32.540316
08090		60.274279	-66.803086	32.531113
08091		60.282533	-66.802785	32.518712
08092		60.294319	-66.800967	32.504224
08093		60.305939	-66.797422	32.488623
08094		60.321652	-66.792370	32.469107
08095		60.335817	-66.785683	32.453409
08096		60.353452	-66.778798	32.432025
08097		60.363686	-66.768466	32.414649
08098		60.379558	-66.756106	32.393167
08099		60.384553	-66.745537	32.377486
08100		60.395037	-66.737869	32.360217
08101		60.397645	-66.728588	32.344014
08102		60.394068	-66.720651	32.331111
08103		60.390935	-66.714370	32.316732
08104		60.384075	-66.710583	32.302368
08105		60.370224	-66.707009	32.287729
08106		60.350047	-66.704731	32.268735
08107		60.311610	-66.701910	32.248071
08108		60.239815	-66.695919	32.243945
08109		60.157937	-66.688154	32.241916
08110		60.081464	-66.683507	32.236395
08111		60.004833	-66.678731	32.238355
08112		59.936682	-66.675618	32.242699
08113		59.873331	-66.672103	32.242310
08114		59.804067	-66.664412	32.232373
08115		59.687077	-66.652620	32.223490
08116		59.542126	-66.638187	32.198883
08117		59.359316	-66.618780	32.163009
08118		59.135323	-66.596329	32.111711
08119		58.852183	-66.568127	32.058159
08120		58.499313	-66.536385	32.005371
08121		58.076342	-66.497653	31.957352
08122		57.595653	-66.455952	31.910705
08123		57.073589	-66.411733	31.863896
08124		56.526541	-66.364153	31.811766
08125		55.948499	-66.314994	31.771336
08126		55.358930	-66.267495	31.723332
08127		54.759208	-66.219707	31.673549
08128		54.163013	-66.172585	31.603090
08129		53.554680	-66.125571	31.522351
08130		52.923475	-66.075185	31.426917
08131		52.248827	-66.021186	31.327860
08132		51.522896	-65.960237	31.221371
08133		50.736714	-65.893927	31.096185
08134		49.871476	-65.818774	30.965267
08135		48.919562	-65.731682	30.853315
08136		47.924304	-65.636464	30.744822
08137		46.913724	-65.538255	30.653723
08138		45.933404	-65.441902	30.569406
08139		45.011526	-65.348492	30.500872
08140		44.160298	-65.263849	30.434815
08141		43.364344	-65.192942	30.352359
08142		42.587617	-65.126878	30.256234
08143		41.787822	-65.052091	30.178963
08144		40.941227	-64.966410	30.126954
08145		40.075576	-64.875473	30.091086
08146		39.234142	-64.782285	30.072833
08147		38.465778	-64.701617	30.076384
08148		37.823317	-64.627176	30.090090
08149		37.311067	-64.563204	30.119956
08150		36.903653	-64.522067	30.125324
08151		36.525697	-64.485301	30.126733
08152		36.110130	-64.439424	30.128371
08153		35.606841	-64.395577	30.120626
08154		34.996943	-64.339430	30.092135
08155		34.276794	-64.276717	30.054368
08156		33.482404	-64.203060	30.012749
08157		32.672002	-64.132789	29.976571
08158		31.895373	-64.068527	29.951728
08159		31.196622	-64.007815	29.952053
08160		30.596291	-63.956567	29.961359
08161		30.072861	-63.914449	29.984653
08162		29.604857	-63.877128	29.997379
08163		29.148462	-63.848663	29.990750
08164		28.679795	-63.812201	29.974030
08165		28.163823	-63.780504	29.941364
08166		27.576193	-63.735795	29.884103
08167		26.929365	-63.683626	29.799775
08168		26.230579	-63.631325	29.694924
08169		25.487347	-63.581487	29.585681
08170		24.727620	-63.529929	29.457054
08171		23.950397	-63.474377	29.336707
08172		23.169397	-63.420979	29.213362
08173		22.341865	-63.372130	29.061016
08174		21.442311	-63.312755	28.887294
08175		20.443176	-63.251362	28.709465
08176		19.367965	-63.174191	28.527557
08177		18.277363	-63.096109	28.351630
08178		17.237454	-63.014168	28.178846
08179		16.314223	-62.939406	28.015373
08180		15.503104	-62.868169	27.851766
08181		14.778056	-62.806832	27.692286
08182		14.118829	-62.738626	27.520199
08183		13.470116	-62.677666	27.347133
08184		12.811198	-62.605012	27.156418
08185		12.123082	-62.533494	26.957659
08186		11.416723	-62.457408	26.756951
08187		10.718300	-62.382420	26.559445
08188		10.051641	-62.304623	26.362148
08189		9.424601	-62.224361	26.176861
08190		8.842451	-62.150422	26.000353
08191		8.290834	-62.076484	25.834328
08192		7.759928	-62.001566	25.675678
08193		7.236807	-61.925717	25.523217
08194		6.728678	-61.846347	25.371144
08195		6.227791	-61.765529	25.226846
08196		5.728945	-61.677958	25.101075
08197		5.256165	-61.594999	25.008352
08198		4.816698	-61.506080	24.937509
08199		4.400012	-61.412311	24.889578
08200		4.011900	-61.319266	24.860907
08201		3.648680	-61.230680	24.862500
08202		3.316426	-61.144216	24.884898
08203		3.009768	-61.061972	24.925687
08204		2.725369	-60.978180	24.978900
08205		2.461421	-60.891514	25.051792
08206		2.220944	-60.811437	25.127648
08207		1.993751	-60.732729	25.203403
08208		1.775693	-60.653056	25.278662
08209		1.564712	-60.572076	25.358467
08210		1.367925	-60.489147	25.442815
08211		1.186480	-60.411821	25.528050
08212		1.027137	-60.335263	25.615606
08213		0.881077	-60.257427	25.702948
08214		0.744601	-60.188629	25.795401
08215		0.610199	-60.124275	25.898957
08216		0.482490	-60.063603	26.009399
08217		0.381264	-60.007491	26.112586
08218		0.308468	-59.957249	26.195519
08219		0.258483	-59.910132	26.268130
08220		0.222125	-59.866614	26.331905
08221		0.184250	-59.827513	26.388584
08222		0.144258	-59.788160	26.435309
08223		0.107857	-59.752239	26.467162
08224		0.083511	-59.715307	26.475900
08225		0.047797	-59.681074	26.479758
08226		0.013811	-59.643127	26.476340
08227		-0.003941	-59.606451	26.465951
08228		-0.004427	-59.575150	26.447814
08229		0.020671	-59.549387	26.424364
08230		0.076395	-59.532788	26.394382
08231		0.138425	-59.528532	26.360852
08232		0.186558	-59.527079	26.319080
08233		0.208010	-59.525392	26.280637
08234		0.216925	-59.521867	26.242018
08235		0.236770	-59.519605	26.205688
08236		0.289607	-59.518229	26.158410
08237		0.364093	-59.526499	26.112564
08238		0.452530	-59.533722	26.053035
08239		0.525633	-59.542575	26.001434
08240		0.583273	-59.547081	25.952578
08241		0.626321	-59.549108	25.912354
08242		0.666714	-59.552073	25.875320
08243		0.706800	-59.553507	25.841940
08244		0.754507	-59.562886	25.812115
08245		0.808890	-59.570515	25.788681
08246		0.876699	-59.579070	25.764600
08247		0.948586	-59.588960	25.748038
08248		1.026919	-59.600038	25.731501
08249		1.090527	-59.615140	25.726721
08250		1.133510	-59.624353	25.725993
08251		1.148672	-59.632240	25.726864
08252		1.160021	-59.634204	25.719545
08253		1.167862	-59.638446	25.717794
08254		1.196046	-59.640367	25.717687
08255		1.246045	-59.643069	25.729349
08256		1.325198	-59.645968	25.739343
08257		1.416141	-59.646207	25.750066
08258		1.504072	-59.647527	25.755508
08259		1.575351	-59.648687	25.764449
08260		1.626878	-59.646373	25.777698
08261		1.675808	-59.646283	25.796209
08262		1.736061	-59.645016	25.816175
08263		1.817174	-59.644966	25.838709
08264		1.929786	-59.650195	25.852951
08265		2.054202	-59.660731	25.866043
08266		2.176545	-59.671785	25.875057
08267		2.279871	-59.679437	25.884113
08268		2.370007	-59.692433	25.901245
08269		2.458601	-59.706822	25.927036
08270		2.548444	-59.721082	25.965535
08271		2.642361	-59.736690	26.021425
08272		2.735369	-59.753784	26.089682
08273		2.825568	-59.771093	26.167964
08274		2.919078	-59.788368	26.241864
08275		3.015827	-59.804340	26.313475
08276		3.125050	-59.821094	26.378674
08277		3.254819	-59.838417	26.442204
08278		3.419140	-59.859821	26.504949
08279		3.616947	-59.888549	26.572698
08280		3.853438	-59.924194	26.645892
08281		4.115051	-59.960532	26.730997
08282		4.407790	-59.996464	26.817923
08283		4.709983	-60.028496	26.921356
08284		5.043310	-60.056791	27.023716
08285		5.412554	-60.088003	27.138678
08286		5.830896	-60.127106	27.253286
08287		6.286040	-60.170496	27.370962
08288		6.784173	-60.214837	27.488761
08289		7.329644	-60.259030	27.605712
08290		7.917207	-60.302647	27.716357
08291		8.520513	-60.339307	27.840430
08292		9.158875	-60.370192	27.972231
08293		9.860774	-60.402190	28.105831
08294		10.616023	-60.447134	28.248894
08295		11.412787	-60.502661	28.387780
08296		12.202413	-60.568666	28.510937
08297		12.932746	-60.630252	28.623614
08298		13.586236	-60.680156	28.727952
08299		14.178397	-60.719102	28.828299
08300		14.752159	-60.749429	28.917949
08301		15.316375	-60.776104	29.027579
08302		15.934513	-60.803956	29.133225
08303		16.614305	-60.838831	29.248414
08304		17.368114	-60.882541	29.362615
08305		18.169657	-60.931458	29.480492
08306		19.007270	-60.985728	29.583134
08307		19.835318	-61.038936	29.685609
08308		20.652839	-61.089200	29.785556
08309		21.448972	-61.133994	29.889928
08310		22.230655	-61.181825	29.995126
08311		22.991750	-61.231337	30.107702
08312		23.728536	-61.280313	30.219860
08313		24.438106	-61.328700	30.337536
08314		25.145106	-61.380091	30.449378
08315		25.851896	-61.434342	30.561454
08316		26.566857	-61.492177	30.662522
08317		27.282105	-61.557316	30.757997
08318		27.981902	-61.627581	30.846897
08319		28.654015	-61.694869	30.937715
08320		29.308185	-61.766573	31.039315
08321		29.957918	-61.839409	31.148399
08322		30.623052	-61.912748	31.262502
08323		31.305463	-61.985234	31.388588
08324		32.008042	-62.068939	31.495923
08325		32.698364	-62.150911	31.599954
08326		33.368135	-62.230640	31.699352
08327		34.008162	-62.310601	31.791493
08328		34.621825	-62.393109	31.866510
08329		35.202578	-62.472846	31.940710
08330		35.774750	-62.553833	32.005638
08331		36.338287	-62.635175	32.077591
08332		36.923080	-62.721230	32.146462
08333		37.523092	-62.811123	32.224395
08334		38.147556	-62.906147	32.293287
08335		38.776637	-63.000876	32.360578
08336		39.399241	-63.097166	32.417904
08337		40.003660	-63.192238	32.466258
08338		40.578302	-63.287257	32.509450
08339		41.119765	-63.377533	32.555656
08340		41.641152	-63.468459	32.598787
08341		42.159209	-63.556264	32.644270
08342		42.709410	-63.652907	32.686422
08343		43.305282	-63.753971	32.735131
08344		43.953313	-63.860914	32.785278
08345		44.638363	-63.970109	32.841573
08346		45.358650	-64.082293	32.883782
08347		46.067715	-64.195373	32.924711
08348		46.752115	-64.309682	32.955379
08349		47.396035	-64.420773	32.983279
08350		48.010361	-64.529022	33.006482
08351		48.608454	-64.636645	33.038483
08352		49.223948	-64.749513	33.071083
08353		49.869058	-64.864631	33.099113
08354		50.553823	-64.984709	33.120379
08355		51.259585	-65.101963	33.144448
08356		51.967831	-65.223495	33.158194
08357		52.629626	-65.336751	33.164356
08358		53.241836	-65.440227	33.155450
08359		53.811441	-65.535517	33.154940
08360		54.372677	-65.625006	33.146964
08361		54.947864	-65.712706	33.145037
08362		55.577967	-65.807288	33.140462
08363		56.241709	-65.907428	33.140775
08364		56.937323	-66.005472	33.136141
08365		57.630417	-66.104179	33.122192
08366		58.306814	-66.198268	33.091471
08367		58.933926	-66.284974	33.058599
08368		59.513800	-66.369216	33.010168
08369		60.030192	-66.446715	32.967727
08370		60.492579	-66.519766	32.925178
08371		60.891689	-66.588504	32.877204
08372		61.239747	-66.652053	32.828710
08373		61.532551	-66.708111	32.791406
08374		61.800742	-66.758247	32.745572
08375		62.036311	-66.806141	32.706929
08376		62.264243	-66.853992	32.664649
08377		62.490402	-66.903834	32.631093
08378		62.734795	-66.955953	32.596881
08379		62.996842	-67.009664	32.565246
08380		63.288680	-67.065703	32.522030
08381		63.586190	-67.123014	32.476754
08382		63.887005	-67.175148	32.426723
08383		64.161573	-67.224781	32.380362
08384		64.409165	-67.269205	32.329882
08385		64.609048	-67.307873	32.286496
08386		64.754300	-67.339448	32.243358
08387		64.832632	-67.361008	32.196466
08388		64.855914	-67.376562	32.142518
08389		64.830797	-67.382112	32.091570
08390		64.775802	-67.386339	32.041954
08391		64.691544	-67.382887	31.991568
08392		64.577506	-67.372474	31.943644
08393		64.425733	-67.357252	31.912627
08394		64.261596	-67.340187	31.877959
08395		64.077133	-67.318017	31.861304
08396		63.921948	-67.298385	31.839317
08397		63.795072	-67.281176	31.825717
08398		63.716429	-67.267082	31.818068
08399		63.683563	-67.258159	31.815116
08400		63.696701	-67.252806	31.812046
08401		63.728668	-67.247385	31.814216
08402		63.773207	-67.243311	31.809835
08403		63.807043	-67.239195	31.803653
08404		63.815785	-67.236533	31.802940
08405		63.807066	-67.233284	31.801272
08406		63.786299	-67.228500	31.805406
08407		63.770722	-67.224869	31.811874
08408		63.773162	-67.223292	31.813849
08409		63.781540	-67.223587	31.817144
08410		63.794210	-67.222103	31.818286
08411		63.801274	-67.222047	31.817970
08412		63.804154	-67.216601	31.815769
08413		63.799253	-67.213680	31.808849
08414		63.782622	-67.206825	31.804110
08415		63.760647	-67.199501	31.804178
08416		63.759654	-67.197780	31.792350
08417		63.767241	-67.197232	31.785165
08418		63.776666	-67.195580	31.785673
08419		63.794318	-67.199422	31.774864
08420		63.829980	-67.205052	31.747627
08421		63.848004	-67.210607	31.727773
08422		63.849090	-67.213345	31.710357
08423		63.842037	-67.213626	31.697624
08424		63.842898	-67.215550	31.682873
08425		63.843472	-67.216227	31.673294
08426		63.863960	-67.218348	31.647807
08427		63.878135	-67.218914	31.630031
08428		63.888355	-67.220111	31.621209
08429		63.893961	-67.215886	31.617082
08430		63.917223	-67.216535	31.597574
08431		63.932564	-67.217632	31.585329
08432		63.945841	-67.217571	31.573189
08433		63.947846	-67.216716	31.568442
08434		63.956182	-67.218748	31.556075
08435		63.959975	-67.217093	31.551154
08436		63.973483	-67.220896	31.539064
08437		63.978992	-67.221761	31.540638
08438		63.996270	-67.223885	31.535637
08439		64.009206	-67.227936	31.533048
08440		64.023490	-67.230707	31.524726
08441		64.013680	-67.232273	31.536525
08442		64.007978	-67.230583	31.540235
08443		63.998830	-67.228813	31.548762
08444		63.995540	-67.225874	31.553253
08445		63.985315	-67.221599	31.566173
08446		63.978450	-67.214219	31.571300
08447		63.960517	-67.206203	31.585714
08448		63.934716	-67.194139	31.603931
08449		63.914911	-67.184724	31.611468
08450		63.907537	-67.176135	31.607404
08451		63.878084	-67.168796	31.620547
08452		63.848545	-67.159841	31.622423
08453		63.805142	-67.150529	31.625919
08454		63.752580	-67.137170	31.616625
08455		63.662382	-67.118041	31.606175
08456		63.561903	-67.095185	31.559122
08457		63.415052	-67.066569	31.494000
08458		63.218233	-67.032256	31.407589
08459		62.951364	-66.987075	31.324606
08460		62.616688	-66.938840	31.236589
08461		62.204425	-66.880309	31.166157
08462		61.748399	-66.815764	31.112123
08463		61.282802	-66.750167	31.069946
08464		60.853115	-66.688509	31.026113
08465		60.456477	-66.632147	30.999215
08466		60.124312	-66.582763	30.959033
08467		59.819125	-66.538124	30.917220
08468		59.521471	-66.490726	30.863517
08469		59.198456	-66.441890	30.788149
08470		58.812282	-66.384180	30.708535
08471		58.343232	-66.315838	30.624058
08472		57.805758	-66.238718	30.528410
08473		57.194267	-66.158170	30.450794
08474		56.548979	-66.075898	30.377405
08475		55.885612	-65.990932	30.312345
08476		55.235367	-65.910311	30.237839
08477		54.573010	-65.825561	30.187340
08478		53.931501	-65.744229	30.120924
08479		53.277795	-65.659960	30.043339
08480		52.593574	-65.569184	29.953171
08481		51.845314	-65.469753	29.874192
08482		51.057622	-65.364021	29.797904
08483		50.237236	-65.251949	29.733277
08484		49.426922	-65.139480	29.677988
08485		48.660982	-65.032431	29.647154
08486		47.982528	-64.939744	29.593237
08487		47.351291	-64.846103	29.555689
08488		46.751718	-64.752894	29.519182
08489		46.157527	-64.658486	29.487255
08490		45.563322	-64.563814	29.443285
08491		44.948825	-64.463789	29.398980
08492		44.322589	-64.363787	29.351886
08493		43.672569	-64.261587	29.309705
08494		43.008697	-64.157296	29.259625
08495		42.311348	-64.050174	29.226260
08496		41.602865	-63.939882	29.189297
08497		40.892146	-63.829868	29.160909
08498		40.204855	-63.717689	29.136032
08499		39.546780	-63.613412	29.120683
08500		38.942422	-63.512343	29.110169
08501		38.360885	-63.414126	29.115868
08502		37.814167	-63.325558	29.100106
08503		37.247470	-63.232487	29.089153
08504		36.655232	-63.137455	29.063837
08505		36.031119	-63.039277	29.029725
08506		35.392039	-62.937622	28.990276
08507		34.755006	-62.843220	28.942944
08508		34.145767	-62.750012	28.880011
08509		33.525010	-62.661714	28.827591
08510		32.900637	-62.572789	28.765348
08511		32.263744	-62.486306	28.704066
08512		31.616429	-62.402221	28.638887
08513		30.967930	-62.324013	28.568505
08514		30.316661	-62.240667	28.482122
08515		29.623609	-62.158608	28.384165
08516		28.884219	-62.070233	28.269770
08517		28.086881	-61.978015	28.136484
08518		27.247358	-61.879875	27.996618
08519		26.391636	-61.780817	27.861524
08520		25.558606	-61.689680	27.714583
08521		24.726476	-61.608752	27.549860
08522		23.837442	-61.526217	27.348181
08523		22.829385	-61.430885	27.110319
08524		21.681113	-61.317117	26.838749
08525		20.410709	-61.201902	26.549873
08526		19.064442	-61.082001	26.258721
08527		17.719844	-60.964980	26.008501
08528		16.476202	-60.855457	25.794005
08529		15.413038	-60.772655	25.600278
08530		14.509624	-60.692714	25.419650
08531		13.736180	-60.628580	25.257555
08532		13.019607	-60.562524	25.100128
08533		12.308258	-60.514263	24.951684
08534		11.565863	-60.464583	24.794419
08535		10.765144	-60.414361	24.649721
08536		9.941240	-60.374100	24.514236
08537		9.126453	-60.347963	24.398607
08538		8.355691	-60.324284	24.299211
08539		7.646191	-60.308156	24.221364
08540		7.011908	-60.287831	24.161004
08541		6.447868	-60.271296	24.121942
08542		5.961138	-60.237200	24.085282
08543		5.528033	-60.192384	24.069012
08544		5.170277	-60.141214	24.063495
08545		4.837224	-60.085607	24.097497
08546		4.527452	-60.020385	24.151481
08547		4.224046	-59.948644	24.217966
08548		3.923259	-59.878715	24.286700
08549		3.623442	-59.810173	24.368462
08550		3.356717	-59.747900	24.438295
08551		3.099334	-59.692586	24.509867
08552		2.880037	-59.637121	24.555921
08553		2.687293	-59.585071	24.595670
08554		2.518476	-59.538366	24.624739
08555		2.357660	-59.491203	24.658872
08556		2.212241	-59.446681	24.695430
08557		2.075253	-59.403817	24.753481
08558		1.957932	-59.366224	24.803928
08559		1.843173	-59.326182	24.855624
08560		1.739687	-59.285991	24.892655
08561		1.645488	-59.242813	24.925582
08562		1.571295	-59.202706	24.942399
08563		1.508488	-59.168591	24.950782
08564		1.453107	-59.137983	24.951097
08565		1.389087	-59.112617	24.959951
08566		1.337664	-59.091926	24.959898
08567		1.271665	-59.074126	24.961867
08568		1.201817	-59.060431	24.953836
08569		1.144518	-59.044717	24.942072
08570		1.111069	-59.028640	24.910380
08571		1.071819	-59.011052	24.880782
08572		1.052293	-58.984485	24.842644
08573		1.047422	-58.957251	24.811769
08574		1.060223	-58.935704	24.782079
08575		1.082796	-58.914006	24.754494
08576		1.115806	-58.890801	24.713401
08577		1.136469	-58.865387	24.673956
08578		1.165004	-58.837841	24.633618
08579		1.206343	-58.812307	24.597400
08580		1.270146	-58.791414	24.557436
08581		1.340633	-58.779407	24.518991
08582		1.407227	-58.768089	24.484414
08583		1.456719	-58.756917	24.462277
08584		1.505932	-58.744712	24.435258
08585		1.538528	-58.735384	24.419629
08586		1.572930	-58.727409	24.397152
08587		1.597014	-58.723057	24.385471
08588		1.633113	-58.721667	24.368188
08589		1.667936	-58.722065	24.356877
08590		1.709007	-58.721166	24.341200
08591		1.743692	-58.721454	24.339608
08592		1.790670	-58.725178	24.332157
08593		1.836551	-58.730971	24.332065
08594		1.890865	-58.733041	24.323912
08595		1.936098	-58.736348	24.323464
08596		1.980246	-58.740183	24.326791
08597		2.012889	-58.741698	24.346237
08598		2.054951	-58.743060	24.354666
08599		2.091086	-58.745387	24.368074
08600		2.129126	-58.749424	24.378467
08601		2.155554	-58.753264	24.388885
08602		2.183503	-58.758609	24.394665
08603		2.203048	-58.761286	24.405642
08604		2.223984	-58.762684	24.411867
08605		2.231640	-58.764399	24.421123
08606		2.245002	-58.762634	24.421841
08607		2.262241	-58.762880	24.427696
08608		2.294524	-58.762017	24.431879
08609		2.339341	-58.761971	24.443785
08610		2.407919	-58.763546	24.449041
08611		2.476296	-58.766679	24.458740
08612		2.540644	-58.768164	24.460346
08613		2.575861	-58.766134	24.474581
08614		2.614251	-58.764346	24.486810
08615		2.653872	-58.762252	24.512003
08616		2.718184	-58.764003	24.531782
08617		2.793012	-58.767106	24.552429
08618		2.881344	-58.773543	24.569902
08619		2.980621	-58.784574	24.593282
08620		3.097395	-58.799667	24.615246
08621		3.240815	-58.815497	24.639187
08622		3.415060	-58.839116	24.662726
08623		3.585097	-58.872105	24.691354
08624		3.733566	-58.905459	24.719174
08625		3.834349	-58.936078	24.756330
08626		3.900785	-58.963892	24.791224
08627		3.944795	-58.985035	24.827737
08628		4.016695	-59.004911	24.849367
08629		4.132340	-59.033703	24.878043
08630		4.321036	-59.067646	24.906461
08631		4.561526	-59.113636	24.958446
08632		4.821618	-59.171544	25.012117
08633		5.044777	-59.216731	25.071127
08634		5.234283	-59.249609	25.122727
08635		5.383494	-59.271484	25.189285
08636		5.533354	-59.284336	25.264657
08637		5.731974	-59.281062	25.357680
08638		6.071921	-59.278818	25.468291
08639		6.606366	-59.306150	25.618806
08640		7.295808	-59.381894	25.773179
08641		8.004231	-59.460590	25.933835
08642		8.648158	-59.526746	26.077285
08643		9.180429	-59.578162	26.218681
08644		9.613926	-59.612717	26.340503
08645		9.966571	-59.633918	26.460685
08646		10.315210	-59.641375	26.583404
08647		10.741430	-59.650518	26.734609
08648		11.346688	-59.678316	26.894702
08649		12.153491	-59.730064	27.073223
08650		13.139446	-59.793407	27.246481
08651		14.232026	-59.855721	27.428594
08652		15.359067	-59.910995	27.609490
08653		16.455056	-59.962721	27.791787
08654		17.495005	-59.996550	27.953661
08655		18.465078	-60.013708	28.119758
08656		19.394279	-60.023491	28.276577
08657		20.308157	-60.033171	28.425876
08658		21.238641	-60.046458	28.560282
08659		22.188753	-60.058842	28.681210
08660		23.178942	-60.075556	28.785729
08661		24.195692	-60.098883	28.885775
08662		25.224559	-60.123840	28.983240
08663		26.239505	-60.147464	29.086508
08664		27.227693	-60.172665	29.186562
08665		28.173270	-60.201092	29.284485
08666		29.073442	-60.236893	29.368386
08667		29.921512	-60.272318	29.443503
08668		30.741467	-60.311110	29.513462
08669		31.534812	-60.346839	29.586979
08670		32.331618	-60.392086	29.645516
08671		33.126204	-60.439886	29.706903
08672		33.920236	-60.495314	29.763020
08673		34.706734	-60.555219	29.829188
08674		35.494381	-60.619498	29.900430
08675		36.273306	-60.685551	29.985007
08676		37.063966	-60.756603	30.066329
08677		37.842395	-60.829916	30.155874
08678		38.613573	-60.908117	30.236915
08679		39.362959	-60.988111	30.320837
08680		40.095805	-61.076638	30.391301
08681		40.799143	-61.165603	30.456345
08682		41.485407	-61.257571	30.521102
08683		42.178146	-61.350293	30.589711
08684		42.898367	-61.454030	30.655023
08685		43.640445	-61.561769	30.735067
08686		44.428504	-61.677048	30.801036
08687		45.229347	-61.794339	30.870426
08688		46.021712	-61.914993	30.935065
08689		46.779068	-62.034118	31.003153
08690		47.519886	-62.158768	31.044669
08691		48.240567	-62.280247	31.078917
08692		48.963400	-62.406842	31.105143
08693		49.683701	-62.534605	31.139818
08694		50.435877	-62.674037	31.164814
08695		51.193909	-62.812451	31.196914
08696		51.969116	-62.957756	31.220571
08697		52.735495	-63.102244	31.235167
08698		53.503433	-63.245269	31.233394
08699		54.253348	-63.384290	31.234921
08700		54.996351	-63.523071	31.235550
08701		55.730506	-63.660030	31.238865
08702		56.477401	-63.797900	31.233268
08703		57.210533	-63.934568	31.235885
08704		57.949776	-64.068501	31.224208
08705		58.673184	-64.202653	31.214796
08706		59.388741	-64.337775	31.202650
08707		60.071071	-64.463267	31.208438
08708		60.741614	-64.588068	31.202237
08709		61.399998	-64.709976	31.183352
08710		62.033574	-64.827382	31.154511
08711		62.637680	-64.940484	31.130941
08712		63.249279	-65.053939	31.093915
08713		63.886192	-65.167350	31.047872
08714		64.560094	-65.282371	30.990442
08715		65.246207	-65.397477	30.956044
08716		65.961998	-65.516403	30.916288
08717		66.658762	-65.635109	30.880541
08718		67.340819	-65.747370	30.831820
08719		67.986039	-65.853227	30.772072
08720		68.583891	-65.947045	30.697112
08721		69.126898	-66.031637	30.647058
08722		69.670592	-66.116187	30.567535
08723		70.196802	-66.192021	30.483280
08724		70.723963	-66.266541	30.406903
08725		71.235342	-66.339354	30.346211
08726		71.746163	-66.409353	30.271492
08727		72.229796	-66.476614	30.204892
08728		72.701191	-66.540072	30.113084
08729		73.137521	-66.597992	30.028758
08730		73.568120	-66.650994	29.941281
08731		73.986564	-66.708624	29.859879
08732		74.395248	-66.763909	29.762064
08733		74.742991	-66.814184	29.672450
08734		75.042447	-66.862762	29.588555
08735		75.317065	-66.910547	29.507197
08736		75.581016	-66.952253	29.415879
08737		75.820635	-66.983485	29.330786
08738		76.037598	-67.013231	29.245095
08739		76.196037	-67.042934	29.178403
08740		76.311822	-67.069415	29.120859
08741		76.400000	-67.094630	29.059335
08742		76.456629	-67.112646	29.007905
08743		76.472069	-67.128520	28.973604
08744		76.479756	-67.144750	28.941809
08745		76.478475	-67.161357	28.922469
08746		76.489191	-67.179346	28.900796
08747		76.507917	-67.198290	28.886984
08748		76.538139	-67.216433	28.870259
08749		76.550707	-67.233371	28.867447
08750		76.571153	-67.249364	28.855657
08751		76.589379	-67.266073	28.842693
08752		76.611330	-67.277150	28.827677
08753		76.625034	-67.289165	28.823449
08754		76.646704	-67.302017	28.810790
08755		76.634264	-67.313205	28.818040
08756		76.613057	-67.326880	28.827827
08757		76.584163	-67.339456	28.841933
08758		76.567179	-67.354677	28.846465
08759		76.553892	-67.372001	28.851200
08760		76.556291	-67.390217	28.840511
08761		76.557406	-67.406353	28.835973
08762		76.580835	-67.423381	28.820520
08763		76.606489	-67.439223	28.803419
08764		76.637671	-67.453810	28.781606
08765		76.661844	-67.464573	28.767664
08766		76.685992	-67.474474	28.753808
08767		76.703237	-67.483208	28.749514
08768		76.716559	-67.490866	28.746481
08769		76.718967	-67.495088	28.746230
08770		76.725108	-67.497088	28.744498
08771		76.724400	-67.499412	28.752280
08772		76.736638	-67.499109	28.754256
08773		76.734575	-67.499749	28.763968
08774		76.730695	-67.498385	28.767641
08775		76.707141	-67.495184	28.783282
08776		76.688325	-67.492942	28.788393
08777		76.658636	-67.490334	28.805823
08778		76.648902	-67.491361	28.811310
08779		76.623657	-67.493229	28.832434
08780		76.599243	-67.496787	28.845443
08781		76.554353	-67.499768	28.867082
08782		76.509034	-67.503612	28.883698
08783		76.455181	-67.503992	28.909383
08784		76.402210	-67.504827	28.930891
08785		76.323330	-67.501971	28.965276
08786		76.238507	-67.498624	28.994788
08787		76.147102	-67.496559	29.027058
08788		76.059721	-67.492482	29.058580
08789		75.974521	-67.489957	29.092187
08790		75.906530	-67.487422	29.115747
08791		75.847194	-67.484406	29.143968
08792		75.790671	-67.483137	29.173572
08793		75.713284	-67.477954	29.218681
08794		75.637054	-67.471359	29.251541
08795		75.542053	-67.457953	29.284597
08796		75.417169	-67.438542	29.312068
08797		75.264054	-67.416020	29.336964
08798		75.099435	-67.391591	29.354271
08799		74.930072	-67.363688	29.371933
08800		74.787994	-67.337418	29.377187
08801		74.665059	-67.308721	29.380992
08802		74.577273	-67.280334	29.371514
08803		74.502716	-67.248460	29.358087
08804		74.436920	-67.216679	29.338473
08805		74.354525	-67.178672	29.326567
08806		74.276401	-67.142778	29.308445
08807		74.187656	-67.104376	29.297367
08808		74.100743	-67.064943	29.279965
08809		73.994920	-67.022509	29.265504
08810		73.886045	-66.979002	29.233306
08811		73.743438	-66.937615	29.206196
08812		73.582042	-66.889307	29.178233
08813		73.390925	-66.838007	29.155945
08814		73.175531	-66.780802	29.123491
08815		72.915149	-66.717447	29.100641
08816		72.614235	-66.649305	29.071864
08817		72.249096	-66.575758	29.053500
08818		71.839198	-66.496937	29.030548
08819		71.373923	-66.408202	29.016023
08820		70.871857	-66.316540	29.001275
08821		70.313481	-66.220328	28.996125
08822		69.710142	-66.120338	28.985921
08823		69.032853	-66.008548	28.984849
08824		68.295551	-65.887358	28.972143
08825		67.489331	-65.757233	28.968333
08826		66.645827	-65.619555	28.952349
08827		65.737352	-65.474161	28.941414
08828		64.789241	-65.317598	28.918444
08829		63.794880	-65.153043	28.904430
08830		62.773140	-64.980587	28.896161
08831		61.731017	-64.803882	28.896529
08832		60.681322	-64.626202	28.876460
08833		59.577183	-64.440312	28.881910
08834		58.432300	-64.247891	28.894743
08835		57.244367	-64.053169	28.915279
08836		56.040584	-63.858022	28.939477
08837		54.837996	-63.664764	28.966316
08838		53.686938	-63.477967	28.992527
08839		52.616276	-63.300253	29.024210
08840		51.690562	-63.138310	29.049216
08841		50.908863	-62.997065	29.074105
08842		50.222444	-62.870631	29.089335
08843		49.561990	-62.748013	29.104066
08844		48.883713	-62.618135	29.107287
08845		48.125144	-62.479957	29.121554
08846		47.282572	-62.333941	29.134089
08847		46.354890	-62.177415	29.152137
08848		45.380282	-62.021286	29.165846
08849		44.394112	-61.867929	29.180778
08850		43.433844	-61.725093	29.186610
08851		42.516878	-61.597034	29.173051
08852		41.642592	-61.475179	29.148764
08853		40.810137	-61.364564	29.113925
08854		40.003089	-61.251331	29.081607
08855		39.202511	-61.145120	29.037404
08856		38.381805	-61.033308	28.969662
08857		37.512607	-60.916159	28.899870
08858		36.593121	-60.794971	28.826980
08859		35.653089	-60.676436	28.743307
08860		34.738510	-60.564357	28.648482
08861		33.877808	-60.469466	28.549238
08862		33.091016	-60.389907	28.437645
08863		32.355909	-60.313324	28.354635
08864		31.676405	-60.241394	28.275658
08865		31.031233	-60.177781	28.202390
08866		30.390279	-60.125775	28.106428
08867		29.691694	-60.074276	27.998423
08868		28.908801	-60.003578	27.892637
08869		28.047096	-59.938670	27.784391
08870		27.143503	-59.875102	27.665104
08871		26.216381	-59.816643	27.559318
08872		25.321526	-59.756279	27.457347
08873		24.495453	-59.702040	27.371501
08874		23.763941	-59.649990	27.298566
08875		23.105554	-59.610149	27.243430
08876		22.504746	-59.578667	27.166948
08877		21.888352	-59.542823	27.092874
08878		21.244455	-59.503898	26.996908
08879		20.532889	-59.463992	26.889858
08880		19.744642	-59.420750	26.764327
08881		18.876821	-59.374227	26.637011
08882		17.975053	-59.325180	26.504048
08883		17.077316	-59.278529	26.375456
08884		16.222319	-59.241248	26.260915
08885		15.438600	-59.208471	26.156764
08886		14.733001	-59.181694	26.058598
08887		14.092471	-59.161065	25.967349
08888		13.511766	-59.145944	25.872611
08889		12.961003	-59.130542	25.784538
08890		12.440532	-59.112142	25.695825
08891		11.936959	-59.088397	25.617965
08892		11.467084	-59.068366	25.540096
08893		11.019317	-59.049923	25.462999
08894		10.584083	-59.023411	25.386336
08895		10.142536	-58.992839	25.331139
08896		9.729784	-58.959194	25.281801
08897		9.349218	-58.929283	25.250122
08898		9.017093	-58.904648	25.210767
08899		8.708315	-58.874133	25.171340
08900		8.416337	-58.848745	25.131346
08901		8.134979	-58.824804	25.094493
08902		7.861159	-58.793622	25.054272
08903		7.577751	-58.764747	25.020783
08904		7.295949	-58.736481	24.970818
08905		6.989084	-58.709126	24.926432
08906		6.668795	-58.685504	24.877489
08907		6.327385	-58.662648	24.836517
08908		5.978947	-58.643220	24.800915
08909		5.623078	-58.619825	24.776659
08910		5.281911	-58.597856	24.762311
08911		4.955956	-58.578814	24.767048
08912		4.663697	-58.561693	24.776088
08913		4.386663	-58.546513	24.798227
08914		4.124625	-58.534071	24.818611
08915		3.856387	-58.521810	24.847988
08916		3.590782	-58.506896	24.871688
08917		3.298365	-58.491330	24.920334
08918		3.006025	-58.473101	24.967049
08919		2.700855	-58.452080	25.029426
08920		2.412206	-58.431128	25.092369
08921		2.142524	-58.408052	25.176273
08922		1.909809	-58.388634	25.267512
08923		1.714465	-58.370303	25.362925
08924		1.543455	-58.350497	25.458174
08925		1.396327	-58.328010	25.548156
08926		1.258470	-58.304387	25.635531
08927		1.119034	-58.277750	25.722489
08928		0.988664	-58.252748	25.801416
08929		0.864058	-58.229757	25.888386
08930		0.742300	-58.206523	25.977194
08931		0.621615	-58.180246	26.070801
08932		0.517935	-58.161178	26.150479
08933		0.419216	-58.139546	26.222224
08934		0.349589	-58.121500	26.266356
08935		0.293256	-58.105093	26.307966
08936		0.248132	-58.084633	26.338056
08937		0.210163	-58.062737	26.360627
08938		0.184980	-58.040372	26.369034
08939		0.152206	-58.021838	26.376641
08940		0.119669	-58.002608	26.375775
08941		0.075598	-57.984933	26.380773
08942		0.041031	-57.967885	26.373210
08943		0.010072	-57.950232	26.367887
08944		0.001433	-57.936191	26.350913
08945		0.000689	-57.929121	26.333979
08946		0.000124	-57.926027	26.311611
08947		-0.016920	-57.924631	26.295266
08948		-0.044809	-57.925913	26.280136
08949		-0.087169	-57.926963	26.272047
08950		-0.123301	-57.928544	26.260001
08951		-0.148164	-57.929111	26.252470
08952		-0.151379	-57.929991	26.238721
08953		-0.147730	-57.926059	26.228225
08954		-0.136307	-57.916835	26.211471
08955		-0.133144	-57.900598	26.197945
08956		-0.129076	-57.876143	26.178096
08957		-0.133427	-57.844218	26.166763
08958		-0.133201	-57.807043	26.149881
08959		-0.140037	-57.763386	26.139705
08960		-0.152989	-57.712794	26.129289
08961		-0.186076	-57.656793	26.134793
08962		-0.218128	-57.593570	26.146146
08963		-0.245469	-57.528286	26.171344
08964		-0.262202	-57.463541	26.198458
08965		-0.281247	-57.399800	26.232925
08966		-0.320112	-57.335022	26.267587
08967		-0.382899	-57.268218	26.312023
08968		-0.453117	-57.200709	26.360203
08969		-0.518661	-57.136344	26.416393
08970		-0.564499	-57.079703	26.467100
08971		-0.606787	-57.024505	26.524040
08972		-0.646214	-56.975297	26.571032
08973		-0.699733	-56.926132	26.631147
08974		-0.759270	-56.883884	26.692552
08975		-0.837640	-56.847089	26.763882
08976		-0.920597	-56.818994	26.832272
08977		-1.012945	-56.799069	26.911263
08978		-1.088476	-56.785805	26.984914
08979		-1.150074	-56.783331	27.066951
08980		-1.176393	-56.789641	27.141259
08981		-1.180930	-56.806458	27.218615
08982		-1.164009	-56.829294	27.280740
08983		-1.155017	-56.858038	27.346359
08984		-1.147651	-56.888633	27.400625
08985		-1.147788	-56.918663	27.452321
08986		-1.134471	-56.952294	27.491409
08987		-1.123167	-56.985078	27.532208
08988		-1.094947	-57.015725	27.557800
08989		-1.059982	-57.045856	27.576755
08990		-1.015141	-57.070364	27.583289
08991		-0.961775	-57.091203	27.581236
08992		-0.898150	-57.108470	27.572890
08993		-0.832090	-57.117601	27.563966
08994		-0.754789	-57.120258	27.544046
08995		-0.678122	-57.118618	27.529207
08996		-0.588944	-57.114719	27.504410
08997		-0.500713	-57.105465	27.486212
08998		-0.399912	-57.096831	27.462838
08999		-0.303004	-57.086233	27.446408
09000		-0.208948	-57.081585	27.422443
09001		-0.144675	-57.073202	27.405343
09002		-0.088348	-57.066026	27.381917
09003		-0.028864	-57.062961	27.367147
09004		0.055694	-57.065384	27.351530
09005		0.173428	-57.070755	27.338814
09006		0.331132	-57.081840	27.323823
09007		0.517433	-57.100726	27.313754
09008		0.722597	-57.120963	27.299071
09009		0.930221	-57.145514	27.299682
09010		1.161251	-57.178093	27.300003
09011		1.391540	-57.221194	27.312233
09012		1.616407	-57.258867	27.323643
09013		1.839824	-57.296698	27.347114
09014		2.078866	-57.340606	27.372321
09015		2.326080	-57.384630	27.404850
09016		2.584592	-57.433502	27.430403
09017		2.826426	-57.488103	27.456980
09018		3.027670	-57.531052	27.477813
09019		3.182545	-57.563977	27.505274
09020		3.345766	-57.590693	27.527031
09021		3.535053	-57.607357	27.555426
09022		3.801622	-57.622332	27.604847
09023		4.206174	-57.641355	27.683586
09024		4.779089	-57.689599	27.773325
09025		5.462120	-57.756796	27.867608
09026		6.174280	-57.832199	27.942540
09027		6.822730	-57.896178	28.006628
09028		7.395167	-57.945392	28.044303
09029		7.896393	-57.980022	28.083530
09030		8.379695	-57.990127	28.136839
09031		8.913771	-57.989563	28.229278
09032		9.592649	-58.001334	28.347061
09033		10.459095	-58.038765	28.479211
09034		11.502418	-58.092419	28.612009
09035		12.644125	-58.160457	28.733632
09036		13.790612	-58.234074	28.833026
09037		14.832561	-58.299431	28.923793
09038		15.737779	-58.353223	29.000674
09039		16.519389	-58.395062	29.078059
09040		17.240793	-58.431325	29.167284
09041		17.966844	-58.471507	29.286212
09042		18.776279	-58.525859	29.419152
09043		19.715382	-58.584191	29.572856
09044		20.805557	-58.659026	29.727973
09045		21.993545	-58.746886	29.886183
09046		23.212496	-58.841702	30.027802
09047		24.353944	-58.929241	30.163931
09048		25.370007	-59.014025	30.271090
09049		26.246403	-59.086240	30.375449
09050		27.035440	-59.154474	30.484013
09051		27.788681	-59.224858	30.596947
09052		28.563315	-59.300340	30.701147
09053		29.364740	-59.377434	30.823619
09054		30.228472	-59.466526	30.949763
09055		31.147330	-59.566300	31.081055
09056		32.107950	-59.675574	31.207381
09057		33.067024	-59.785421	31.343920
09058		34.000147	-59.899590	31.478011
09059		34.882532	-60.010783	31.612765
09060		35.735972	-60.119648	31.751181
09061		36.578443	-60.230035	31.889922
09062		37.439389	-60.347732	32.017436
09063		38.322727	-60.465949	32.146074
09064		39.234865	-60.592156	32.273344
09065		40.158843	-60.721888	32.402028
09066		41.081883	-60.854610	32.516020
09067		41.971063	-60.984812	32.626996
09068		42.822731	-61.119484	32.721343
09069		43.618351	-61.248934	32.806883
09070		44.375208	-61.375692	32.886383
09071		45.104378	-61.504534	32.957645
09072		45.828715	-61.632195	33.017877
09073		46.554421	-61.760082	33.083816
09074		47.281813	-61.892699	33.138849
09075		47.994998	-62.021329	33.195505
09076		48.698778	-62.150504	33.261784
09077		49.397322	-62.281343	33.318156
09078		50.090987	-62.411885	33.378505
09079		50.796865	-62.544506	33.436092
09080		51.518658	-62.680322	33.462910
09081		52.240654	-62.815692	33.497943
09082		52.990180	-62.951363	33.527307
09083		53.755100	-63.089177	33.549874
09084		54.554604	-63.233513	33.587002
09085		55.408418	-63.386122	33.624633
09086		56.309660	-63.547859	33.655107
09087		57.226024	-63.707560	33.691356
09088		58.186285	-63.871025	33.733790
09089		59.183734	-64.040431	33.767643
09090		60.206072	-64.207205	33.786320
09091		61.216443	-64.374520	33.797596
09092		62.190706	-64.533883	33.773143
09093		63.085752	-64.680700	33.755359
09094		63.917576	-64.821435	33.717352
09095		64.663015	-64.948146	33.675725
09096		65.347636	-65.066406	33.625337
09097		65.984066	-65.178196	33.575011
09098		66.620003	-65.288227	33.521536
09099		67.286104	-65.398560	33.469806
09100		67.998622	-65.512885	33.402017
09101		68.751678	-65.629885	33.342789
09102		69.537134	-65.757016	33.272578
09103		70.317124	-65.883719	33.189451
09104		71.058937	-66.008024	33.095586
09105		71.717730	-66.123550	32.992817
09106		72.286981	-66.229278	32.888395
09107		72.780396	-66.325710	32.794210
09108		73.256850	-66.415709	32.678874
09109		73.716704	-66.499361	32.583482
09110		74.199155	-66.581963	32.487961
09111		74.718668	-66.670259	32.395377
09112		75.281613	-66.764777	32.292848
09113		75.836150	-66.863679	32.195084
09114		76.346593	-66.960362	32.082328
09115		76.762381	-67.046099	31.995130
09116		77.101242	-67.125197	31.910109
09117		77.377720	-67.197344	31.830169
09118		77.655052	-67.267898	31.732460
09119		77.944881	-67.334558	31.644565
09120		78.296515	-67.406826	31.558415
09121		78.710141	-67.486844	31.469095
09122		79.173750	-67.568959	31.378064
09123		79.626952	-67.649191	31.306776
09124		80.041206	-67.727115	31.240800
09125		80.388292	-67.795460	31.182327
09126		80.661691	-67.857957	31.128224
09127		80.851144	-67.907130	31.089796
09128		81.005493	-67.948671	31.046974
09129		81.153170	-67.987813	31.012951
09130		81.354642	-68.029586	30.965418
09131		81.608865	-68.078048	30.922567
09132		81.909236	-68.132729	30.870102
09133		82.197342	-68.185827	30.829649
09134		82.454366	-68.234863	30.795080
09135		82.671527	-68.277485	30.765245
09136		82.845931	-68.312020	30.728229
09137		82.943526	-68.330840	30.701724
09138		82.972427	-68.340702	30.681786
09139		82.937064	-68.349350	30.670187
09140		82.890255	-68.354317	30.659045
09141		82.848728	-68.364362	30.655584
09142		82.823761	-68.377255	30.648822
09143		82.804180	-68.392531	30.653802
09144		82.801288	-68.407495	30.653382
09145		82.797709	-68.418716	30.654208
09146		82.790901	-68.428531	30.647226
09147		82.759369	-68.428358	30.643753
09148		82.714530	-68.427347	30.637472
09149		82.643099	-68.423381	30.640455
09150		82.581540	-68.421021	30.643222
09151		82.538458	-68.417492	30.657089
09152		82.539722	-68.419516	30.664980
09153		82.555422	-68.425119	30.676558
09154		82.573080	-68.429416	30.684109
09155		82.564104	-68.433927	30.697435
09156		82.538715	-68.434556	30.705485
09157		82.502578	-68.432688	30.707552
09158		82.457175	-68.429246	30.709666
09159		82.396379	-68.425186	30.722956
09160		82.337463	-68.421619	30.736159
09161		82.280324	-68.421151	30.759839
09162		82.262201	-68.424180	30.773416
09163		82.270880	-68.428502	30.786277
09164		82.301539	-68.434751	30.792659
09165		82.343390	-68.440755	30.786422
09166		82.372301	-68.442672	30.775139
09167		82.368080	-68.443523	30.769080
09168		82.350821	-68.442647	30.757000
09169		82.318668	-68.440178	30.747275
09170		82.292329	-68.438258	30.733993
09171		82.271799	-68.439528	30.731541
09172		82.279501	-68.440489	30.722403
09173		82.312087	-68.442116	30.716545
09174		82.373429	-68.444969	30.698372
09175		82.432043	-68.444961	30.681452
09176		82.486351	-68.441420	30.654609
09177		82.512459	-68.432252	30.634273
09178		82.527808	-68.421006	30.608695
09179		82.522266	-68.404300	30.594098
09180		82.509024	-68.389943	30.578517
09181		82.457305	-68.371018	30.577304
09182		82.383213	-68.352637	30.578451
09183		82.266766	-68.338077	30.592918
09184		82.119347	-68.330783	30.618026
09185		81.923837	-68.329842	30.670671
09186		81.693841	-68.340295	30.741588
09187		81.419317	-68.361236	30.835403
09188		81.110698	-68.393122	30.946860
09189		80.750897	-68.431894	31.086070
09190		80.376085	-68.478034	31.230826
09191		79.985217	-68.526695	31.373159
09192		79.588992	-68.574071	31.501285
09193		79.178549	-68.617073	31.631168
09194		78.773085	-68.658999	31.745480
09195		78.364503	-68.694514	31.849554
09196		77.949931	-68.718703	31.940712
09197		77.512485	-68.727068	32.029248
09198		77.061941	-68.717106	32.108734
09199		76.570628	-68.691085	32.192620
09200		76.062583	-68.650063	32.263493
09201		75.520312	-68.592643	32.346505
09202		74.974513	-68.525856	32.417367
09203		74.420161	-68.447894	32.487213
09204		73.867986	-68.362126	32.537140
09205		73.279504	-68.267047	32.605805
09206		72.671263	-68.170891	32.653327
09207		72.013963	-68.071509	32.681062
09208		71.273092	-67.969105	32.705208
09209		70.439323	-67.860296	32.728229
09210		69.526587	-67.751195	32.749511
09211		68.532396	-67.641900	32.788942
09212		67.516957	-67.531232	32.818095
09213		66.520063	-67.424179	32.839324
09214		65.598281	-67.322195	32.848551
09215		64.796387	-67.229417	32.859261
09216		64.129133	-67.156591	32.853317
09217		63.542906	-67.095953	32.831784
09218		62.964512	-67.034929	32.802501
09219		62.327359	-66.959603	32.778493
09220		61.607335	-66.873528	32.746408
09221		60.787289	-66.774340	32.714619
09222		59.894120	-66.667746	32.675036
09223		58.951171	-66.557073	32.674377
09224		58.028358	-66.453104	32.696042
09225		57.166847	-66.357149	32.738633
09226		56.408616	-66.276287	32.791601
09227		55.751466	-66.201714	32.860254
09228		55.197632	-66.142630	32.910648
09229		54.706026	-66.087485	32.939872
09230		54.197145	-66.028705	32.944984
09231		53.581781	-65.959711	32.923611
09232		52.820895	-65.870239	32.880510
09233		51.895777	-65.758683	32.836839
09234		50.869234	-65.632696	32.791709
09235		49.825917	-65.505556	32.760075
09236		48.875098	-65.390691	32.739818
09237		48.059406	-65.290487	32.753781
09238		47.408983	-65.205682	32.779409
09239		46.876439	-65.136299	32.804740
09240		46.409002	-65.077303	32.783699
09241		45.884217	-65.001557	32.773397
09242		45.253690	-64.905172	32.762953
09243		44.511887	-64.797626	32.736924
09244		43.691684	-64.678142	32.692989
09245		42.820177	-64.553096	32.644541
09246		41.958038	-64.425199	32.595491
09247		41.137553	-64.301673	32.569810
09248		40.420928	-64.190104	32.540281
09249		39.800052	-64.087632	32.510899
09250		39.236671	-63.995662	32.455993
09251		38.659365	-63.889770	32.403916
09252		38.033405	-63.775964	32.338089
09253		37.347263	-63.660523	32.252271
09254		36.599454	-63.531191	32.167891
09255		35.805947	-63.392949	32.102639
09256		35.031883	-63.251500	32.034772
09257		34.323399	-63.113331	31.969689
09258		33.708632	-62.983491	31.906499
09259		33.169327	-62.855931	31.850636
09260		32.681888	-62.732292	31.798412
09261		32.196952	-62.607595	31.751842
09262		31.676485	-62.475829	31.700944
09263		31.075269	-62.345105	31.625175
09264		30.367062	-62.208437	31.510046
09265		29.526845	-62.058821	31.377430
09266		28.578330	-61.899821	31.225601
09267		27.562292	-61.745873	31.059887
09268		26.538761	-61.579535	30.897331
09269		25.559805	-61.423559	30.751924
09270		24.662741	-61.273858	30.630025
09271		23.854573	-61.124189	30.530430
09272		23.147852	-60.978106	30.436727
09273		22.520977	-60.845469	30.344666
09274		21.945766	-60.717167	30.252530
09275		21.385279	-60.585767	30.174525
09276		20.850219	-60.452507	30.083377
09277		20.314416	-60.330844	29.997242
09278		19.796822	-60.219140	29.915614
09279		19.304495	-60.111946	29.846737
09280		18.849368	-60.019051	29.783302
09281		18.415129	-59.933164	29.733765
09282		18.010056	-59.850306	29.686421
09283		17.603191	-59.779613	29.646041
09284		17.179183	-59.714457	29.603718
09285		16.722016	-59.647500	29.559647
09286		16.236334	-59.579951	29.503814
09287		15.719941	-59.511951	29.446177
09288		15.191674	-59.445941	29.378493
09289		14.640543	-59.372419	29.311131
09290		14.071385	-59.295126	29.236607
09291		13.490459	-59.214800	29.162378
09292		12.908336	-59.130802	29.074336
09293		12.313883	-59.041877	28.996401
09294		11.725340	-58.954564	28.905048
09295		11.130318	-58.865140	28.809778
09296		10.523882	-58.775810	28.709107
09297		9.901979	-58.691205	28.604770
09298		9.262174	-58.605153	28.486069
09299		8.596362	-58.509361	28.364215
09300		7.923400	-58.409111	28.238166
09301		7.258770	-58.307010	28.115330
09302		6.646330	-58.209469	27.986717
09303		6.097206	-58.117321	27.871556
09304		5.630161	-58.036134	27.771016
09305		5.222427	-57.965553	27.690919
09306		4.865102	-57.899288	27.621125
09307		4.534667	-57.839558	27.575576
09308		4.227957	-57.779684	27.530544
09309		3.911545	-57.722467	27.498902
09310		3.587256	-57.664771	27.473254
09311		3.249637	-57.609565	27.457973
09312		2.905546	-57.552533	27.442931
09313		2.552323	-57.496545	27.435213
09314		2.211910	-57.442417	27.429490
09315		1.896632	-57.392100	27.432582
09316		1.621938	-57.350679	27.432193
09317		1.371100	-57.314296	27.441067
09318		1.132999	-57.281869	27.458606
09319		0.891835	-57.252739	27.487814
09320		0.633685	-57.222786	27.520343
09321		0.360898	-57.191173	27.559266
09322		0.091162	-57.161204	27.599603
09323		-0.175788	-57.134886	27.650750
09324		-0.425328	-57.112892	27.708212
09325		-0.661809	-57.091650	27.780045
09326		-0.865499	-57.076243	27.851983
09327		-1.046117	-57.066442	27.929696
09328		-1.213679	-57.064835	28.006655
09329		-1.390445	-57.071984	28.090686
09330		-1.575110	-57.078018	28.171705
09331		-1.757623	-57.082921	28.243973
09332		-1.941836	-57.090529	28.315424
09333		-2.126609	-57.091088	28.380947
09334		-2.289156	-57.081360	28.438639
09335		-2.428627	-57.069462	28.497019
09336		-2.539385	-57.051421	28.547904
09337		-2.638510	-57.031338	28.589116
09338		-2.725226	-57.014177	28.610922
09339		-2.799392	-56.993959	28.621986
09340		-2.867441	-56.977286	28.619952
09341		-2.927860	-56.958524	28.617104
09342		-2.990322	-56.938883	28.616742
09343		-3.051027	-56.917858	28.615069
09344		-3.081873	-56.897174	28.605103
09345		-3.102215	-56.871946	28.593816
09346		-3.105582	-56.848154	28.573100
09347		-3.106818	-56.825046	28.553685
09348		-3.108887	-56.805939	28.529313
09349		-3.109657	-56.786111	28.500011
09350		-3.107724	-56.769054	28.460905
09351		-3.105518	-56.756349	28.423747
09352		-3.102949	-56.743486	28.382931
09353		-3.110132	-56.726865	28.347852
09354		-3.113170	-56.708407	28.307279
09355		-3.109236	-56.697616	28.269106
09356		-3.081180	-56.691258	28.224045
09357		-3.058397	-56.688313	28.188381
09358		-3.042732	-56.683506	28.154082
09359		-3.046515	-56.675469	28.127934
09360		-3.044923	-56.669288	28.098446
09361		-3.027300	-56.667487	28.071823
09362		-2.981961	-56.670934	28.039849
09363		-2.927014	-56.676633	28.011806
09364		-2.871513	-56.685080	27.987277
09365		-2.839723	-56.691532	27.969965
09366		-2.829236	-56.692825	27.957396
09367		-2.820554	-56.690115	27.946349
09368		-2.802295	-56.686422	27.936609
09369		-2.764743	-56.688073	27.929297
09370		-2.700298	-56.693076	27.912297
09371		-2.634176	-56.700651	27.902843
09372		-2.578050	-56.708987	27.887215
09373		-2.553543	-56.713517	27.876527
09374		-2.554459	-56.716836	27.869208
09375		-2.565211	-56.715168	27.866515
09376		-2.569537	-56.715505	27.863815
09377		-2.560698	-56.720582	27.861522
09378		-2.536100	-56.726376	27.855141
09379		-2.503691	-56.731636	27.847337
09380		-2.467481	-56.737936	27.838094
09381		-2.437858	-56.743079	27.829589
09382		-2.410008	-56.744682	27.812886
09383		-2.385482	-56.748381	27.800441
09384		-2.354554	-56.751021	27.785289
09385		-2.331371	-56.752118	27.779034
09386		-2.297836	-56.753281	27.766537
09387		-2.256395	-56.757628	27.751471
09388		-2.203780	-56.762326	27.735332
09389		-2.151984	-56.765916	27.719201
09390		-2.099819	-56.765212	27.703711
09391		-2.048495	-56.762077	27.695036
09392		-1.985200	-56.755075	27.685157
09393		-1.913957	-56.747952	27.682679
09394		-1.834480	-56.738857	27.676946
09395		-1.761570	-56.732036	27.672878
09396		-1.693339	-56.728962	27.667042
09397		-1.651334	-56.723722	27.673484
09398		-1.609974	-56.717015	27.676068
09399		-1.580754	-56.709740	27.690106
09400		-1.541503	-56.704253	27.704471
09401		-1.488210	-56.702056	27.723921
09402		-1.418098	-56.706634	27.739783
09403		-1.363404	-56.710138	27.764931
09404		-1.340252	-56.709078	27.783047
09405		-1.349104	-56.709328	27.792997
09406		-1.373870	-56.705719	27.790314
09407		-1.401566	-56.708429	27.784884
09408		-1.401686	-56.715059	27.775912
09409		-1.383305	-56.725887	27.773897
09410		-1.355610	-56.740153	27.772635
09411		-1.329747	-56.757705	27.775080
09412		-1.299193	-56.773319	27.773401
09413		-1.258378	-56.788594	27.767525
09414		-1.209995	-56.805882	27.762952
09415		-1.154671	-56.822691	27.759496
09416		-1.090409	-56.837595	27.751982
09417		-1.003595	-56.849726	27.741389
09418		-0.874736	-56.860931	27.719561
09419		-0.710175	-56.868066	27.703054
09420		-0.501624	-56.869850	27.678294
09421		-0.252956	-56.877366	27.658885
09422		0.033432	-56.887372	27.633419
09423		0.330852	-56.892244	27.611030
09424		0.640140	-56.897447	27.583079
09425		0.962109	-56.902213	27.560617
09426		1.306062	-56.905523	27.544505
09427		1.698867	-56.899182	27.544387
09428		2.185299	-56.890300	27.552954
09429		2.796794	-56.886521	27.584219
09430		3.529717	-56.925158	27.616735
09431		4.283539	-56.980058	27.647222
09432		4.932571	-57.021628	27.669321
09433		5.430178	-57.049240	27.685296
09434		5.817619	-57.062847	27.682539
09435		6.159385	-57.061105	27.667258
09436		6.532939	-57.054375	27.654007
09437		7.015444	-57.056976	27.667539
09438		7.680380	-57.095089	27.695583
09439		8.505555	-57.163336	27.728469
09440		9.423632	-57.234491	27.758320
09441		10.352089	-57.303844	27.794703
09442		11.245782	-57.367156	27.825520
09443		12.074762	-57.413021	27.863278
09444		12.876038	-57.447656	27.908562
09445		13.698916	-57.468665	27.985514
09446		14.596848	-57.492254	28.087524
09447		15.599197	-57.526064	28.211837
09448		16.696540	-57.574181	28.332681
09449		17.839731	-57.620304	28.451761
09450		18.964787	-57.662381	28.569510
09451		20.021586	-57.696498	28.672790
09452		20.990631	-57.723482	28.758445
09453		21.861770	-57.740488	28.829527
09454		22.670426	-57.753678	28.885766
09455		23.459317	-57.760534	28.946311
09456		24.293883	-57.777502	29.020211
09457		25.225107	-57.802855	29.103666
09458		26.263124	-57.840594	29.196609
09459		27.359485	-57.884232	29.304327
09460		28.473434	-57.935448	29.396338
09461		29.529503	-57.982847	29.475995
09462		30.472137	-58.026087	29.533665
09463		31.287781	-58.061895	29.573326
09464		31.999758	-58.096490	29.587533
09465		32.666872	-58.118537	29.615939
09466		33.393999	-58.162836	29.638036
09467		34.251828	-58.218798	29.662076
09468		35.255242	-58.292803	29.700433
09469		36.383537	-58.376005	29.753833
09470		37.609506	-58.471915	29.805854
09471		38.862445	-58.572561	29.852153
09472		40.036526	-58.670150	29.882636
09473		41.077064	-58.756988	29.885927
09474		41.944214	-58.830624	29.871757
09475		42.643813	-58.893163	29.847476
09476		43.263854	-58.954362	29.799304
09477		43.845547	-59.014720	29.732980
09478		44.433706	-59.079829	29.668980
09479		45.080932	-59.150682	29.624120
09480		45.834951	-59.235477	29.589811
09481		46.710977	-59.332557	29.569689
09482		47.702444	-59.445363	29.557470
09483		48.767433	-59.568939	29.542786
09484		49.862887	-59.692437	29.509233
09485		50.901775	-59.810442	29.472207
09486		51.866534	-59.919890	29.408682
09487		52.746231	-60.017222	29.330907
09488		53.576376	-60.109929	29.243026
09489		54.402534	-60.205119	29.149737
09490		55.271878	-60.304959	29.042695
09491		56.174294	-60.407880	28.940999
09492		57.105358	-60.516199	28.844747
09493		58.055312	-60.621721	28.756143
09494		59.013636	-60.725653	28.666149
09495		59.935177	-60.830900	28.576132
09496		60.803636	-60.930934	28.472315
09497		61.586521	-61.018634	28.362776
09498		62.356283	-61.102008	28.236799
09499		63.133305	-61.182507	28.093565
09500		63.957027	-61.262562	27.961838
09501		64.867171	-61.354013	27.830591
09502		65.858625	-61.451672	27.698069
09503		66.902715	-61.559491	27.567909
09504		67.956273	-61.671974	27.432275
09505		68.981790	-61.783945	27.299561
09506		69.960438	-61.896017	27.160397
09507		70.875343	-62.005919	27.018793
09508		71.750608	-62.116308	26.868687
09509		72.593426	-62.221375	26.714614
09510		73.423615	-62.327354	26.556330
09511		74.253619	-62.433456	26.394410
09512		75.094466	-62.539237	26.224584
09513		75.923794	-62.644918	26.059741
09514		76.726663	-62.746065	25.886387
09515		77.460753	-62.838280	25.712738
09516		78.113235	-62.918033	25.547469
09517		78.691077	-62.986316	25.386225
09518		79.204836	-63.046490	25.222933
09519		79.679224	-63.098580	25.067732
09520		80.139931	-63.151190	24.908454
09521		80.589794	-63.206186	24.746433
09522		81.048289	-63.262015	24.577362
09523		81.505258	-63.313612	24.395285
09524		81.974614	-63.363913	24.208055
09525		82.453168	-63.417133	24.028321
09526		82.983006	-63.476931	23.845497
09527		83.573938	-63.548655	23.674401
09528		84.231635	-63.626400	23.494788
09529		84.914462	-63.707197	23.325996
09530		85.626879	-63.785326	23.152397
09531		86.394145	-63.870363	22.976172
09532		87.240863	-63.960320	22.777523
09533		88.147659	-64.051796	22.579568
09534		89.131782	-64.147930	22.376802
09535		90.122368	-64.241896	22.167627
09536		91.069015	-64.324103	21.965074
09537		91.917840	-64.392696	21.779667
09538		92.633457	-64.447411	21.611506
09539		93.193809	-64.490377	21.468793
09540		93.647015	-64.528730	21.349275
09541		94.050954	-64.571862	21.242745
09542		94.505771	-64.616328	21.115814
09543		95.002185	-64.663694	20.989421
09544		95.530471	-64.711863	20.852971
09545		96.070406	-64.754788	20.724036
09546		96.613347	-64.795287	20.592264
09547		97.108554	-64.830813	20.464400
09548		97.523863	-64.856734	20.351673
09549		97.834142	-64.873861	20.258021
09550		98.037838	-64.882358	20.180740
09551		98.112268	-64.877451	20.122258
09552		98.073409	-64.866536	20.078894
09553		97.956642	-64.860208	20.062794
09554		97.841772	-64.861914	20.054154
09555		97.766117	-64.871173	20.047422
09556		97.734312	-64.890563	20.046686
09557		97.738139	-64.919294	20.046750
09558		97.781564	-64.948718	20.041368
09559		97.856025	-64.983687	20.028220
09560		97.936440	-65.017201	20.001795
09561		97.981110	-65.045719	19.978080
09562		98.010761	-65.067040	19.945976
09563		98.029492	-65.084482	19.913756
09564		98.067258	-65.100997	19.868624
09565		98.115058	-65.115873	19.826186
09566		98.175309	-65.126767	19.773600
09567		98.244741	-65.134601	19.716080
09568		98.322897	-65.139936	19.648869
09569		98.396871	-65.141355	19.579833
09570		98.463864	-65.141675	19.510193
09571		98.510935	-65.140106	19.441474
09572		98.555013	-65.140083	19.367830
09573		98.572699	-65.136554	19.304324
09574		98.595117	-65.140001	19.241250
09575		98.629718	-65.146314	19.184000
09576		98.697237	-65.157474	19.122676
09577		98.791772	-65.171769	19.063031
09578		98.905033	-65.187650	19.004333
09579		99.008404	-65.205103	18.953099
09580		99.092381	-65.218657	18.905985
09581		99.143172	-65.229156	18.866103
09582		99.167206	-65.241835	18.831832
09583		99.161463	-65.254211	18.810906
09584		99.144234	-65.266315	18.799876
09585		99.121342	-65.280494	18.807484
09586		99.115702	-65.298592	18.809733
09587		99.107689	-65.317753	18.822141
09588		99.106060	-65.336223	18.837266
09589		99.104266	-65.352757	18.856214
09590		99.108494	-65.368445	18.865844
09591		99.088364	-65.380995	18.881889
09592		99.042437	-65.389409	18.902067
09593		98.958643	-65.395342	18.929598
09594		98.830164	-65.397891	18.958741
09595		98.640202	-65.392802	18.998125
09596		98.386103	-65.383921	19.046106
09597		98.063415	-65.369839	19.103188
09598		97.671616	-65.348008	19.170584
09599		97.217971	-65.322604	19.246322
09600		96.708257	-65.292696	19.332924
09601		96.149970	-65.256929	19.435897
09602		95.565696	-65.222515	19.540602
09603		94.950281	-65.185062	19.659050
09604		94.332478	-65.147271	19.782946
09605		93.730471	-65.106615	19.905159
09606		93.140655	-65.067749	20.032071
09607		92.550444	-65.023682	20.166625
09608		91.959490	-64.976511	20.303776
09609		91.347618	-64.921649	20.440064
09610		90.688417	-64.855515	20.569480
09611		89.936357	-64.771109	20.698791
09612		89.133004	-64.675148	20.835120
09613		88.311876	-64.573733	20.980905
09614		87.505483	-64.475865	21.121100
09615		86.703048	-64.378816	21.261471
09616		85.890767	-64.282380	21.401094
09617		85.037181	-64.182083	21.546588
09618		84.144985	-64.080063	21.700949
09619		83.211082	-63.978570	21.871046
09620		82.241963	-63.879078	22.046204
09621		81.240840	-63.774017	22.222618
09622		80.251881	-63.668985	22.398169
09623		79.314238	-63.569217	22.575319
09624		78.463567	-63.477720	22.729272
09625		77.684992	-63.392703	22.878237
09626		76.965219	-63.311413	23.021903
09627		76.268718	-63.229482	23.153366
09628		75.564572	-63.147192	23.276063
09629		74.823147	-63.058437	23.377395
09630		74.005412	-62.960263	23.485408
09631		73.115140	-62.854960	23.596015
09632		72.185775	-62.746787	23.711249
09633		71.259845	-62.638990	23.830468
09634		70.410854	-62.537451	23.941410
09635		69.666930	-62.446718	24.058812
09636		69.033204	-62.371244	24.167718
09637		68.481328	-62.300829	24.254512
09638		67.954351	-62.234377	24.325969
09639		67.396746	-62.162635	24.383343
09640		66.773233	-62.082542	24.431005
09641		66.050029	-61.992666	24.479116
09642		65.240249	-61.893889	24.528218
09643		64.389829	-61.797935	24.599391
09644		63.560259	-61.708308	24.664749
09645		62.795278	-61.627280	24.736955
09646		62.141896	-61.556569	24.808777
09647		61.629974	-61.500657	24.871086
09648		61.238835	-61.461169	24.902156
09649		60.861488	-61.424979	24.931233
09650		60.429884	-61.385535	24.946310
09651		59.861800	-61.333633	24.938917
09652		59.117028	-61.262339	24.915753
09653		58.168268	-61.176245	24.881350
09654		57.035395	-61.072066	24.834620
09655		55.743249	-60.952876	24.816583
09656		54.388689	-60.832393	24.803412
09657		53.078492	-60.718191	24.798742
09658		51.931221	-60.620594	24.806979
09659		50.999591	-60.552359	24.829960
09660		50.269873	-60.509770	24.857246
09661		49.650701	-60.480242	24.877447
09662		49.055570	-60.452228	24.869695
09663		48.342784	-60.397739	24.886330
09664		47.504621	-60.322364	24.890002
09665		46.530365	-60.228219	24.878310
09666		45.450610	-60.117941	24.865320
09667		44.311330	-60.002600	24.864321
09668		43.182802	-59.886493	24.874925
09669		42.113752	-59.779282	24.900076
09670		41.161184	-59.692380	24.906473
09671		40.310298	-59.613679	24.923097
09672		39.526466	-59.536205	24.947206
09673		38.768580	-59.459083	24.968559
09674		37.995554	-59.376717	24.974452
09675		37.178834	-59.286347	24.957536
09676		36.299526	-59.189906	24.917969
09677		35.355186	-59.081297	24.869038
09678		34.378711	-58.965400	24.803233
09679		33.390133	-58.852759	24.720757
09680		32.426919	-58.735375	24.640440
09681		31.512544	-58.627169	24.563386
09682		30.668412	-58.528981	24.479441
09683		29.866432	-58.435182	24.400165
09684		29.094207	-58.345263	24.327320
09685		28.311242	-58.259318	24.245527
09686		27.491877	-58.166636	24.152062
09687		26.610749	-58.067144	24.044092
09688		25.674553	-57.960728	23.917613
09689		24.715474	-57.854315	23.779429
09690		23.772880	-57.753089	23.645773
09691		22.882711	-57.655298	23.528485
09692		22.087791	-57.565176	23.435748
09693		21.387465	-57.481777	23.360330
09694		20.781755	-57.407641	23.286132
09695		20.227068	-57.342916	23.207958
09696		19.681786	-57.282377	23.109227
09697		19.105368	-57.213128	22.991321
09698		18.476675	-57.136582	22.858286
09699		17.803254	-57.064846	22.715449
09700		17.102518	-57.000129	22.566422
09701		16.367216	-56.936380	22.419593
09702		15.619377	-56.867865	22.279640
09703		14.890479	-56.805371	22.151187
09704		14.205609	-56.749676	22.034053
09705		13.585530	-56.697410	21.928704
09706		13.038715	-56.651752	21.832863
09707		12.557837	-56.613764	21.740642
09708		12.114814	-56.584818	21.642177
09709		11.695608	-56.550782	21.532407
09710		11.276785	-56.511142	21.420315
09711		10.854209	-56.473015	21.309248
09712		10.428101	-56.428509	21.211068
09713		10.005215	-56.385155	21.138997
09714		9.603264	-56.346331	21.088346
09715		9.220496	-56.311741	21.057324
09716		8.857972	-56.284172	21.032140
09717		8.502794	-56.253169	21.016261
09718		8.154716	-56.229416	20.997306
09719		7.805078	-56.204375	20.979364
09720		7.458781	-56.176558	20.963853
09721		7.121525	-56.147348	20.959841
09722		6.799725	-56.119757	20.968560
09723		6.491225	-56.089315	20.991543
09724		6.196834	-56.061130	21.026779
09725		5.913871	-56.033652	21.073632
09726		5.638526	-56.005394	21.124839
09727		5.371758	-55.982355	21.180474
09728		5.115106	-55.959268	21.238508
09729		4.869027	-55.943055	21.305207
09730		4.635331	-55.930636	21.370509
09731		4.408209	-55.918910	21.436031
09732		4.175279	-55.908549	21.505207
09733		3.944884	-55.898802	21.576354
09734		3.716375	-55.880837	21.652398
09735		3.511225	-55.859800	21.728936
09736		3.352152	-55.837439	21.799503
09737		3.246468	-55.812172	21.866312
09738		3.205270	-55.783287	21.910582
09739		3.209914	-55.748978	21.941587
09740		3.237741	-55.708036	21.958814
09741		3.268503	-55.652579	21.968338
09742		3.298430	-55.591905	21.969689
09743		3.326596	-55.533630	21.968625
09744		3.358747	-55.469604	21.952845
09745		3.394542	-55.405358	21.933078
09746		3.450114	-55.339371	21.905138
09747		3.498407	-55.275009	21.880558
09748		3.554201	-55.214019	21.848049
09749		3.600017	-55.158311	21.812314
09750		3.617216	-55.104373	21.769780
09751		3.604964	-55.051698	21.713405
09752		3.575688	-55.005884	21.644981
09753		3.535526	-54.963808	21.577450
09754		3.484070	-54.924024	21.524214
09755		3.433353	-54.891066	21.480346
09756		3.379786	-54.859053	21.443225
09757		3.324521	-54.829671	21.410374
09758		3.269240	-54.798373	21.376164
09759		3.213014	-54.768243	21.355883
09760		3.151615	-54.734582	21.348906
09761		3.088178	-54.701247	21.356243
09762		3.023749	-54.665316	21.369591
09763		2.962997	-54.629499	21.385534
09764		2.911234	-54.594367	21.397855
09765		2.855524	-54.559218	21.421117
09766		2.807385	-54.525797	21.448412
09767		2.770216	-54.490869	21.478347
09768		2.753375	-54.454649	21.507221
09769		2.739044	-54.422445	21.541787
09770		2.722331	-54.389499	21.572067
09771		2.683723	-54.355102	21.607917
09772		2.634759	-54.320638	21.635316
09773		2.575407	-54.289659	21.661836
09774		2.516216	-54.255301	21.686072
09775		2.476492	-54.225487	21.708963
09776		2.470824	-54.198486	21.726104
09777		2.492072	-54.176544	21.737134
09778		2.528466	-54.159235	21.742866
09779		2.552464	-54.140466	21.746532
09780		2.557487	-54.123983	21.753318
09781		2.554494	-54.108336	21.754752
09782		2.535177	-54.088383	21.757265
09783		2.498694	-54.067443	21.760721
09784		2.465948	-54.048815	21.762536
09785		2.455431	-54.033082	21.760651
09786		2.480122	-54.023944	21.751404
09787		2.519798	-54.018155	21.737514
09788		2.552999	-54.018546	21.721777
09789		2.548962	-54.015838	21.709802
09790		2.510914	-54.008481	21.697168
09791		2.455876	-54.004648	21.684618
09792		2.400524	-54.001732	21.674182
09793		2.362779	-54.001055	21.666557
09794		2.354801	-54.006401	21.655074
09795		2.372040	-54.016710	21.641069
09796		2.410547	-54.027965	21.624599
09797		2.455856	-54.042366	21.607460
09798		2.504618	-54.055785	21.592591
09799		2.534229	-54.067469	21.580547
09800		2.536756	-54.075798	21.561489
09801		2.515382	-54.081541	21.547051
09802		2.494243	-54.087958	21.536799
09803		2.499679	-54.094021	21.527223
09804		2.535336	-54.102886	21.513503
09805		2.607726	-54.119136	21.498890
09806		2.688453	-54.135466	21.477164
09807		2.752960	-54.155264	21.454206
09808		2.795430	-54.168918	21.426010
09809		2.807062	-54.179213	21.407236
09810		2.815380	-54.189093	21.393021
09811		2.841532	-54.206039	21.387648
09812		2.907052	-54.223525	21.377172
09813		2.992314	-54.246380	21.370809
09814		3.076521	-54.270207	21.361990
09815		3.139753	-54.291203	21.350993
09816		3.182039	-54.311952	21.339078
09817		3.216620	-54.332788	21.338986
09818		3.262377	-54.353112	21.346991
09819		3.329722	-54.374442	21.361378
09820		3.422577	-54.397783	21.378232
09821		3.552698	-54.418561	21.391048
09822		3.706750	-54.440485	21.401863
09823		3.880667	-54.470153	21.412865
09824		4.057401	-54.506367	21.418860
09825		4.219011	-54.541312	21.435494
09826		4.366831	-54.571214	21.456165
09827		4.502782	-54.598892	21.484785
09828		4.651272	-54.624541	21.511830
09829		4.828606	-54.656359	21.541754
09830		5.034873	-54.696762	21.567708
09831		5.245914	-54.749054	21.588714
09832		5.426154	-54.794954	21.604096
09833		5.565960	-54.830888	21.621970
09834		5.690560	-54.854946	21.632705
09835		5.812698	-54.868443	21.654035
09836		5.967160	-54.868450	21.684760
09837		6.193269	-54.875313	21.713965
09838		6.469367	-54.884901	21.728061
09839		6.722742	-54.889957	21.728450
09840		6.902486	-54.876571	21.721665
09841		7.001963	-54.847511	21.727606
09842		7.068293	-54.809925	21.740162
09843		7.151571	-54.765049	21.762527
09844		7.290776	-54.719178	21.801392
09845		7.550775	-54.675156	21.872054
09846		7.952531	-54.651005	21.974554
09847		8.467121	-54.637238	22.083746
09848		9.018996	-54.617955	22.187925
09849		9.546571	-54.602420	22.287201
09850		10.007404	-54.579860	22.375124
09851		10.381009	-54.547527	22.465823
09852		10.693408	-54.513478	22.565206
09853		10.990110	-54.492063	22.687919
09854		11.332684	-54.486430	22.829098
09855		11.775708	-54.507204	22.983883
09856		12.354079	-54.550141	23.152345
09857		13.077273	-54.612272	23.337070
09858		13.927476	-54.691011	23.532217
09859		14.854081	-54.787537	23.735186
09860		15.800173	-54.898951	23.937417
09861		16.702194	-55.017115	24.128498
09862		17.532352	-55.142909	24.299455
09863		18.272572	-55.275437	24.455149
09864		18.936777	-55.412726	24.594586
09865		19.550468	-55.555524	24.732559
09866		20.162173	-55.709194	24.862614
09867		20.795727	-55.868374	24.987534
09868		21.467659	-56.031951	25.110440
09869		22.174860	-56.197901	25.230276
09870		22.905445	-56.359220	25.343118
09871		23.640712	-56.519123	25.458872
09872		24.372187	-56.672059	25.565152
09873		25.087214	-56.818738	25.662114
09874		25.798575	-56.962167	25.746097
09875		26.512939	-57.100524	25.822918
09876		27.231967	-57.244980	25.890790
09877		27.960667	-57.389743	25.954497
09878		28.689057	-57.530629	26.020280
09879		29.431693	-57.671222	26.108406
09880		30.208081	-57.818780	26.202361
09881		31.007434	-57.970714	26.304269
09882		31.795790	-58.121235	26.405824
09883		32.549254	-58.266617	26.498652
09884		33.269468	-58.412015	26.569634
09885		33.944047	-58.553749	26.631417
09886		34.607647	-58.698794	26.678244
09887		35.263836	-58.847152	26.722834
09888		35.928448	-58.994538	26.766497
09889		36.600347	-59.140603	26.834561
09890		37.293114	-59.297759	26.920828
09891		37.991094	-59.455235	27.014607
09892		38.681707	-59.613295	27.105456
09893		39.333238	-59.767080	27.197152
09894		39.958574	-59.918683	27.272604
09895		40.544847	-60.068925	27.341920
09896		41.098688	-60.222869	27.395421
09897		41.615339	-60.373265	27.443157
09898		42.118328	-60.530369	27.491249
09899		42.635027	-60.686771	27.528840
09900		43.164911	-60.845224	27.581985
09901		43.730619	-61.005651	27.643434
09902		44.345609	-61.172687	27.713523
09903		45.008002	-61.339037	27.790877
09904		45.704302	-61.508300	27.866544
09905		46.400451	-61.674414	27.933389
09906		47.082621	-61.834751	27.982026
09907		47.728044	-61.988811	28.014633
09908		48.340417	-62.139061	28.035556
09909		48.936482	-62.280458	28.056427
09910		49.549362	-62.429061	28.065121
09911		50.193557	-62.575030	28.084626
09912		50.895980	-62.723377	28.109321
09913		51.662774	-62.871956	28.143830
09914		52.479576	-63.019670	28.189014
09915		53.311266	-63.166206	28.247372
09916		54.149350	-63.306753	28.289529
09917		54.975014	-63.444645	28.329411
09918		55.811703	-63.582283	28.367535
09919		56.661884	-63.716875	28.398468
09920		57.562185	-63.850678	28.438389
09921		58.532934	-63.991936	28.463722
09922		59.586431	-64.141576	28.464344
09923		60.703645	-64.291129	28.479387
09924		61.878510	-64.448852	28.482987
09925		63.067700	-64.604547	28.464102
09926		64.238849	-64.749456	28.431967
09927		65.341682	-64.885179	28.387775
09928		66.343419	-65.008115	28.328820
09929		67.212249	-65.118521	28.264820
09930		67.960430	-65.215744	28.183165
09931		68.601892	-65.300715	28.101218
09932		69.180940	-65.378895	28.020461
09933		69.751919	-65.456418	27.926208
09934		70.331743	-65.532602	27.824637
09935		70.928263	-65.605950	27.734293
09936		71.548004	-65.682926	27.651788
09937		72.207015	-65.766590	27.554797
09938		72.881160	-65.850351	27.448847
09939		73.545079	-65.930621	27.348345
09940		74.197900	-66.003497	27.235060
09941		74.831662	-66.074987	27.122312
09942		75.482262	-66.144985	27.003739
09943		76.140070	-66.214269	26.878567
09944		76.807606	-66.281495	26.755304
09945		77.474159	-66.348697	26.633223
09946		78.137241	-66.411709	26.504160
09947		78.790516	-66.472200	26.381982
09948		79.424556	-66.529623	26.262135
09949		80.040253	-66.588577	26.159141
09950		80.651884	-66.641218	26.050809
09951		81.243605	-66.687353	25.948383
09952		81.808895	-66.730509	25.856703
09953		82.346396	-66.767708	25.761719
09954		82.864611	-66.795943	25.660573
09955		83.354381	-66.817180	25.562728
09956		83.827959	-66.840569	25.459798
09957		84.275550	-66.866958	25.369032
09958		84.700982	-66.889124	25.273293
09959		85.088027	-66.912896	25.179716
09960		85.441330	-66.935174	25.082747
09961		85.736989	-66.952344	24.988917
09962		85.996607	-66.965557	24.898937
09963		86.216893	-66.980310	24.809440
09964		86.403216	-66.994596	24.726702
09965		86.555963	-67.008914	24.646132
09966		86.672673	-67.021368	24.556859
09967		86.740036	-67.031218	24.474326
09968		86.783210	-67.041840	24.399927
09969		86.831483	-67.053168	24.327635
09970		86.908059	-67.069113	24.259975
09971		86.996282	-67.093976	24.199258
09972		87.094609	-67.119710	24.149037
09973		87.200996	-67.145974	24.095794
09974		87.301734	-67.174211	24.043639
09975		87.383853	-67.198307	23.991070
09976		87.444876	-67.221596	23.938392
09977		87.484025	-67.244218	23.890308
09978		87.518113	-67.266142	23.838320
09979		87.544571	-67.285375	23.787555
09980		87.585342	-67.304340	23.731780
09981		87.636841	-67.326025	23.674593
09982		87.693059	-67.348505	23.613368
09983		87.752294	-67.371950	23.557011
09984		87.819535	-67.396547	23.488548
09985		87.872579	-67.419338	23.422902
09986		87.921774	-67.442890	23.361465
09987		87.969344	-67.464406	23.299746
09988		88.022306	-67.487505	23.236393
09989		88.069156	-67.513132	23.182923
09990		88.122543	-67.541558	23.126774
09991		88.167738	-67.570295	23.082568
09992		88.222867	-67.599570	23.037527
09993		88.289993	-67.629351	22.993626
09994		88.363508	-67.658146	22.952329
09995		88.421288	-67.686866	22.917714
09996		88.462438	-67.713799	22.885944
09997		88.481519	-67.736779	22.861067
09998		88.480565	-67.757139	22.852101
09999		88.462944	-67.776102	22.858232
10000		88.430622	-67.792850	22.884240
10001		88.396411	-67.807773	22.917429
10002		88.367795	-67.820727	22.952820
10003		88.345872	-67.833016	22.991847
10004		88.329479	-67.838948	23.028276
10005		88.310564	-67.843510	23.064852
10006		88.286053	-67.840894	23.095203
10007		88.251174	-67.835230	23.125362
10008		88.219108	-67.825248	23.148813
10009		88.185468	-67.813106	23.166556
10010		88.145219	-67.801213	23.189091
10011		88.105154	-67.786014	23.212924
10012		88.069194	-67.771744	23.233177
10013		88.038837	-67.754900	23.258957
10014		88.023178	-67.742396	23.275538
10015		88.002868	-67.729926	23.291349
10016		87.982240	-67.716953	23.298221
10017		87.958619	-67.706982	23.305257
10018		87.948823	-67.700827	23.300815
10019		87.939782	-67.696538	23.294127
10020		87.938837	-67.693030	23.276490
10021		87.923613	-67.692460	23.275813
10022		87.915426	-67.696766	23.272778
10023		87.900778	-67.700066	23.278024
10024		87.890545	-67.706596	23.289091
10025		87.888951	-67.714192	23.299390
10026		87.910998	-67.723311	23.303372
10027		87.943799	-67.729325	23.314286
10028		87.988379	-67.738124	23.317083
10029		88.026599	-67.742203	23.325152
10030		88.042960	-67.743592	23.335765
10031		88.019107	-67.740388	23.354239
10032		87.966756	-67.736374	23.376666
10033		87.891247	-67.733904	23.408993
10034		87.818988	-67.730306	23.442761
10035		87.753515	-67.730381	23.479064
10036		87.706769	-67.728926	23.511385
10037		87.664314	-67.728060	23.547944
10038		87.622439	-67.725177	23.587974
10039		87.577846	-67.722109	23.622122
10040		87.517577	-67.715866	23.654231
10041		87.435893	-67.705060	23.692797
10042		87.355048	-67.696378	23.724254
10043		87.265304	-67.683668	23.756048
10044		87.162790	-67.671774	23.791897
10045		87.042834	-67.660154	23.833798
10046		86.912050	-67.647028	23.876757
10047		86.773387	-67.632677	23.922410
10048		86.629195	-67.618828	23.965780
10049		86.470055	-67.601865	24.010900
10050		86.307957	-67.583126	24.049886
10051		86.133384	-67.560790	24.085100
10052		85.939575	-67.535322	24.120791
10053		85.722896	-67.508550	24.157756
10054		85.480689	-67.475486	24.197013
10055		85.208758	-67.439610	24.247303
10056		84.930039	-67.405105	24.301730
10057		84.652586	-67.372599	24.368490
10058		84.389847	-67.344951	24.439337
10059		84.133403	-67.318247	24.517794
10060		83.883956	-67.286366	24.582474
10061		83.625158	-67.249906	24.639222
10062		83.340183	-67.201549	24.688472
10063		83.005798	-67.143610	24.731262
10064		82.603921	-67.074679	24.767579
10065		82.108427	-66.997153	24.810579
10066		81.514960	-66.909744	24.857463
10067		80.816502	-66.814249	24.919485
10068		80.032203	-66.717107	24.995465
10069		79.196944	-66.617636	25.081106
10070		78.336928	-66.519754	25.176733
10071		77.476508	-66.423166	25.274666
10072		76.620536	-66.324895	25.368493
10073		75.742558	-66.221296	25.455027
10074		74.812203	-66.109145	25.542013
10075		73.818557	-65.990140	25.631131
10076		72.758781	-65.863040	25.720222
10077		71.652802	-65.731728	25.824989
10078		70.546500	-65.602820	25.943324
10079		69.482567	-65.480838	26.071168
10080		68.506434	-65.367562	26.212472
10081		67.646100	-65.268256	26.356800
10082		66.914092	-65.178834	26.499961
10083		66.288905	-65.096853	26.639505
10084		65.740994	-65.017238	26.765130
10085		65.205328	-64.934595	26.876675
10086		64.638736	-64.844600	26.945884
10087		63.961173	-64.738297	26.988796
10088		63.095861	-64.611626	27.048894
10089		62.060440	-64.468396	27.132959
10090		60.925075	-64.320821	27.223782
10091		59.775636	-64.177763	27.316873
10092		58.708577	-64.046457	27.421297
10093		57.805212	-63.935231	27.529105
10094		57.099278	-63.840593	27.638645
10095		56.584619	-63.770142	27.740246
10096		56.208164	-63.714482	27.829604
10097		55.898997	-63.664930	27.894516
10098		55.568127	-63.614297	27.928614
10099		55.139696	-63.546213	27.931247
10100		54.563670	-63.457875	27.924647
10101		53.865692	-63.352745	27.908278
10102		53.086344	-63.239845	27.895815
10103		52.288278	-63.130053	27.891920
10104		51.538439	-63.031743	27.894386
10105		50.891310	-62.947210	27.900338
10106		50.345590	-62.877629	27.917534
10107		49.887024	-62.816752	27.935037
10108		49.481105	-62.767153	27.943144
10109		49.110014	-62.724452	27.915226
10110		48.714457	-62.682953	27.874778
10111		48.251503	-62.634005	27.823039
10112		47.693417	-62.569442	27.757749
10113		47.050373	-62.490796	27.697344
10114		46.367367	-62.410899	27.628624
10115		45.684287	-62.334431	27.568563
10116		45.053914	-62.260842	27.514107
10117		44.522419	-62.202340	27.459441
10118		44.075328	-62.150054	27.411072
10119		43.679097	-62.106024	27.363694
10120		43.288121	-62.060710	27.310017
10121		42.839643	-62.007126	27.261816
10122		42.317266	-61.944999	27.216854
10123		41.701234	-61.870276	27.172112
10124		41.015253	-61.794018	27.114655
10125		40.277434	-61.713999	27.047659
10126		39.523755	-61.634785	26.986649
10127		38.783398	-61.556093	26.940521
10128		38.076640	-61.484000	26.894778
10129		37.412384	-61.416747	26.853383
10130		36.773859	-61.350666	26.831215
10131		36.146856	-61.288006	26.811273
10132		35.512538	-61.229362	26.782248
10133		34.841973	-61.169579	26.754616
10134		34.113916	-61.101796	26.710634
10135		33.328372	-61.028778	26.652481
10136		32.498433	-60.946024	26.601483
10137		31.668537	-60.863846	26.561512
10138		30.898930	-60.789517	26.532607
10139		30.220426	-60.721486	26.531784
10140		29.674210	-60.662241	26.557391
10141		29.258226	-60.622223	26.611812
10142		28.922363	-60.596150	26.678768
10143		28.577562	-60.568107	26.747408
10144		28.148736	-60.526540	26.792217
10145		27.578467	-60.470409	26.818137
10146		26.875222	-60.413676	26.817503
10147		26.071905	-60.363792	26.813169
10148		25.221237	-60.312953	26.818795
10149		24.392700	-60.271277	26.837586
10150		23.631521	-60.238191	26.863324
10151		22.954753	-60.209793	26.904664
10152		22.349890	-60.188516	26.948796
10153		21.785707	-60.171087	26.988385
10154		21.229870	-60.147690	27.025457
10155		20.665337	-60.126105	27.051880
10156		20.068040	-60.107834	27.060911
10157		19.419736	-60.090236	27.046251
10158		18.698975	-60.071872	27.009387
10159		17.910024	-60.050004	26.956353
10160		17.075353	-60.027698	26.897060
10161		16.233957	-60.007623	26.838490
10162		15.427723	-59.996605	26.782788
10163		14.663221	-59.990138	26.746570
10164		13.948259	-59.987528	26.714759
10165		13.266387	-59.986441	26.678361
10166		12.614206	-59.976395	26.622309
10167		11.972027	-59.965786	26.560436
10168		11.328983	-59.959546	26.487655
10169		10.684465	-59.956684	26.407326
10170		10.022082	-59.953216	26.314395
10171		9.352275	-59.947062	26.213652
10172		8.660087	-59.944424	26.130350
10173		7.990641	-59.939677	26.050060
10174		7.364467	-59.933002	25.963901
10175		6.758898	-59.930988	25.891274
10176		6.198501	-59.928558	25.833242
10177		5.705637	-59.920547	25.786655
10178		5.283636	-59.910903	25.744336
10179		4.915262	-59.898343	25.715705
10180		4.585536	-59.884526	25.689845
10181		4.283761	-59.865819	25.667097
10182		3.978743	-59.844664	25.657910
10183		3.668905	-59.822177	25.657078
10184		3.352378	-59.792291	25.644840
10185		3.003750	-59.749916	25.637641
10186		2.650749	-59.704615	25.628252
10187		2.316662	-59.657040	25.627063
10188		2.015756	-59.603280	25.631571
10189		1.754312	-59.550638	25.639492
10190		1.521884	-59.492180	25.644877
10191		1.308649	-59.436571	25.653689
10192		1.118911	-59.379675	25.654721
10193		0.953325	-59.327041	25.648968
10194		0.819144	-59.278274	25.631680
10195		0.694951	-59.230953	25.625695
10196		0.580368	-59.181461	25.617514
10197		0.468645	-59.131636	25.619379
10198		0.384595	-59.080462	25.610164
10199		0.322314	-59.033529	25.598602
10200		0.273616	-58.990903	25.579562
10201		0.222971	-58.949765	25.561696
10202		0.168616	-58.905310	25.543180
10203		0.101386	-58.861977	25.531152
10204		0.037921	-58.819016	25.511109
10205		0.002870	-58.776586	25.476027
10206		-0.008570	-58.736969	25.433514
10207		-0.017658	-58.695534	25.387253
10208		-0.034700	-58.645657	25.338613
10209		-0.052685	-58.596810	25.286095
10210		-0.054346	-58.553433	25.227804
10211		-0.041786	-58.512853	25.165611
10212		-0.015105	-58.478829	25.099063
10213		0.009497	-58.451065	25.033560
10214		0.021303	-58.419906	24.973892
10215		0.014268	-58.389855	24.918497
10216		-0.011683	-58.351636	24.856128
10217		-0.050915	-58.308613	24.790339
10218		-0.092598	-58.258699	24.729453
10219		-0.117106	-58.216698	24.675855
10220		-0.120487	-58.175750	24.620742
10221		-0.113558	-58.137215	24.565686
10222		-0.098033	-58.102591	24.510689
10223		-0.083130	-58.072191	24.459577
10224		-0.075177	-58.043839	24.411886
10225		-0.089137	-58.014959	24.363803
10226		-0.114855	-57.987513	24.318595
10227		-0.135951	-57.959579	24.272847
10228		-0.144724	-57.929848	24.234014
10229		-0.145499	-57.906594	24.206161
10230		-0.155374	-57.881771	24.181301
10231		-0.174957	-57.856264	24.160550
10232		-0.200411	-57.821515	24.139810
10233		-0.230675	-57.785072	24.117915
10234		-0.251824	-57.746516	24.094055
10235		-0.264458	-57.710176	24.064545
10236		-0.252262	-57.676376	24.029884
10237		-0.230095	-57.643545	23.993693
10238		-0.192838	-57.612520	23.956076
10239		-0.154267	-57.584674	23.925195
10240		-0.119945	-57.559616	23.897107
10241		-0.100958	-57.540169	23.882238
10242		-0.090133	-57.523566	23.875199
10243		-0.085717	-57.509552	23.870318
10244		-0.091417	-57.498849	23.871528
10245		-0.100462	-57.484668	23.876874
10246		-0.106536	-57.477222	23.879953
10247		-0.111112	-57.470084	23.887202
10248		-0.105570	-57.466151	23.885704
10249		-0.099328	-57.465986	23.886077
10250		-0.097857	-57.469236	23.880319
10251		-0.102350	-57.475358	23.876874
10252		-0.112579	-57.480305	23.874689
10253		-0.125835	-57.481559	23.880799
10254		-0.129058	-57.481908	23.892759
10255		-0.116993	-57.482466	23.910590
10256		-0.095006	-57.481654	23.930908
10257		-0.069324	-57.484811	23.948908
10258		-0.046020	-57.488360	23.961465
10259		-0.034051	-57.488966	23.973550
10260		-0.026875	-57.494520	23.987283
10261		-0.012502	-57.500296	23.997140
10262		0.010851	-57.508134	24.005537
10263		0.038563	-57.516512	24.014199
10264		0.074729	-57.523654	24.018579
10265		0.123464	-57.531709	24.022636
10266		0.205908	-57.538656	24.025693
10267		0.325746	-57.547951	24.030818
10268		0.475399	-57.562779	24.037398
10269		0.634043	-57.582433	24.050460
10270		0.799171	-57.601221	24.063655
10271		0.964127	-57.618904	24.088258
10272		1.145083	-57.639464	24.118661
10273		1.344253	-57.663182	24.154261
10274		1.574042	-57.689861	24.183940
10275		1.820539	-57.722199	24.215846
10276		2.072605	-57.764511	24.240455
10277		2.290940	-57.803878	24.270527
10278		2.472865	-57.839748	24.297854
10279		2.640487	-57.871350	24.330591
10280		2.832418	-57.902387	24.359848
10281		3.070462	-57.939890	24.392482
10282		3.387106	-57.979520	24.419093
10283		3.770733	-58.032740	24.458449
10284		4.199939	-58.095542	24.496895
10285		4.619443	-58.155227	24.541264
10286		5.012958	-58.206446	24.583519
10287		5.395011	-58.244138	24.634640
10288		5.811308	-58.267113	24.690500
10289		6.315126	-58.285726	24.761624
10290		6.958985	-58.321435	24.846380
10291		7.750849	-58.372506	24.934492
10292		8.648089	-58.421131	25.018316
10293		9.592834	-58.469984	25.111935
10294		10.582102	-58.521378	25.193840
10295		11.600408	-58.569830	25.286549
10296		12.662511	-58.613036	25.388626
10297		13.785151	-58.655249	25.506977
10298		14.986606	-58.698745	25.626882
10299		16.247470	-58.750370	25.764172
10300		17.560712	-58.809265	25.898835
10301		18.892191	-58.869449	26.023504
10302		20.209997	-58.926771	26.126033
10303		21.453656	-58.982245	26.215269
10304		22.597036	-59.030824	26.282915
10305		23.626360	-59.070263	26.330972
10306		24.568652	-59.102153	26.366713
10307		25.440714	-59.134465	26.391974
10308		26.254795	-59.171230	26.406354
10309		27.043414	-59.217538	26.422547
10310		27.838302	-59.264597	26.444436
10311		28.669001	-59.312981	26.476516
10312		29.533479	-59.372568	26.528960
10313		30.389670	-59.435159	26.601861
10314		31.212935	-59.495069	26.665426
10315		32.004277	-59.555060	26.714408
10316		32.774279	-59.613469	26.744140
10317		33.525393	-59.673607	26.773230
10318		34.276909	-59.738992	26.788143
10319		35.021810	-59.808444	26.799259
10320		35.760670	-59.885381	26.799916
10321		36.503847	-59.965536	26.802645
10322		37.272582	-60.049317	26.821189
10323		38.064166	-60.134349	26.867654
10324		38.848164	-60.225880	26.934210
10325		39.583087	-60.317473	26.987918
10326		40.253776	-60.400846	27.013958
10327		40.877925	-60.478105	27.025769
10328		41.489701	-60.554835	27.024491
10329		42.109925	-60.636573	27.010626
10330		42.764107	-60.721399	26.992526
10331		43.469836	-60.815580	26.979555
10332		44.229756	-60.913736	26.970045
10333		45.046028	-61.013287	26.970973
10334		45.893393	-61.114110	26.985514
10335		46.748250	-61.216549	27.005350
10336		47.578924	-61.318868	27.017534
10337		48.355374	-61.415139	27.025511
10338		49.064151	-61.508347	27.021405
10339		49.723120	-61.597962	26.999689
10340		50.391817	-61.688132	26.948994
10341		51.076611	-61.784710	26.908850
10342		51.793720	-61.887031	26.863775
10343		52.556669	-61.994218	26.816574
10344		53.356090	-62.108073	26.760647
10345		54.146861	-62.226224	26.702490
10346		54.951206	-62.344618	26.635248
10347		55.763510	-62.465787	26.565534
10348		56.600078	-62.588016	26.473571
10349		57.454774	-62.710898	26.360828
10350		58.293075	-62.828363	26.234286
10351		59.102385	-62.939145	26.099820
10352		59.879864	-63.046005	25.953251
10353		60.647479	-63.152903	25.809669
10354		61.446766	-63.262240	25.658446
10355		62.289096	-63.376721	25.512191
10356		63.225426	-63.506480	25.373777
10357		64.240982	-63.641654	25.234831
10358		65.350550	-63.787320	25.076988
10359		66.511315	-63.936906	24.912703
10360		67.682035	-64.081479	24.740833
10361		68.843811	-64.219283	24.576118
10362		69.992282	-64.352850	24.398667
10363		71.097426	-64.475489	24.214508
10364		72.152176	-64.593882	24.040295
10365		73.150130	-64.707536	23.855905
10366		74.108569	-64.813435	23.669544
10367		75.025478	-64.919978	23.493361
10368		75.895775	-65.020729	23.303612
10369		76.710090	-65.115907	23.119264
10370		77.460570	-65.205957	22.940995
10371		78.159889	-65.293891	22.765369
10372		78.838115	-65.379249	22.584525
10373		79.527422	-65.460375	22.401176
10374		80.264604	-65.545573	22.210562
10375		81.028176	-65.630922	22.015638
10376		81.811934	-65.710141	21.820131
10377		82.590308	-65.786430	21.634927
10378		83.336122	-65.856297	21.453638
10379		84.000105	-65.915990	21.301741
10380		84.593202	-65.969934	21.163538
10381		85.128214	-66.019015	21.040073
10382		85.694300	-66.077005	20.930956
10383		86.347301	-66.150658	20.805434
10384		87.130057	-66.231015	20.655929
10385		88.011180	-66.319185	20.501013
10386		88.932002	-66.406205	20.337705
10387		89.795998	-66.488846	20.179449
10388		90.543608	-66.554059	20.023867
10389		91.136700	-66.602374	19.885746
10390		91.614609	-66.642423	19.757575
10391		92.009337	-66.674001	19.639865
10392		92.370229	-66.699434	19.526100
10393		92.694386	-66.720158	19.419023
10394		92.983960	-66.735636	19.318734
10395		93.209888	-66.747852	19.240422
10396		93.328482	-66.752711	19.180977
10397		93.311035	-66.744019	19.146168
10398		93.154625	-66.726886	19.137332
10399		92.873287	-66.695965	19.147438
10400		92.519371	-66.660372	19.171249
10401		92.135797	-66.627556	19.204505
10402		91.793467	-66.600136	19.239177
10403		91.530049	-66.584778	19.282897
10404		91.372036	-66.582911	19.319127
10405		91.299065	-66.594296	19.360004
10406		91.264303	-66.608453	19.413687
10407		91.270170	-66.619782	19.436722
10408		91.262216	-66.625251	19.468267
10409		91.198023	-66.623351	19.510000
10410		91.082632	-66.612525	19.551322
10411		90.931144	-66.597389	19.595629
10412		90.785369	-66.584218	19.644384
10413		90.655346	-66.573219	19.700133
10414		90.570535	-66.565472	19.743604
10415		90.507244	-66.554589	19.785202
10416		90.450780	-66.540045	19.827391
10417		90.381507	-66.521268	19.859814
10418		90.284850	-66.493511	19.887565
10419		90.158713	-66.460445	19.917033
10420		90.031330	-66.421659	19.938257
10421		89.941394	-66.384967	19.947029
10422		89.890851	-66.352651	19.953497
10423		89.884016	-66.325248	19.953769
10424		89.918540	-66.300217	19.947506
10425		89.974447	-66.277270	19.939397
10426		90.037523	-66.256366	19.926425
10427		90.083548	-66.233671	19.914717
10428		90.096595	-66.210104	19.909634
10429		90.084534	-66.185370	19.908991
10430		90.060260	-66.159046	19.907583
10431		90.027162	-66.131376	19.914175
10432		90.008204	-66.108519	19.914435
10433		89.999873	-66.087757	19.916500
10434		90.010145	-66.067465	19.915474
10435		90.035597	-66.045741	19.907981
10436		90.074270	-66.024262	19.902348
10437		90.117831	-66.000823	19.887400
10438		90.146934	-65.975311	19.871975
10439		90.149738	-65.944838	19.864904
10440		90.137537	-65.909592	19.856463
10441		90.116861	-65.873641	19.854921
10442		90.109098	-65.838264	19.852106
10443		90.116563	-65.802247	19.853885
10444		90.139278	-65.768351	19.852073
10445		90.149928	-65.735702	19.854614
10446		90.151238	-65.700845	19.856668
10447		90.133614	-65.664160	19.862019
10448		90.107310	-65.626200	19.862345
10449		90.057549	-65.587968	19.865642
10450		89.993926	-65.548265	19.868396
10451		89.921642	-65.504407	19.862208
10452		89.855622	-65.458553	19.854277
10453		89.798735	-65.410762	19.842994
10454		89.761652	-65.360257	19.818219
10455		89.718193	-65.306187	19.793072
10456		89.663191	-65.249553	19.767668
10457		89.585823	-65.190014	19.745618
10458		89.488109	-65.131614	19.725698
10459		89.370009	-65.069539	19.707641
10460		89.224556	-65.008735	19.685008
10461		89.031967	-64.944901	19.665650
10462		88.785334	-64.879934	19.643384
10463		88.449320	-64.808605	19.633274
10464		88.018020	-64.729154	19.628609
10465		87.479360	-64.642478	19.641786
10466		86.848205	-64.548880	19.674336
10467		86.149429	-64.445029	19.721937
10468		85.407599	-64.340962	19.779109
10469		84.622751	-64.234383	19.862448
10470		83.839113	-64.128339	19.952000
10471		83.076662	-64.029069	20.051671
10472		82.351545	-63.936176	20.158998
10473		81.670896	-63.847507	20.267490
10474		81.033056	-63.762730	20.368959
10475		80.417115	-63.681159	20.475351
10476		79.806673	-63.597558	20.586553
10477		79.183952	-63.509559	20.702422
10478		78.519063	-63.416550	20.823015
10479		77.788616	-63.316883	20.955885
10480		76.982426	-63.209791	21.103951
10481		76.094839	-63.098010	21.271298
10482		75.147148	-62.981858	21.447242
10483		74.156704	-62.861923	21.635446
10484		73.164080	-62.744214	21.817905
10485		72.182799	-62.626193	22.007977
10486		71.257020	-62.514082	22.186899
10487		70.379842	-62.406308	22.362758
10488		69.563049	-62.304875	22.521294
10489		68.790645	-62.207358	22.668139
10490		68.058515	-62.109179	22.791334
10491		67.342193	-62.009105	22.877018
10492		66.586032	-61.903297	22.945065
10493		65.755464	-61.786871	23.023772
10494		64.851112	-61.660956	23.108705
10495		63.881049	-61.531141	23.190640
10496		62.862984	-61.397267	23.274180
10497		61.839381	-61.269345	23.364305
10498		60.857096	-61.150046	23.452137
10499		59.954839	-61.045089	23.537779
10500		59.157824	-60.960529	23.596154
10501		58.434345	-60.887753	23.640180
10502		57.719225	-60.814337	23.692302
10503		56.988755	-60.738672	23.732297
10504		56.186765	-60.658044	23.760085
10505		55.283906	-60.559634	23.790540
10506		54.288717	-60.449995	23.824776
10507		53.234237	-60.330426	23.859830
10508		52.177530	-60.209040	23.886906
10509		51.155358	-60.096808	23.908058
10510		50.200910	-59.995140	23.927738
10511		49.310964	-59.898386	23.961468
10512		48.502686	-59.814902	23.990044
10513		47.735060	-59.733527	24.029826
10514		46.986851	-59.655030	24.057552
10515		46.228464	-59.580684	24.066049
10516		45.416235	-59.504090	24.057970
10517		44.510423	-59.413911	24.059443
10518		43.554210	-59.318605	24.048709
10519		42.577722	-59.229826	24.025018
10520		41.608633	-59.144410	23.991617
10521		40.684627	-59.069934	23.958129
10522		39.812130	-59.004070	23.939388
10523		38.998942	-58.954840	23.915727
10524		38.206393	-58.907774	23.903121
10525		37.412603	-58.854133	23.896581
10526		36.621458	-58.804904	23.877430
10527		35.812959	-58.753440	23.852758
10528		34.988280	-58.700998	23.810540
10529		34.146615	-58.646731	23.754863
10530		33.289850	-58.584336	23.691425
10531		32.434002	-58.524657	23.616238
10532		31.587898	-58.467938	23.539533
10533		30.749468	-58.415845	23.472855
10534		29.933594	-58.368192	23.399742
10535		29.132658	-58.325198	23.329333
10536		28.318193	-58.276115	23.258062
10537		27.495334	-58.227816	23.177660
10538		26.644006	-58.188204	23.080516
10539		25.756298	-58.149662	22.975827
10540		24.857803	-58.110588	22.872872
10541		23.953367	-58.077857	22.783203
10542		23.078627	-58.048371	22.697593
10543		22.267413	-58.020592	22.622393
10544		21.538122	-57.997581	22.558252
10545		20.885492	-57.980568	22.501851
10546		20.281765	-57.963587	22.438971
10547		19.697421	-57.936714	22.371126
10548		19.105494	-57.908453	22.303360
10549		18.511455	-57.879289	22.232771
10550		17.918465	-57.848208	22.159700
10551		17.333856	-57.821442	22.091285
10552		16.764563	-57.801578	22.019682
10553		16.206991	-57.782049	21.952187
10554		15.668693	-57.767662	21.896791
10555		15.161090	-57.765309	21.849854
10556		14.688742	-57.770169	21.800661
10557		14.221190	-57.777601	21.768473
10558		13.763755	-57.781207	21.726603
10559		13.313382	-57.782134	21.676427
10560		12.872176	-57.778308	21.609064
10561		12.427501	-57.778879	21.538325
10562		11.965185	-57.774208	21.457150
10563		11.444933	-57.753686	21.385037
10564		10.872516	-57.722732	21.326103
10565		10.277859	-57.688661	21.281148
10566		9.700025	-57.649719	21.241346
10567		9.160892	-57.605894	21.209766
10568		8.676199	-57.566240	21.187932
10569		8.251568	-57.533049	21.179606
10570		7.883174	-57.506432	21.182558
10571		7.561503	-57.490497	21.188512
10572		7.264756	-57.474649	21.197366
10573		6.966967	-57.455353	21.214342
10574		6.662454	-57.432465	21.242789
10575		6.354100	-57.404607	21.281996
10576		6.059875	-57.372197	21.327555
10577		5.791767	-57.340706	21.386333
10578		5.554510	-57.309442	21.459443
10579		5.349774	-57.277707	21.549390
10580		5.181304	-57.254390	21.644679
10581		5.039960	-57.231243	21.744589
10582		4.908363	-57.211458	21.842910
10583		4.777720	-57.194598	21.939486
10584		4.638326	-57.174713	22.030938
10585		4.486564	-57.151645	22.117688
10586		4.325048	-57.120420	22.204235
10587		4.169473	-57.094495	22.282307
10588		4.015483	-57.069221	22.357774
10589		3.851133	-57.044170	22.432171
10590		3.680588	-57.020623	22.496715
10591		3.493270	-57.000077	22.561181
10592		3.292649	-56.976856	22.617983
10593		3.082185	-56.951577	22.674920
10594		2.885097	-56.928309	22.724301
10595		2.694811	-56.905589	22.776006
10596		2.514858	-56.880525	22.828062
10597		2.354138	-56.857105	22.873531
10598		2.200479	-56.834066	22.923284
10599		2.054237	-56.812059	22.975606
10600		1.927621	-56.789467	23.020442
10601		1.818661	-56.771064	23.064677
10602		1.724238	-56.752954	23.108462
10603		1.638663	-56.733985	23.154226
10604		1.574146	-56.715692	23.192116
10605		1.515456	-56.689606	23.237757
10606		1.481714	-56.665434	23.280587
10607		1.461917	-56.641650	23.327914
10608		1.469064	-56.614406	23.369785
10609		1.504526	-56.588181	23.411202
10610		1.569750	-56.566243	23.442139
10611		1.636433	-56.544904	23.469716
10612		1.685024	-56.521419	23.490458
10613		1.689709	-56.492464	23.528556
10614		1.680496	-56.464086	23.567299
10615		1.669023	-56.434199	23.614909
10616		1.653174	-56.405755	23.645420
10617		1.620108	-56.379008	23.665962
10618		1.584903	-56.355601	23.676378
10619		1.554805	-56.334925	23.686822
10620		1.539679	-56.318706	23.693732
10621		1.540848	-56.303923	23.696865
10622		1.545586	-56.292693	23.705237
10623		1.547320	-56.282477	23.719208
10624		1.534017	-56.272462	23.730141
10625		1.488336	-56.260554	23.749615
10626		1.428398	-56.249880	23.767901
10627		1.371868	-56.238282	23.787830
10628		1.326234	-56.229664	23.810376
10629		1.308708	-56.224327	23.831465
10630		1.309920	-56.219252	23.846880
10631		1.306685	-56.212288	23.868913
10632		1.286176	-56.207589	23.892378
10633		1.253852	-56.202628	23.920401
10634		1.224269	-56.199098	23.953056
10635		1.220384	-56.196672	23.984937
10636		1.246956	-56.201094	24.022136
10637		1.297793	-56.212725	24.057303
10638		1.343694	-56.226840	24.093430
10639		1.366213	-56.242421	24.133887
10640		1.378260	-56.252978	24.169543
10641		1.382529	-56.262219	24.209293
10642		1.402561	-56.271280	24.241323
10643		1.429991	-56.282490	24.280673
10644		1.468456	-56.292055	24.309303
10645		1.499935	-56.296900	24.336598
10646		1.526687	-56.301749	24.347933
10647		1.526902	-56.301271	24.359330
10648		1.517982	-56.297961	24.359546
10649		1.498824	-56.291470	24.358282
10650		1.485162	-56.282948	24.353423
10651		1.481413	-56.275859	24.351484
10652		1.506059	-56.262899	24.339350
10653		1.537766	-56.250633	24.335118
10654		1.580143	-56.235668	24.320936
10655		1.617380	-56.221936	24.307341
10656		1.643097	-56.207906	24.294180
10657		1.655811	-56.192936	24.284043
10658		1.662530	-56.174978	24.272464
10659		1.669350	-56.164378	24.265848
10660		1.681907	-56.152628	24.258926
10661		1.689706	-56.143216	24.259099
10662		1.705178	-56.134570	24.254510
10663		1.717297	-56.127922	24.254032
10664		1.728690	-56.122430	24.247123
10665		1.736976	-56.117975	24.240060
10666		1.742844	-56.114760	24.234814
10667		1.759385	-56.108916	24.235366
10668		1.800138	-56.105473	24.238620
10669		1.864144	-56.107508	24.242899
10670		1.937661	-56.105426	24.246132
10671		2.008468	-56.104870	24.254105
10672		2.081021	-56.104673	24.258024
10673		2.155620	-56.105308	24.265522
10674		2.244476	-56.107159	24.272377
10675		2.355868	-56.104168	24.276325
10676		2.502232	-56.108601	24.278551
10677		2.673946	-56.120075	24.276577
10678		2.845828	-56.130629	24.265842
10679		2.994615	-56.136638	24.254196
10680		3.131776	-56.138468	24.241975
10681		3.277747	-56.135477	24.237936
10682		3.455239	-56.125508	24.238586
10683		3.713630	-56.116222	24.255639
10684		4.072360	-56.123732	24.288857
10685		4.511183	-56.143310	24.335417
10686		4.959172	-56.177734	24.386488
10687		5.345943	-56.204665	24.438693
10688		5.648439	-56.223911	24.489879
10689		5.878089	-56.236999	24.548942
10690		6.078273	-56.241753	24.609752
10691		6.292380	-56.247847	24.685730
10692		6.600327	-56.257733	24.771893
10693		7.046425	-56.280063	24.889000
10694		7.667227	-56.323789	25.013325
10695		8.407248	-56.386771	25.130592
10696		9.170696	-56.443866	25.221780
10697		9.846640	-56.487516	25.299638
10698		10.392431	-56.522125	25.370786
10699		10.818000	-56.548503	25.439560
10700		11.179314	-56.569105	25.506245
10701		11.525540	-56.593424	25.593708
10702		11.936720	-56.629154	25.688611
10703		12.464736	-56.680568	25.808632
10704		13.157459	-56.743898	25.943488
10705		14.028134	-56.811817	26.090509
10706		15.056474	-56.882306	26.243786
10707		16.186999	-56.958337	26.409279
10708		17.367498	-57.029774	26.572109
10709		18.542187	-57.099876	26.727833
10710		19.661437	-57.168097	26.873738
10711		20.684181	-57.228709	27.001471
10712		21.593473	-57.281630	27.103600
10713		22.380049	-57.330108	27.188766
10714		23.067275	-57.371569	27.257215
10715		23.682212	-57.407412	27.319066
10716		24.270533	-57.437125	27.372111
10717		24.856796	-57.468618	27.425351
10718		25.461713	-57.497876	27.478833
10719		26.088066	-57.527045	27.532303
10720		26.739123	-57.560713	27.581897
10721		27.395733	-57.594939	27.631794
10722		28.044164	-57.628848	27.674044
10723		28.659822	-57.664987	27.713814
10724		29.237382	-57.699227	27.740864
10725		29.756022	-57.729270	27.762064
10726		30.232710	-57.754037	27.781081
10727		30.692645	-57.779435	27.800858
10728		31.158180	-57.807418	27.820863
10729		31.633206	-57.840233	27.843928
10730		32.125621	-57.877984	27.864881
10731		32.630222	-57.920933	27.885492
10732		33.143537	-57.966475	27.905523
10733		33.660735	-58.015731	27.922792
10734		34.170829	-58.068061	27.945369
10735		34.675498	-58.118707	27.968642
10736		35.171670	-58.172330	27.992989
10737		35.668101	-58.226163	28.017992
10738		36.173572	-58.285797	28.042015
10739		36.695281	-58.344578	28.062509
10740		37.243777	-58.407168	28.081086
10741		37.821550	-58.471068	28.095477
10742		38.428977	-58.536779	28.100570
10743		39.050406	-58.604121	28.106022
10744		39.684069	-58.673946	28.110823
10745		40.329960	-58.744747	28.111740
10746		40.974745	-58.817831	28.112192
10747		41.607116	-58.889409	28.113091
10748		42.244829	-58.964362	28.099163
10749		42.890175	-59.040534	28.084553
10750		43.553957	-59.119190	28.061466
10751		44.223181	-59.200941	28.040324
10752		44.899415	-59.284791	28.007987
10753		45.566890	-59.367566	27.978010
10754		46.234694	-59.448099	27.940814
10755		46.897512	-59.531344	27.905343
10756		47.566283	-59.618264	27.871360
10757		48.245165	-59.706538	27.839138
10758		48.943807	-59.802570	27.808164
10759		49.657880	-59.902427	27.777321
10760		50.391487	-60.006601	27.737473
10761		51.130275	-60.112541	27.691682
10762		51.865320	-60.221793	27.633907
10763		52.582663	-60.330620	27.572888
10764		53.297274	-60.439017	27.502773
10765		54.013635	-60.549001	27.438379
10766		54.753285	-60.663992	27.367796
10767		55.490965	-60.779616	27.306697
10768		56.229580	-60.897459	27.246032
10769		56.967601	-61.017626	27.192304
10770		57.725703	-61.142756	27.129577
10771		58.497021	-61.267295	27.069542
10772		59.280059	-61.393037	26.995837
10773		60.060209	-61.518054	26.905425
10774		60.809988	-61.638871	26.809389
10775		61.543004	-61.756070	26.709126
10776		62.262422	-61.870204	26.608296
10777		62.960697	-61.975801	26.506638
10778		63.649780	-62.077823	26.395103
10779		64.317233	-62.179202	26.287644
10780		64.991751	-62.282259	26.172406
10781		65.662820	-62.384746	26.060324
10782		66.331352	-62.485598	25.948697
10783		66.973305	-62.585899	25.840316
10784		67.582042	-62.679814	25.722766
10785		68.149288	-62.768655	25.594023
10786		68.682827	-62.852123	25.461626
10787		69.203434	-62.928676	25.328835
10788		69.747606	-63.007143	25.181927
10789		70.304608	-63.084259	25.037792
10790		70.878916	-63.163509	24.893004
10791		71.462013	-63.241048	24.749818
10792		72.056304	-63.319067	24.604032
10793		72.648543	-63.396320	24.459251
10794		73.223377	-63.470776	24.316540
10795		73.780014	-63.543473	24.174884
10796		74.332504	-63.614470	24.023485
10797		74.876864	-63.682551	23.874087
10798		75.446889	-63.752857	23.723377
10799		76.043385	-63.824388	23.568897
10800		76.668445	-63.896962	23.414509
10801		77.302779	-63.970951	23.263764
10802		77.919395	-64.040781	23.112037
10803		78.500757	-64.106537	22.965625
10804		79.022768	-64.165306	22.826005
10805		79.471032	-64.213185	22.700972
10806		79.873701	-64.254826	22.579522
10807		80.246245	-64.294238	22.460470
10808		80.609302	-64.332592	22.345511
10809		80.954677	-64.369074	22.240448
10810		81.291914	-64.404832	22.133979
10811		81.609011	-64.441492	22.026791
10812		81.897058	-64.471593	21.928778
10813		82.137622	-64.497981	21.842170
10814		82.334420	-64.518338	21.757161
10815		82.489157	-64.535769	21.677317
10816		82.602445	-64.545868	21.597021
10817		82.675561	-64.551776	21.523620
10818		82.716302	-64.554740	21.459066
10819		82.720035	-64.556921	21.416760
10820		82.706774	-64.558547	21.381410
10821		82.672914	-64.563973	21.361228
10822		82.631064	-64.567827	21.347789
10823		82.576543	-64.570202	21.341407
10824		82.512813	-64.572241	21.334355
10825		82.440669	-64.572340	21.336039
10826		82.382592	-64.575426	21.333887
10827		82.336163	-64.575611	21.335233
10828		82.310083	-64.578715	21.339697
10829		82.297380	-64.582647	21.344196
10830		82.290664	-64.585050	21.349248
10831		82.278151	-64.586973	21.354852
10832		82.239253	-64.582735	21.367616
10833		82.159002	-64.572497	21.399840
10834		82.075392	-64.563599	21.417290
10835		81.987295	-64.553227	21.428401
10836		81.896785	-64.541036	21.440599
10837		81.787017	-64.526801	21.479049
10838		81.720001	-64.514276	21.492750
10839		81.697534	-64.506977	21.494542
10840		81.702344	-64.503605	21.498617
10841		81.724875	-64.500217	21.500284
10842		81.757906	-64.495991	21.500264
10843		81.787723	-64.490910	21.499592
10844		81.804093	-64.483688	21.497627
10845		81.803043	-64.477649	21.494606
10846		81.780454	-64.467797	21.496038
10847		81.741957	-64.457512	21.508410
10848		81.723156	-64.450559	21.508352
10849		81.715682	-64.447282	21.508680
10850		81.708664	-64.446563	21.519336
10851		81.704376	-64.445762	21.541145
10852		81.729564	-64.447278	21.551816
10853		81.782944	-64.450431	21.558747
10854		81.863227	-64.458151	21.557968
10855		81.927078	-64.462930	21.572489
10856		81.973752	-64.464924	21.591649
10857		81.999273	-64.463796	21.607685
10858		82.011084	-64.464741	21.610923
10859		81.996834	-64.461127	21.617944
10860		81.953785	-64.456039	21.638178
10861		81.895667	-64.454598	21.664759
10862		81.847265	-64.455071	21.685691
10863		81.820453	-64.459671	21.706183
10864		81.828729	-64.465225	21.717520
10865		81.852810	-64.471718	21.726266
10866		81.886352	-64.478056	21.734439
10867		81.910741	-64.486116	21.739580
10868		81.923621	-64.493661	21.742737
10869		81.914838	-64.499507	21.746343
10870		81.879571	-64.499587	21.761090
10871		81.836495	-64.500709	21.771670
10872		81.793997	-64.500900	21.779716
10873		81.744215	-64.499663	21.796932
10874		81.714141	-64.492176	21.803322
10875		81.709423	-64.480889	21.795479
10876		81.720038	-64.466060	21.782946
10877		81.724095	-64.443397	21.775699
10878		81.730198	-64.414750	21.765119
10879		81.717884	-64.379054	21.764130
10880		81.698559	-64.339975	21.769255
10881		81.675254	-64.298786	21.781761
10882		81.656847	-64.257553	21.800341
10883		81.623525	-64.217703	21.837278
10884		81.595375	-64.180821	21.872641
10885		81.539905	-64.144940	21.921945
10886		81.465554	-64.112687	21.979865
10887		81.365481	-64.083486	22.047949
10888		81.257252	-64.058380	22.116808
10889		81.144062	-64.037169	22.189126
10890		81.030847	-64.021403	22.261108
10891		80.915894	-64.008291	22.334550
10892		80.792088	-63.997095	22.407780
10893		80.647196	-63.989641	22.492791
10894		80.493414	-63.982097	22.581176
10895		80.341221	-63.977613	22.666737
10896		80.198377	-63.975969	22.748053
10897		80.064616	-63.975526	22.825802
10898		79.940849	-63.975086	22.902951
10899		79.821959	-63.975309	22.973636
10900		79.703181	-63.974753	23.036635
10901		79.562427	-63.967936	23.101745
10902		79.402332	-63.958363	23.155937
10903		79.222480	-63.946616	23.207538
10904		79.028290	-63.930743	23.255688
10905		78.819605	-63.910425	23.304374
10906		78.611479	-63.888448	23.349507
10907		78.407666	-63.864503	23.394086
10908		78.220690	-63.839050	23.426643
10909		78.040345	-63.813777	23.454890
10910		77.868423	-63.787144	23.475817
10911		77.689893	-63.755299	23.495539
10912		77.509967	-63.721879	23.515953
10913		77.338747	-63.685916	23.533677
10914		77.184909	-63.648253	23.549716
10915		77.037768	-63.607621	23.566886
10916		76.895030	-63.569716	23.586250
10917		76.741332	-63.528373	23.611584
10918		76.578599	-63.483372	23.638997
10919		76.390700	-63.439205	23.669071
10920		76.176351	-63.392904	23.695900
10921		75.927519	-63.344206	23.721065
10922		75.640000	-63.292565	23.745173
10923		75.309771	-63.239912	23.771775
10924		74.948196	-63.186320	23.797587
10925		74.567974	-63.132670	23.825025
10926		74.187478	-63.084467	23.863117
10927		73.821920	-63.041354	23.900541
10928		73.482469	-63.002448	23.939463
10929		73.170727	-62.966809	23.979214
10930		72.881686	-62.932381	24.011813
10931		72.584319	-62.895313	24.048180
10932		72.265181	-62.858608	24.074252
10933		71.880719	-62.815040	24.103797
10934		71.420426	-62.759738	24.132809
10935		70.878006	-62.695152	24.161551
10936		70.252135	-62.625886	24.195984
10937		69.558501	-62.547757	24.234005
10938		68.830413	-62.468379	24.269950
10939		68.084834	-62.389862	24.315686
10940		67.375694	-62.318896	24.360502
10941		66.727353	-62.258669	24.407606
10942		66.142434	-62.201894	24.458383
10943		65.621036	-62.153743	24.511604
10944		65.134385	-62.105314	24.557431
10945		64.646155	-62.050998	24.600649
10946		64.113492	-61.989616	24.646428
10947		63.519705	-61.917696	24.685282
10948		62.854357	-61.831902	24.732821
10949		62.145654	-61.736224	24.777578
10950		61.410658	-61.638631	24.825984
10951		60.690256	-61.542888	24.882692
10952		60.016733	-61.455886	24.944815
10953		59.411652	-61.379225	25.008688
10954		58.870474	-61.311798	25.075190
10955		58.384930	-61.249028	25.140816
10956		57.928749	-61.187723	25.191806
10957		57.460402	-61.119105	25.234258
10958		56.952051	-61.045903	25.259020
10959		56.380432	-60.961311	25.271005
10960		55.740380	-60.867645	25.280481
10961		55.037876	-60.764690	25.296900
10962		54.310369	-60.661691	25.312488
10963		53.600339	-60.561426	25.334994
10964		52.926292	-60.471367	25.365939
10965		52.321577	-60.389346	25.394695
10966		51.785551	-60.316249	25.428580
10967		51.308947	-60.250341	25.462287
10968		50.869913	-60.189686	25.480792
10969		50.430993	-60.128276	25.473547
10970		49.942894	-60.062296	25.436940
10971		49.351072	-59.982891	25.396748
10972		48.639315	-59.881016	25.358798
10973		47.835129	-59.771681	25.318791
10974		46.977496	-59.660052	25.278462
10975		46.118108	-59.554101	25.254825
10976		45.295417	-59.457972	25.246137
10977		44.551057	-59.371750	25.243866
10978		43.911692	-59.302694	25.242984
10979		43.374248	-59.252033	25.217114
10980		42.880068	-59.208270	25.192763
10981		42.355195	-59.161144	25.163683
10982		41.763300	-59.106621	25.102106
10983		41.057879	-59.039888	25.023883
10984		40.229349	-58.962769	24.945616
10985		39.311566	-58.878265	24.864998
10986		38.360697	-58.796514	24.791699
10987		37.444309	-58.721504	24.735601
10988		36.625140	-58.659101	24.703517
10989		35.921405	-58.610406	24.704067
10990		35.322596	-58.569618	24.710105
10991		34.798632	-58.534727	24.723236
10992		34.313957	-58.507163	24.732934
10993		33.818063	-58.480867	24.722712
10994		33.275091	-58.443620	24.703758
10995		32.691975	-58.401402	24.676839
10996		32.083317	-58.356343	24.637634
10997		31.466208	-58.309229	24.599956
10998		30.872033	-58.259807	24.564905
10999		30.331748	-58.215430	24.540720
11000		29.850130	-58.175434	24.521077
11001		29.389762	-58.139273	24.499631
11002		28.899599	-58.102849	24.459969
11003		28.330172	-58.059475	24.401971
11004		27.648331	-57.998030	24.310755
11005		26.842467	-57.932599	24.180793
11006		25.906171	-57.854957	24.034346
11007		24.881499	-57.765629	23.873903
11008		23.817455	-57.681518	23.715164
11009		22.763696	-57.597391	23.577900
11010		21.756034	-57.517098	23.464873
11011		20.826779	-57.442935	23.362787
11012		19.967688	-57.368104	23.260154
11013		19.153037	-57.296815	23.145573
11014		18.346686	-57.228377	23.017036
11015		17.508309	-57.157645	22.863962
11016		16.641962	-57.079906	22.695883
11017		15.791043	-57.005397	22.541042
11018		14.996140	-56.943207	22.407516
11019		14.284990	-56.887360	22.303255
11020		13.648552	-56.829716	22.223095
11021		13.071299	-56.770948	22.150435
11022		12.525629	-56.717426	22.079727
11023		11.999726	-56.658685	22.014671
11024		11.480260	-56.600396	21.953171
11025		10.956164	-56.540626	21.895913
11026		10.426946	-56.480750	21.838605
11027		9.894816	-56.420552	21.787172
11028		9.373362	-56.356784	21.740378
11029		8.872246	-56.293031	21.708228
11030		8.423868	-56.233715	21.685041
11031		8.018877	-56.180985	21.675316
11032		7.644951	-56.131422	21.683074
11033		7.295275	-56.082046	21.696137
11034		6.963164	-56.034455	21.710305
11035		6.645372	-55.982427	21.721756
11036		6.327264	-55.931929	21.745162
11037		6.019706	-55.879652	21.776350
11038		5.721620	-55.828796	21.824875
11039		5.428702	-55.778294	21.881195
11040		5.146935	-55.729766	21.942804
11041		4.887558	-55.683326	22.005997
11042		4.661699	-55.639903	22.068163
11043		4.468173	-55.602217	22.129383
11044		4.314209	-55.569895	22.187327
11045		4.190165	-55.544193	22.242040
11046		4.071007	-55.521294	22.298964
11047		3.932298	-55.500824	22.355173
11048		3.765166	-55.476108	22.412893
11049		3.577618	-55.449259	22.459441
11050		3.410627	-55.421914	22.503611
11051		3.262499	-55.390898	22.544025
11052		3.166939	-55.367121	22.574614
11053		3.108243	-55.344746	22.606112
11054		3.078766	-55.322596	22.625566
11055		3.062846	-55.301981	22.639747
11056		3.033578	-55.280938	22.636382
11057		2.970949	-55.253451	22.621037
11058		2.881268	-55.215635	22.586974
11059		2.790615	-55.169428	22.548892
11060		2.737327	-55.117389	22.505207
11061		2.739672	-55.075405	22.463221
11062		2.799433	-55.042325	22.407803
11063		2.874668	-55.007377	22.344452
11064		2.929738	-54.969333	22.267710
11065		2.931190	-54.927445	22.199531
11066		2.890726	-54.883683	22.136866
11067		2.830088	-54.847197	22.085591
11068		2.786525	-54.811509	22.032262
11069		2.774729	-54.782461	21.980672
11070		2.805250	-54.755365	21.914050
11071		2.854629	-54.732257	21.839688
11072		2.915148	-54.715314	21.762725
11073		2.972146	-54.703126	21.691002
11074		3.015369	-54.693229	21.625245
11075		3.036937	-54.684976	21.575610
11076		3.053957	-54.676627	21.522956
11077		3.070579	-54.670104	21.473924
11078		3.086425	-54.666102	21.423887
11079		3.096052	-54.663695	21.377988
11080		3.113644	-54.658653	21.332533
11081		3.135746	-54.653252	21.288571
11082		3.159208	-54.648214	21.245888
11083		3.169728	-54.641944	21.212102
11084		3.160251	-54.629608	21.181465
11085		3.134817	-54.609394	21.154892
11086		3.111791	-54.587595	21.128010
11087		3.109327	-54.570654	21.103957
11088		3.137868	-54.557062	21.078439
11089		3.179900	-54.550273	21.056761
11090		3.218659	-54.546216	21.032410
11091		3.219107	-54.539239	21.019642
11092		3.202948	-54.525642	21.008804
11093		3.180058	-54.508718	21.009047
11094		3.186297	-54.497500	21.011234
11095		3.216276	-54.495771	21.016220
11096		3.264515	-54.495639	21.016453
11097		3.304629	-54.496812	21.019491
11098		3.336625	-54.500028	21.024093
11099		3.358951	-54.506448	21.035774
11100		3.370275	-54.512489	21.042525
11101		3.363688	-54.521267	21.048798
11102		3.336030	-54.530280	21.061921
11103		3.301788	-54.538473	21.075528
11104		3.286697	-54.547055	21.083697
11105		3.299850	-54.556386	21.094989
11106		3.336374	-54.563178	21.105366
11107		3.384588	-54.568599	21.108699
11108		3.421340	-54.569885	21.113466
11109		3.441244	-54.568169	21.117184
11110		3.447990	-54.559581	21.121468
11111		3.453378	-54.549014	21.129645
11112		3.473059	-54.538156	21.137477
11113		3.498649	-54.528764	21.152020
11114		3.523215	-54.517673	21.168110
11115		3.532875	-54.503021	21.185834
11116		3.532649	-54.488350	21.203751
11117		3.523371	-54.471918	21.223019
11118		3.517449	-54.456966	21.240153
11119		3.515511	-54.442515	21.258161
11120		3.526507	-54.435700	21.265696
11121		3.538136	-54.432224	21.272029
11122		3.543315	-54.428779	21.272836
11123		3.531662	-54.424052	21.278458
11124		3.519174	-54.421059	21.286962
11125		3.506206	-54.414708	21.303643
11126		3.503466	-54.411601	21.321127
11127		3.502463	-54.411153	21.345832
11128		3.493738	-54.408898	21.369064
11129		3.461852	-54.401521	21.393642
11130		3.415118	-54.391624	21.418889
11131		3.371826	-54.381954	21.450329
11132		3.340841	-54.377405	21.483949
11133		3.321483	-54.374971	21.522289
11134		3.313308	-54.381276	21.560290
11135		3.308280	-54.392269	21.602396
11136		3.302597	-54.405372	21.645743
11137		3.292067	-54.421701	21.694403
11138		3.287490	-54.438814	21.740978
11139		3.280659	-54.458168	21.790354
11140		3.276058	-54.477700	21.830027
11141		3.268868	-54.494402	21.865295
11142		3.278754	-54.513725	21.896648
11143		3.312987	-54.533410	21.930912
11144		3.378227	-54.554881	21.953901
11145		3.457341	-54.576868	21.971350
11146		3.533318	-54.597299	21.976650
11147		3.586417	-54.615310	21.985687
11148		3.614363	-54.631192	21.996621
11149		3.633081	-54.644500	22.008689
11150		3.660259	-54.658266	22.013467
11151		3.700119	-54.672949	22.017479
11152		3.764349	-54.688199	22.012911
11153		3.845765	-54.704944	22.005221
11154		3.932991	-54.722155	21.983037
11155		4.001155	-54.735132	21.954667
11156		4.034504	-54.743325	21.916042
11157		4.037162	-54.741558	21.876988
11158		4.043631	-54.737780	21.835850
11159		4.074525	-54.730987	21.802360
11160		4.138999	-54.722093	21.772482
11161		4.218963	-54.707954	21.747913
11162		4.293450	-54.690858	21.725048
11163		4.353320	-54.667611	21.708446
11164		4.405020	-54.643056	21.697632
11165		4.456238	-54.616546	21.694205
11166		4.514659	-54.588302	21.694408
11167		4.580953	-54.563263	21.698393
11168		4.655337	-54.540339	21.698079
11169		4.726963	-54.523879	21.701521
11170		4.796670	-54.512614	21.702164
11171		4.864946	-54.505749	21.703072
11172		4.933893	-54.504055	21.704787
11173		5.007694	-54.508912	21.708793
11174		5.092759	-54.519207	21.707376
11175		5.180418	-54.534602	21.711032
11176		5.271004	-54.555093	21.714931
11177		5.364643	-54.576807	21.726552
11178		5.478148	-54.598739	21.742764
11179		5.611547	-54.620682	21.762891
11180		5.770645	-54.647604	21.787581
11181		5.937109	-54.678737	21.814777
11182		6.090480	-54.710505	21.848191
11183		6.214333	-54.742997	21.881237
11184		6.304458	-54.770845	21.904077
11185		6.357867	-54.792418	21.923009
11186		6.394865	-54.809023	21.942079
11187		6.440803	-54.824809	21.965339
11188		6.526256	-54.838587	21.993210
11189		6.674892	-54.853663	22.035953
11190		6.907354	-54.882040	22.082393
11191		7.202487	-54.912914	22.127250
11192		7.530675	-54.942199	22.166368
11193		7.858948	-54.973417	22.202534
11194		8.154998	-55.000255	22.228279
11195		8.412290	-55.015905	22.253591
11196		8.649207	-55.026604	22.278294
11197		8.898101	-55.037758	22.322637
11198		9.208959	-55.054474	22.363115
11199		9.575447	-55.082216	22.409221
11200		9.991621	-55.116678	22.453492
11201		10.438412	-55.156455	22.484837
11202		10.884853	-55.191442	22.502314
11203		11.313946	-55.219323	22.513192
11204		11.728010	-55.242721	22.514291
11205		12.139741	-55.260908	22.521003
11206		12.584617	-55.274212	22.550804
11207		13.101265	-55.292094	22.608167
11208		13.724970	-55.314851	22.680689
11209		14.454963	-55.342369	22.782291
11210		15.304588	-55.375550	22.899912
11211		16.248006	-55.420595	23.023203
11212		17.262616	-55.451643	23.127214
11213		18.289517	-55.479156	23.204203
11214		19.281867	-55.513483	23.255526
11215		20.203559	-55.545811	23.296146
11216		21.059169	-55.566310	23.318355
11217		21.868838	-55.575443	23.327839
11218		22.670719	-55.577560	23.321633
11219		23.479925	-55.574036	23.317332
11220		24.308337	-55.576163	23.320003
