// General information: 
//  MT Manager version: 2022.2.0 
//  XDA version: 2022.2.0 build 7381 rev 124627 built on 2023-07-19
// Device information: 
//  DeviceId: 00B44856
//  ProductCode: MTW2-3A7G6
//  Firmware Version: 4.3.5
//  Hardware Version: 2.0.0
// Device settings: 
//  Filter Profile: human(46.1)
//  Option Flags: Orientation Smoother Disabled, Position/Velocity Smoother Disabled, Continuous Zero Rotation Update Disabled, AHS Disabled, ICC Disabled
// Coordinate system: ENU
PacketCounter	SampleTimeFine	Roll	Pitch	Yaw
08055		50.548673	14.024111	-11.869767
08056		50.545690	14.022599	-11.867231
08057		50.542027	14.020870	-11.865009
08058		50.535973	14.019196	-11.866181
08059		50.532074	14.020324	-11.864360
08060		50.526475	14.019213	-11.863483
08061		50.521509	14.020868	-11.861488
08062		50.516901	14.019913	-11.863370
08063		50.513617	14.019896	-11.865482
08064		50.510184	14.019866	-11.865670
08065		50.506713	14.018631	-11.866650
08066		50.500429	14.015650	-11.868509
08067		50.496120	14.014666	-11.871751
08068		50.494126	14.013310	-11.871973
08069		50.492223	14.012051	-11.872631
08070		50.490721	14.009750	-11.873894
08071		50.489588	14.007338	-11.877965
08072		50.490524	14.005914	-11.882696
08073		50.493074	14.004841	-11.886308
08074		50.494456	14.001937	-11.888315
08075		50.492300	13.996291	-11.894281
08076		50.492737	13.993767	-11.897295
08077		50.492234	13.989753	-11.901469
08078		50.494832	13.986264	-11.904871
08079		50.495344	13.981950	-11.907930
08080		50.494916	13.977122	-11.908712
08081		50.493125	13.973621	-11.907997
08082		50.490407	13.971905	-11.907865
08083		50.485494	13.967563	-11.908734
08084		50.481595	13.962876	-11.909619
08085		50.480716	13.959673	-11.912162
08086		50.480654	13.956047	-11.913458
08087		50.479570	13.953051	-11.915197
08088		50.476401	13.950769	-11.917113
08089		50.475446	13.949758	-11.919024
08090		50.472642	13.948678	-11.921456
08091		50.472359	13.949958	-11.924424
08092		50.473034	13.950782	-11.927427
08093		50.476600	13.952564	-11.928612
08094		50.482643	13.954533	-11.930172
08095		50.490083	13.953920	-11.932506
08096		50.499413	13.952934	-11.937734
08097		50.508276	13.953724	-11.945012
08098		50.519779	13.955863	-11.951980
08099		50.528653	13.956438	-11.958892
08100		50.533884	13.958683	-11.962662
08101		50.539978	13.959840	-11.970261
08102		50.544393	13.960319	-11.975564
08103		50.546848	13.963379	-11.979153
08104		50.547029	13.967190	-11.981796
08105		50.547451	13.970547	-11.982248
08106		50.542942	13.975082	-11.983604
08107		50.539820	13.979403	-11.986959
08108		50.530665	13.983153	-11.990119
08109		50.523300	13.983905	-11.999382
08110		50.526371	13.984731	-12.011506
08111		50.532442	13.985075	-12.024783
08112		50.538346	13.984764	-12.033881
08113		50.544348	13.984454	-12.043264
08114		50.546244	13.984354	-12.057084
08115		50.554684	13.987695	-12.074860
08116		50.562268	13.991113	-12.094077
08117		50.567028	13.997304	-12.113846
08118		50.567579	14.005717	-12.137202
08119		50.568059	14.015651	-12.164503
08120		50.572074	14.025619	-12.197853
08121		50.580828	14.034469	-12.240444
08122		50.590548	14.039965	-12.289679
08123		50.603327	14.047475	-12.344281
08124		50.618012	14.052565	-12.400987
08125		50.632745	14.057165	-12.454233
08126		50.645319	14.062567	-12.508007
08127		50.657978	14.065582	-12.559556
08128		50.669996	14.067309	-12.607177
08129		50.677706	14.066856	-12.653226
08130		50.679544	14.064138	-12.698469
08131		50.677963	14.059039	-12.739817
08132		50.673777	14.053615	-12.779827
08133		50.664247	14.049510	-12.821359
08134		50.654883	14.043672	-12.858368
08135		50.648525	14.035237	-12.895756
08136		50.647895	14.022012	-12.936712
08137		50.651281	14.005923	-12.976992
08138		50.651356	13.990488	-13.013851
08139		50.647471	13.973757	-13.044356
08140		50.636544	13.958050	-13.069180
08141		50.626001	13.937658	-13.091705
08142		50.609213	13.919136	-13.112475
08143		50.585591	13.904084	-13.127498
08144		50.560205	13.893183	-13.136078
08145		50.533213	13.881942	-13.142101
08146		50.507090	13.868113	-13.145859
08147		50.472427	13.854037	-13.147062
08148		50.434787	13.843439	-13.142193
08149		50.393413	13.836384	-13.127484
08150		50.346205	13.836336	-13.115926
08151		50.296368	13.843510	-13.097812
08152		50.251046	13.857697	-13.071403
08153		50.204031	13.870761	-13.046598
08154		50.162581	13.872491	-13.031583
08155		50.124584	13.868408	-13.025452
08156		50.087552	13.864256	-13.023020
08157		50.051362	13.859913	-13.025413
08158		50.011529	13.855294	-13.029105
08159		49.970122	13.850901	-13.034092
08160		49.930843	13.848772	-13.037632
08161		49.895543	13.844400	-13.044695
08162		49.866094	13.843502	-13.049431
08163		49.832248	13.843316	-13.054361
08164		49.803967	13.846326	-13.052456
08165		49.774743	13.850956	-13.045262
08166		49.746149	13.851659	-13.036491
08167		49.716319	13.851155	-13.024885
08168		49.680645	13.848102	-13.013761
08169		49.643807	13.839836	-13.011717
08170		49.604687	13.829388	-13.013682
08171		49.561694	13.814535	-13.017225
08172		49.518601	13.798071	-13.021816
08173		49.474235	13.781718	-13.030200
08174		49.429940	13.764725	-13.027043
08175		49.385407	13.742639	-13.020739
08176		49.340105	13.710916	-13.018098
08177		49.291156	13.672975	-13.019235
08178		49.231639	13.634767	-13.018150
08179		49.161777	13.598570	-13.014595
08180		49.088965	13.569052	-13.005122
08181		49.011288	13.546515	-12.995875
08182		48.928939	13.522367	-12.985252
08183		48.847418	13.500185	-12.973825
08184		48.765230	13.476245	-12.956163
08185		48.684100	13.451676	-12.932154
08186		48.595751	13.422986	-12.908485
08187		48.502895	13.394609	-12.881322
08188		48.404623	13.374550	-12.849229
08189		48.307950	13.358983	-12.815494
08190		48.208276	13.347615	-12.784903
08191		48.107989	13.339889	-12.755466
08192		48.002453	13.336585	-12.721216
08193		47.902735	13.337329	-12.684916
08194		47.807233	13.334612	-12.650535
08195		47.717834	13.331930	-12.623965
08196		47.636091	13.333685	-12.603918
08197		47.556319	13.342614	-12.581233
08198		47.479556	13.349504	-12.567056
08199		47.402831	13.355703	-12.555857
08200		47.331682	13.366632	-12.537804
08201		47.259525	13.384065	-12.516683
08202		47.179052	13.403580	-12.487039
08203		47.090914	13.426616	-12.453349
08204		46.995794	13.452293	-12.408468
08205		46.900420	13.477818	-12.357624
08206		46.803510	13.502928	-12.299032
08207		46.711249	13.529381	-12.234413
08208		46.617875	13.555344	-12.171421
08209		46.523160	13.579296	-12.107982
08210		46.430776	13.596252	-12.050469
08211		46.348778	13.617014	-11.998409
08212		46.267726	13.640655	-11.946938
08213		46.187326	13.664046	-11.897491
08214		46.116016	13.689729	-11.848644
08215		46.048413	13.724234	-11.793214
08216		45.981506	13.763183	-11.734075
08217		45.915436	13.798231	-11.678987
08218		45.856445	13.824208	-11.632961
08219		45.807386	13.847055	-11.595669
08220		45.764807	13.870334	-11.563112
08221		45.733194	13.894126	-11.532342
08222		45.697742	13.916237	-11.505079
08223		45.662855	13.930533	-11.479442
08224		45.631769	13.940776	-11.459747
08225		45.606196	13.953462	-11.442159
08226		45.582836	13.965052	-11.427654
08227		45.565295	13.971908	-11.421210
08228		45.555921	13.981435	-11.414818
08229		45.556913	13.996191	-11.410682
08230		45.560001	14.014045	-11.409921
08231		45.562577	14.030041	-11.412075
08232		45.569632	14.041930	-11.414988
08233		45.579312	14.048536	-11.419348
08234		45.587681	14.050724	-11.426120
08235		45.596315	14.055929	-11.429461
08236		45.607499	14.053668	-11.434177
08237		45.623332	14.053683	-11.441074
08238		45.647501	14.052747	-11.450103
08239		45.672972	14.052962	-11.457750
08240		45.695705	14.054772	-11.465020
08241		45.714391	14.054261	-11.472939
08242		45.731872	14.052066	-11.479540
08243		45.750718	14.050968	-11.484521
08244		45.765809	14.051846	-11.490396
08245		45.784421	14.052903	-11.495190
08246		45.808623	14.053422	-11.502414
08247		45.831974	14.057801	-11.510117
08248		45.854582	14.063211	-11.515149
08249		45.874562	14.067149	-11.520055
08250		45.888212	14.070769	-11.524167
08251		45.899407	14.073607	-11.525251
08252		45.906332	14.072500	-11.527989
08253		45.913911	14.073075	-11.524688
08254		45.921591	14.074827	-11.520380
08255		45.933352	14.079285	-11.515034
08256		45.943776	14.085188	-11.514291
08257		45.957356	14.094059	-11.513408
08258		45.972708	14.104223	-11.510949
08259		45.983652	14.111470	-11.511017
08260		45.996514	14.115751	-11.509186
08261		46.010566	14.118235	-11.509626
08262		46.022580	14.127765	-11.505949
08263		46.038200	14.138013	-11.505089
08264		46.057560	14.149706	-11.506764
08265		46.074601	14.163109	-11.509856
08266		46.091724	14.179747	-11.512735
08267		46.109997	14.190551	-11.516536
08268		46.124313	14.203589	-11.518429
08269		46.135424	14.216674	-11.521813
08270		46.143906	14.229248	-11.525400
08271		46.152573	14.240915	-11.534834
08272		46.165902	14.251795	-11.545164
08273		46.185506	14.262919	-11.556416
08274		46.205098	14.270860	-11.561509
08275		46.225230	14.274069	-11.565106
08276		46.245052	14.275281	-11.566542
08277		46.259078	14.277720	-11.566983
08278		46.272225	14.281706	-11.567513
08279		46.286844	14.291100	-11.573377
08280		46.301476	14.302830	-11.583216
08281		46.319501	14.318725	-11.593903
08282		46.340202	14.329192	-11.606234
08283		46.372496	14.342369	-11.623201
08284		46.413062	14.354124	-11.638244
08285		46.458753	14.367091	-11.656473
08286		46.514736	14.382973	-11.679963
08287		46.574554	14.405277	-11.698808
08288		46.632836	14.421105	-11.718186
08289		46.697884	14.426255	-11.748039
08290		46.770229	14.432844	-11.780032
08291		46.845509	14.438578	-11.809383
08292		46.920293	14.442972	-11.837736
08293		46.997966	14.449479	-11.868883
08294		47.072266	14.460725	-11.899687
08295		47.137631	14.476429	-11.930737
08296		47.196586	14.499929	-11.952049
08297		47.255539	14.522515	-11.965922
08298		47.314955	14.536554	-11.981477
08299		47.377131	14.537861	-11.999435
08300		47.442933	14.529838	-12.020679
08301		47.517990	14.520445	-12.038662
08302		47.597330	14.513021	-12.058230
08303		47.670423	14.510200	-12.080287
08304		47.738748	14.513324	-12.101728
08305		47.806555	14.521064	-12.121984
08306		47.871933	14.528192	-12.141666
08307		47.929628	14.534679	-12.159462
08308		47.986036	14.538633	-12.180119
08309		48.048667	14.540207	-12.196930
08310		48.116405	14.543657	-12.214839
08311		48.184857	14.542671	-12.236454
08312		48.254513	14.538404	-12.255759
08313		48.319514	14.537809	-12.269208
08314		48.380089	14.537872	-12.276678
08315		48.435683	14.535983	-12.286050
08316		48.488595	14.537750	-12.295458
08317		48.534128	14.539536	-12.299800
08318		48.574045	14.545127	-12.299554
08319		48.612667	14.551539	-12.297248
08320		48.650032	14.554844	-12.295425
08321		48.685627	14.554903	-12.294676
08322		48.719036	14.548212	-12.294055
08323		48.751166	14.542492	-12.291447
08324		48.785240	14.533652	-12.286702
08325		48.816527	14.530422	-12.279084
08326		48.847125	14.526045	-12.267760
08327		48.877368	14.522603	-12.257420
08328		48.906275	14.518200	-12.246789
08329		48.934027	14.516457	-12.235978
08330		48.964235	14.512867	-12.224855
08331		48.995978	14.509464	-12.212690
08332		49.025447	14.505495	-12.201228
08333		49.054714	14.502364	-12.191960
08334		49.084971	14.499222	-12.184620
08335		49.112790	14.494466	-12.180288
08336		49.144594	14.487555	-12.181620
08337		49.182023	14.478826	-12.188149
08338		49.222664	14.468623	-12.194587
08339		49.263490	14.456841	-12.204469
08340		49.308776	14.447454	-12.209066
08341		49.353996	14.441063	-12.207944
08342		49.399447	14.436808	-12.201344
08343		49.441198	14.433113	-12.193186
08344		49.473518	14.427533	-12.188108
08345		49.502110	14.419534	-12.186535
08346		49.530194	14.413702	-12.181289
08347		49.549781	14.407947	-12.178943
08348		49.574204	14.404357	-12.173378
08349		49.592239	14.403696	-12.167073
08350		49.615421	14.398657	-12.159447
08351		49.643606	14.390447	-12.150092
08352		49.671880	14.382736	-12.137169
08353		49.696105	14.376313	-12.122758
08354		49.716348	14.370716	-12.108138
08355		49.740768	14.367501	-12.093689
08356		49.762304	14.364732	-12.079271
08357		49.778745	14.359402	-12.071502
08358		49.793251	14.348511	-12.062823
08359		49.810116	14.336244	-12.052588
08360		49.829353	14.322608	-12.044424
08361		49.852964	14.310794	-12.035297
08362		49.885110	14.301413	-12.019524
08363		49.910636	14.291620	-12.004925
08364		49.934754	14.282336	-11.986756
08365		49.961368	14.275398	-11.969469
08366		49.983588	14.264810	-11.952667
08367		50.002073	14.256364	-11.943091
08368		50.012744	14.247793	-11.932928
08369		50.026954	14.243298	-11.924881
08370		50.042119	14.241686	-11.913743
08371		50.059268	14.236631	-11.904477
08372		50.073596	14.228950	-11.901677
08373		50.090343	14.216941	-11.902110
08374		50.110209	14.203335	-11.902557
08375		50.135072	14.193975	-11.901714
08376		50.159498	14.190750	-11.900004
08377		50.176226	14.187829	-11.897675
08378		50.188940	14.183580	-11.894387
08379		50.201293	14.178377	-11.889866
08380		50.216977	14.174920	-11.885400
08381		50.232856	14.174892	-11.882085
08382		50.249186	14.177340	-11.876273
08383		50.264527	14.180938	-11.875118
08384		50.277248	14.182758	-11.873897
08385		50.285451	14.180572	-11.876158
08386		50.292341	14.176409	-11.885311
08387		50.300476	14.171832	-11.895088
08388		50.308612	14.169114	-11.906297
08389		50.320964	14.168743	-11.917594
08390		50.332265	14.175061	-11.923373
08391		50.344134	14.182552	-11.931733
08392		50.358221	14.189527	-11.943323
08393		50.373470	14.193264	-11.960983
08394		50.388608	14.197497	-11.980251
08395		50.404346	14.200368	-11.997189
08396		50.423414	14.203230	-12.005380
08397		50.440513	14.207124	-12.013465
08398		50.454909	14.208054	-12.017201
08399		50.464026	14.210774	-12.018120
08400		50.466788	14.212087	-12.018405
08401		50.465377	14.211782	-12.021023
08402		50.462261	14.212905	-12.021801
08403		50.459636	14.222244	-12.020057
08404		50.450802	14.234303	-12.012128
08405		50.441716	14.239896	-12.004709
08406		50.433844	14.244634	-11.999337
08407		50.425123	14.250038	-11.994054
08408		50.414493	14.255276	-11.989190
08409		50.405787	14.264050	-11.982862
08410		50.396462	14.274149	-11.978865
08411		50.390895	14.282125	-11.975939
08412		50.390451	14.292337	-11.975888
08413		50.395701	14.298114	-11.978020
08414		50.400588	14.303142	-11.982576
08415		50.407958	14.305157	-11.988519
08416		50.416906	14.312521	-11.992745
08417		50.416052	14.315429	-11.997706
08418		50.417477	14.311640	-12.005314
08419		50.424557	14.318740	-12.004390
08420		50.426198	14.331508	-12.002301
08421		50.426584	14.340109	-12.002629
08422		50.425039	14.348769	-12.001724
08423		50.421987	14.353484	-12.000645
08424		50.424321	14.354230	-12.002972
08425		50.432456	14.356636	-12.009125
08426		50.440882	14.362906	-12.011638
08427		50.446425	14.371129	-12.019163
08428		50.448029	14.373541	-12.021835
08429		50.452468	14.374151	-12.026503
08430		50.457496	14.377047	-12.031567
08431		50.464196	14.384262	-12.036767
08432		50.472193	14.389971	-12.041325
08433		50.479174	14.395854	-12.042589
08434		50.481683	14.402796	-12.039979
08435		50.481943	14.409560	-12.038380
08436		50.481359	14.412928	-12.040713
08437		50.481501	14.415449	-12.044391
08438		50.481341	14.419374	-12.044678
08439		50.483314	14.428003	-12.042743
08440		50.482241	14.438602	-12.037924
08441		50.480309	14.444241	-12.035277
08442		50.481364	14.446425	-12.030612
08443		50.483394	14.455940	-12.024650
08444		50.482627	14.462290	-12.020848
08445		50.482711	14.471080	-12.018755
08446		50.483124	14.477478	-12.018877
08447		50.477963	14.477622	-12.019245
08448		50.479506	14.472574	-12.021733
08449		50.488553	14.475449	-12.021204
08450		50.490116	14.484778	-12.020307
08451		50.489244	14.490485	-12.020192
08452		50.483985	14.495963	-12.019468
08453		50.477914	14.503322	-12.016928
08454		50.470075	14.508336	-12.023547
08455		50.463225	14.510197	-12.033331
08456		50.456598	14.512374	-12.048817
08457		50.453555	14.513717	-12.068857
08458		50.456719	14.515390	-12.095419
08459		50.468403	14.518090	-12.125338
08460		50.484744	14.520615	-12.159733
08461		50.502680	14.531970	-12.198008
08462		50.523814	14.546651	-12.233284
08463		50.544281	14.561087	-12.267197
08464		50.562636	14.572228	-12.301623
08465		50.581704	14.581946	-12.335157
08466		50.601696	14.589899	-12.361892
08467		50.616132	14.593670	-12.389565
08468		50.621319	14.595876	-12.413423
08469		50.620433	14.596867	-12.437894
08470		50.612494	14.604777	-12.459752
08471		50.600802	14.610925	-12.485986
08472		50.593171	14.617746	-12.515878
08473		50.589792	14.630344	-12.544719
08474		50.589763	14.646173	-12.571719
08475		50.591133	14.656122	-12.601039
08476		50.589865	14.662189	-12.631438
08477		50.593398	14.661628	-12.660196
08478		50.600149	14.662398	-12.685258
08479		50.602361	14.661125	-12.714702
08480		50.604151	14.657025	-12.746093
08481		50.606089	14.655009	-12.778683
08482		50.606038	14.653033	-12.810263
08483		50.605153	14.648993	-12.838960
08484		50.606901	14.646635	-12.859080
08485		50.605489	14.646659	-12.873698
08486		50.599968	14.643627	-12.885462
08487		50.591297	14.640183	-12.896896
08488		50.583792	14.638249	-12.901318
08489		50.573036	14.633892	-12.903324
08490		50.558102	14.627099	-12.905015
08491		50.542063	14.621641	-12.908333
08492		50.524595	14.620029	-12.908686
08493		50.508577	14.622230	-12.904043
08494		50.488543	14.622388	-12.904245
08495		50.464182	14.614950	-12.910282
08496		50.443332	14.604512	-12.913680
08497		50.427362	14.594835	-12.917208
08498		50.412716	14.582390	-12.921762
08499		50.400437	14.573573	-12.932414
08500		50.386622	14.565401	-12.939890
08501		50.370249	14.559208	-12.946635
08502		50.352222	14.550794	-12.953952
08503		50.331948	14.542926	-12.956441
08504		50.306909	14.539946	-12.951680
08505		50.277067	14.539383	-12.941987
08506		50.248398	14.538924	-12.928715
08507		50.220600	14.537537	-12.918137
08508		50.189492	14.532131	-12.920223
08509		50.161560	14.524615	-12.926573
08510		50.136816	14.522520	-12.930536
08511		50.116277	14.518852	-12.931648
08512		50.097234	14.517996	-12.928248
08513		50.078620	14.516520	-12.923892
08514		50.056977	14.514014	-12.921516
08515		50.035364	14.515713	-12.919674
08516		50.016430	14.515647	-12.911842
08517		50.000937	14.519105	-12.900529
08518		49.978231	14.525096	-12.881844
08519		49.957201	14.535328	-12.863151
08520		49.941200	14.553262	-12.847118
08521		49.941945	14.576118	-12.839160
08522		49.968900	14.610764	-12.831063
08523		50.005677	14.651744	-12.817277
08524		50.053880	14.700355	-12.790681
08525		50.105806	14.745388	-12.765202
08526		50.154156	14.772129	-12.741601
08527		50.209074	14.794605	-12.728223
08528		50.277400	14.812029	-12.726238
08529		50.312543	14.822192	-12.717890
08530		50.300516	14.831973	-12.693052
08531		50.261520	14.850371	-12.658379
08532		50.207161	14.874257	-12.609418
08533		50.141109	14.901294	-12.559543
08534		50.052446	14.919405	-12.512812
08535		49.933346	14.933210	-12.459841
08536		49.799135	14.949522	-12.398152
08537		49.651828	14.971817	-12.327029
08538		49.480478	15.000411	-12.246193
08539		49.302136	15.029239	-12.166384
08540		49.113046	15.042600	-12.093230
08541		48.923340	15.042206	-12.036223
08542		48.750583	15.033963	-11.988768
08543		48.598889	15.024801	-11.945514
08544		48.458322	15.018537	-11.911707
08545		48.327472	15.016413	-11.878464
08546		48.188723	15.007844	-11.845674
08547		48.053285	14.986795	-11.821267
08548		47.918899	14.967328	-11.791738
08549		47.777066	14.954788	-11.751642
08550		47.640774	14.937613	-11.715420
08551		47.511190	14.923676	-11.681036
08552		47.386717	14.906007	-11.649219
08553		47.272919	14.880761	-11.625751
08554		47.172189	14.862299	-11.601496
08555		47.073074	14.847456	-11.573202
08556		46.979590	14.836914	-11.545689
08557		46.887555	14.824997	-11.524030
08558		46.804459	14.814426	-11.505357
08559		46.728526	14.802433	-11.486984
08560		46.658932	14.788135	-11.471843
08561		46.596224	14.771509	-11.460227
08562		46.541615	14.752772	-11.451095
08563		46.498278	14.738966	-11.441678
08564		46.460286	14.726229	-11.433482
08565		46.424160	14.721072	-11.423785
08566		46.381043	14.704835	-11.418767
08567		46.343327	14.688662	-11.411567
08568		46.301472	14.679123	-11.397605
08569		46.259135	14.662445	-11.385388
08570		46.223262	14.638473	-11.380577
08571		46.196670	14.619638	-11.375514
08572		46.176182	14.607707	-11.370053
08573		46.164559	14.599211	-11.361517
08574		46.153531	14.597918	-11.350884
08575		46.141866	14.596929	-11.343058
08576		46.133165	14.588277	-11.338533
08577		46.127973	14.578362	-11.334971
08578		46.128454	14.572739	-11.330574
08579		46.134673	14.573838	-11.324463
08580		46.139192	14.570289	-11.326702
08581		46.145968	14.566580	-11.330896
08582		46.157836	14.565608	-11.330222
08583		46.168923	14.570076	-11.326646
08584		46.174838	14.575665	-11.324482
08585		46.175280	14.578751	-11.324935
08586		46.174251	14.580388	-11.322906
08587		46.175684	14.580084	-11.316530
08588		46.170952	14.583370	-11.311751
08589		46.166391	14.579860	-11.309368
08590		46.163475	14.576181	-11.307156
08591		46.162742	14.575783	-11.304364
08592		46.163064	14.577704	-11.299265
08593		46.166464	14.581250	-11.294486
08594		46.174080	14.582870	-11.290087
08595		46.184223	14.580737	-11.291274
08596		46.196809	14.578678	-11.292744
08597		46.210403	14.579069	-11.295464
08598		46.223963	14.578109	-11.294075
08599		46.236471	14.576247	-11.293243
08600		46.250433	14.573907	-11.289076
08601		46.264819	14.570903	-11.283779
08602		46.273725	14.569928	-11.279934
08603		46.275947	14.568011	-11.272986
08604		46.279972	14.568274	-11.270642
08605		46.281056	14.563932	-11.267051
08606		46.280231	14.560889	-11.262119
08607		46.281860	14.557634	-11.260280
08608		46.284589	14.560483	-11.257385
08609		46.290560	14.562755	-11.255228
08610		46.302045	14.566568	-11.256279
08611		46.316956	14.565691	-11.257694
08612		46.334411	14.568357	-11.259944
08613		46.353287	14.564464	-11.261830
08614		46.369946	14.557928	-11.265090
08615		46.388710	14.553367	-11.269800
08616		46.407972	14.553057	-11.276145
08617		46.427205	14.555135	-11.280846
08618		46.447631	14.561208	-11.285213
08619		46.469239	14.565598	-11.290471
08620		46.487965	14.573643	-11.296304
08621		46.507403	14.580831	-11.303588
08622		46.532433	14.589463	-11.313734
08623		46.560069	14.598210	-11.330586
08624		46.590822	14.606950	-11.345886
08625		46.621549	14.611955	-11.359069
08626		46.649517	14.614595	-11.370119
08627		46.669640	14.611924	-11.380821
08628		46.687638	14.608354	-11.395060
08629		46.707174	14.605105	-11.406608
08630		46.729800	14.605533	-11.424816
08631		46.755293	14.609190	-11.451386
08632		46.781375	14.618635	-11.477504
08633		46.814320	14.627739	-11.497177
08634		46.849725	14.624682	-11.521135
08635		46.882507	14.612898	-11.544948
08636		46.917757	14.600004	-11.563987
08637		46.960403	14.592742	-11.575660
08638		47.013412	14.588214	-11.592135
08639		47.079500	14.594622	-11.623666
08640		47.127981	14.612783	-11.671089
08641		47.169511	14.651265	-11.698346
08642		47.216746	14.687061	-11.710688
08643		47.278085	14.698701	-11.730517
08644		47.338936	14.690114	-11.764233
08645		47.400416	14.676291	-11.794022
08646		47.464937	14.661332	-11.815784
08647		47.534168	14.650260	-11.831306
08648		47.599908	14.644102	-11.855579
08649		47.656213	14.652410	-11.888836
08650		47.699337	14.681042	-11.916277
08651		47.746852	14.727565	-11.929044
08652		47.799172	14.766251	-11.947393
08653		47.858410	14.788975	-11.975018
08654		47.921958	14.800042	-12.009857
08655		47.993307	14.800625	-12.044488
08656		48.067969	14.801061	-12.078503
08657		48.149490	14.809085	-12.110549
08658		48.227511	14.821172	-12.138028
08659		48.303613	14.835593	-12.165185
08660		48.376020	14.848003	-12.191249
08661		48.446690	14.861221	-12.219852
08662		48.515302	14.877838	-12.246430
08663		48.582584	14.890423	-12.273910
08664		48.646108	14.905025	-12.301896
08665		48.707902	14.922814	-12.324807
08666		48.766236	14.942077	-12.340040
08667		48.820322	14.962249	-12.348546
08668		48.868688	14.983441	-12.351042
08669		48.910712	15.002728	-12.350723
08670		48.951038	15.021404	-12.347677
08671		48.986230	15.041818	-12.342989
08672		49.021608	15.064674	-12.336526
08673		49.057311	15.086131	-12.333542
08674		49.093907	15.103585	-12.331360
08675		49.125115	15.118751	-12.331910
08676		49.157655	15.131847	-12.329372
08677		49.189847	15.145904	-12.326261
08678		49.220119	15.158835	-12.317109
08679		49.253556	15.171983	-12.304815
08680		49.288250	15.183325	-12.288038
08681		49.322394	15.194408	-12.271448
08682		49.355211	15.204437	-12.256041
08683		49.385655	15.215060	-12.242741
08684		49.413665	15.227761	-12.226959
08685		49.436746	15.239931	-12.209877
08686		49.457545	15.249580	-12.194526
08687		49.477149	15.252319	-12.184980
08688		49.499637	15.250885	-12.177934
08689		49.523526	15.244495	-12.167491
08690		49.552440	15.233848	-12.154211
08691		49.586172	15.222719	-12.141301
08692		49.622121	15.215173	-12.126409
08693		49.658588	15.214130	-12.112106
08694		49.684592	15.214184	-12.094810
08695		49.706349	15.214246	-12.076877
08696		49.727362	15.208329	-12.059604
08697		49.750082	15.198236	-12.047777
08698		49.774408	15.185232	-12.039552
08699		49.803829	15.172489	-12.028435
08700		49.835179	15.157195	-12.019039
08701		49.867074	15.140487	-12.007569
08702		49.902758	15.118509	-12.001781
08703		49.939754	15.097585	-11.994874
08704		49.974222	15.078930	-11.984074
08705		50.015363	15.065740	-11.969485
08706		50.040307	15.047883	-11.953962
08707		50.066777	15.026000	-11.942797
08708		50.087068	15.003359	-11.927846
08709		50.106337	14.990313	-11.910568
08710		50.122096	14.976426	-11.891545
08711		50.135098	14.960639	-11.869388
08712		50.149820	14.945969	-11.845115
08713		50.161360	14.932972	-11.821286
08714		50.172204	14.915642	-11.806769
08715		50.191951	14.895914	-11.790669
08716		50.208630	14.882984	-11.768787
08717		50.220897	14.868812	-11.746851
08718		50.232257	14.855521	-11.722177
08719		50.242249	14.844493	-11.699159
08720		50.251083	14.832743	-11.682542
08721		50.257189	14.819723	-11.665100
08722		50.279587	14.807411	-11.652173
08723		50.297826	14.795070	-11.638278
08724		50.318852	14.788181	-11.619812
08725		50.341142	14.779625	-11.603942
08726		50.358211	14.766942	-11.588234
08727		50.374547	14.752890	-11.573501
08728		50.387702	14.739810	-11.560074
08729		50.400373	14.730408	-11.548004
08730		50.413339	14.724068	-11.538026
08731		50.420639	14.714473	-11.530235
08732		50.430564	14.704614	-11.525218
08733		50.438222	14.696560	-11.522049
08734		50.453552	14.691157	-11.514256
08735		50.472233	14.685790	-11.504345
08736		50.489503	14.672755	-11.498020
08737		50.502432	14.656768	-11.503311
08738		50.518239	14.646735	-11.512833
08739		50.532774	14.636795	-11.524741
08740		50.549525	14.630394	-11.534610
08741		50.566562	14.624034	-11.544653
08742		50.582138	14.613362	-11.557416
08743		50.602981	14.601202	-11.571839
08744		50.624643	14.589947	-11.582651
08745		50.644104	14.576381	-11.593589
08746		50.661195	14.565139	-11.601929
08747		50.671940	14.554805	-11.608976
08748		50.679739	14.547702	-11.612542
08749		50.684469	14.539635	-11.613049
08750		50.689886	14.529575	-11.613753
08751		50.696227	14.522900	-11.612029
08752		50.701908	14.516860	-11.608327
08753		50.707039	14.509802	-11.609099
08754		50.713941	14.504455	-11.611838
08755		50.717264	14.495321	-11.621666
08756		50.722273	14.487362	-11.627654
08757		50.727754	14.481630	-11.629145
08758		50.733974	14.476670	-11.627142
08759		50.737126	14.474792	-11.623554
08760		50.736419	14.472914	-11.618260
08761		50.731745	14.470968	-11.613227
08762		50.723285	14.467707	-11.609906
08763		50.715226	14.466489	-11.608992
08764		50.710259	14.467712	-11.609370
08765		50.706031	14.468076	-11.611286
08766		50.703268	14.470344	-11.612656
08767		50.709704	14.468821	-11.616896
08768		50.722994	14.463964	-11.625148
08769		50.739501	14.461274	-11.630723
08770		50.753774	14.458777	-11.634215
08771		50.764272	14.451937	-11.639384
08772		50.771538	14.445760	-11.641951
08773		50.779334	14.435484	-11.646090
08774		50.780455	14.425146	-11.653660
08775		50.780090	14.418544	-11.659872
08776		50.777632	14.412586	-11.660880
08777		50.772716	14.407240	-11.664548
08778		50.766375	14.400909	-11.667816
08779		50.756562	14.396956	-11.671463
08780		50.746058	14.395196	-11.671575
08781		50.734107	14.390806	-11.676456
08782		50.727015	14.384760	-11.681939
08783		50.720603	14.381419	-11.686423
08784		50.715182	14.377344	-11.691888
08785		50.709552	14.372109	-11.697500
08786		50.703197	14.366408	-11.703312
08787		50.695857	14.362111	-11.710647
08788		50.687168	14.360849	-11.713788
08789		50.677934	14.361471	-11.718067
08790		50.668007	14.364166	-11.718694
08791		50.657773	14.366550	-11.720615
08792		50.647249	14.365416	-11.723275
08793		50.637032	14.364359	-11.726131
08794		50.620972	14.364883	-11.732444
08795		50.605954	14.366439	-11.741748
08796		50.594256	14.366301	-11.753768
08797		50.585640	14.369956	-11.760143
08798		50.575538	14.379391	-11.764205
08799		50.567509	14.390767	-11.769891
08800		50.562915	14.401813	-11.776088
08801		50.560410	14.410852	-11.782472
08802		50.560036	14.420075	-11.788088
08803		50.564115	14.432203	-11.797504
08804		50.572870	14.440029	-11.809932
08805		50.583854	14.447643	-11.824456
08806		50.596685	14.457128	-11.833940
08807		50.610470	14.468578	-11.842616
08808		50.622953	14.480264	-11.850416
08809		50.632476	14.492663	-11.862017
08810		50.637381	14.506859	-11.874369
08811		50.644746	14.519969	-11.887167
08812		50.648885	14.534444	-11.901742
08813		50.653787	14.549280	-11.922689
08814		50.661536	14.564753	-11.943326
08815		50.672653	14.580992	-11.964340
08816		50.684420	14.599383	-11.987134
08817		50.690577	14.617572	-12.012561
08818		50.700656	14.635988	-12.036067
08819		50.704484	14.655953	-12.062320
08820		50.707762	14.677326	-12.083759
08821		50.708201	14.702684	-12.111124
08822		50.707356	14.726385	-12.136911
08823		50.706762	14.747421	-12.166608
08824		50.701925	14.764592	-12.199590
08825		50.698716	14.782585	-12.233941
08826		50.692518	14.799564	-12.270025
08827		50.688537	14.812287	-12.306845
08828		50.685180	14.822520	-12.348460
08829		50.683587	14.829977	-12.393768
08830		50.682108	14.834461	-12.444511
08831		50.683179	14.836631	-12.499180
08832		50.686242	14.835718	-12.552874
08833		50.688109	14.833622	-12.603867
08834		50.689684	14.832978	-12.644327
08835		50.688113	14.832069	-12.676004
08836		50.684630	14.837460	-12.694821
08837		50.672101	14.843727	-12.710441
08838		50.654440	14.850774	-12.716451
08839		50.628804	14.857536	-12.717068
08840		50.597292	14.859284	-12.714986
08841		50.556350	14.861181	-12.711578
08842		50.508669	14.861802	-12.706939
08843		50.459100	14.863958	-12.706399
08844		50.409505	14.870668	-12.703406
08845		50.360355	14.880749	-12.700792
08846		50.316974	14.894183	-12.697251
08847		50.279828	14.909260	-12.691407
08848		50.253580	14.929585	-12.684527
08849		50.230549	14.952774	-12.677449
08850		50.206315	14.974249	-12.670391
08851		50.184688	14.996765	-12.665964
08852		50.159316	15.017320	-12.660648
08853		50.136587	15.031149	-12.666020
08854		50.117483	15.041903	-12.676620
08855		50.103324	15.049173	-12.692542
08856		50.085327	15.052695	-12.705582
08857		50.068716	15.057489	-12.708905
08858		50.054472	15.060604	-12.705169
08859		50.041284	15.065522	-12.700121
08860		50.037219	15.067077	-12.695092
08861		50.032467	15.068268	-12.695712
08862		50.018364	15.073265	-12.693876
08863		49.995721	15.082119	-12.691115
08864		49.966658	15.090758	-12.687672
08865		49.936228	15.097487	-12.684542
08866		49.901998	15.100892	-12.682528
08867		49.865404	15.100062	-12.677073
08868		49.828407	15.096265	-12.664643
08869		49.799089	15.085411	-12.656646
08870		49.772641	15.074482	-12.645699
08871		49.744914	15.060756	-12.640746
08872		49.711955	15.047762	-12.633161
08873		49.680361	15.035809	-12.622456
08874		49.649472	15.024761	-12.610250
08875		49.617793	15.013295	-12.604035
08876		49.582019	15.004146	-12.595896
08877		49.542704	14.998662	-12.584543
08878		49.499725	14.996022	-12.570928
08879		49.452022	14.990330	-12.552334
08880		49.401609	14.982494	-12.526578
08881		49.349166	14.971286	-12.495660
08882		49.293275	14.945715	-12.469021
08883		49.235316	14.909683	-12.446189
08884		49.177139	14.875496	-12.425181
08885		49.111371	14.849920	-12.403198
08886		49.043473	14.829258	-12.377434
08887		48.967129	14.810411	-12.351433
08888		48.886897	14.787306	-12.330848
08889		48.810390	14.765531	-12.308678
08890		48.736961	14.745673	-12.285250
08891		48.669170	14.726319	-12.264880
08892		48.606782	14.704947	-12.248575
08893		48.551654	14.681296	-12.236573
08894		48.499256	14.663890	-12.217368
08895		48.444216	14.646465	-12.195097
08896		48.389937	14.627184	-12.174691
08897		48.328711	14.609725	-12.159040
08898		48.262619	14.596376	-12.145883
08899		48.195963	14.589599	-12.130839
08900		48.130744	14.581261	-12.116274
08901		48.070932	14.574186	-12.104541
08902		48.012370	14.559397	-12.098763
08903		47.960562	14.545491	-12.090080
08904		47.911860	14.529433	-12.080592
08905		47.861789	14.514943	-12.070267
08906		47.804871	14.500382	-12.056798
08907		47.742749	14.486957	-12.039339
08908		47.678524	14.472711	-12.025223
08909		47.607534	14.461572	-12.008120
08910		47.539710	14.451647	-11.988819
08911		47.474059	14.446614	-11.965387
08912		47.407656	14.443609	-11.942057
08913		47.343094	14.442828	-11.917594
08914		47.269917	14.439200	-11.894623
08915		47.198437	14.432576	-11.869602
08916		47.121104	14.424595	-11.846267
08917		47.042566	14.418777	-11.818782
08918		46.961428	14.409023	-11.793810
08919		46.878124	14.400394	-11.767677
08920		46.793346	14.392140	-11.741189
08921		46.713353	14.386817	-11.712367
08922		46.635774	14.384486	-11.681865
08923		46.557684	14.386102	-11.651184
08924		46.481345	14.385158	-11.622766
08925		46.417336	14.380776	-11.591469
08926		46.358206	14.375498	-11.563550
08927		46.303533	14.367312	-11.535674
08928		46.255075	14.356943	-11.509750
08929		46.213547	14.345827	-11.484009
08930		46.170284	14.336269	-11.452718
08931		46.128934	14.327427	-11.421881
08932		46.091117	14.313400	-11.396139
08933		46.059519	14.299068	-11.372867
08934		46.037295	14.281244	-11.350863
08935		46.018631	14.266774	-11.332155
08936		45.999800	14.256035	-11.316115
08937		45.989127	14.239049	-11.310103
08938		45.989933	14.220423	-11.307801
08939		45.993694	14.205510	-11.305338
08940		45.996003	14.194951	-11.304208
08941		45.994671	14.183212	-11.308236
08942		45.996288	14.168570	-11.314713
08943		45.999070	14.155737	-11.321342
08944		46.004640	14.144151	-11.328856
08945		46.014236	14.129830	-11.339478
08946		46.023785	14.116464	-11.350851
08947		46.030322	14.104677	-11.356484
08948		46.024570	14.096606	-11.357740
08949		46.011279	14.090409	-11.359994
08950		45.984493	14.089421	-11.363211
08951		45.957181	14.091380	-11.370706
08952		45.924656	14.099528	-11.386520
08953		45.890636	14.112999	-11.408584
08954		45.852328	14.131675	-11.435231
08955		45.811110	14.153598	-11.463636
08956		45.768968	14.177814	-11.489192
08957		45.723750	14.199125	-11.519989
08958		45.680135	14.215404	-11.553877
08959		45.640013	14.230160	-11.594142
08960		45.601640	14.247399	-11.632180
08961		45.563105	14.261614	-11.669351
08962		45.522992	14.274259	-11.704039
08963		45.485718	14.280819	-11.735154
08964		45.450078	14.287997	-11.761828
08965		45.413255	14.290469	-11.786361
08966		45.377810	14.291012	-11.809311
08967		45.341381	14.288208	-11.829435
08968		45.304059	14.282364	-11.847038
08969		45.273259	14.273811	-11.859308
08970		45.239328	14.263544	-11.871310
08971		45.213332	14.253293	-11.879765
08972		45.188034	14.242011	-11.884138
08973		45.163820	14.229161	-11.888118
08974		45.134195	14.213102	-11.888307
08975		45.106965	14.192389	-11.886085
08976		45.077513	14.170657	-11.878160
08977		45.050198	14.151796	-11.867220
08978		45.025323	14.136770	-11.850202
08979		45.001293	14.126558	-11.826782
08980		44.983436	14.118643	-11.800286
08981		44.977881	14.114334	-11.768924
08982		44.978326	14.115288	-11.729468
08983		44.980816	14.121082	-11.688139
08984		44.987372	14.129952	-11.642842
08985		44.995508	14.139737	-11.597275
08986		45.004480	14.152378	-11.550591
08987		45.013136	14.168022	-11.503987
08988		45.028846	14.188122	-11.454953
08989		45.049580	14.209665	-11.406577
08990		45.072496	14.230100	-11.359502
08991		45.098330	14.252267	-11.311535
08992		45.125446	14.272150	-11.267650
08993		45.160117	14.289515	-11.229273
08994		45.196801	14.308974	-11.197005
08995		45.235499	14.328932	-11.166607
08996		45.277669	14.350111	-11.135230
08997		45.323958	14.365341	-11.112110
08998		45.373197	14.379266	-11.087849
08999		45.424460	14.392398	-11.067281
09000		45.472260	14.401814	-11.050258
09001		45.516933	14.405816	-11.035221
09002		45.558120	14.408498	-11.017418
09003		45.598096	14.411093	-11.001662
09004		45.635036	14.408322	-10.993535
09005		45.675234	14.409871	-10.983349
09006		45.719674	14.414845	-10.973149
09007		45.762563	14.423081	-10.968554
09008		45.805358	14.431083	-10.964973
09009		45.848051	14.439896	-10.961786
09010		45.889769	14.448020	-10.964998
09011		45.931789	14.456411	-10.978128
09012		45.975858	14.462417	-10.992803
09013		46.023869	14.464354	-11.007411
09014		46.074572	14.464000	-11.029496
09015		46.125614	14.461455	-11.057854
09016		46.179554	14.458118	-11.087812
09017		46.227582	14.453287	-11.119220
09018		46.275523	14.443467	-11.154528
09019		46.326019	14.419206	-11.194484
09020		46.378336	14.389288	-11.236063
09021		46.434958	14.367493	-11.270385
09022		46.482987	14.352503	-11.300318
09023		46.540282	14.346648	-11.331604
09024		46.602228	14.354946	-11.374077
09025		46.664957	14.375663	-11.420581
09026		46.729960	14.400798	-11.462129
09027		46.799844	14.422912	-11.500482
09028		46.875672	14.430963	-11.540622
09029		46.953377	14.423399	-11.589298
09030		47.035784	14.407909	-11.632727
09031		47.123940	14.395250	-11.667335
09032		47.214230	14.386845	-11.702736
09033		47.297319	14.386603	-11.746412
09034		47.376410	14.403918	-11.787568
09035		47.446454	14.435902	-11.826359
09036		47.513873	14.475752	-11.855486
09037		47.591377	14.511254	-11.875294
09038		47.672003	14.535430	-11.891376
09039		47.759219	14.547809	-11.905078
09040		47.848039	14.556832	-11.912923
09041		47.930853	14.571427	-11.913430
09042		48.006294	14.589477	-11.913036
09043		48.078225	14.611182	-11.910968
09044		48.140579	14.634875	-11.920979
09045		48.196528	14.655797	-11.937719
09046		48.250279	14.680168	-11.952756
09047		48.309280	14.707632	-11.955228
09048		48.373762	14.731600	-11.947170
09049		48.447227	14.752854	-11.934925
09050		48.523068	14.769614	-11.918968
09051		48.598535	14.790081	-11.898844
09052		48.671539	14.808814	-11.874715
09053		48.740287	14.826701	-11.854295
09054		48.803448	14.839131	-11.840485
09055		48.862297	14.851407	-11.831228
09056		48.917073	14.863832	-11.821082
09057		48.965555	14.877106	-11.811187
09058		49.008236	14.888602	-11.798716
09059		49.057819	14.897547	-11.780580
09060		49.107562	14.902360	-11.755856
09061		49.154543	14.899075	-11.732660
09062		49.198345	14.894929	-11.710159
09063		49.242548	14.893533	-11.685672
09064		49.283524	14.897322	-11.657180
09065		49.321636	14.901051	-11.631556
09066		49.354629	14.903300	-11.610928
09067		49.385210	14.904052	-11.592064
09068		49.411889	14.903555	-11.573464
09069		49.436768	14.903246	-11.553618
09070		49.466399	14.904261	-11.529365
09071		49.496950	14.906447	-11.501721
09072		49.533058	14.904068	-11.474483
09073		49.578700	14.896305	-11.452802
09074		49.623341	14.884647	-11.438501
09075		49.668777	14.874650	-11.428889
09076		49.718408	14.864097	-11.417514
09077		49.762011	14.852206	-11.406574
09078		49.803068	14.840016	-11.390073
09079		49.842472	14.830496	-11.376965
09080		49.874071	14.823629	-11.361048
09081		49.906235	14.818785	-11.341897
09082		49.932628	14.817559	-11.319644
09083		49.955777	14.811892	-11.301024
09084		49.983450	14.808073	-11.279379
09085		50.016849	14.808851	-11.249910
09086		50.047415	14.805982	-11.213139
09087		50.072255	14.802372	-11.175087
09088		50.097944	14.795599	-11.133369
09089		50.118627	14.783894	-11.093817
09090		50.137953	14.769078	-11.054598
09091		50.155383	14.758480	-11.016060
09092		50.170829	14.752691	-10.973199
09093		50.182821	14.748522	-10.935148
09094		50.191428	14.742240	-10.898429
09095		50.194724	14.730998	-10.868239
09096		50.208729	14.717475	-10.847836
09097		50.236378	14.702770	-10.833204
09098		50.268894	14.690528	-10.813591
09099		50.309664	14.679623	-10.793407
09100		50.344420	14.666290	-10.780999
09101		50.384941	14.651917	-10.767909
09102		50.423326	14.636995	-10.751347
09103		50.446843	14.626157	-10.732483
09104		50.461767	14.620849	-10.709485
09105		50.472272	14.619680	-10.691533
09106		50.480255	14.615310	-10.678555
09107		50.493193	14.614255	-10.667152
09108		50.502364	14.615373	-10.656374
09109		50.513345	14.600508	-10.653735
09110		50.539201	14.584197	-10.649581
09111		50.567375	14.579871	-10.637986
09112		50.592004	14.574167	-10.629059
09113		50.615293	14.567850	-10.625614
09114		50.628681	14.561687	-10.621593
09115		50.629612	14.553068	-10.624120
09116		50.634039	14.546765	-10.630334
09117		50.640772	14.545790	-10.631304
09118		50.649119	14.546504	-10.632883
09119		50.659040	14.541900	-10.639037
09120		50.675314	14.537763	-10.644566
09121		50.695765	14.536115	-10.648928
09122		50.713467	14.528669	-10.653725
09123		50.728437	14.516621	-10.658855
09124		50.740851	14.502803	-10.660073
09125		50.751852	14.491810	-10.658863
09126		50.761337	14.481971	-10.658338
09127		50.763161	14.469623	-10.660967
09128		50.764541	14.457972	-10.664561
09129		50.771702	14.447329	-10.668279
09130		50.781607	14.440651	-10.668943
09131		50.791523	14.434159	-10.669161
09132		50.799179	14.429161	-10.665178
09133		50.798954	14.419735	-10.662474
09134		50.796615	14.413782	-10.657772
09135		50.790396	14.407780	-10.655151
09136		50.779801	14.399404	-10.657770
09137		50.768800	14.391369	-10.670230
09138		50.762875	14.388254	-10.687411
09139		50.757514	14.387786	-10.709419
09140		50.760188	14.389577	-10.730587
09141		50.766547	14.389322	-10.744316
09142		50.770926	14.387041	-10.757653
09143		50.770547	14.382367	-10.770480
09144		50.765811	14.376733	-10.781373
09145		50.760726	14.372160	-10.792099
09146		50.754750	14.371091	-10.803051
09147		50.750649	14.372105	-10.812842
09148		50.748360	14.373447	-10.820997
09149		50.748864	14.374528	-10.833403
09150		50.752820	14.370434	-10.843705
09151		50.757927	14.365942	-10.853529
09152		50.762374	14.358292	-10.861604
09153		50.765955	14.353229	-10.863728
09154		50.763288	14.350100	-10.859891
09155		50.754269	14.347207	-10.859492
09156		50.743169	14.346428	-10.858790
09157		50.735580	14.346323	-10.858136
09158		50.732630	14.345304	-10.859549
09159		50.732899	14.342436	-10.864032
09160		50.735633	14.338254	-10.864749
09161		50.744698	14.334808	-10.862040
09162		50.752001	14.329300	-10.860082
09163		50.758853	14.324842	-10.856323
09164		50.766486	14.322562	-10.848637
09165		50.771704	14.322184	-10.839853
09166		50.774747	14.323933	-10.831146
09167		50.777144	14.327527	-10.822185
09168		50.784945	14.329204	-10.810129
09169		50.800224	14.331794	-10.797313
09170		50.817826	14.333165	-10.786645
09171		50.838862	14.329881	-10.776599
09172		50.861593	14.327639	-10.766098
09173		50.891531	14.321052	-10.754185
09174		50.919507	14.312458	-10.741821
09175		50.948253	14.301016	-10.730354
09176		50.979302	14.287686	-10.718404
09177		51.013709	14.271648	-10.708096
09178		51.053380	14.251783	-10.699776
09179		51.094205	14.228343	-10.692117
09180		51.139695	14.200488	-10.687365
09181		51.181036	14.167979	-10.684745
09182		51.217072	14.130864	-10.687057
09183		51.253242	14.090531	-10.691478
09184		51.282752	14.047563	-10.695885
09185		51.317141	14.004709	-10.703397
09186		51.349488	13.961135	-10.714190
09187		51.376337	13.928175	-10.712407
09188		51.392120	13.905332	-10.696857
09189		51.394265	13.888776	-10.664235
09190		51.383665	13.877621	-10.626955
09191		51.361832	13.875776	-10.586563
09192		51.329422	13.885801	-10.547981
09193		51.291576	13.902696	-10.520764
09194		51.252331	13.927280	-10.498892
09195		51.213414	13.959360	-10.483454
09196		51.173594	13.995649	-10.471083
09197		51.140810	14.030346	-10.464966
09198		51.118050	14.062381	-10.462775
09199		51.110801	14.094333	-10.465009
09200		51.112457	14.120858	-10.472232
09201		51.127633	14.138829	-10.485251
09202		51.152909	14.151492	-10.505744
09203		51.190562	14.163506	-10.530661
09204		51.225663	14.163099	-10.566694
09205		51.263478	14.146353	-10.615352
09206		51.304654	14.132541	-10.663531
09207		51.342836	14.128280	-10.714878
09208		51.371352	14.125493	-10.770196
09209		51.391457	14.119989	-10.828551
09210		51.401271	14.112762	-10.883082
09211		51.408186	14.105720	-10.933748
09212		51.410707	14.097679	-10.982597
09213		51.412099	14.093809	-11.022678
09214		51.412769	14.089235	-11.057250
09215		51.411262	14.079872	-11.088737
09216		51.409105	14.067149	-11.112934
09217		51.397957	14.053286	-11.134766
09218		51.373704	14.041611	-11.157899
09219		51.344714	14.026975	-11.183291
09220		51.309491	14.016091	-11.210608
09221		51.282301	14.011195	-11.240489
09222		51.265564	14.014902	-11.263921
09223		51.257715	14.013474	-11.289703
09224		51.249856	14.009234	-11.319790
09225		51.251004	14.004684	-11.348838
09226		51.260855	13.995341	-11.371663
09227		51.269712	13.986666	-11.393576
09228		51.270979	13.965702	-11.414773
09229		51.259944	13.945021	-11.433184
09230		51.243266	13.930602	-11.445950
09231		51.215938	13.925018	-11.458970
09232		51.179540	13.931270	-11.473347
09233		51.149085	13.946553	-11.490353
09234		51.133674	13.968327	-11.509932
09235		51.124317	13.991765	-11.533289
09236		51.111694	14.012276	-11.556684
09237		51.098725	14.029770	-11.578262
09238		51.088481	14.039219	-11.593964
09239		51.072764	14.043927	-11.608080
09240		51.045192	14.043521	-11.627301
09241		51.014400	14.044745	-11.645397
09242		50.984897	14.051863	-11.657460
09243		50.959289	14.065535	-11.666950
09244		50.929261	14.079526	-11.680095
09245		50.902247	14.094448	-11.691326
09246		50.875320	14.107069	-11.703712
09247		50.846877	14.119884	-11.710588
09248		50.814033	14.132449	-11.711022
09249		50.777472	14.140205	-11.708756
09250		50.735839	14.142574	-11.704517
09251		50.690809	14.138536	-11.702131
09252		50.653490	14.139072	-11.691502
09253		50.614225	14.144630	-11.682680
09254		50.581488	14.151205	-11.669604
09255		50.550151	14.156025	-11.659103
09256		50.515362	14.154037	-11.658684
09257		50.485209	14.150163	-11.664994
09258		50.456588	14.147464	-11.669430
09259		50.427410	14.145247	-11.675207
09260		50.399179	14.145689	-11.680846
09261		50.368138	14.149488	-11.688392
09262		50.334290	14.155031	-11.689725
09263		50.292890	14.166045	-11.684290
09264		50.241983	14.176352	-11.672435
09265		50.186579	14.189532	-11.653284
09266		50.127322	14.201510	-11.630638
09267		50.063757	14.209418	-11.611616
09268		49.994176	14.213727	-11.595170
09269		49.929548	14.214681	-11.588172
09270		49.859934	14.216821	-11.583702
09271		49.789674	14.218842	-11.583634
09272		49.733274	14.221894	-11.584132
09273		49.689938	14.235021	-11.579043
09274		49.647877	14.253347	-11.572568
09275		49.607281	14.263107	-11.576178
09276		49.567757	14.274879	-11.578462
09277		49.536465	14.292672	-11.582658
09278		49.505319	14.314805	-11.587383
09279		49.463400	14.339128	-11.587546
09280		49.411737	14.365473	-11.578161
09281		49.357296	14.387948	-11.570268
09282		49.296962	14.408508	-11.567066
09283		49.241962	14.430913	-11.562537
09284		49.180905	14.454508	-11.552241
09285		49.117833	14.475717	-11.541556
09286		49.056554	14.488736	-11.530922
09287		48.998403	14.491103	-11.523342
09288		48.944655	14.482027	-11.528597
09289		48.895889	14.463491	-11.540890
09290		48.846697	14.444404	-11.550586
09291		48.801312	14.427324	-11.553855
09292		48.754932	14.413387	-11.544158
09293		48.706386	14.400058	-11.530884
09294		48.651352	14.383143	-11.517908
09295		48.584926	14.365117	-11.505161
09296		48.503011	14.354248	-11.484164
09297		48.410804	14.348017	-11.452991
09298		48.311670	14.337793	-11.424476
09299		48.212193	14.322575	-11.398690
09300		48.111521	14.299588	-11.372043
09301		48.008722	14.282909	-11.338128
09302		47.906461	14.269984	-11.304450
09303		47.809563	14.264185	-11.268881
09304		47.709764	14.265504	-11.234264
09305		47.614348	14.271024	-11.205912
09306		47.522475	14.281455	-11.179091
09307		47.435700	14.294660	-11.156379
09308		47.351739	14.301422	-11.142955
09309		47.272070	14.311242	-11.130712
09310		47.193501	14.319685	-11.118181
09311		47.117112	14.320559	-11.111488
09312		47.040978	14.322579	-11.100654
09313		46.962865	14.329009	-11.088910
09314		46.881780	14.335215	-11.070433
09315		46.799827	14.344747	-11.048430
09316		46.718579	14.353733	-11.026432
09317		46.633191	14.364757	-11.004139
09318		46.545669	14.377549	-10.983336
09319		46.460889	14.384632	-10.965511
09320		46.379297	14.386804	-10.950233
09321		46.298731	14.381945	-10.935171
09322		46.218325	14.377051	-10.916336
09323		46.142032	14.371423	-10.895819
09324		46.065090	14.367805	-10.874880
09325		45.992103	14.360623	-10.854727
09326		45.923421	14.350975	-10.833441
09327		45.854319	14.340834	-10.817591
09328		45.782817	14.326665	-10.805458
09329		45.715729	14.311540	-10.798198
09330		45.645051	14.294864	-10.789916
09331		45.568663	14.277411	-10.779865
09332		45.487100	14.254938	-10.775983
09333		45.412561	14.228646	-10.767737
09334		45.342938	14.204138	-10.758929
09335		45.284058	14.184155	-10.751138
09336		45.230733	14.166942	-10.744439
09337		45.186771	14.146761	-10.739902
09338		45.148732	14.125227	-10.737411
09339		45.115163	14.112864	-10.732595
09340		45.084527	14.105795	-10.726018
09341		45.055205	14.100330	-10.719228
09342		45.025620	14.099556	-10.710777
09343		44.996676	14.098639	-10.703434
09344		44.968766	14.097882	-10.694233
09345		44.948025	14.101174	-10.683609
09346		44.932346	14.107582	-10.672049
09347		44.928626	14.113319	-10.664535
09348		44.923644	14.118690	-10.655082
09349		44.916127	14.123822	-10.649532
09350		44.910019	14.131612	-10.640782
09351		44.895614	14.140374	-10.630056
09352		44.878654	14.149871	-10.620603
09353		44.866435	14.156216	-10.612277
09354		44.861136	14.160971	-10.604825
09355		44.859943	14.168935	-10.597440
09356		44.862432	14.172343	-10.595903
09357		44.860422	14.177211	-10.590373
09358		44.859507	14.184170	-10.583674
09359		44.860795	14.190518	-10.574912
09360		44.860237	14.194713	-10.567192
09361		44.860525	14.196787	-10.560965
09362		44.860489	14.199503	-10.551620
09363		44.866075	14.201440	-10.544223
09364		44.874788	14.199103	-10.540687
09365		44.883957	14.200600	-10.538618
09366		44.891151	14.199529	-10.535235
09367		44.896482	14.194019	-10.531804
09368		44.906839	14.187783	-10.525943
09369		44.922290	14.183072	-10.520773
09370		44.940668	14.182848	-10.516877
09371		44.956100	14.183435	-10.511494
09372		44.972189	14.184130	-10.507432
09373		44.986493	14.181118	-10.500163
09374		44.992309	14.173344	-10.494957
09375		44.997103	14.164770	-10.490584
09376		45.000174	14.158185	-10.482901
09377		45.003477	14.158339	-10.473497
09378		45.007197	14.162221	-10.463197
09379		45.014551	14.167344	-10.455511
09380		45.021303	14.168481	-10.450606
09381		45.024488	14.172823	-10.441392
09382		45.029373	14.178194	-10.431958
09383		45.032208	14.183757	-10.425729
09384		45.036201	14.191412	-10.418150
09385		45.038152	14.198115	-10.410066
09386		45.039754	14.203994	-10.404689
09387		45.046437	14.214678	-10.398930
09388		45.052076	14.225513	-10.395309
09389		45.057800	14.237062	-10.393662
09390		45.066349	14.247986	-10.391908
09391		45.078029	14.259638	-10.393474
09392		45.089696	14.275846	-10.394545
09393		45.102939	14.290173	-10.397497
09394		45.116657	14.305384	-10.403268
09395		45.130427	14.322180	-10.406281
09396		45.140875	14.340057	-10.411196
09397		45.150904	14.357875	-10.410257
09398		45.156112	14.372670	-10.411577
09399		45.159918	14.385588	-10.413199
09400		45.164080	14.396061	-10.417182
09401		45.170961	14.404176	-10.423135
09402		45.175467	14.411691	-10.431799
09403		45.177764	14.420240	-10.439448
09404		45.178118	14.425627	-10.442841
09405		45.177614	14.422229	-10.445117
09406		45.175524	14.412706	-10.447791
09407		45.174381	14.405808	-10.444742
09408		45.173897	14.403227	-10.438995
09409		45.178864	14.402119	-10.428944
09410		45.181477	14.395588	-10.424652
09411		45.188061	14.389486	-10.422898
09412		45.198593	14.386448	-10.417207
09413		45.210148	14.382516	-10.412311
09414		45.220073	14.380220	-10.411397
09415		45.236720	14.377225	-10.415466
09416		45.259360	14.376243	-10.420327
09417		45.284887	14.375664	-10.424536
09418		45.312673	14.377211	-10.430441
09419		45.346433	14.379894	-10.436082
09420		45.385510	14.386896	-10.439841
09421		45.429379	14.394532	-10.451875
09422		45.480677	14.402729	-10.470489
09423		45.543693	14.413068	-10.487851
09424		45.611637	14.423791	-10.506718
09425		45.687827	14.436450	-10.531874
09426		45.766938	14.448341	-10.558432
09427		45.847338	14.457191	-10.587795
09428		45.932624	14.461736	-10.619867
09429		46.032924	14.463075	-10.669297
09430		46.127963	14.473058	-10.740465
09431		46.215917	14.502865	-10.805296
09432		46.308190	14.546645	-10.845156
09433		46.398287	14.567632	-10.887082
09434		46.488741	14.559337	-10.944371
09435		46.583788	14.546063	-11.002285
09436		46.679274	14.536716	-11.047742
09437		46.776842	14.535570	-11.084141
09438		46.863252	14.544238	-11.136826
09439		46.926254	14.568977	-11.199944
09440		46.986886	14.614697	-11.247018
09441		47.045058	14.661231	-11.283505
09442		47.113544	14.694051	-11.321656
09443		47.188006	14.708434	-11.372856
09444		47.275911	14.713017	-11.430156
09445		47.373653	14.721860	-11.482456
09446		47.476167	14.737201	-11.531200
09447		47.575368	14.756614	-11.582019
09448		47.658513	14.780438	-11.631791
09449		47.730633	14.810078	-11.664989
09450		47.797745	14.837905	-11.683564
09451		47.860052	14.849424	-11.701888
09452		47.912390	14.850308	-11.720576
09453		47.962124	14.849153	-11.737145
09454		48.010581	14.850618	-11.742424
09455		48.060330	14.855811	-11.742644
09456		48.107099	14.862675	-11.742647
09457		48.151317	14.873432	-11.742575
09458		48.190738	14.884569	-11.743619
09459		48.233825	14.893773	-11.742666
09460		48.271618	14.901564	-11.745531
09461		48.307231	14.905080	-11.753447
09462		48.346350	14.914242	-11.758308
09463		48.387163	14.931756	-11.751806
09464		48.430076	14.952912	-11.737799
09465		48.476698	14.970148	-11.720904
09466		48.523877	14.986956	-11.702800
09467		48.567655	15.010013	-11.680717
09468		48.612422	15.035741	-11.658447
09469		48.650028	15.057226	-11.643416
09470		48.689249	15.074303	-11.639700
09471		48.734525	15.088237	-11.641039
09472		48.782907	15.097437	-11.643488
09473		48.832981	15.102709	-11.648550
09474		48.885699	15.104832	-11.650557
09475		48.941559	15.111146	-11.645274
09476		49.005129	15.118048	-11.641270
09477		49.066916	15.125228	-11.635986
09478		49.126109	15.139146	-11.632409
09479		49.182819	15.154775	-11.627729
09480		49.238734	15.170720	-11.620659
09481		49.293509	15.182794	-11.614389
09482		49.348585	15.190450	-11.609842
09483		49.393082	15.189519	-11.610297
09484		49.436406	15.185504	-11.612517
09485		49.477813	15.180483	-11.608576
09486		49.522946	15.176513	-11.598575
09487		49.567530	15.176943	-11.585747
09488		49.612307	15.177113	-11.569128
09489		49.657095	15.176820	-11.549298
09490		49.679996	15.179024	-11.521266
09491		49.726979	15.182244	-11.516841
09492		49.762347	15.182031	-11.526695
09493		49.795933	15.177577	-11.544098
09494		49.839945	15.168332	-11.565452
09495		49.893603	15.154513	-11.582317
09496		49.942445	15.139399	-11.592369
09497		49.981135	15.120747	-11.603814
09498		50.025089	15.102434	-11.611571
09499		50.072909	15.084075	-11.613790
09500		50.127949	15.073086	-11.601581
09501		50.182949	15.065524	-11.587793
09502		50.230646	15.056281	-11.573332
09503		50.281548	15.042562	-11.558663
09504		50.326745	15.026448	-11.540038
09505		50.365040	15.011440	-11.518369
09506		50.398569	15.000967	-11.486307
09507		50.426905	14.993543	-11.450997
09508		50.458380	14.990511	-11.411922
09509		50.490551	14.991286	-11.377192
09510		50.518012	14.999773	-11.343547
09511		50.551468	15.013176	-11.310752
09512		50.587312	15.029888	-11.278633
09513		50.624096	15.047615	-11.248438
09514		50.658975	15.064669	-11.223097
09515		50.694663	15.078298	-11.214417
09516		50.729110	15.086879	-11.212399
09517		50.771908	15.096007	-11.208645
09518		50.816268	15.109542	-11.201614
09519		50.862089	15.126628	-11.196473
09520		50.904812	15.144129	-11.191577
09521		50.941975	15.162250	-11.184974
09522		50.975857	15.180238	-11.174632
09523		51.002981	15.193313	-11.166009
09524		51.028447	15.201729	-11.161735
09525		51.052950	15.212646	-11.157164
09526		51.079088	15.224053	-11.149507
09527		51.107386	15.226753	-11.144485
09528		51.139517	15.223036	-11.139915
09529		51.168186	15.214411	-11.135677
09530		51.196132	15.207207	-11.126591
09531		51.225221	15.202966	-11.108510
09532		51.257137	15.195966	-11.085583
09533		51.281022	15.188041	-11.061759
09534		51.301681	15.176669	-11.042605
09535		51.319221	15.159522	-11.029127
09536		51.333346	15.142419	-11.017868
09537		51.346047	15.128122	-11.009698
09538		51.354301	15.112287	-11.010045
09539		51.365247	15.098914	-11.016810
09540		51.380352	15.082109	-11.025393
09541		51.398759	15.067360	-11.025452
09542		51.411865	15.052714	-11.027424
09543		51.427711	15.038304	-11.029290
09544		51.441237	15.023483	-11.033606
09545		51.452348	15.011249	-11.039712
09546		51.458588	15.002267	-11.048812
09547		51.460414	14.998065	-11.058584
09548		51.459753	14.990800	-11.073433
09549		51.457146	14.986610	-11.095009
09550		51.456878	14.986470	-11.118128
09551		51.455001	14.989950	-11.145886
09552		51.451543	14.996494	-11.175101
09553		51.454546	15.004341	-11.197554
09554		51.455308	15.012923	-11.209054
09555		51.453291	15.022237	-11.213491
09556		51.452143	15.030910	-11.206227
09557		51.454508	15.042116	-11.194380
09558		51.459669	15.052593	-11.170969
09559		51.466520	15.059272	-11.150415
09560		51.475045	15.064986	-11.128486
09561		51.482365	15.076686	-11.104098
09562		51.493959	15.096194	-11.077367
09563		51.508436	15.113989	-11.056795
09564		51.525379	15.135140	-11.036521
09565		51.545041	15.154606	-11.015529
09566		51.569035	15.172004	-10.995694
09567		51.597280	15.183801	-10.978842
09568		51.629219	15.192481	-10.967125
09569		51.663863	15.201439	-10.960931
09570		51.702552	15.209807	-10.953058
09571		51.743083	15.220817	-10.946907
09572		51.778945	15.229783	-10.945411
09573		51.815642	15.240485	-10.941590
09574		51.854774	15.247323	-10.937888
09575		51.892722	15.252883	-10.931305
09576		51.928409	15.256559	-10.923400
09577		51.960524	15.256057	-10.917063
09578		51.986162	15.251594	-10.908509
09579		52.012509	15.247581	-10.898098
09580		52.028574	15.243300	-10.883830
09581		52.041808	15.238560	-10.870282
09582		52.053835	15.230793	-10.858421
09583		52.067015	15.224046	-10.844308
09584		52.078896	15.213721	-10.834985
09585		52.091000	15.199547	-10.830512
09586		52.101900	15.187734	-10.827308
09587		52.111829	15.173243	-10.824426
09588		52.119878	15.159356	-10.818685
09589		52.123585	15.146309	-10.819424
09590		52.123252	15.133539	-10.818840
09591		52.120461	15.119463	-10.818767
09592		52.115015	15.105684	-10.821144
09593		52.104426	15.092479	-10.829992
09594		52.090268	15.081378	-10.845947
09595		52.075791	15.072690	-10.870813
09596		52.062380	15.068000	-10.900527
09597		52.052832	15.070322	-10.930574
09598		52.044103	15.079383	-10.960388
09599		52.036703	15.091924	-10.990688
09600		52.032018	15.107159	-11.027038
09601		52.027404	15.122585	-11.068362
09602		52.018764	15.138916	-11.111000
09603		52.009687	15.162166	-11.148604
09604		51.993693	15.186893	-11.186619
09605		51.976636	15.208911	-11.217736
09606		51.955587	15.232427	-11.247290
09607		51.931366	15.252895	-11.273425
09608		51.903612	15.273301	-11.294607
09609		51.873241	15.287804	-11.318200
09610		51.838783	15.299291	-11.347331
09611		51.809945	15.313083	-11.373278
09612		51.794620	15.331965	-11.398199
09613		51.786861	15.353633	-11.422708
09614		51.784146	15.377542	-11.450165
09615		51.779359	15.399948	-11.480619
09616		51.771643	15.422055	-11.509714
09617		51.755495	15.445365	-11.536359
09618		51.731888	15.466397	-11.560137
09619		51.711799	15.482768	-11.584597
09620		51.686744	15.496517	-11.610125
09621		51.660447	15.512300	-11.631826
09622		51.637102	15.529849	-11.652243
09623		51.619413	15.547737	-11.668600
09624		51.601458	15.564237	-11.680788
09625		51.580625	15.580826	-11.689133
09626		51.554367	15.592339	-11.693017
09627		51.525505	15.602482	-11.695953
09628		51.492402	15.612326	-11.701088
09629		51.458528	15.627967	-11.705880
09630		51.424704	15.642022	-11.714659
09631		51.394688	15.657892	-11.729780
09632		51.369878	15.675263	-11.746506
09633		51.352808	15.692818	-11.760716
09634		51.339964	15.705071	-11.770440
09635		51.330842	15.712080	-11.779428
09636		51.319750	15.713770	-11.789280
09637		51.304069	15.709130	-11.804428
09638		51.287263	15.706705	-11.814922
09639		51.268521	15.703372	-11.825178
09640		51.245405	15.703614	-11.837438
09641		51.226541	15.709406	-11.854238
09642		51.207378	15.717739	-11.873778
09643		51.200323	15.723771	-11.894412
09644		51.196182	15.727040	-11.909935
09645		51.190043	15.724175	-11.924048
09646		51.186097	15.718877	-11.935407
09647		51.180998	15.712298	-11.943884
09648		51.172050	15.702588	-11.953641
09649		51.156200	15.694008	-11.966077
09650		51.133029	15.684415	-11.980590
09651		51.101928	15.678354	-11.997919
09652		51.068848	15.676837	-12.014157
09653		51.042605	15.679778	-12.030276
09654		51.015441	15.681568	-12.057165
09655		51.003855	15.682803	-12.091074
09656		51.003980	15.686737	-12.127440
09657		51.012303	15.689447	-12.165544
09658		51.020447	15.689349	-12.201192
09659		51.027295	15.684790	-12.233899
09660		51.027094	15.678477	-12.256142
09661		51.021747	15.665420	-12.277247
09662		50.999669	15.649388	-12.295476
09663		50.975049	15.633300	-12.305052
09664		50.950251	15.620434	-12.308800
09665		50.929585	15.610653	-12.314210
09666		50.909085	15.600526	-12.321102
09667		50.890751	15.592236	-12.335045
09668		50.867971	15.578397	-12.356192
09669		50.839710	15.563055	-12.380206
09670		50.813284	15.544199	-12.400981
09671		50.783353	15.527010	-12.412275
09672		50.752262	15.512808	-12.416354
09673		50.715794	15.497777	-12.420121
09674		50.676472	15.483744	-12.422337
09675		50.639138	15.474921	-12.423427
09676		50.604590	15.465399	-12.426092
09677		50.573206	15.458024	-12.431706
09678		50.542461	15.454733	-12.434076
09679		50.514917	15.454808	-12.431654
09680		50.491021	15.455975	-12.417656
09681		50.465467	15.456031	-12.404212
09682		50.440979	15.454784	-12.396114
09683		50.413949	15.454197	-12.387469
09684		50.386719	15.463277	-12.372159
09685		50.361328	15.477626	-12.348814
09686		50.335291	15.495484	-12.317430
09687		50.308980	15.506396	-12.288429
09688		50.279095	15.510755	-12.268500
09689		50.253166	15.513126	-12.253126
09690		50.226366	15.518108	-12.238757
09691		50.197224	15.517612	-12.228487
09692		50.167042	15.520672	-12.220709
09693		50.135975	15.526172	-12.212203
09694		50.101527	15.532989	-12.200240
09695		50.060513	15.545458	-12.177006
09696		50.019672	15.562938	-12.145660
09697		49.980670	15.581220	-12.107711
09698		49.942611	15.588413	-12.077832
09699		49.897405	15.575705	-12.072241
09700		49.854179	15.561887	-12.073719
09701		49.807388	15.553631	-12.067040
09702		49.758772	15.549370	-12.052420
09703		49.707130	15.542645	-12.041938
09704		49.642619	15.533130	-12.033289
09705		49.578299	15.531531	-12.020645
09706		49.514400	15.528994	-12.004400
09707		49.449679	15.528251	-11.991910
09708		49.389667	15.527234	-11.984057
09709		49.334122	15.528500	-11.975716
09710		49.282220	15.526041	-11.970325
09711		49.229810	15.516655	-11.977144
09712		49.184642	15.505401	-11.981481
09713		49.139159	15.497808	-11.981213
09714		49.084477	15.488524	-11.981866
09715		49.024246	15.483098	-11.984697
09716		48.959531	15.479813	-11.986553
09717		48.890841	15.477788	-11.986690
09718		48.823325	15.475023	-11.983547
09719		48.754506	15.472355	-11.981309
09720		48.690676	15.468721	-11.976384
09721		48.627196	15.464505	-11.968840
09722		48.562904	15.459121	-11.960865
09723		48.494228	15.455785	-11.951443
09724		48.424428	15.452583	-11.944273
09725		48.353165	15.454065	-11.929522
09726		48.283203	15.453672	-11.913064
09727		48.210844	15.449877	-11.895797
09728		48.135542	15.447095	-11.877284
09729		48.062073	15.443098	-11.858961
09730		47.988391	15.436298	-11.843893
09731		47.915784	15.419370	-11.834341
09732		47.841922	15.405349	-11.823361
09733		47.762824	15.398254	-11.810192
09734		47.680892	15.393381	-11.795292
09735		47.600475	15.390024	-11.781152
09736		47.523776	15.389444	-11.769119
09737		47.454837	15.389069	-11.760248
09738		47.394283	15.389661	-11.753366
09739		47.344982	15.388970	-11.755281
09740		47.300980	15.385652	-11.768911
09741		47.268722	15.387321	-11.792824
09742		47.238020	15.395328	-11.816130
09743		47.209814	15.400922	-11.851665
09744		47.184766	15.406019	-11.898157
09745		47.164248	15.414023	-11.946731
09746		47.150892	15.427253	-11.999015
09747		47.147061	15.445302	-12.051793
09748		47.147782	15.462607	-12.105295
09749		47.151593	15.478821	-12.161300
09750		47.150172	15.490372	-12.216718
09751		47.140464	15.501692	-12.266664
09752		47.121989	15.513149	-12.309207
09753		47.093827	15.524754	-12.350828
09754		47.060745	15.538776	-12.389043
09755		47.027321	15.550510	-12.426144
09756		46.996581	15.566381	-12.456394
09757		46.959670	15.583657	-12.483451
09758		46.917107	15.594583	-12.506950
09759		46.872056	15.599485	-12.532272
09760		46.829259	15.603970	-12.555475
09761		46.788753	15.610408	-12.574088
09762		46.752530	15.617885	-12.584841
09763		46.716052	15.621769	-12.596332
09764		46.680951	15.626302	-12.603821
09765		46.645640	15.631815	-12.610299
09766		46.607150	15.638401	-12.614466
09767		46.571198	15.642837	-12.619462
09768		46.533268	15.645828	-12.626939
09769		46.499559	15.644077	-12.636634
09770		46.473172	15.645030	-12.648003
09771		46.443902	15.644790	-12.657119
09772		46.412473	15.647972	-12.660247
09773		46.381011	15.649374	-12.665897
09774		46.350590	15.646244	-12.671287
09775		46.322194	15.645319	-12.671125
09776		46.298610	15.645479	-12.673481
09777		46.281009	15.646018	-12.678155
09778		46.267303	15.648722	-12.683601
09779		46.258577	15.656232	-12.688407
09780		46.249092	15.662524	-12.692726
09781		46.238042	15.668448	-12.694075
09782		46.228903	15.668829	-12.697179
09783		46.217827	15.667465	-12.702402
09784		46.206058	15.665676	-12.704068
09785		46.199111	15.664957	-12.702397
09786		46.194628	15.659172	-12.701569
09787		46.197463	15.657308	-12.700021
09788		46.202373	15.656261	-12.700759
09789		46.204885	15.654256	-12.704137
09790		46.204042	15.651059	-12.700482
09791		46.195615	15.643125	-12.699029
09792		46.189737	15.635462	-12.693651
09793		46.188083	15.630289	-12.686705
09794		46.186025	15.631595	-12.678863
09795		46.187899	15.630206	-12.673007
09796		46.196514	15.630025	-12.664407
09797		46.212024	15.632414	-12.660464
09798		46.228613	15.634880	-12.654594
09799		46.241503	15.631025	-12.653623
09800		46.257959	15.627636	-12.649948
09801		46.273268	15.628196	-12.644142
09802		46.282729	15.631537	-12.636023
09803		46.295543	15.635759	-12.626547
09804		46.305761	15.639439	-12.618724
09805		46.317455	15.642005	-12.614008
09806		46.336633	15.648541	-12.610360
09807		46.357603	15.657172	-12.605586
09808		46.376060	15.666013	-12.599262
09809		46.392097	15.673406	-12.592867
09810		46.405571	15.678315	-12.587382
09811		46.418732	15.686109	-12.581944
09812		46.434649	15.695959	-12.574358
09813		46.453941	15.707215	-12.568176
09814		46.477526	15.714519	-12.566905
09815		46.502535	15.722793	-12.564020
09816		46.523391	15.729316	-12.559551
09817		46.538368	15.733863	-12.554271
09818		46.551688	15.739599	-12.544461
09819		46.565958	15.741226	-12.535192
09820		46.578198	15.743553	-12.523760
09821		46.594896	15.746150	-12.516908
09822		46.615467	15.752238	-12.508726
09823		46.638085	15.762760	-12.503891
09824		46.661496	15.775264	-12.502403
09825		46.685589	15.788955	-12.501786
09826		46.709753	15.801793	-12.500586
09827		46.734969	15.809679	-12.504487
09828		46.763167	15.813027	-12.508333
09829		46.791700	15.820238	-12.513603
09830		46.822049	15.830386	-12.520676
09831		46.848491	15.838773	-12.535410
09832		46.872501	15.850528	-12.548803
09833		46.892139	15.858320	-12.564206
09834		46.905532	15.863012	-12.584137
09835		46.910996	15.866270	-12.609784
09836		46.915170	15.879494	-12.635974
09837		46.910382	15.894962	-12.667833
09838		46.893178	15.911228	-12.715309
09839		46.866133	15.931251	-12.769266
09840		46.838204	15.953537	-12.815960
09841		46.813937	15.968106	-12.862505
09842		46.793993	15.967851	-12.910868
09843		46.777583	15.962666	-12.955371
09844		46.764661	15.953043	-12.990837
09845		46.759694	15.943107	-13.028105
09846		46.759798	15.934421	-13.077058
09847		46.759075	15.935721	-13.131196
09848		46.764898	15.946067	-13.179919
09849		46.779496	15.956405	-13.230252
09850		46.806301	15.963203	-13.279420
09851		46.841876	15.962964	-13.328655
09852		46.880577	15.956466	-13.371219
09853		46.920975	15.946506	-13.409263
09854		46.961350	15.939374	-13.434463
09855		46.998913	15.936976	-13.455383
09856		47.035510	15.935343	-13.475134
09857		47.075613	15.936412	-13.495446
09858		47.120662	15.947784	-13.510662
09859		47.174187	15.964043	-13.519370
09860		47.237824	15.985750	-13.513514
09861		47.311150	16.009577	-13.492202
09862		47.388237	16.032246	-13.455715
09863		47.468756	16.050936	-13.405425
09864		47.551156	16.070154	-13.347705
09865		47.631252	16.091140	-13.284498
09866		47.709731	16.120427	-13.212723
09867		47.791495	16.155185	-13.132723
09868		47.876707	16.197887	-13.052710
09869		47.959838	16.236099	-12.977879
09870		48.039197	16.264203	-12.916329
09871		48.123565	16.288284	-12.859808
09872		48.215606	16.309679	-12.806311
09873		48.316513	16.332762	-12.751058
09874		48.418975	16.355027	-12.693161
09875		48.527596	16.376043	-12.640737
09876		48.637880	16.398002	-12.587882
09877		48.743422	16.417829	-12.542652
09878		48.846044	16.435934	-12.498353
09879		48.949395	16.451821	-12.456088
09880		49.047953	16.461568	-12.415853
09881		49.141143	16.463765	-12.377900
09882		49.229994	16.459186	-12.335967
09883		49.313346	16.453675	-12.288313
09884		49.394156	16.436773	-12.238938
09885		49.468999	16.413794	-12.199059
09886		49.539192	16.388622	-12.158302
09887		49.612207	16.367448	-12.120221
09888		49.686909	16.345339	-12.086364
09889		49.765413	16.318468	-12.059640
09890		49.843730	16.285559	-12.037579
09891		49.918531	16.246456	-12.021680
09892		49.988149	16.199426	-12.012185
09893		50.060043	16.149030	-12.004433
09894		50.131038	16.094195	-11.995966
09895		50.198750	16.044059	-11.986870
09896		50.258056	15.995878	-11.977441
09897		50.314760	15.953445	-11.968716
09898		50.368893	15.914444	-11.957150
09899		50.419658	15.878926	-11.951090
09900		50.467752	15.839746	-11.946293
09901		50.516049	15.799382	-11.947996
09902		50.561147	15.757492	-11.949676
09903		50.610938	15.712538	-11.952672
09904		50.656228	15.664680	-11.959186
09905		50.699686	15.618246	-11.968224
09906		50.741302	15.577721	-11.975569
09907		50.782060	15.543602	-11.979761
09908		50.818806	15.514169	-11.980995
09909		50.855288	15.489607	-11.982962
09910		50.887851	15.470989	-11.981529
09911		50.912212	15.456591	-11.979060
09912		50.929346	15.441837	-11.981333
09913		50.944863	15.422847	-11.991155
09914		50.965916	15.403217	-12.002837
09915		50.990771	15.384291	-12.009767
09916		51.014223	15.361035	-12.013841
09917		51.037668	15.337336	-12.014748
09918		51.057107	15.316370	-12.006212
09919		51.071591	15.297025	-11.991783
09920		51.081827	15.282481	-11.973240
09921		51.088082	15.269837	-11.950283
09922		51.087408	15.255316	-11.929311
09923		51.096048	15.238376	-11.907362
09924		51.109299	15.217927	-11.878288
09925		51.113336	15.194460	-11.856397
09926		51.119307	15.170600	-11.837034
09927		51.127030	15.153999	-11.821878
09928		51.138733	15.142057	-11.810366
09929		51.148458	15.138414	-11.799342
09930		51.160112	15.141471	-11.790904
09931		51.172597	15.147740	-11.789415
09932		51.192684	15.149860	-11.787105
09933		51.216525	15.149163	-11.787374
09934		51.238214	15.148692	-11.792481
09935		51.262705	15.150406	-11.797889
09936		51.288490	15.156599	-11.794907
09937		51.305973	15.163934	-11.790744
09938		51.315861	15.169730	-11.790865
09939		51.326784	15.173483	-11.794123
09940		51.336365	15.182644	-11.791954
09941		51.341300	15.193985	-11.787614
09942		51.347245	15.210463	-11.774696
09943		51.355167	15.221177	-11.765090
09944		51.364210	15.231828	-11.758771
09945		51.373499	15.244447	-11.748139
09946		51.378771	15.257302	-11.736059
09947		51.383893	15.264488	-11.725826
09948		51.388189	15.271267	-11.715923
09949		51.394960	15.279752	-11.702770
09950		51.400055	15.289375	-11.684949
09951		51.406913	15.294599	-11.672873
09952		51.417893	15.295949	-11.665961
09953		51.426641	15.297195	-11.658569
09954		51.433208	15.301089	-11.653846
09955		51.445809	15.308464	-11.646019
09956		51.457919	15.317104	-11.636257
09957		51.470580	15.325092	-11.625256
09958		51.477209	15.335395	-11.613715
09959		51.479488	15.343930	-11.605300
09960		51.484108	15.351231	-11.599073
09961		51.484469	15.359986	-11.596286
09962		51.483037	15.371849	-11.593734
09963		51.479744	15.382856	-11.596321
09964		51.478104	15.394846	-11.598322
09965		51.479122	15.405859	-11.600588
09966		51.474785	15.417067	-11.605128
09967		51.470096	15.426078	-11.614609
09968		51.471920	15.433398	-11.623701
09969		51.475968	15.436071	-11.634996
09970		51.485527	15.434949	-11.649645
09971		51.499213	15.427640	-11.657303
09972		51.520192	15.415711	-11.660420
09973		51.542414	15.401499	-11.662077
09974		51.566121	15.385080	-11.657402
09975		51.593963	15.365815	-11.650037
09976		51.624085	15.345960	-11.642199
09977		51.658349	15.325880	-11.635248
09978		51.693459	15.302553	-11.626210
09979		51.730073	15.278091	-11.616634
09980		51.774883	15.249277	-11.607911
09981		51.822996	15.216007	-11.604475
09982		51.876030	15.183040	-11.601926
09983		51.929904	15.148513	-11.598129
09984		51.982863	15.117405	-11.590641
09985		52.028959	15.087469	-11.585762
09986		52.071908	15.059415	-11.585090
09987		52.105961	15.033540	-11.588195
09988		52.134717	15.014841	-11.587574
09989		52.158736	14.997190	-11.591141
09990		52.178065	14.978660	-11.591850
09991		52.187075	14.957804	-11.594044
09992		52.192121	14.940234	-11.595225
09993		52.191854	14.927718	-11.592227
09994		52.185549	14.919551	-11.589514
09995		52.176636	14.912172	-11.586596
09996		52.164916	14.911564	-11.584114
09997		52.150751	14.912831	-11.580659
09998		52.137288	14.911642	-11.576446
09999		52.120948	14.910547	-11.573936
10000		52.102484	14.910873	-11.570236
10001		52.084841	14.913007	-11.564050
10002		52.064197	14.916836	-11.557667
10003		52.042884	14.919890	-11.553319
10004		52.019511	14.928184	-11.549000
10005		51.994963	14.935830	-11.544530
10006		51.969943	14.944188	-11.541004
10007		51.949441	14.952038	-11.541089
10008		51.934349	14.958158	-11.543589
10009		51.923899	14.960678	-11.550696
10010		51.918895	14.959980	-11.562190
10011		51.916478	14.954026	-11.581722
10012		51.918138	14.945414	-11.604447
10013		51.923546	14.939908	-11.626170
10014		51.927320	14.931060	-11.650429
10015		51.930167	14.919528	-11.674916
10016		51.930503	14.907621	-11.700733
10017		51.927603	14.899291	-11.726202
10018		51.923010	14.893382	-11.750722
10019		51.915246	14.885737	-11.775308
10020		51.899990	14.885623	-11.794895
10021		51.888053	14.882956	-11.814695
10022		51.872310	14.881043	-11.831280
10023		51.859796	14.877334	-11.849277
10024		51.846243	14.871906	-11.868537
10025		51.831928	14.865071	-11.887331
10026		51.815398	14.856934	-11.901566
10027		51.800547	14.845722	-11.913925
10028		51.784144	14.834894	-11.926108
10029		51.764527	14.823694	-11.936372
10030		51.747880	14.810987	-11.946702
10031		51.732463	14.801874	-11.957850
10032		51.717016	14.795142	-11.967143
10033		51.704122	14.789494	-11.977921
10034		51.688532	14.781524	-11.987880
10035		51.676724	14.776799	-11.996736
10036		51.664301	14.766118	-12.001915
10037		51.649243	14.756120	-12.012915
10038		51.638899	14.744606	-12.022807
10039		51.627130	14.732168	-12.034603
10040		51.616515	14.720140	-12.046517
10041		51.607740	14.706908	-12.058751
10042		51.598626	14.693586	-12.070545
10043		51.590343	14.685908	-12.081226
10044		51.584148	14.675238	-12.092343
10045		51.581592	14.663349	-12.108334
10046		51.578609	14.651369	-12.124252
10047		51.572564	14.640210	-12.137484
10048		51.566343	14.628933	-12.151781
10049		51.562648	14.620041	-12.165448
10050		51.557838	14.610750	-12.178495
10051		51.550493	14.606657	-12.195393
10052		51.540241	14.600403	-12.216227
10053		51.533043	14.604753	-12.232352
10054		51.528173	14.606549	-12.247038
10055		51.527737	14.610651	-12.267340
10056		51.528444	14.614725	-12.290908
10057		51.532500	14.618238	-12.315321
10058		51.536444	14.621604	-12.340510
10059		51.546203	14.625894	-12.359636
10060		51.557333	14.624857	-12.378073
10061		51.567083	14.624640	-12.398833
10062		51.579783	14.624303	-12.423555
10063		51.592801	14.631190	-12.448626
10064		51.607833	14.646743	-12.472703
10065		51.624433	14.670333	-12.496565
10066		51.638006	14.695008	-12.529244
10067		51.645846	14.723001	-12.566080
10068		51.651307	14.753047	-12.603422
10069		51.657308	14.783680	-12.633400
10070		51.654679	14.810507	-12.659855
10071		51.645502	14.837628	-12.683072
10072		51.633075	14.863973	-12.707203
10073		51.615736	14.884910	-12.735049
10074		51.592134	14.904280	-12.765624
10075		51.575658	14.929235	-12.796617
10076		51.553026	14.953320	-12.826879
10077		51.536854	14.977564	-12.851950
10078		51.520720	14.999485	-12.872662
10079		51.504865	15.014437	-12.892156
10080		51.493444	15.022061	-12.907632
10081		51.477836	15.023189	-12.917715
10082		51.456046	15.021471	-12.920696
10083		51.434448	15.021140	-12.916572
10084		51.401972	15.015409	-12.911192
10085		51.365733	15.010152	-12.914456
10086		51.323239	15.004751	-12.924105
10087		51.280258	15.001806	-12.935632
10088		51.243991	15.005435	-12.947665
10089		51.217263	15.011142	-12.958295
10090		51.196197	15.017506	-12.970108
10091		51.177969	15.018965	-12.982353
10092		51.161470	15.017613	-12.992354
10093		51.146019	15.016563	-12.997299
10094		51.122811	15.012789	-13.001532
10095		51.096558	15.007854	-13.002335
10096		51.065082	15.002307	-13.004120
10097		51.026920	14.995206	-13.006404
10098		50.983110	14.989555	-13.007755
10099		50.942677	14.987280	-13.011174
10100		50.908573	14.985372	-13.019444
10101		50.883051	14.987967	-13.038055
10102		50.868906	14.992056	-13.058580
10103		50.855880	14.996568	-13.079687
10104		50.843228	15.001318	-13.100792
10105		50.831578	15.004685	-13.120166
10106		50.821610	15.003806	-13.139779
10107		50.816859	15.004145	-13.155378
10108		50.812679	15.002827	-13.165804
10109		50.810353	14.999018	-13.176609
10110		50.805238	14.997434	-13.191304
10111		50.803212	14.995394	-13.209551
10112		50.802214	14.992123	-13.227938
10113		50.805279	14.998368	-13.238886
10114		50.811646	15.009501	-13.245925
10115		50.818454	15.018637	-13.252262
10116		50.822792	15.021568	-13.263821
10117		50.825344	15.021570	-13.273735
10118		50.827150	15.019093	-13.279315
10119		50.823423	15.019167	-13.283600
10120		50.815379	15.017483	-13.290784
10121		50.807757	15.015280	-13.301029
10122		50.811389	15.013988	-13.310869
10123		50.816515	15.009113	-13.326507
10124		50.820644	15.002453	-13.349316
10125		50.821471	14.997409	-13.365188
10126		50.819656	14.991243	-13.380048
10127		50.816527	14.989082	-13.385469
10128		50.806407	14.983729	-13.389704
10129		50.791147	14.974819	-13.397184
10130		50.769781	14.965656	-13.406727
10131		50.750026	14.961174	-13.411296
10132		50.727909	14.958755	-13.416333
10133		50.704166	14.957807	-13.413466
10134		50.681161	14.957050	-13.407506
10135		50.660720	14.956782	-13.394013
10136		50.639835	14.954533	-13.379955
10137		50.617655	14.943988	-13.377328
10138		50.596103	14.933599	-13.381797
10139		50.571520	14.928537	-13.387515
10140		50.552992	14.935592	-13.391156
10141		50.558561	14.953055	-13.400339
10142		50.591527	14.984278	-13.413730
10143		50.641313	15.032722	-13.415227
10144		50.694160	15.088725	-13.403231
10145		50.747467	15.138408	-13.392246
10146		50.788827	15.172628	-13.385632
10147		50.810518	15.197759	-13.382520
10148		50.806241	15.212546	-13.379539
10149		50.772504	15.220772	-13.378243
10150		50.711838	15.222426	-13.376728
10151		50.644982	15.214488	-13.379131
10152		50.585722	15.204588	-13.381614
10153		50.527519	15.196360	-13.382556
10154		50.470269	15.192697	-13.379819
10155		50.410649	15.186931	-13.374278
10156		50.353383	15.181996	-13.361929
10157		50.298821	15.169244	-13.347974
10158		50.238894	15.153165	-13.332007
10159		50.177874	15.135808	-13.312536
10160		50.110091	15.116494	-13.286837
10161		50.033132	15.094536	-13.259326
10162		49.949233	15.073964	-13.234358
10163		49.867335	15.048924	-13.214376
10164		49.785179	15.023674	-13.201707
10165		49.705323	14.999461	-13.193033
10166		49.622993	14.975526	-13.178536
10167		49.540834	14.948537	-13.162269
10168		49.461285	14.922830	-13.143090
10169		49.379944	14.900055	-13.114078
10170		49.290028	14.873406	-13.083241
10171		49.188421	14.836822	-13.059407
10172		49.096960	14.813930	-13.031978
10173		48.975881	14.794834	-12.996103
10174		48.874312	14.764263	-12.975049
10175		48.779057	14.746910	-12.940883
10176		48.671490	14.733673	-12.902504
10177		48.566085	14.706226	-12.877294
10178		48.467998	14.677415	-12.851936
10179		48.376781	14.658453	-12.821149
10180		48.282329	14.643025	-12.791507
10181		48.192162	14.623496	-12.760779
10182		48.101677	14.611018	-12.727422
10183		48.006764	14.602432	-12.693191
10184		47.904470	14.586778	-12.665354
10185		47.796946	14.566886	-12.637634
10186		47.683847	14.547700	-12.609670
10187		47.570910	14.527292	-12.586621
10188		47.459383	14.503353	-12.569675
10189		47.351747	14.478768	-12.549389
10190		47.237388	14.458588	-12.523122
10191		47.121678	14.439034	-12.498678
10192		47.001924	14.421548	-12.471310
10193		46.888693	14.410719	-12.443453
10194		46.783567	14.407438	-12.415663
10195		46.679306	14.409203	-12.389397
10196		46.585835	14.411588	-12.364019
10197		46.507038	14.414249	-12.337822
10198		46.436423	14.418098	-12.308487
10199		46.378687	14.422950	-12.280589
10200		46.323423	14.429750	-12.255527
10201		46.265099	14.437241	-12.233360
10202		46.210127	14.439827	-12.218091
10203		46.163772	14.443130	-12.199996
10204		46.106792	14.449197	-12.178937
10205		46.050832	14.459644	-12.153835
10206		46.003810	14.472769	-12.134232
10207		45.965847	14.485546	-12.121775
10208		45.929664	14.496203	-12.110152
10209		45.893882	14.508799	-12.099164
10210		45.861785	14.521747	-12.087019
10211		45.825619	14.537203	-12.072895
10212		45.790199	14.547463	-12.064736
10213		45.753692	14.557129	-12.055622
10214		45.720934	14.570261	-12.045762
10215		45.695580	14.579921	-12.039093
10216		45.664875	14.580421	-12.038123
10217		45.624339	14.577089	-12.038977
10218		45.581775	14.575726	-12.037258
10219		45.543095	14.574250	-12.039471
10220		45.500764	14.576572	-12.040490
10221		45.454728	14.590444	-12.032612
10222		45.403231	14.612214	-12.016027
10223		45.353256	14.645853	-11.996729
10224		45.305371	14.681012	-11.980792
10225		45.256456	14.706789	-11.974234
10226		45.205649	14.714684	-11.981837
10227		45.157611	14.719072	-11.991623
10228		45.113179	14.721767	-12.003997
10229		45.078276	14.726867	-12.013232
10230		45.041691	14.737265	-12.010897
10231		44.995037	14.755223	-11.998169
10232		44.946747	14.775076	-11.979373
10233		44.904166	14.796106	-11.962949
10234		44.860381	14.819800	-11.951253
10235		44.812847	14.833182	-11.951555
10236		44.773643	14.843075	-11.954358
10237		44.743149	14.856082	-11.961985
10238		44.715935	14.872167	-11.969672
10239		44.694131	14.883700	-11.980512
10240		44.678426	14.891290	-11.995878
10241		44.668472	14.896191	-12.011925
10242		44.660688	14.900796	-12.026332
10243		44.655108	14.904825	-12.038314
10244		44.648088	14.908612	-12.049077
10245		44.640461	14.907671	-12.059882
10246		44.632322	14.906178	-12.068181
10247		44.616066	14.909469	-12.068797
10248		44.598043	14.917236	-12.065506
10249		44.580995	14.920183	-12.065969
10250		44.564509	14.920133	-12.067636
10251		44.546494	14.916451	-12.067351
10252		44.536300	14.909586	-12.067237
10253		44.526027	14.901529	-12.070959
10254		44.521875	14.890287	-12.075795
10255		44.522208	14.884047	-12.077606
10256		44.531272	14.882115	-12.077382
10257		44.538441	14.878461	-12.079247
10258		44.544870	14.870966	-12.083034
10259		44.554883	14.868085	-12.088108
10260		44.561600	14.867040	-12.087841
10261		44.566607	14.860981	-12.090517
10262		44.572242	14.855052	-12.094836
10263		44.578904	14.852767	-12.098286
10264		44.584984	14.851887	-12.100267
10265		44.599455	14.853167	-12.102267
10266		44.618038	14.857832	-12.104322
10267		44.639411	14.869371	-12.104926
10268		44.669413	14.883187	-12.107253
10269		44.701334	14.901477	-12.111598
10270		44.740355	14.919494	-12.116216
10271		44.781210	14.940768	-12.123245
10272		44.825156	14.968401	-12.129426
10273		44.871308	14.996588	-12.137103
10274		44.923253	15.025551	-12.146437
10275		44.980481	15.058411	-12.159120
10276		45.034864	15.088136	-12.174934
10277		45.091857	15.113837	-12.190451
10278		45.153794	15.135637	-12.203095
10279		45.213731	15.151404	-12.213612
10280		45.271760	15.163033	-12.229241
10281		45.320342	15.180920	-12.245846
10282		45.380379	15.204482	-12.264616
10283		45.444502	15.240011	-12.285573
10284		45.504032	15.277779	-12.305676
10285		45.575452	15.320249	-12.322986
10286		45.654449	15.355838	-12.337638
10287		45.735366	15.383684	-12.357001
10288		45.824119	15.408884	-12.379333
10289		45.924942	15.435472	-12.399611
10290		46.025213	15.468879	-12.426342
10291		46.116056	15.507577	-12.467050
10292		46.210447	15.553071	-12.505797
10293		46.308586	15.594860	-12.541040
10294		46.417800	15.630136	-12.580456
10295		46.540826	15.656971	-12.623239
10296		46.670576	15.675923	-12.666468
10297		46.802833	15.693469	-12.707103
10298		46.933644	15.717253	-12.741126
10299		47.058187	15.749410	-12.769459
10300		47.171335	15.785810	-12.795170
10301		47.279796	15.823553	-12.816977
10302		47.388095	15.851573	-12.840624
10303		47.491793	15.870586	-12.869999
10304		47.587813	15.878901	-12.901668
10305		47.681376	15.878760	-12.931594
10306		47.781997	15.877080	-12.957791
10307		47.889409	15.883956	-12.974834
10308		48.000769	15.892343	-12.985422
10309		48.106066	15.902593	-12.997055
10310		48.204856	15.913160	-13.010849
10311		48.300083	15.925206	-13.027953
10312		48.393823	15.930548	-13.049061
10313		48.480631	15.927249	-13.073197
10314		48.557362	15.914345	-13.094161
10315		48.628700	15.896138	-13.116177
10316		48.696081	15.877378	-13.131975
10317		48.764174	15.861830	-13.139050
10318		48.830634	15.851250	-13.138555
10319		48.898785	15.845998	-13.131478
10320		48.967568	15.840208	-13.128819
10321		49.037995	15.837029	-13.132129
10322		49.103223	15.837561	-13.140513
10323		49.160034	15.836367	-13.156085
10324		49.220632	15.832880	-13.172331
10325		49.276902	15.825566	-13.180994
10326		49.330439	15.816051	-13.183260
10327		49.388419	15.807488	-13.181086
10328		49.452572	15.798289	-13.172984
10329		49.510603	15.794215	-13.164781
10330		49.567503	15.791652	-13.156800
10331		49.626505	15.792239	-13.148165
10332		49.678582	15.796643	-13.139728
10333		49.728717	15.801991	-13.131308
10334		49.775999	15.810798	-13.124822
10335		49.826589	15.815248	-13.121872
10336		49.881902	15.815043	-13.123731
10337		49.937070	15.807434	-13.124858
10338		49.992507	15.800157	-13.120614
10339		50.045987	15.790094	-13.109202
10340		50.091437	15.784881	-13.094733
10341		50.135985	15.786600	-13.073486
10342		50.167603	15.793908	-13.054331
10343		50.191052	15.804006	-13.035842
10344		50.216505	15.813109	-13.023025
10345		50.240542	15.818467	-13.014332
10346		50.261249	15.817969	-13.006033
10347		50.286135	15.817904	-12.995361
10348		50.313551	15.820443	-12.983840
10349		50.350106	15.820785	-12.976017
10350		50.387412	15.825063	-12.976217
10351		50.428118	15.830726	-12.977557
10352		50.472913	15.833885	-12.976521
10353		50.525683	15.831476	-12.971913
10354		50.569275	15.824870	-12.958974
10355		50.624022	15.817762	-12.956152
10356		50.674775	15.810782	-12.947932
10357		50.722843	15.803863	-12.932683
10358		50.767678	15.796024	-12.918465
10359		50.813476	15.787346	-12.905464
10360		50.859358	15.773925	-12.890531
10361		50.905935	15.757155	-12.872165
10362		50.951335	15.742568	-12.851072
10363		50.991375	15.727769	-12.832390
10364		51.032531	15.712971	-12.817256
10365		51.077489	15.699379	-12.805986
10366		51.115927	15.690749	-12.789255
10367		51.160540	15.685561	-12.770524
10368		51.199063	15.680049	-12.753871
10369		51.231457	15.673438	-12.742624
10370		51.268531	15.669172	-12.731850
10371		51.303601	15.660184	-12.723511
10372		51.336999	15.652315	-12.716368
10373		51.366419	15.643721	-12.713021
10374		51.402514	15.642448	-12.711147
10375		51.440845	15.641090	-12.709960
10376		51.477436	15.640226	-12.707217
10377		51.513702	15.635230	-12.702861
10378		51.550573	15.628464	-12.699155
10379		51.588853	15.618158	-12.695613
10380		51.625847	15.605601	-12.695504
10381		51.656022	15.590306	-12.696593
10382		51.687627	15.577921	-12.686422
10383		51.717152	15.563927	-12.667326
10384		51.737342	15.549643	-12.641725
10385		51.755669	15.536961	-12.612893
10386		51.765897	15.519061	-12.585121
10387		51.765289	15.498161	-12.559799
10388		51.760597	15.475037	-12.541839
10389		51.756757	15.459503	-12.529150
10390		51.764866	15.443344	-12.519723
10391		51.775211	15.430371	-12.515508
10392		51.791348	15.421214	-12.512525
10393		51.813533	15.413030	-12.514588
10394		51.841489	15.403603	-12.522971
10395		51.876130	15.392318	-12.536610
10396		51.907847	15.378903	-12.554512
10397		51.933765	15.366292	-12.579476
10398		51.954112	15.355830	-12.606320
10399		51.968863	15.350615	-12.639784
10400		51.988154	15.348417	-12.675064
10401		52.011497	15.347898	-12.706098
10402		52.034069	15.347371	-12.730219
10403		52.052918	15.340813	-12.748017
10404		52.082572	15.340916	-12.754588
10405		52.074565	15.320441	-12.762929
10406		52.077248	15.298375	-12.765034
10407		52.060775	15.293236	-12.751264
10408		52.038235	15.287257	-12.742703
10409		52.019520	15.276802	-12.740003
10410		52.001495	15.271632	-12.739441
10411		51.993158	15.276078	-12.735273
10412		51.987318	15.278024	-12.735252
10413		51.986061	15.277584	-12.731850
10414		51.984368	15.283503	-12.727328
10415		51.980446	15.286700	-12.724735
10416		51.972975	15.286171	-12.728010
10417		51.964001	15.290350	-12.729248
10418		51.953861	15.296026	-12.730836
10419		51.953152	15.301884	-12.734574
10420		51.954719	15.306675	-12.745011
10421		51.960900	15.312239	-12.752504
10422		51.971680	15.313142	-12.758885
10423		51.980125	15.312637	-12.765288
10424		51.985626	15.311220	-12.769756
10425		51.983947	15.312942	-12.770588
10426		51.980876	15.314361	-12.769818
10427		51.983723	15.319873	-12.762756
10428		51.983167	15.323381	-12.757600
10429		51.981895	15.326824	-12.755574
10430		51.980826	15.331849	-12.751995
10431		51.981897	15.335563	-12.749670
10432		51.981843	15.338307	-12.749993
10433		51.980579	15.340590	-12.754259
10434		51.979015	15.341490	-12.760392
10435		51.973179	15.350051	-12.762690
10436		51.963904	15.357863	-12.760726
10437		51.957298	15.364785	-12.758986
10438		51.954085	15.370034	-12.753928
10439		51.955939	15.375994	-12.752352
10440		51.962550	15.381089	-12.752615
10441		51.970578	15.384549	-12.753681
10442		51.976434	15.388721	-12.756848
10443		51.980803	15.388571	-12.761631
10444		51.983390	15.391504	-12.762559
10445		51.977891	15.397369	-12.764189
10446		51.971506	15.404692	-12.767165
10447		51.961470	15.412384	-12.768517
10448		51.950165	15.421043	-12.767601
10449		51.940795	15.428996	-12.763374
10450		51.931510	15.437392	-12.758251
10451		51.925264	15.441610	-12.755733
10452		51.921269	15.449798	-12.754991
10453		51.918983	15.459380	-12.756597
10454		51.920388	15.470511	-12.760273
10455		51.921127	15.482836	-12.766738
10456		51.923030	15.493792	-12.772715
10457		51.926453	15.506184	-12.779576
10458		51.930626	15.515607	-12.788843
10459		51.936480	15.518840	-12.801893
10460		51.940143	15.527253	-12.815217
10461		51.946678	15.537252	-12.827618
10462		51.951170	15.553601	-12.839481
10463		51.954120	15.572814	-12.858938
10464		51.956386	15.594743	-12.884853
10465		51.955269	15.617730	-12.917101
10466		51.956567	15.642115	-12.955069
10467		51.961767	15.664392	-12.992052
10468		51.969575	15.687382	-13.033094
10469		51.980549	15.710475	-13.070262
10470		51.996398	15.735115	-13.102191
10471		52.010495	15.756742	-13.128342
10472		52.016862	15.772375	-13.149437
10473		52.015763	15.781642	-13.166705
10474		52.007991	15.788319	-13.180600
10475		51.995848	15.797585	-13.189923
10476		51.977883	15.802664	-13.201237
10477		51.955178	15.806660	-13.210062
10478		51.933382	15.816447	-13.218972
10479		51.907592	15.825015	-13.228833
10480		51.881099	15.834836	-13.241395
10481		51.856539	15.842882	-13.257000
10482		51.834420	15.852862	-13.275036
10483		51.815466	15.862964	-13.289330
10484		51.797767	15.872377	-13.305767
10485		51.785323	15.882414	-13.320901
10486		51.771191	15.890317	-13.332943
10487		51.756448	15.896066	-13.343127
10488		51.736353	15.897445	-13.351594
10489		51.712609	15.896708	-13.361010
10490		51.683172	15.897419	-13.369700
10491		51.650806	15.900826	-13.377759
10492		51.613381	15.902232	-13.388590
10493		51.577640	15.910116	-13.396661
10494		51.544039	15.920053	-13.400089
10495		51.514733	15.930488	-13.406782
10496		51.486277	15.937776	-13.421591
10497		51.463004	15.942568	-13.441159
10498		51.443310	15.947549	-13.453386
10499		51.427659	15.954805	-13.458317
10500		51.405769	15.959294	-13.456310
10501		51.376741	15.961217	-13.452502
10502		51.345954	15.960387	-13.449072
10503		51.309397	15.959581	-13.445546
10504		51.264022	15.960799	-13.441263
10505		51.221508	15.961731	-13.439384
10506		51.184315	15.962847	-13.441183
10507		51.149355	15.957585	-13.448997
10508		51.123464	15.953554	-13.458950
10509		51.102651	15.950855	-13.469168
10510		51.085794	15.944450	-13.477656
10511		51.067248	15.928238	-13.488705
10512		51.047285	15.901520	-13.502510
10513		51.029810	15.870186	-13.514038
10514		51.010366	15.845743	-13.517424
10515		50.985465	15.822480	-13.515213
10516		50.951318	15.800080	-13.512032
10517		50.914844	15.777506	-13.512581
10518		50.877576	15.750040	-13.521638
10519		50.845601	15.720631	-13.531873
10520		50.813797	15.692241	-13.543864
10521		50.784154	15.671456	-13.549049
10522		50.756934	15.658320	-13.548406
10523		50.734028	15.646816	-13.544619
10524		50.713721	15.637248	-13.538692
10525		50.697455	15.626260	-13.528127
10526		50.679104	15.613357	-13.517879
10527		50.658423	15.600337	-13.501185
10528		50.627753	15.588505	-13.479924
10529		50.593822	15.573104	-13.456227
10530		50.558043	15.554433	-13.440462
10531		50.521349	15.538801	-13.426800
10532		50.484753	15.530625	-13.413768
10533		50.445446	15.526349	-13.394826
10534		50.410819	15.520544	-13.375132
10535		50.379212	15.511837	-13.355809
10536		50.344410	15.499746	-13.335937
10537		50.306470	15.487894	-13.316530
10538		50.270026	15.473914	-13.296755
10539		50.234403	15.463019	-13.273858
10540		50.193943	15.452542	-13.252407
10541		50.147434	15.444623	-13.233338
10542		50.102343	15.437269	-13.215630
10543		50.050396	15.427100	-13.203182
10544		49.993548	15.415529	-13.191855
10545		49.936952	15.401515	-13.181514
10546		49.884263	15.390813	-13.171307
10547		49.830161	15.378307	-13.159731
10548		49.778396	15.369761	-13.141463
10549		49.730999	15.360329	-13.122369
10550		49.685831	15.351062	-13.103922
10551		49.640014	15.343515	-13.084833
10552		49.595720	15.341529	-13.063723
10553		49.550900	15.342446	-13.041264
10554		49.505512	15.344073	-13.020243
10555		49.461824	15.346419	-13.002530
10556		49.419615	15.341686	-12.989834
10557		49.373448	15.326158	-12.978532
10558		49.327381	15.307670	-12.972207
10559		49.282429	15.289612	-12.959894
10560		49.234071	15.260564	-12.953524
10561		49.179236	15.215296	-12.963073
10562		49.131575	15.171911	-12.971569
10563		49.088605	15.141582	-12.958432
10564		49.036873	15.120860	-12.934254
10565		48.980631	15.100204	-12.912313
10566		48.921512	15.080463	-12.895081
10567		48.855093	15.067023	-12.878675
10568		48.782343	15.060285	-12.860669
10569		48.694935	15.060147	-12.838979
10570		48.600804	15.062484	-12.810488
10571		48.506516	15.067034	-12.780347
10572		48.409294	15.065450	-12.753209
10573		48.314944	15.065525	-12.724975
10574		48.222551	15.060090	-12.698379
10575		48.130719	15.056630	-12.667417
10576		48.040356	15.050404	-12.635255
10577		47.953266	15.040524	-12.612102
10578		47.870639	15.037506	-12.592876
10579		47.794555	15.037870	-12.572383
10580		47.724168	15.040184	-12.557561
10581		47.658400	15.040329	-12.539072
10582		47.594801	15.045104	-12.519704
10583		47.532412	15.050168	-12.500353
10584		47.472589	15.052774	-12.485354
10585		47.412451	15.053236	-12.469046
10586		47.357393	15.049541	-12.451221
10587		47.300695	15.046704	-12.438609
10588		47.243027	15.039499	-12.425708
10589		47.185166	15.036286	-12.412077
10590		47.127960	15.029529	-12.398323
10591		47.071249	15.020253	-12.386738
10592		47.012860	15.012035	-12.372188
10593		46.954645	15.001355	-12.358856
10594		46.897919	14.988587	-12.349538
10595		46.843922	14.972895	-12.343767
10596		46.790690	14.963771	-12.339971
10597		46.739333	14.959950	-12.330702
10598		46.690094	14.961429	-12.321795
10599		46.642198	14.962590	-12.311479
10600		46.597348	14.966236	-12.298588
10601		46.552531	14.970694	-12.285769
10602		46.507445	14.973755	-12.274884
10603		46.468762	14.977848	-12.263875
10604		46.433224	14.979028	-12.259557
10605		46.400866	14.984428	-12.252609
10606		46.374593	14.990375	-12.243954
10607		46.350439	14.997661	-12.233954
10608		46.328728	15.008224	-12.224622
10609		46.316059	15.016075	-12.218928
10610		46.312753	15.024500	-12.218693
10611		46.312165	15.033887	-12.223553
10612		46.312076	15.044123	-12.231440
10613		46.312552	15.053784	-12.237644
10614		46.310151	15.066873	-12.241792
10615		46.301916	15.079823	-12.241183
10616		46.286142	15.090504	-12.239767
10617		46.266782	15.099072	-12.234149
10618		46.245097	15.105053	-12.230897
10619		46.227022	15.113690	-12.228006
10620		46.207361	15.122696	-12.225244
10621		46.183164	15.127840	-12.223244
10622		46.162227	15.136048	-12.221076
10623		46.143283	15.147511	-12.216570
10624		46.121366	15.158652	-12.213211
10625		46.100070	15.164558	-12.209873
10626		46.081299	15.165577	-12.207339
10627		46.063473	15.164504	-12.206292
10628		46.049700	15.159803	-12.203330
10629		46.041055	15.153285	-12.200153
10630		46.037996	15.145074	-12.199792
10631		46.038459	15.136421	-12.199586
10632		46.041780	15.134147	-12.192590
10633		46.042371	15.132470	-12.185242
10634		46.039765	15.127399	-12.177200
10635		46.038428	15.123913	-12.168757
10636		46.036200	15.119958	-12.161250
10637		46.037587	15.115904	-12.161108
10638		46.043503	15.116399	-12.156854
10639		46.055329	15.115591	-12.148260
10640		46.063601	15.113288	-12.143227
10641		46.067000	15.107346	-12.138007
10642		46.067605	15.102952	-12.129665
10643		46.062841	15.100133	-12.124217
10644		46.059172	15.097875	-12.123993
10645		46.055153	15.097182	-12.124037
10646		46.050484	15.095900	-12.126323
10647		46.047112	15.098225	-12.124489
10648		46.041519	15.098042	-12.120275
10649		46.033848	15.095712	-12.120269
10650		46.024900	15.093545	-12.121460
10651		46.018719	15.095514	-12.123799
10652		46.015702	15.096140	-12.126033
10653		46.019582	15.090423	-12.133047
10654		46.030012	15.087753	-12.138427
10655		46.041520	15.088069	-12.141692
10656		46.048344	15.089360	-12.144731
10657		46.053736	15.086256	-12.148855
10658		46.061438	15.083369	-12.153686
10659		46.069595	15.085626	-12.155135
10660		46.073208	15.090096	-12.155570
10661		46.075546	15.094680	-12.156779
10662		46.073796	15.096100	-12.158431
10663		46.069809	15.096623	-12.162497
10664		46.064952	15.096710	-12.163065
10665		46.062224	15.098120	-12.162231
10666		46.058158	15.096641	-12.162273
10667		46.055539	15.098086	-12.160971
10668		46.054185	15.098723	-12.162360
10669		46.059671	15.100724	-12.163033
10670		46.069892	15.107075	-12.165370
10671		46.080162	15.112338	-12.166944
10672		46.092740	15.115893	-12.168497
10673		46.107024	15.120314	-12.169196
10674		46.118823	15.123534	-12.170479
10675		46.131875	15.130288	-12.172144
10676		46.150058	15.136700	-12.178108
10677		46.173671	15.142441	-12.189026
10678		46.200374	15.144812	-12.203788
10679		46.233152	15.142501	-12.219621
10680		46.271235	15.136606	-12.240762
10681		46.316119	15.129026	-12.256380
10682		46.369864	15.118521	-12.269172
10683		46.426237	15.104670	-12.282695
10684		46.484759	15.098592	-12.300456
10685		46.543768	15.106428	-12.321621
10686		46.592899	15.120430	-12.340536
10687		46.639682	15.143836	-12.349395
10688		46.686529	15.162667	-12.356333
10689		46.726900	15.166328	-12.368087
10690		46.763446	15.162977	-12.384450
10691		46.797711	15.163281	-12.392729
10692		46.832530	15.172147	-12.398025
10693		46.868328	15.183767	-12.414582
10694		46.905016	15.198597	-12.443069
10695		46.944598	15.223888	-12.477257
10696		46.983893	15.255379	-12.511968
10697		47.028876	15.279225	-12.542088
10698		47.082428	15.289474	-12.569250
10699		47.145323	15.291213	-12.598793
10700		47.210448	15.297673	-12.622952
10701		47.266298	15.310568	-12.634546
10702		47.315171	15.329143	-12.642835
10703		47.353977	15.353033	-12.650454
10704		47.386893	15.380225	-12.662996
10705		47.419543	15.407663	-12.682109
10706		47.452967	15.435797	-12.705323
10707		47.490522	15.461785	-12.733078
10708		47.537162	15.491125	-12.757874
10709		47.588219	15.515771	-12.780171
10710		47.647492	15.535798	-12.805508
10711		47.713604	15.553451	-12.824187
10712		47.785930	15.571715	-12.836245
10713		47.853822	15.591333	-12.841303
10714		47.915186	15.606949	-12.840219
10715		47.966974	15.617568	-12.838830
10716		48.009870	15.633996	-12.833835
10717		48.050348	15.646356	-12.831582
10718		48.089686	15.655275	-12.828585
10719		48.128670	15.661295	-12.827847
10720		48.170205	15.669964	-12.826258
10721		48.216578	15.678902	-12.819653
10722		48.263720	15.688534	-12.817144
10723		48.312270	15.694592	-12.814738
10724		48.360988	15.701062	-12.811220
10725		48.406415	15.706421	-12.804564
10726		48.449671	15.713110	-12.796824
10727		48.486996	15.721553	-12.789853
10728		48.526152	15.733606	-12.781329
10729		48.557919	15.746108	-12.771887
10730		48.584802	15.755974	-12.763797
10731		48.613985	15.760032	-12.758287
10732		48.644159	15.766066	-12.751476
10733		48.672285	15.776912	-12.746361
10734		48.700001	15.790211	-12.738666
10735		48.727194	15.803874	-12.732138
10736		48.751893	15.815175	-12.726521
10737		48.776098	15.821810	-12.720860
10738		48.800673	15.830628	-12.711959
10739		48.830146	15.843946	-12.698087
10740		48.855759	15.855507	-12.683673
10741		48.883142	15.868413	-12.671262
10742		48.911129	15.878389	-12.660009
10743		48.943360	15.890117	-12.649916
10744		48.975201	15.902977	-12.643866
10745		49.009161	15.913866	-12.646640
10746		49.043783	15.919931	-12.649656
10747		49.079755	15.928722	-12.647463
10748		49.119436	15.935940	-12.647276
10749		49.161163	15.943163	-12.646171
10750		49.203944	15.947878	-12.645520
10751		49.248116	15.950254	-12.649065
10752		49.293026	15.952854	-12.653601
10753		49.340605	15.958342	-12.655383
10754		49.387972	15.963100	-12.655555
10755		49.433136	15.964452	-12.660746
10756		49.480463	15.971100	-12.661673
10757		49.523614	15.975098	-12.660021
10758		49.563819	15.975055	-12.655970
10759		49.598750	15.974022	-12.648887
10760		49.630272	15.976110	-12.638559
10761		49.661693	15.981562	-12.626165
10762		49.692456	15.988970	-12.613292
10763		49.723603	15.993979	-12.603097
10764		49.756913	15.996584	-12.594427
10765		49.793429	15.998096	-12.588203
10766		49.829958	16.000679	-12.582344
10767		49.867662	16.004918	-12.576420
10768		49.906925	16.009528	-12.567320
10769		49.944191	16.012119	-12.557998
10770		49.980286	16.014173	-12.548497
10771		50.015612	16.016608	-12.534764
10772		50.047189	16.016606	-12.519185
10773		50.075912	16.016526	-12.496664
10774		50.107328	16.020277	-12.472385
10775		50.142534	16.020204	-12.455306
10776		50.178390	16.016555	-12.442466
10777		50.216505	16.010238	-12.432761
10778		50.255845	16.002098	-12.430080
10779		50.295133	15.994726	-12.427826
10780		50.339507	15.987667	-12.421956
10781		50.379023	15.983846	-12.407395
10782		50.415015	15.976905	-12.395642
10783		50.452663	15.967632	-12.389233
10784		50.485872	15.962473	-12.382211
10785		50.515516	15.958926	-12.372653
10786		50.542903	15.956690	-12.362379
10787		50.574145	15.952560	-12.355485
10788		50.607145	15.952502	-12.348163
10789		50.642515	15.953549	-12.344878
10790		50.678505	15.952960	-12.342388
10791		50.721472	15.951608	-12.335558
10792		50.765408	15.950862	-12.327668
10793		50.808245	15.948339	-12.319270
10794		50.850154	15.944584	-12.311029
10795		50.889432	15.940741	-12.301391
10796		50.928522	15.939392	-12.294716
10797		50.965576	15.939790	-12.289376
10798		51.003023	15.940886	-12.276612
10799		51.039963	15.941602	-12.264139
10800		51.074663	15.940679	-12.254640
10801		51.113045	15.937700	-12.242725
10802		51.148784	15.933161	-12.233190
10803		51.180673	15.927387	-12.226109
10804		51.209665	15.920031	-12.224448
10805		51.234994	15.914444	-12.224965
10806		51.261397	15.911942	-12.223558
10807		51.290221	15.912327	-12.218207
10808		51.318751	15.916401	-12.209549
10809		51.343700	15.919601	-12.201167
10810		51.368239	15.925250	-12.190152
10811		51.389146	15.932014	-12.180355
10812		51.404228	15.935283	-12.173509
10813		51.416119	15.932529	-12.168707
10814		51.430594	15.936088	-12.164108
10815		51.446946	15.943484	-12.160784
10816		51.463481	15.951344	-12.160398
10817		51.482449	15.961600	-12.163675
10818		51.498741	15.968489	-12.172978
10819		51.520308	15.972873	-12.186856
10820		51.542538	15.977443	-12.201955
10821		51.557470	15.982657	-12.216171
10822		51.574519	15.987959	-12.225018
10823		51.587246	15.994585	-12.231162
10824		51.595608	16.002150	-12.238194
10825		51.598671	16.010016	-12.240059
10826		51.598537	16.017097	-12.238679
10827		51.595260	16.022515	-12.237209
10828		51.592519	16.029294	-12.230770
10829		51.590006	16.033686	-12.225489
10830		51.587805	16.040290	-12.221325
10831		51.586317	16.048172	-12.222211
10832		51.573237	16.042474	-12.232860
10833		51.572147	16.038992	-12.241014
10834		51.571455	16.050075	-12.238790
10835		51.576878	16.074639	-12.234739
10836		51.570592	16.090608	-12.235605
10837		51.562730	16.089136	-12.242213
10838		51.558882	16.095795	-12.238911
10839		51.558901	16.108595	-12.234163
10840		51.561753	16.115173	-12.237615
10841		51.563252	16.116807	-12.241301
10842		51.562405	16.114847	-12.247647
10843		51.561101	16.109437	-12.253724
10844		51.562171	16.111624	-12.254102
10845		51.563201	16.120971	-12.253678
10846		51.557711	16.121479	-12.256770
10847		51.551905	16.121686	-12.259453
10848		51.551811	16.132464	-12.254989
10849		51.551836	16.140970	-12.252198
10850		51.545638	16.138652	-12.257478
10851		51.535803	16.132361	-12.262878
10852		51.530534	16.133366	-12.263954
10853		51.534812	16.143079	-12.254373
10854		51.536497	16.143056	-12.251787
10855		51.533578	16.131927	-12.256572
10856		51.525460	16.116479	-12.261088
10857		51.521250	16.109029	-12.260422
10858		51.526151	16.113304	-12.254396
10859		51.523807	16.119571	-12.251371
10860		51.514730	16.112747	-12.256706
10861		51.504778	16.110919	-12.260649
10862		51.498577	16.117187	-12.253443
10863		51.490624	16.123130	-12.248141
10864		51.483718	16.126573	-12.243120
10865		51.475983	16.124956	-12.240714
10866		51.468997	16.117159	-12.240437
10867		51.468674	16.108762	-12.243445
10868		51.470418	16.106238	-12.243293
10869		51.467759	16.103233	-12.244386
10870		51.457128	16.105792	-12.245118
10871		51.444814	16.116086	-12.242512
10872		51.429496	16.128762	-12.242873
10873		51.407543	16.139470	-12.251045
10874		51.372348	16.149819	-12.266190
10875		51.329088	16.160575	-12.284453
10876		51.296142	16.175688	-12.301822
10877		51.265933	16.189857	-12.319124
10878		51.242450	16.201105	-12.337812
10879		51.229379	16.203395	-12.359037
10880		51.223139	16.201985	-12.380380
10881		51.222234	16.200384	-12.399193
10882		51.224408	16.193589	-12.416564
10883		51.227781	16.181430	-12.436318
10884		51.227402	16.161905	-12.459656
10885		51.226602	16.140194	-12.482427
10886		51.229058	16.116326	-12.503477
10887		51.228725	16.088122	-12.523731
10888		51.225807	16.060655	-12.539128
10889		51.220722	16.034862	-12.549943
10890		51.212156	16.011423	-12.556913
10891		51.200493	15.988068	-12.559979
10892		51.188602	15.963410	-12.564787
10893		51.174263	15.939969	-12.567311
10894		51.159522	15.916420	-12.569796
10895		51.144214	15.895806	-12.571090
10896		51.131330	15.880253	-12.569066
10897		51.121318	15.866253	-12.566000
10898		51.111101	15.852796	-12.565226
10899		51.105062	15.843515	-12.563200
10900		51.099593	15.838755	-12.556443
10901		51.097775	15.833977	-12.548156
10902		51.094048	15.837921	-12.538271
10903		51.091957	15.840910	-12.531504
10904		51.092882	15.846208	-12.526299
10905		51.098089	15.856895	-12.519160
10906		51.100594	15.870283	-12.508323
10907		51.104877	15.886914	-12.495961
10908		51.107045	15.900986	-12.480841
10909		51.111722	15.915520	-12.468400
10910		51.117155	15.933306	-12.453005
10911		51.121218	15.950670	-12.440112
10912		51.128768	15.963185	-12.425323
10913		51.139523	15.975151	-12.409664
10914		51.154082	15.987971	-12.395065
10915		51.175950	16.000050	-12.385589
10916		51.200731	16.007544	-12.376321
10917		51.226327	16.011767	-12.369452
10918		51.247962	16.012923	-12.358374
10919		51.268830	16.012550	-12.346674
10920		51.288435	16.014542	-12.336693
10921		51.305557	16.018996	-12.328663
10922		51.313881	16.023780	-12.323415
10923		51.320943	16.032528	-12.320504
10924		51.326254	16.039242	-12.318831
10925		51.329592	16.043192	-12.316098
10926		51.335968	16.044409	-12.313654
10927		51.340653	16.041503	-12.311426
10928		51.345727	16.038752	-12.305024
10929		51.349341	16.033535	-12.300849
10930		51.350864	16.029074	-12.294319
10931		51.347973	16.023647	-12.292501
10932		51.346454	16.017413	-12.292624
10933		51.342519	16.014874	-12.298550
10934		51.338082	16.007595	-12.312340
10935		51.336789	16.002409	-12.327078
10936		51.338883	16.002546	-12.340298
10937		51.340437	16.005684	-12.356469
10938		51.341628	16.011930	-12.372962
10939		51.339774	16.017037	-12.387838
10940		51.336029	16.022016	-12.398537
10941		51.333468	16.021602	-12.407391
10942		51.322543	16.018130	-12.417041
10943		51.308257	16.012440	-12.428615
10944		51.290193	16.005647	-12.442521
10945		51.270861	15.995216	-12.460411
10946		51.255439	15.988701	-12.479352
10947		51.247618	15.981898	-12.503510
10948		51.248125	15.979187	-12.532199
10949		51.251922	15.979202	-12.564387
10950		51.256808	15.983553	-12.594261
10951		51.266339	15.994218	-12.614072
10952		51.275907	16.008223	-12.622621
10953		51.279316	16.019217	-12.625545
10954		51.272193	16.023452	-12.626446
10955		51.258552	16.028646	-12.626614
10956		51.234994	16.028255	-12.630840
10957		51.207926	16.024556	-12.642209
10958		51.181103	16.023759	-12.655831
10959		51.152748	16.023152	-12.669286
10960		51.131885	16.028049	-12.679361
10961		51.116648	16.034641	-12.688536
10962		51.104998	16.043339	-12.697129
10963		51.095683	16.055623	-12.702928
10964		51.082915	16.070304	-12.704657
10965		51.068443	16.080632	-12.702449
10966		51.045471	16.089260	-12.699049
10967		51.020787	16.093741	-12.696050
10968		50.991956	16.095952	-12.694838
10969		50.960155	16.097104	-12.695971
10970		50.922480	16.101720	-12.702085
10971		50.895865	16.113396	-12.709151
10972		50.874737	16.128977	-12.716633
10973		50.858735	16.142008	-12.722882
10974		50.848591	16.155037	-12.728964
10975		50.833429	16.163955	-12.737271
10976		50.814673	16.170975	-12.741875
10977		50.788650	16.178550	-12.741060
10978		50.756985	16.184952	-12.737705
10979		50.721251	16.191886	-12.731920
10980		50.682850	16.195949	-12.728822
10981		50.643232	16.200147	-12.726472
10982		50.600759	16.203957	-12.724879
10983		50.567041	16.210031	-12.717999
10984		50.541183	16.214023	-12.710209
10985		50.519548	16.215920	-12.706771
10986		50.499526	16.215166	-12.705949
10987		50.478685	16.213741	-12.705617
10988		50.450935	16.215429	-12.704501
10989		50.417351	16.211556	-12.701461
10990		50.382086	16.201758	-12.698020
10991		50.345984	16.194965	-12.687806
10992		50.308432	16.189742	-12.676799
10993		50.273844	16.184678	-12.664441
10994		50.243316	16.183529	-12.650549
10995		50.214731	16.183717	-12.633630
10996		50.177153	16.182229	-12.619601
10997		50.138908	16.180565	-12.608613
10998		50.094441	16.179326	-12.596958
10999		50.043923	16.182461	-12.584067
11000		49.990905	16.188968	-12.569623
11001		49.941134	16.198740	-12.555424
11002		49.897327	16.210990	-12.540254
11003		49.864581	16.219723	-12.527470
11004		49.839719	16.227614	-12.513608
11005		49.817935	16.232524	-12.495551
11006		49.797028	16.237623	-12.484590
11007		49.776047	16.236724	-12.481161
11008		49.755887	16.227260	-12.487021
11009		49.729416	16.216717	-12.501454
11010		49.696949	16.208994	-12.509431
11011		49.652900	16.198337	-12.502729
11012		49.595411	16.186547	-12.496158
11013		49.533622	16.176636	-12.489751
11014		49.473524	16.165805	-12.477540
11015		49.418878	16.159841	-12.454572
11016		49.356475	16.157280	-12.422845
11017		49.283105	16.152425	-12.390338
11018		49.199616	16.149400	-12.360778
11019		49.106858	16.141467	-12.336524
11020		49.007364	16.131015	-12.324005
11021		48.905070	16.126827	-12.313572
11022		48.807060	16.127636	-12.300272
11023		48.713382	16.133753	-12.280295
11024		48.621025	16.136654	-12.260929
11025		48.533387	16.134774	-12.244554
11026		48.449250	16.133785	-12.223804
11027		48.363808	16.137269	-12.197457
11028		48.271796	16.140567	-12.172826
11029		48.172806	16.144898	-12.151027
11030		48.062896	16.145719	-12.130629
11031		47.946339	16.151238	-12.110869
11032		47.833612	16.160600	-12.088067
11033		47.724138	16.163850	-12.066489
11034		47.615403	16.159042	-12.050897
11035		47.511924	16.147980	-12.041021
11036		47.411908	16.139715	-12.027597
11037		47.318707	16.137215	-12.006751
11038		47.226499	16.131532	-11.989985
11039		47.134163	16.127181	-11.974876
11040		47.040282	16.124590	-11.959220
11041		46.950618	16.126225	-11.937727
11042		46.862564	16.130158	-11.915606
11043		46.774647	16.131064	-11.891653
11044		46.689002	16.131484	-11.876343
11045		46.610748	16.129894	-11.862148
11046		46.538254	16.132727	-11.850942
11047		46.471919	16.134632	-11.837591
11048		46.409818	16.132859	-11.823701
11049		46.345061	16.126074	-11.811508
11050		46.282583	16.119389	-11.799992
11051		46.217930	16.118703	-11.788215
11052		46.158783	16.118870	-11.776754
11053		46.111764	16.121968	-11.768331
11054		46.072529	16.131476	-11.754724
11055		46.032287	16.150375	-11.737872
11056		45.978589	16.177300	-11.721876
11057		45.929223	16.200886	-11.710347
11058		45.882406	16.217561	-11.703359
11059		45.835716	16.233144	-11.699913
11060		45.797027	16.244090	-11.702901
11061		45.771454	16.255702	-11.715792
11062		45.755561	16.270394	-11.728115
11063		45.745452	16.291829	-11.740503
11064		45.745775	16.307858	-11.754543
11065		45.742072	16.320668	-11.768472
11066		45.727353	16.326108	-11.782608
11067		45.705255	16.326385	-11.802244
11068		45.685213	16.324945	-11.825078
11069		45.673193	16.328927	-11.845151
11070		45.662608	16.334488	-11.871222
11071		45.660839	16.340077	-11.897056
11072		45.660449	16.348066	-11.921080
11073		45.654529	16.360896	-11.942380
11074		45.643614	16.373474	-11.964728
11075		45.633125	16.391079	-11.983520
11076		45.618594	16.406920	-12.002307
11077		45.609244	16.420948	-12.020770
11078		45.603537	16.432176	-12.042140
11079		45.602573	16.446288	-12.060473
11080		45.600498	16.457475	-12.076674
11081		45.599005	16.465506	-12.093868
11082		45.595748	16.470294	-12.108235
11083		45.592397	16.478451	-12.115830
11084		45.581337	16.490042	-12.120835
11085		45.568360	16.499397	-12.125150
11086		45.561462	16.509468	-12.127790
11087		45.550866	16.519306	-12.127225
11088		45.541054	16.526781	-12.126074
11089		45.533734	16.532187	-12.128347
11090		45.528274	16.538583	-12.131831
11091		45.526350	16.544525	-12.130988
11092		45.524895	16.541985	-12.132194
11093		45.522863	16.538517	-12.135037
11094		45.521739	16.533979	-12.136537
11095		45.525750	16.529679	-12.134063
11096		45.530780	16.528551	-12.129968
11097		45.540245	16.528548	-12.121040
11098		45.549267	16.530430	-12.108626
11099		45.555393	16.531634	-12.096710
11100		45.559825	16.530834	-12.085898
11101		45.563542	16.529851	-12.078211
11102		45.566341	16.532205	-12.064050
11103		45.563765	16.536144	-12.048251
11104		45.558666	16.538966	-12.033247
11105		45.549297	16.543023	-12.016893
11106		45.543867	16.547842	-12.001596
11107		45.538952	16.551986	-11.989244
11108		45.539527	16.557605	-11.978490
11109		45.539464	16.562961	-11.970563
11110		45.537908	16.566244	-11.960758
11111		45.536609	16.567044	-11.956427
11112		45.539900	16.569703	-11.950381
11113		45.546056	16.574599	-11.944200
11114		45.554649	16.578956	-11.941864
11115		45.566634	16.585313	-11.937424
11116		45.574689	16.586187	-11.931224
11117		45.581235	16.585256	-11.928203
11118		45.579449	16.584786	-11.924631
11119		45.576786	16.583520	-11.921587
11120		45.569266	16.583921	-11.919900
11121		45.557506	16.587375	-11.917444
11122		45.543052	16.589161	-11.913195
11123		45.527357	16.587072	-11.912744
11124		45.517404	16.585267	-11.910896
11125		45.511964	16.585674	-11.908162
11126		45.508945	16.582484	-11.908875
11127		45.509613	16.580058	-11.908831
11128		45.513114	16.576324	-11.907902
11129		45.517540	16.564304	-11.907790
11130		45.523958	16.539500	-11.909257
11131		45.530206	16.513082	-11.907532
11132		45.532683	16.486715	-11.903283
11133		45.538469	16.456280	-11.891796
11134		45.541127	16.428693	-11.880275
11135		45.543905	16.406279	-11.863982
11136		45.545950	16.383978	-11.846816
11137		45.546888	16.360384	-11.832309
11138		45.549045	16.342402	-11.814809
11139		45.551816	16.323014	-11.798907
11140		45.558221	16.309691	-11.779518
11141		45.566168	16.299770	-11.756958
11142		45.573611	16.293607	-11.731839
11143		45.583673	16.287846	-11.709095
11144		45.597982	16.285887	-11.689000
11145		45.613825	16.286089	-11.670584
11146		45.635055	16.286398	-11.659176
11147		45.662513	16.287086	-11.649564
11148		45.691459	16.286308	-11.640979
11149		45.715888	16.287946	-11.634051
11150		45.741791	16.287023	-11.628382
11151		45.767671	16.286876	-11.622911
11152		45.796434	16.294208	-11.618973
11153		45.827764	16.303798	-11.618364
11154		45.856897	16.315907	-11.621054
11155		45.881546	16.327446	-11.620131
11156		45.898870	16.336556	-11.619928
11157		45.903535	16.343733	-11.622572
11158		45.905999	16.351593	-11.623205
11159		45.906110	16.360523	-11.627580
11160		45.907899	16.371045	-11.637159
11161		45.913417	16.383427	-11.650168
11162		45.923615	16.398865	-11.660759
11163		45.937580	16.407496	-11.671917
11164		45.949512	16.412247	-11.687104
11165		45.962781	16.411129	-11.698594
11166		45.976653	16.403902	-11.715594
11167		45.992414	16.396146	-11.733535
11168		46.010229	16.388674	-11.750960
11169		46.032441	16.380905	-11.768462
11170		46.048987	16.372663	-11.786516
11171		46.065569	16.361481	-11.807705
11172		46.081102	16.354267	-11.823823
11173		46.092510	16.350684	-11.837540
11174		46.103339	16.343344	-11.857480
11175		46.117120	16.335738	-11.879825
11176		46.133055	16.329579	-11.900966
11177		46.149408	16.324704	-11.921659
11178		46.166045	16.317652	-11.943638
11179		46.187569	16.314009	-11.965187
11180		46.212645	16.313164	-11.983112
11181		46.239471	16.314329	-12.004227
11182		46.264083	16.318009	-12.024052
11183		46.290788	16.319888	-12.041995
11184		46.312460	16.320972	-12.058054
11185		46.332321	16.316728	-12.070277
11186		46.348357	16.306250	-12.083962
11187		46.366209	16.300323	-12.090862
11188		46.382374	16.302366	-12.091965
11189		46.400158	16.307162	-12.088590
11190		46.420663	16.320038	-12.088200
11191		46.445153	16.339652	-12.089031
11192		46.471281	16.364085	-12.091000
11193		46.497482	16.385588	-12.095919
11194		46.531696	16.403170	-12.103890
11195		46.567203	16.415440	-12.113953
11196		46.609279	16.425689	-12.120939
11197		46.656793	16.439094	-12.125273
