// General information: 
//  MT Manager version: 2022.2.0 
//  XDA version: 2022.2.0 build 7381 rev 124627 built on 2023-07-19
// Device information: 
//  DeviceId: 00B447FD
//  ProductCode: MTW2-3A7G6
//  Firmware Version: 4.3.5
//  Hardware Version: 2.0.0
// Device settings: 
//  Filter Profile: human(46.1)
//  Option Flags: Orientation Smoother Disabled, Position/Velocity Smoother Disabled, Continuous Zero Rotation Update Disabled, AHS Disabled, ICC Disabled
// Coordinate system: ENU
PacketCounter	SampleTimeFine	Roll	Pitch	Yaw
29100		96.349614	-6.784978	-17.184978
29101		96.484068	-6.787481	-17.549231
29102		96.579967	-6.801627	-17.852350
29103		96.702536	-6.821381	-18.013971
29104		96.908511	-6.831493	-18.013645
29105		97.163541	-6.813610	-17.868220
29106		97.448085	-6.783705	-17.623581
29107		97.740028	-6.741804	-17.371525
29108		98.038411	-6.700785	-17.178285
29109		98.360122	-6.681718	-17.066704
29110		98.661567	-6.685487	-17.019672
29111		98.872999	-6.691962	-17.007213
29112		99.011396	-6.711028	-17.002677
29113		99.152615	-6.757660	-17.003212
29114		99.304442	-6.821383	-17.040340
29115		99.461445	-6.895724	-17.124808
29116		99.607672	-6.984056	-17.264731
29117		99.705465	-7.079925	-17.435917
29118		99.747407	-7.181508	-17.601798
29119		99.761088	-7.282035	-17.745423
29120		99.745382	-7.377214	-17.868181
29121		99.696610	-7.466927	-17.959623
29122		99.642214	-7.548894	-18.021938
29123		99.600966	-7.605488	-18.054930
29124		99.588388	-7.641300	-18.054362
29125		99.632033	-7.655731	-18.038853
29126		99.736119	-7.661617	-18.037809
29127		99.861305	-7.664653	-18.062553
29128		99.972273	-7.666772	-18.096660
29129		100.059091	-7.674646	-18.142479
29130		100.120854	-7.695636	-18.202898
29131		100.155877	-7.723954	-18.259072
29132		100.179083	-7.749784	-18.293775
29133		100.201915	-7.770449	-18.296976
29134		100.229058	-7.784852	-18.279447
29135		100.257953	-7.781556	-18.261683
29136		100.284832	-7.768738	-18.253460
29137		100.329322	-7.750588	-18.257975
29138		100.390027	-7.727285	-18.282112
29139		100.462214	-7.705614	-18.302678
29140		100.542918	-7.685343	-18.305276
29141		100.632908	-7.663236	-18.278051
29142		100.725402	-7.641272	-18.221893
29143		100.821222	-7.617690	-18.158066
29144		100.905102	-7.594670	-18.100973
29145		100.956558	-7.567815	-18.064197
29146		100.982094	-7.542947	-18.057041
29147		100.999900	-7.518979	-18.075895
29148		101.005243	-7.500373	-18.096814
29149		101.006435	-7.480953	-18.116626
29150		101.017888	-7.456432	-18.126631
29151		101.046802	-7.419006	-18.117339
29152		101.094433	-7.371740	-18.076082
29153		101.178945	-7.311813	-18.002707
29154		101.267708	-7.244259	-17.895316
29155		101.352033	-7.168295	-17.765891
29156		101.429212	-7.094171	-17.616386
29157		101.530834	-7.027811	-17.471208
29158		101.651305	-6.956867	-17.354940
29159		101.754477	-6.888496	-17.286439
29160		101.803376	-6.842078	-17.280377
29161		101.791580	-6.824043	-17.327707
29162		101.725715	-6.827306	-17.400401
29163		101.642200	-6.842464	-17.479756
29164		101.538392	-6.861504	-17.555061
29165		101.414197	-6.885822	-17.612021
29166		101.282795	-6.921495	-17.649441
29167		101.121634	-6.962626	-17.705220
29168		100.892968	-7.014543	-17.785304
29169		100.582460	-7.086967	-17.886105
29170		100.212215	-7.179897	-18.005478
29171		99.792891	-7.295607	-18.132877
29172		99.322574	-7.435406	-18.254641
29173		98.801437	-7.602923	-18.372294
29174		98.229456	-7.796919	-18.499453
29175		97.602562	-8.021087	-18.646256
29176		96.927170	-8.269230	-18.836869
29177		96.207087	-8.536125	-19.068078
29178		95.431530	-8.818815	-19.328315
29179		94.595251	-9.118905	-19.598655
29180		93.689858	-9.437498	-19.862816
29181		92.710102	-9.761038	-20.095392
29182		91.686529	-10.077858	-20.277271
29183		90.669226	-10.371538	-20.415784
29184		89.685960	-10.631876	-20.514162
29185		88.748789	-10.862242	-20.576376
29186		87.899415	-11.079071	-20.631107
29187		87.114096	-11.267528	-20.686220
29188		86.361952	-11.437352	-20.734176
29189		85.634896	-11.593287	-20.774669
29190		84.910845	-11.743587	-20.802664
29191		84.176407	-11.882754	-20.809530
29192		83.425124	-12.006715	-20.806335
29193		82.661392	-12.131890	-20.808795
29194		81.886574	-12.267568	-20.834604
29195		81.084830	-12.414352	-20.902829
29196		80.263510	-12.582414	-20.998705
29197		79.466022	-12.785908	-21.144643
29198		78.657237	-13.028971	-21.364892
29199		77.764890	-13.319670	-21.658078
29200		76.718758	-13.678046	-22.040275
29201		75.488820	-14.110324	-22.531167
29202		74.075509	-14.618045	-23.091071
29203		72.494806	-15.174809	-23.664301
29204		70.833769	-15.762221	-24.216581
29205		69.166808	-16.354993	-24.714834
29206		67.521272	-16.933322	-25.129264
29207		65.905659	-17.490388	-25.428479
29208		64.270803	-18.049736	-25.605120
29209		62.473087	-18.669457	-25.726626
29210		60.391034	-19.383313	-25.844369
29211		57.924928	-20.204415	-25.955100
29212		55.093781	-21.093166	-26.008736
29213		52.000068	-21.990132	-26.028118
29214		48.797426	-22.851334	-26.071699
29215		45.700417	-23.648139	-26.154110
29216		42.816604	-24.394756	-26.291142
29217		40.164018	-25.078412	-26.419258
29218		37.717962	-25.698578	-26.476951
29219		35.387958	-26.245533	-26.424392
29220		33.081147	-26.696863	-26.241175
29221		30.771247	-27.040726	-25.997527
29222		28.544696	-27.277092	-25.734880
29223		26.533505	-27.442363	-25.526525
29224		24.788131	-27.599801	-25.372876
29225		23.262769	-27.786034	-25.258851
29226		21.894488	-28.012903	-25.134169
29227		20.629006	-28.271598	-24.998052
29228		19.437775	-28.520099	-24.829478
29229		18.354561	-28.728559	-24.639214
29230		17.413773	-28.875535	-24.404389
29231		16.574110	-28.951879	-24.149392
29232		15.804422	-28.956013	-23.872529
29233		15.117014	-28.918397	-23.604189
29234		14.501002	-28.867141	-23.357306
29235		13.894635	-28.823528	-23.136147
29236		13.249935	-28.795426	-22.909364
29237		12.582286	-28.781438	-22.691162
29238		11.934340	-28.773850	-22.473702
29239		11.338938	-28.783925	-22.270846
29240		10.732680	-28.777179	-22.074105
29241		10.129087	-28.742191	-21.872185
29242		9.591938	-28.707835	-21.650173
29243		9.134271	-28.689911	-21.446543
29244		8.735204	-28.683723	-21.261823
29245		8.377884	-28.707873	-21.102938
29246		8.023038	-28.768239	-20.949915
29247		7.627581	-28.852387	-20.798252
29248		7.180344	-28.941276	-20.617762
29249		6.696545	-28.995393	-20.436194
29250		6.232281	-29.003193	-20.251892
29251		5.866312	-28.981057	-20.092635
29252		5.615839	-28.951202	-19.942553
29253		5.451089	-28.938121	-19.798617
29254		5.327370	-28.945564	-19.658021
29255		5.211338	-28.970228	-19.527056
29256		5.052312	-29.004244	-19.405534
29257		4.800797	-29.029848	-19.273050
29258		4.444617	-29.031887	-19.107888
29259		4.017700	-28.999058	-18.906043
29260		3.630261	-28.948720	-18.691518
29261		3.355357	-28.895360	-18.480261
29262		3.166023	-28.861751	-18.280021
29263		3.020840	-28.843052	-18.085733
29264		2.875568	-28.829500	-17.904409
29265		2.707373	-28.803051	-17.736685
29266		2.526997	-28.782149	-17.574870
29267		2.352809	-28.766523	-17.424320
29268		2.204128	-28.754010	-17.278758
29269		2.092958	-28.749952	-17.159814
29270		2.006685	-28.752476	-17.069123
29271		1.927923	-28.764636	-16.984717
29272		1.848694	-28.776435	-16.884995
29273		1.800787	-28.795556	-16.780568
29274		1.774198	-28.825248	-16.686058
29275		1.716468	-28.850892	-16.603012
29276		1.629923	-28.858808	-16.521265
29277		1.548359	-28.840049	-16.437736
29278		1.466513	-28.767539	-16.344377
29279		1.395897	-28.636252	-16.235290
29280		1.360479	-28.451604	-16.098432
29281		1.348200	-28.228992	-15.941174
29282		1.368925	-28.012491	-15.763956
29283		1.420493	-27.832210	-15.619190
29284		1.463740	-27.694205	-15.525388
29285		1.462109	-27.589907	-15.478739
29286		1.399816	-27.496586	-15.452253
29287		1.317821	-27.407629	-15.438844
29288		1.238135	-27.304289	-15.423874
29289		1.196024	-27.185724	-15.397816
29290		1.210323	-27.069231	-15.360151
29291		1.260301	-26.958405	-15.323305
29292		1.322834	-26.885006	-15.296697
29293		1.368960	-26.863949	-15.298022
29294		1.374129	-26.890454	-15.316243
29295		1.349520	-26.938416	-15.344016
29296		1.327880	-26.975027	-15.361233
29297		1.345463	-26.972366	-15.361361
29298		1.403353	-26.925077	-15.338929
29299		1.489582	-26.847758	-15.301390
29300		1.583773	-26.765284	-15.267308
29301		1.676837	-26.693640	-15.255747
29302		1.751787	-26.652579	-15.264421
29303		1.789813	-26.649216	-15.294768
29304		1.817631	-26.683076	-15.331743
29305		1.854554	-26.733231	-15.377260
29306		1.921065	-26.778003	-15.418405
29307		2.027983	-26.818320	-15.452854
29308		2.162447	-26.831898	-15.478170
29309		2.340449	-26.820635	-15.506322
29310		2.572828	-26.809478	-15.533877
29311		2.834647	-26.804401	-15.575357
29312		3.123322	-26.816601	-15.640233
29313		3.454877	-26.856072	-15.738607
29314		3.856909	-26.920731	-15.866026
29315		4.382831	-27.023535	-16.031061
29316		5.118539	-27.156311	-16.245394
29317		6.135724	-27.299327	-16.512044
29318		7.450699	-27.442488	-16.819345
29319		9.026140	-27.595998	-17.163678
29320		10.746686	-27.785809	-17.549761
29321		12.434129	-28.005507	-17.972026
29322		13.941756	-28.251613	-18.431446
29323		15.192279	-28.532669	-18.928702
29324		16.196910	-28.844016	-19.452630
29325		17.044871	-29.179523	-19.986573
29326		17.877032	-29.534655	-20.513926
29327		18.813874	-29.904563	-21.065123
29328		19.893039	-30.285545	-21.628174
29329		21.089016	-30.653210	-22.193685
29330		22.386325	-30.974645	-22.762331
29331		23.735987	-31.223367	-23.340796
29332		25.048551	-31.406678	-23.888072
29333		26.210739	-31.532633	-24.395656
29334		27.172752	-31.620243	-24.853404
29335		27.958352	-31.706591	-25.287951
29336		28.644785	-31.803078	-25.720948
29337		29.346933	-31.909609	-26.187465
29338		30.123015	-32.004443	-26.661479
29339		31.001774	-32.056365	-27.122684
29340		31.983359	-32.052842	-27.554365
29341		33.019813	-31.997068	-27.950778
29342		34.065518	-31.903172	-28.294247
29343		35.080251	-31.791297	-28.606107
29344		36.010324	-31.672117	-28.895963
29345		36.844633	-31.560081	-29.181385
29346		37.653231	-31.431610	-29.457433
29347		38.512832	-31.294582	-29.727969
29348		39.447791	-31.145327	-29.958681
29349		40.484153	-30.986932	-30.159964
29350		41.628506	-30.806205	-30.335441
29351		42.817631	-30.579656	-30.486417
29352		44.016998	-30.297359	-30.597718
29353		45.184291	-29.982451	-30.684402
29354		46.265986	-29.647811	-30.735356
29355		47.256985	-29.309239	-30.761136
29356		48.227948	-28.992739	-30.785644
29357		49.214837	-28.698776	-30.805144
29358		50.232869	-28.442106	-30.815799
29359		51.275954	-28.213081	-30.812072
29360		52.314361	-27.970147	-30.788248
29361		53.367694	-27.682856	-30.747250
29362		54.446451	-27.354425	-30.679726
29363		55.539999	-26.988647	-30.585176
29364		56.602705	-26.600020	-30.457829
29365		57.604121	-26.190752	-30.285439
29366		58.558924	-25.771344	-30.073741
29367		59.520149	-25.342291	-29.823375
29368		60.510433	-24.898098	-29.553884
29369		61.553815	-24.429113	-29.261641
29370		62.658288	-23.920290	-28.967024
29371		63.879615	-23.353355	-28.642762
29372		65.210408	-22.739588	-28.279827
29373		66.579566	-22.090372	-27.879028
29374		67.896406	-21.422648	-27.457556
29375		69.117101	-20.763852	-27.038150
29376		70.278184	-20.137610	-26.615127
29377		71.444869	-19.556608	-26.221443
29378		72.607671	-19.007845	-25.855815
29379		73.779646	-18.498883	-25.510331
29380		74.961965	-18.029312	-25.190144
29381		76.108412	-17.586103	-24.897828
29382		77.190661	-17.163970	-24.622709
29383		78.217848	-16.759612	-24.370904
29384		79.188410	-16.364227	-24.157069
29385		80.121311	-15.985174	-23.946290
29386		81.034145	-15.612724	-23.721822
29387		81.957412	-15.228011	-23.456651
29388		82.927680	-14.826196	-23.134257
29389		83.962766	-14.405392	-22.766447
29390		85.035559	-13.977323	-22.377404
29391		86.099283	-13.552602	-21.986850
29392		87.129866	-13.150357	-21.607548
29393		88.136192	-12.787650	-21.254277
29394		89.118939	-12.447362	-20.917406
29395		90.060512	-12.121861	-20.587469
29396		90.973432	-11.811676	-20.252972
29397		91.885620	-11.524766	-19.925761
29398		92.774538	-11.255839	-19.612075
29399		93.655213	-11.009045	-19.305033
29400		94.532597	-10.772917	-19.001943
29401		95.413417	-10.546201	-18.711722
29402		96.257699	-10.342262	-18.424095
29403		97.038288	-10.165480	-18.143014
29404		97.750756	-10.021986	-17.868416
29405		98.402225	-9.918244	-17.603986
29406		99.030720	-9.848269	-17.356954
29407		99.671062	-9.786000	-17.131598
29408		100.360709	-9.715495	-16.886105
29409		101.134127	-9.608139	-16.629660
29410		101.959711	-9.458413	-16.357317
29411		102.779855	-9.271112	-16.076727
29412		103.543315	-9.067256	-15.768781
29413		104.251990	-8.870189	-15.440806
29414		104.912018	-8.693545	-15.121855
29415		105.543140	-8.544095	-14.831907
29416		106.126338	-8.406214	-14.583395
29417		106.672166	-8.274692	-14.378111
29418		107.215604	-8.154559	-14.217648
29419		107.762763	-8.037108	-14.095143
29420		108.324507	-7.917551	-13.985556
29421		108.873381	-7.783493	-13.873323
29422		109.371315	-7.639485	-13.733040
29423		109.836316	-7.493003	-13.559055
29424		110.263552	-7.353772	-13.355623
29425		110.688674	-7.232794	-13.134735
29426		111.117426	-7.130425	-12.907281
29427		111.561692	-7.041530	-12.700190
29428		112.013501	-6.955959	-12.529301
29429		112.475533	-6.866622	-12.402983
29430		112.916138	-6.775045	-12.302219
29431		113.305075	-6.681408	-12.212046
29432		113.622173	-6.594521	-12.117018
29433		113.852341	-6.510999	-11.996582
29434		114.002535	-6.425656	-11.837013
29435		114.112649	-6.345349	-11.640943
29436		114.250744	-6.271237	-11.437003
29437		114.453338	-6.202360	-11.264976
29438		114.676620	-6.123466	-11.133546
29439		114.896367	-6.046187	-11.035371
29440		115.083947	-5.970790	-10.967338
29441		115.209837	-5.900997	-10.915148
29442		115.248632	-5.858715	-10.874252
29443		115.212836	-5.839745	-10.848034
29444		115.099319	-5.851317	-10.815491
29445		114.936434	-5.881361	-10.780912
29446		114.794466	-5.915825	-10.773688
29447		114.710664	-5.947285	-10.798064
29448		114.677691	-5.970965	-10.839484
29449		114.684001	-5.981388	-10.889678
29450		114.708252	-5.983163	-10.941113
29451		114.729332	-5.979097	-10.990753
29452		114.737412	-5.973806	-11.033682
29453		114.715842	-5.971734	-11.067613
29454		114.651465	-5.976564	-11.099803
29455		114.564625	-5.989476	-11.138121
29456		114.517908	-6.015555	-11.201994
29457		114.544513	-6.037968	-11.309754
29458		114.665527	-6.064786	-11.485088
29459		114.883821	-6.091692	-11.728785
29460		115.126146	-6.111594	-11.990841
29461		115.354403	-6.127029	-12.219719
29462		115.542459	-6.135448	-12.389102
29463		115.693398	-6.142289	-12.494157
29464		115.809773	-6.150943	-12.547339
29465		115.901830	-6.160864	-12.559629
29466		115.969123	-6.175884	-12.540463
29467		116.042315	-6.185868	-12.512505
29468		116.137493	-6.190677	-12.508043
29469		116.292444	-6.185996	-12.554334
29470		116.474436	-6.166044	-12.646986
29471		116.640343	-6.144587	-12.755159
29472		116.768925	-6.124704	-12.860247
29473		116.854708	-6.110047	-12.947231
29474		116.899420	-6.108132	-13.001763
29475		116.920002	-6.119691	-13.028844
29476		116.934597	-6.141184	-13.048155
29477		116.949284	-6.166620	-13.074026
29478		116.961466	-6.188981	-13.109010
29479		116.988260	-6.207838	-13.161027
29480		117.038755	-6.220798	-13.238069
29481		117.089806	-6.231293	-13.327069
29482		117.120449	-6.241417	-13.401831
29483		117.130385	-6.252563	-13.453682
29484		117.121216	-6.257546	-13.480472
29485		117.095441	-6.261318	-13.482747
29486		117.043052	-6.267059	-13.451437
29487		116.956693	-6.268672	-13.385874
29488		116.829816	-6.253590	-13.309356
29489		116.693463	-6.231411	-13.256381
29490		116.550300	-6.211035	-13.257459
29491		116.354558	-6.201333	-13.330017
29492		116.072492	-6.203614	-13.477113
29493		115.684990	-6.210511	-13.701934
29494		115.183848	-6.227149	-13.986092
29495		114.597021	-6.257340	-14.316692
29496		113.934440	-6.302815	-14.676122
29497		113.178256	-6.372767	-15.058307
29498		112.320424	-6.491828	-15.457535
29499		111.424436	-6.676587	-15.865445
29500		110.555429	-6.911650	-16.311479
29501		109.801826	-7.190798	-16.794560
29502		109.158664	-7.484328	-17.334677
29503		108.513513	-7.781361	-17.901588
29504		107.834438	-8.098965	-18.466461
29505		107.151455	-8.437664	-19.012493
29506		106.467256	-8.783655	-19.506529
29507		105.774131	-9.110587	-19.940207
29508		105.055271	-9.397638	-20.337594
29509		104.246280	-9.637777	-20.723938
29510		103.367872	-9.863142	-21.098915
29511		102.464620	-10.091747	-21.462395
29512		101.595028	-10.321271	-21.824658
29513		100.783641	-10.549547	-22.179050
29514		99.996950	-10.765437	-22.512493
29515		99.216680	-10.973155	-22.824966
29516		98.395989	-11.171384	-23.127893
29517		97.472091	-11.361216	-23.404804
29518		96.423360	-11.556877	-23.640618
29519		95.209218	-11.754468	-23.833603
29520		93.843113	-11.964672	-23.952990
29521		92.391729	-12.201865	-24.023287
29522		91.025041	-12.480173	-24.146433
29523		89.860630	-12.791636	-24.408156
29524		88.809966	-13.109548	-24.797705
29525		87.742345	-13.461160	-25.285002
29526		86.488529	-13.869817	-25.842894
29527		85.066770	-14.344308	-26.407216
29528		83.512060	-14.857492	-26.896850
29529		81.834274	-15.352451	-27.288174
29530		80.037657	-15.798647	-27.566049
29531		78.177001	-16.210570	-27.743407
29532		76.382484	-16.644991	-27.911013
29533		74.710123	-17.137542	-28.174169
29534		73.160261	-17.714466	-28.539410
29535		71.662879	-18.356360	-28.990355
29536		70.185686	-19.026608	-29.487443
29537		68.708632	-19.696629	-29.963058
29538		67.199677	-20.351011	-30.355710
29539		65.597524	-20.972085	-30.648477
29540		63.897410	-21.524746	-30.818601
29541		62.153874	-22.006214	-30.852061
29542		60.406463	-22.428504	-30.782440
29543		58.750030	-22.806825	-30.640617
29544		57.243525	-23.186183	-30.480801
29545		55.863852	-23.582580	-30.379285
29546		54.614741	-23.992587	-30.337505
29547		53.457346	-24.417801	-30.377944
29548		52.330730	-24.845028	-30.458946
29549		51.237638	-25.270953	-30.540369
29550		50.145965	-25.687378	-30.586641
29551		49.025216	-26.058373	-30.575616
29552		47.923508	-26.387706	-30.484524
29553		46.834019	-26.685170	-30.342450
29554		45.706162	-26.954158	-30.171623
29555		44.617940	-27.209528	-29.994481
29556		43.608845	-27.458039	-29.841565
29557		42.733533	-27.700640	-29.716750
29558		42.011162	-27.939089	-29.628185
29559		41.387602	-28.166445	-29.580156
29560		40.792217	-28.380766	-29.544325
29561		40.196864	-28.598668	-29.520605
29562		39.572684	-28.806863	-29.463483
29563		38.890908	-29.017477	-29.390841
29564		38.137794	-29.208291	-29.273065
29565		37.381610	-29.390893	-29.133759
29566		36.663087	-29.562648	-28.975556
29567		36.014579	-29.727101	-28.820295
29568		35.391056	-29.917183	-28.695812
29569		34.705640	-30.135008	-28.622365
29570		33.938995	-30.388003	-28.580638
29571		33.104468	-30.663606	-28.561248
29572		32.233109	-30.921279	-28.515639
29573		31.406506	-31.133934	-28.418174
29574		30.680612	-31.309161	-28.240421
29575		30.063344	-31.455474	-27.998319
29576		29.527669	-31.571396	-27.720098
29577		29.032898	-31.669072	-27.478496
29578		28.561440	-31.759862	-27.319438
29579		28.104556	-31.878143	-27.271474
29580		27.660233	-32.036251	-27.320481
29581		27.188690	-32.226827	-27.429031
29582		26.702141	-32.441996	-27.519764
29583		26.207920	-32.658793	-27.571325
29584		25.733140	-32.846393	-27.561665
29585		25.319154	-32.973050	-27.498482
29586		24.985994	-33.026962	-27.361326
29587		24.745938	-32.995103	-27.148088
29588		24.610238	-32.858489	-26.856076
29589		24.600234	-32.635891	-26.512532
29590		24.699361	-32.367620	-26.145177
29591		24.808387	-32.109254	-25.797041
29592		24.826328	-31.892621	-25.474729
29593		24.730368	-31.743379	-25.203460
29594		24.523721	-31.665474	-24.977944
29595		24.223370	-31.644884	-24.802394
29596		23.871641	-31.689289	-24.640912
29597		23.515663	-31.774916	-24.479844
29598		23.187652	-31.869197	-24.290441
29599		22.923346	-31.941915	-24.067922
29600		22.724782	-31.983365	-23.802890
29601		22.562155	-31.978435	-23.502426
29602		22.425775	-31.956755	-23.176283
29603		22.282607	-31.934399	-22.844804
29604		22.114196	-31.933044	-22.538150
29605		21.900615	-31.964547	-22.269760
29606		21.648339	-32.022643	-22.038507
29607		21.372273	-32.104834	-21.849065
29608		21.083519	-32.202725	-21.671611
29609		20.788553	-32.302108	-21.495825
29610		20.465408	-32.385115	-21.272263
29611		20.113075	-32.461055	-20.999864
29612		19.729553	-32.518457	-20.689309
29613		19.330313	-32.565442	-20.372808
29614		18.916943	-32.607330	-20.062693
29615		18.499479	-32.665514	-19.777417
29616		18.066641	-32.743557	-19.508994
29617		17.606482	-32.834297	-19.256852
29618		17.120394	-32.938152	-18.993810
29619		16.606112	-33.049266	-18.698386
29620		16.037526	-33.160041	-18.330302
29621		15.408256	-33.261522	-17.896287
29622		14.723570	-33.336546	-17.403662
29623		13.998592	-33.364841	-16.858601
29624		13.278031	-33.342972	-16.301011
29625		12.625411	-33.266758	-15.804269
29626		12.028176	-33.135851	-15.374951
29627		11.506436	-32.974292	-15.024040
29628		11.044385	-32.799670	-14.718875
29629		10.595465	-32.621740	-14.431065
29630		10.142687	-32.451891	-14.138399
29631		9.678553	-32.287713	-13.813214
29632		9.212724	-32.128242	-13.465839
29633		8.779898	-31.987628	-13.134840
29634		8.404996	-31.857630	-12.853735
29635		8.100600	-31.744065	-12.661475
29636		7.876026	-31.663451	-12.552075
29637		7.702444	-31.630007	-12.500300
29638		7.530502	-31.632056	-12.479652
29639		7.353834	-31.653464	-12.473073
29640		7.181144	-31.694867	-12.467188
29641		7.018001	-31.736048	-12.438618
29642		6.869026	-31.768562	-12.385360
29643		6.755398	-31.779238	-12.305934
29644		6.683527	-31.777638	-12.207339
29645		6.649602	-31.784626	-12.112898
29646		6.628275	-31.816245	-12.044849
29647		6.590555	-31.865279	-12.005471
29648		6.525843	-31.923264	-11.986847
29649		6.440560	-31.983164	-11.970410
29650		6.350681	-32.029545	-11.952822
29651		6.278037	-32.057045	-11.936253
29652		6.242129	-32.065600	-11.914337
29653		6.235363	-32.053070	-11.887017
29654		6.234014	-32.025964	-11.843396
29655		6.234199	-31.990208	-11.797569
29656		6.232779	-31.955752	-11.759826
29657		6.218723	-31.930527	-11.735767
29658		6.195711	-31.914049	-11.721843
29659		6.172998	-31.909345	-11.722851
29660		6.162649	-31.908141	-11.736508
29661		6.182652	-31.911782	-11.773670
29662		6.216059	-31.916998	-11.827013
29663		6.242853	-31.919314	-11.877593
29664		6.268411	-31.917915	-11.923061
29665		6.307513	-31.912206	-11.963506
29666		6.364688	-31.911956	-12.008139
29667		6.438919	-31.917106	-12.055473
29668		6.515996	-31.927992	-12.097968
29669		6.594574	-31.939171	-12.138588
29670		6.684884	-31.948527	-12.185070
29671		6.798837	-31.960641	-12.240982
29672		6.928511	-31.983618	-12.296296
29673		7.034228	-32.006482	-12.351379
29674		7.108445	-32.013404	-12.403623
29675		7.196946	-32.004373	-12.469388
29676		7.320993	-31.986825	-12.542841
29677		7.481479	-31.954428	-12.619554
29678		7.662426	-31.903182	-12.678804
29679		7.847794	-31.843964	-12.717055
29680		8.018939	-31.799505	-12.739992
29681		8.130617	-31.776032	-12.762220
29682		8.179866	-31.751361	-12.784526
29683		8.209430	-31.729832	-12.813574
29684		8.241303	-31.699187	-12.848708
29685		8.285924	-31.655029	-12.893441
29686		8.353328	-31.603189	-12.940806
29687		8.418959	-31.553785	-12.980552
29688		8.437972	-31.523233	-12.996683
29689		8.391811	-31.511732	-12.998225
29690		8.285786	-31.514398	-12.984812
29691		8.152968	-31.531683	-12.959499
29692		8.034067	-31.546797	-12.916739
29693		7.974671	-31.558611	-12.879229
29694		7.981334	-31.567082	-12.853349
29695		8.026872	-31.578201	-12.844958
29696		8.081984	-31.595025	-12.839266
29697		8.126929	-31.615963	-12.838416
29698		8.182887	-31.640291	-12.830763
29699		8.272652	-31.665724	-12.831766
29700		8.397075	-31.691249	-12.840388
29701		8.560061	-31.738183	-12.850501
29702		8.748344	-31.836371	-12.853461
29703		8.972766	-31.988581	-12.867256
29704		9.301423	-32.172234	-12.911856
29705		9.815111	-32.344756	-13.010824
29706		10.535334	-32.492424	-13.144309
29707		11.391208	-32.597253	-13.297690
29708		12.321683	-32.650656	-13.442358
29709		13.327408	-32.671951	-13.593775
29710		14.411031	-32.668652	-13.750565
29711		15.583764	-32.638123	-13.931440
29712		16.847415	-32.604785	-14.139472
29713		18.186860	-32.574260	-14.381553
29714		19.570834	-32.534266	-14.663204
29715		20.993970	-32.483867	-14.991954
29716		22.473351	-32.406699	-15.351424
29717		24.016653	-32.306806	-15.739155
29718		25.606834	-32.197210	-16.137883
29719		27.215743	-32.099811	-16.543387
29720		28.812948	-32.004643	-16.937735
29721		30.402937	-31.885472	-17.351263
29722		32.044558	-31.748915	-17.785352
29723		33.752072	-31.581704	-18.234148
29724		35.543836	-31.360550	-18.657060
29725		37.436943	-31.102571	-19.056322
29726		39.371125	-30.804350	-19.419193
29727		41.269430	-30.477989	-19.746739
29728		43.072147	-30.153465	-20.038587
29729		44.744069	-29.855178	-20.322484
29730		46.285107	-29.598214	-20.600861
29731		47.714553	-29.377189	-20.867686
29732		49.038390	-29.163936	-21.118655
29733		50.297857	-28.945646	-21.368336
29734		51.526815	-28.732351	-21.623206
29735		52.731845	-28.532226	-21.882479
29736		53.902544	-28.342966	-22.126241
29737		55.048824	-28.160078	-22.358387
29738		56.169229	-27.972435	-22.585639
29739		57.286834	-27.778954	-22.798370
29740		58.421667	-27.559282	-22.973464
29741		59.586639	-27.304701	-23.093810
29742		60.772026	-27.017606	-23.163344
29743		61.956171	-26.702347	-23.188478
29744		63.126205	-26.366129	-23.165682
29745		64.287522	-26.028642	-23.118278
29746		65.461014	-25.695227	-23.064139
29747		66.652952	-25.365638	-22.990413
29748		67.842046	-25.016627	-22.891930
29749		69.021159	-24.641773	-22.764492
29750		70.213579	-24.239824	-22.582445
29751		71.453167	-23.817061	-22.365781
29752		72.758329	-23.378055	-22.104351
29753		74.113797	-22.930652	-21.819603
29754		75.477674	-22.490196	-21.529338
29755		76.796117	-22.075576	-21.239650
29756		78.044084	-21.698030	-20.965119
29757		79.219037	-21.344468	-20.687248
29758		80.319293	-20.997399	-20.393409
29759		81.361086	-20.650217	-20.089505
29760		82.337307	-20.303831	-19.763079
29761		83.249225	-19.970446	-19.421948
29762		84.104385	-19.644835	-19.073762
29763		84.901511	-19.328178	-18.716815
29764		85.652264	-19.018849	-18.363922
29765		86.391050	-18.715049	-18.016615
29766		87.101112	-18.415825	-17.694499
29767		87.782142	-18.124174	-17.394100
29768		88.463751	-17.844837	-17.126762
29769		89.171263	-17.567478	-16.901634
29770		89.874592	-17.284071	-16.680881
29771		90.584036	-17.005585	-16.450062
29772		91.296930	-16.731904	-16.207644
29773		91.994391	-16.459774	-15.955798
29774		92.649522	-16.187148	-15.685063
29775		93.252058	-15.908558	-15.403970
29776		93.787448	-15.629264	-15.109441
29777		94.246095	-15.362268	-14.807680
29778		94.665794	-15.125219	-14.509073
29779		95.112439	-14.924866	-14.254172
29780		95.599422	-14.741914	-14.049661
29781		96.117789	-14.560259	-13.865914
29782		96.656818	-14.366045	-13.691763
29783		97.202607	-14.153192	-13.531873
29784		97.707667	-13.930634	-13.368552
29785		98.143712	-13.716924	-13.190718
29786		98.503793	-13.514122	-12.988159
29787		98.824919	-13.329097	-12.778733
29788		99.146931	-13.154961	-12.581670
29789		99.491345	-12.996057	-12.408386
29790		99.858976	-12.841005	-12.262197
29791		100.249139	-12.681229	-12.131504
29792		100.657843	-12.519776	-11.990575
29793		101.076717	-12.349632	-11.840356
29794		101.477800	-12.167116	-11.677676
29795		101.856842	-11.978020	-11.511515
29796		102.212531	-11.789246	-11.347646
29797		102.547783	-11.605208	-11.190594
29798		102.866391	-11.430847	-11.027629
29799		103.167028	-11.263872	-10.869032
29800		103.469745	-11.119568	-10.726939
29801		103.781228	-10.990302	-10.608539
29802		104.099928	-10.870383	-10.513922
29803		104.413291	-10.748121	-10.421510
29804		104.751584	-10.631282	-10.299057
29805		105.124521	-10.510274	-10.153443
29806		105.487220	-10.382944	-9.977420
29807		105.786818	-10.260520	-9.776080
29808		106.018111	-10.151278	-9.584747
29809		106.167507	-10.055332	-9.419516
29810		106.243448	-9.991729	-9.292491
29811		106.237865	-9.959476	-9.228040
29812		106.183784	-9.946249	-9.228609
29813		106.147448	-9.941845	-9.251029
29814		106.180072	-9.928505	-9.250772
29815		106.299472	-9.878503	-9.183269
29816		106.540684	-9.809511	-9.001822
29817		106.902242	-9.712794	-8.723935
29818		107.345509	-9.589038	-8.388428
29819		107.818476	-9.449340	-8.041943
29820		108.262961	-9.308837	-7.725969
29821		108.666953	-9.177611	-7.474488
29822		109.004883	-9.059587	-7.299030
29823		109.251762	-8.961988	-7.193528
29824		109.396294	-8.884844	-7.161294
29825		109.429887	-8.825228	-7.196413
29826		109.367795	-8.785549	-7.282175
29827		109.250981	-8.768922	-7.397713
29828		109.107827	-8.768138	-7.528898
29829		108.966453	-8.776897	-7.648323
29830		108.851257	-8.787551	-7.744558
29831		108.773995	-8.793679	-7.818486
29832		108.738545	-8.794601	-7.864861
29833		108.747889	-8.782609	-7.883141
29834		108.796488	-8.754223	-7.889060
29835		108.863172	-8.715783	-7.885120
29836		108.935031	-8.680789	-7.866150
29837		109.028360	-8.648857	-7.841810
29838		109.137547	-8.613644	-7.813016
29839		109.247246	-8.581264	-7.776692
29840		109.344871	-8.550487	-7.741091
29841		109.424445	-8.527400	-7.705751
29842		109.496871	-8.514427	-7.683069
29843		109.565896	-8.518011	-7.679013
29844		109.628165	-8.524427	-7.656625
29845		109.724227	-8.537650	-7.597779
29846		109.880544	-8.538703	-7.517911
29847		110.067073	-8.521392	-7.421906
29848		110.241769	-8.498703	-7.302739
29849		110.402087	-8.466137	-7.180256
29850		110.537874	-8.426850	-7.077855
29851		110.654291	-8.380359	-7.014616
29852		110.732763	-8.336367	-6.990933
29853		110.762839	-8.304244	-6.999724
29854		110.764555	-8.288700	-7.008760
29855		110.757226	-8.275622	-7.010431
29856		110.755455	-8.265808	-7.017432
29857		110.754283	-8.256517	-7.030585
29858		110.741989	-8.251774	-7.037995
29859		110.732962	-8.242751	-7.048702
29860		110.729487	-8.227864	-7.074967
29861		110.737612	-8.209908	-7.124112
29862		110.730306	-8.194960	-7.196467
29863		110.677791	-8.191953	-7.286961
29864		110.579817	-8.200611	-7.397510
29865		110.443147	-8.211659	-7.525235
29866		110.277871	-8.228558	-7.658867
29867		110.090674	-8.257557	-7.787304
29868		109.899157	-8.295144	-7.910553
29869		109.711464	-8.334987	-8.014645
29870		109.541030	-8.374386	-8.081873
29871		109.404181	-8.404659	-8.130618
29872		109.308779	-8.423267	-8.169053
29873		109.223404	-8.433576	-8.195352
29874		109.142809	-8.451049	-8.212054
29875		109.073294	-8.487012	-8.220157
29876		109.001687	-8.526767	-8.233611
29877		108.906117	-8.551059	-8.263585
29878		108.794173	-8.569479	-8.303695
29879		108.669053	-8.591056	-8.350622
29880		108.540291	-8.622447	-8.389902
29881		108.412975	-8.655899	-8.414160
29882		108.306142	-8.683590	-8.407244
29883		108.215709	-8.697495	-8.364586
29884		108.154074	-8.706246	-8.287138
29885		108.099651	-8.709142	-8.193900
29886		108.022449	-8.705105	-8.108923
29887		107.882579	-8.708834	-8.070248
29888		107.643971	-8.724402	-8.118566
29889		107.301628	-8.758723	-8.271097
29890		106.866097	-8.810789	-8.531212
29891		106.356503	-8.884516	-8.864142
29892		105.793042	-8.980430	-9.234084
29893		105.204436	-9.099776	-9.611589
29894		104.619104	-9.237678	-9.970234
29895		104.046765	-9.385670	-10.296451
29896		103.469638	-9.536498	-10.581431
29897		102.880978	-9.687544	-10.815516
29898		102.267785	-9.839055	-11.017974
29899		101.601706	-9.994871	-11.200886
29900		100.854935	-10.162761	-11.397236
29901		99.979773	-10.336949	-11.651416
29902		98.964333	-10.544930	-11.962544
29903		97.839254	-10.791620	-12.336479
29904		96.650235	-11.076342	-12.765089
29905		95.407123	-11.383182	-13.224075
29906		94.129946	-11.710274	-13.682904
29907		92.816684	-12.052098	-14.151703
29908		91.465106	-12.398461	-14.603838
29909		90.100665	-12.747583	-15.017633
29910		88.750807	-13.094629	-15.412799
29911		87.413624	-13.441045	-15.789414
29912		86.058869	-13.789578	-16.156199
29913		84.659434	-14.145381	-16.521685
29914		83.252743	-14.529089	-16.904640
29915		81.877835	-14.942384	-17.326234
29916		80.526022	-15.387982	-17.759645
29917		79.191520	-15.856540	-18.201549
29918		77.864301	-16.341832	-18.656129
29919		76.537642	-16.827357	-19.095934
29920		75.234577	-17.305417	-19.507389
29921		73.965589	-17.764089	-19.886217
29922		72.744023	-18.200149	-20.218089
29923		71.603643	-18.609441	-20.509298
29924		70.567715	-18.994508	-20.767599
29925		69.630742	-19.360743	-20.996942
29926		68.750697	-19.710722	-21.205798
29927		67.906079	-20.042087	-21.398672
29928		67.079591	-20.354314	-21.571183
29929		66.272032	-20.651074	-21.727680
29930		65.489140	-20.936498	-21.858188
29931		64.726974	-21.204978	-21.963339
29932		63.967351	-21.455664	-22.054951
29933		63.215960	-21.690735	-22.131602
29934		62.498723	-21.920261	-22.197389
29935		61.799591	-22.158602	-22.274574
29936		61.065883	-22.402034	-22.373148
29937		60.321109	-22.652638	-22.502767
29938		59.607246	-22.914493	-22.660210
29939		58.924616	-23.186319	-22.824906
29940		58.214048	-23.454202	-23.001417
29941		57.465260	-23.716685	-23.162833
29942		56.710598	-23.975765	-23.304917
29943		55.976857	-24.231066	-23.417303
29944		55.272352	-24.491463	-23.509001
29945		54.548983	-24.755002	-23.600774
29946		53.799056	-25.015900	-23.683618
29947		53.029257	-25.271049	-23.781972
29948		52.256104	-25.529325	-23.892358
29949		51.452170	-25.799517	-24.034608
29950		50.630750	-26.081322	-24.194553
29951		49.819369	-26.371348	-24.367550
29952		49.029026	-26.653095	-24.530574
29953		48.279345	-26.906633	-24.665068
29954		47.578238	-27.132450	-24.755094
29955		46.932463	-27.329625	-24.807817
29956		46.315616	-27.504871	-24.828509
29957		45.691700	-27.672705	-24.836576
29958		44.999143	-27.855246	-24.859627
29959		44.208506	-28.060238	-24.905371
29960		43.302503	-28.287903	-24.964503
29961		42.314869	-28.511247	-25.025987
29962		41.329196	-28.721269	-25.057602
29963		40.428569	-28.914311	-25.070483
29964		39.604141	-29.086178	-25.066434
29965		38.859572	-29.240108	-25.057794
29966		38.171897	-29.406811	-25.062051
29967		37.454334	-29.594503	-25.117828
29968		36.685873	-29.788966	-25.188913
29969		35.906470	-29.981704	-25.284712
29970		35.131390	-30.150446	-25.369874
29971		34.416010	-30.285364	-25.428282
29972		33.775297	-30.407034	-25.460457
29973		33.152588	-30.514338	-25.487259
29974		32.523052	-30.611515	-25.491792
29975		31.877607	-30.730321	-25.505850
29976		31.182158	-30.876291	-25.520936
29977		30.462479	-31.048189	-25.553412
29978		29.739146	-31.247802	-25.604703
29979		29.012738	-31.456654	-25.673735
29980		28.301162	-31.683704	-25.745767
29981		27.597023	-31.919903	-25.819403
29982		26.859016	-32.150053	-25.864534
29983		26.088596	-32.359647	-25.867933
29984		25.310271	-32.548505	-25.821973
29985		24.560548	-32.720494	-25.737343
29986		23.845277	-32.878019	-25.614567
29987		23.154334	-33.033857	-25.462740
29988		22.477019	-33.206165	-25.283190
29989		21.793754	-33.408396	-25.076051
29990		21.090688	-33.660675	-24.866213
29991		20.384003	-33.986388	-24.694015
29992		19.673299	-34.379405	-24.555744
29993		18.963506	-34.798685	-24.481937
29994		18.280279	-35.199763	-24.456394
29995		17.628045	-35.574894	-24.458766
29996		16.994483	-35.912613	-24.453774
29997		16.372957	-36.200885	-24.426903
29998		15.758825	-36.443030	-24.338631
29999		15.153793	-36.652653	-24.199909
30000		14.546218	-36.851183	-24.024011
30001		13.920684	-37.073901	-23.838506
30002		13.265371	-37.331722	-23.641095
30003		12.581816	-37.636904	-23.458552
30004		11.850594	-37.958852	-23.278022
30005		11.079865	-38.283211	-23.089164
30006		10.282668	-38.576783	-22.848235
30007		9.468989	-38.813615	-22.546208
30008		8.695716	-38.994006	-22.184215
30009		8.016993	-39.124967	-21.784229
30010		7.450074	-39.205958	-21.355979
30011		7.018747	-39.263562	-20.921700
30012		6.690838	-39.315748	-20.492744
30013		6.421427	-39.371347	-20.072357
30014		6.181499	-39.429759	-19.667973
30015		5.957195	-39.472608	-19.276468
30016		5.750395	-39.489665	-18.910786
30017		5.564392	-39.469061	-18.574956
30018		5.403356	-39.415272	-18.279281
30019		5.280268	-39.324631	-18.020952
30020		5.203077	-39.214196	-17.793369
30021		5.162479	-39.085464	-17.593139
30022		5.138831	-38.943176	-17.404500
30023		5.123247	-38.809702	-17.233559
30024		5.106381	-38.699260	-17.098818
30025		5.067056	-38.604629	-16.998583
30026		5.026949	-38.516239	-16.930316
30027		5.012189	-38.425932	-16.880678
30028		5.039406	-38.327329	-16.834403
30029		5.100831	-38.226276	-16.785973
30030		5.167750	-38.125920	-16.726490
30031		5.231701	-38.037443	-16.673675
30032		5.274542	-37.968915	-16.626722
30033		5.289709	-37.918841	-16.597416
30034		5.280301	-37.877405	-16.576662
30035		5.275812	-37.833149	-16.568411
30036		5.299286	-37.787016	-16.559555
30037		5.362049	-37.736808	-16.542063
30038		5.460078	-37.681219	-16.514775
30039		5.561554	-37.622620	-16.490416
30040		5.629869	-37.567277	-16.457591
30041		5.678146	-37.517648	-16.427144
30042		5.716067	-37.488164	-16.405850
30043		5.742545	-37.479887	-16.411773
30044		5.750035	-37.487302	-16.423444
30045		5.762284	-37.501295	-16.430977
30046		5.794694	-37.510678	-16.428244
30047		5.850864	-37.504395	-16.416841
30048		5.926650	-37.489728	-16.401889
30049		6.003899	-37.471170	-16.389405
30050		6.054189	-37.464931	-16.379263
30051		6.085426	-37.455414	-16.370208
30052		6.119928	-37.446065	-16.358668
30053		6.175470	-37.428268	-16.342648
30054		6.261872	-37.404174	-16.322659
30055		6.359349	-37.370055	-16.306631
30056		6.432105	-37.323279	-16.280725
30057		6.497393	-37.252926	-16.251650
30058		6.559369	-37.164533	-16.225612
30059		6.618167	-37.055596	-16.206307
30060		6.668785	-36.931944	-16.193580
30061		6.700247	-36.802752	-16.195671
30062		6.718766	-36.678562	-16.223325
30063		6.728437	-36.570760	-16.260051
30064		6.741376	-36.489628	-16.282523
30065		6.793518	-36.439041	-16.286964
30066		6.871981	-36.410619	-16.275021
30067		6.976744	-36.375974	-16.266436
30068		7.085481	-36.334569	-16.244342
30069		7.187961	-36.287990	-16.217225
30070		7.252604	-36.248681	-16.190891
30071		7.279385	-36.220030	-16.180174
30072		7.286860	-36.202582	-16.175060
30073		7.312095	-36.185958	-16.178577
30074		7.368360	-36.175092	-16.181148
30075		7.461987	-36.163102	-16.187726
30076		7.596994	-36.147495	-16.189624
30077		7.779448	-36.133047	-16.191774
30078		8.001966	-36.123755	-16.194491
30079		8.253867	-36.116967	-16.203984
30080		8.506512	-36.109308	-16.214944
30081		8.772579	-36.088744	-16.243201
30082		9.066629	-36.058380	-16.282787
30083		9.416652	-36.003924	-16.337568
30084		9.848232	-35.930030	-16.396110
30085		10.358399	-35.847285	-16.466420
30086		10.929281	-35.761546	-16.543830
30087		11.539999	-35.683633	-16.632278
30088		12.140940	-35.627310	-16.720111
30089		12.654414	-35.602238	-16.816731
30090		13.023767	-35.594269	-16.912412
30091		13.266140	-35.607218	-17.023702
30092		13.407143	-35.628535	-17.155719
30093		13.474639	-35.668381	-17.331620
30094		13.495344	-35.706086	-17.560824
30095		13.564124	-35.732625	-17.878952
30096		13.736391	-35.752683	-18.276049
30097		14.024661	-35.756608	-18.723470
30098		14.390294	-35.744396	-19.148516
30099		14.811358	-35.719431	-19.530454
30100		15.254245	-35.674267	-19.844093
30101		15.714609	-35.601571	-20.092863
30102		16.205122	-35.500905	-20.293022
30103		16.716343	-35.389648	-20.470155
30104		17.210006	-35.282665	-20.635933
30105		17.658780	-35.186661	-20.795879
30106		18.055277	-35.109300	-20.966523
30107		18.433812	-35.041211	-21.138332
30108		18.825988	-34.991202	-21.312625
30109		19.246172	-34.940301	-21.496342
30110		19.733228	-34.873256	-21.692833
30111		20.331215	-34.786235	-21.912263
30112		21.021092	-34.681034	-22.128847
30113		21.755091	-34.560224	-22.340194
30114		22.496465	-34.430596	-22.531334
30115		23.229265	-34.294906	-22.727791
30116		23.944796	-34.151249	-22.925061
30117		24.643090	-33.997319	-23.127039
30118		25.346264	-33.829497	-23.317688
30119		26.078130	-33.645694	-23.500351
30120		26.879870	-33.434292	-23.675153
30121		27.793072	-33.185669	-23.862967
30122		28.811866	-32.889107	-24.048439
30123		29.920278	-32.549670	-24.228548
30124		31.096672	-32.171998	-24.375147
30125		32.332462	-31.760281	-24.485991
30126		33.613425	-31.306494	-24.550866
30127		34.923581	-30.801664	-24.574804
30128		36.278423	-30.239249	-24.561832
30129		37.684911	-29.642096	-24.521822
30130		39.121680	-29.021790	-24.442305
30131		40.572420	-28.397321	-24.328300
30132		42.018377	-27.805005	-24.182838
30133		43.405750	-27.254754	-24.031707
30134		44.698362	-26.742647	-23.902474
30135		45.886975	-26.256620	-23.835256
30136		46.959537	-25.796638	-23.848632
30137		47.934694	-25.375705	-23.936535
30138		48.822399	-25.003059	-24.072089
30139		49.645253	-24.681247	-24.213208
30140		50.432711	-24.392638	-24.339981
30141		51.210681	-24.107311	-24.455644
30142		52.015641	-23.817296	-24.549205
30143		52.865656	-23.517660	-24.609135
30144		53.746348	-23.197492	-24.626217
30145		54.672018	-22.861963	-24.601674
30146		55.617384	-22.512290	-24.549223
30147		56.565909	-22.154580	-24.472125
30148		57.518738	-21.793657	-24.383214
30149		58.471870	-21.427351	-24.278872
30150		59.425411	-21.057972	-24.160995
30151		60.405693	-20.684279	-24.020009
30152		61.406810	-20.308765	-23.852380
30153		62.428964	-19.941032	-23.666818
30154		63.448157	-19.578175	-23.457794
30155		64.456200	-19.223933	-23.230239
30156		65.443839	-18.884161	-22.999647
30157		66.405763	-18.561526	-22.760500
30158		67.354903	-18.258788	-22.511832
30159		68.303043	-17.970972	-22.267766
30160		69.248487	-17.696078	-22.019710
30161		70.208921	-17.410598	-21.760020
30162		71.208040	-17.119301	-21.503341
30163		72.218835	-16.825925	-21.248222
30164		73.202141	-16.531769	-20.971105
30165		74.167975	-16.250223	-20.690455
30166		75.098020	-15.983761	-20.414543
30167		75.979620	-15.726631	-20.135828
30168		76.836737	-15.483497	-19.847881
30169		77.687790	-15.255380	-19.562968
30170		78.540410	-15.043482	-19.288537
30171		79.379598	-14.837385	-19.024973
30172		80.204170	-14.627225	-18.766815
30173		81.003974	-14.401003	-18.530919
30174		81.779168	-14.161250	-18.316277
30175		82.547761	-13.921073	-18.099384
30176		83.331521	-13.683264	-17.871915
30177		84.136534	-13.450868	-17.632599
30178		84.925335	-13.215494	-17.378972
30179		85.667203	-12.987152	-17.107219
30180		86.357268	-12.770978	-16.828468
30181		86.994372	-12.558099	-16.570253
30182		87.569636	-12.335456	-16.355993
30183		88.082327	-12.078386	-16.207109
30184		88.546823	-11.794496	-16.141681
30185		89.024859	-11.515830	-16.160041
30186		89.508007	-11.273601	-16.235988
30187		89.993421	-11.079243	-16.358893
30188		90.494981	-10.931954	-16.489284
30189		91.033099	-10.814230	-16.613128
30190		91.616658	-10.704300	-16.711473
30191		92.233872	-10.588974	-16.769750
30192		92.846437	-10.455527	-16.796882
30193		93.423491	-10.305088	-16.796253
30194		93.953007	-10.146319	-16.769770
30195		94.437027	-9.978629	-16.727722
30196		94.892916	-9.812277	-16.665410
30197		95.342245	-9.651134	-16.586320
30198		95.773791	-9.500883	-16.485036
30199		96.186918	-9.362114	-16.360857
30200		96.564659	-9.236241	-16.215802
30201		96.922545	-9.121335	-16.059978
30202		97.287599	-9.012916	-15.901998
30203		97.681654	-8.907293	-15.743601
30204		98.085337	-8.805201	-15.594788
30205		98.473914	-8.708563	-15.458510
30206		98.832223	-8.624433	-15.335165
30207		99.144433	-8.552824	-15.229985
30208		99.398772	-8.489711	-15.133042
30209		99.587201	-8.437165	-15.049509
30210		99.716345	-8.397625	-14.983149
30211		99.824095	-8.377876	-14.927185
30212		99.930704	-8.359210	-14.875131
30213		100.032729	-8.334120	-14.828045
30214		100.141613	-8.311015	-14.780617
30215		100.271899	-8.292076	-14.732858
30216		100.418119	-8.273187	-14.665554
30217		100.579672	-8.241298	-14.586803
30218		100.758709	-8.203179	-14.499749
30219		100.939675	-8.165933	-14.408280
30220		101.102593	-8.136526	-14.307163
30221		101.232461	-8.111619	-14.206778
30222		101.328714	-8.091889	-14.126268
30223		101.404490	-8.078180	-14.072656
30224		101.469312	-8.075433	-14.035837
30225		101.509286	-8.085643	-14.014224
30226		101.508202	-8.108892	-14.006159
30227		101.486326	-8.144775	-14.019823
30228		101.456691	-8.191311	-14.053401
30229		101.434848	-8.239002	-14.104406
30230		101.400431	-8.280427	-14.168784
30231		101.332812	-8.314638	-14.256584
30232		101.236163	-8.339984	-14.372442
30233		101.136466	-8.367419	-14.515053
30234		101.052000	-8.398735	-14.657779
30235		100.988721	-8.431675	-14.789009
30236		100.960594	-8.456300	-14.878363
30237		100.984507	-8.470841	-14.911843
30238		101.054637	-8.478795	-14.890472
30239		101.134854	-8.471873	-14.831446
30240		101.204901	-8.455426	-14.743610
30241		101.280439	-8.432228	-14.651717
30242		101.355253	-8.407603	-14.565381
30243		101.427296	-8.386883	-14.502515
30244		101.490403	-8.370311	-14.473173
30245		101.543791	-8.363702	-14.472406
30246		101.596851	-8.361961	-14.490388
30247		101.650279	-8.363720	-14.517503
30248		101.704665	-8.373132	-14.533034
30249		101.768290	-8.382065	-14.533266
30250		101.834154	-8.388339	-14.507606
30251		101.898896	-8.386603	-14.454823
30252		101.961172	-8.372159	-14.378500
30253		102.021288	-8.347437	-14.296512
30254		102.079206	-8.315960	-14.220367
30255		102.137700	-8.290136	-14.157367
30256		102.197894	-8.267560	-14.107159
30257		102.289820	-8.249372	-14.045167
30258		102.426371	-8.227660	-13.967582
30259		102.576861	-8.199332	-13.866165
30260		102.720994	-8.167691	-13.742260
30261		102.856094	-8.132490	-13.613698
30262		102.981856	-8.095040	-13.487955
30263		103.101434	-8.050869	-13.376874
30264		103.204712	-8.005297	-13.272824
30265		103.306701	-7.965172	-13.167827
30266		103.423706	-7.926311	-13.070419
30267		103.547229	-7.888231	-12.983141
30268		103.652884	-7.847186	-12.908510
30269		103.748569	-7.810739	-12.841534
30270		103.831677	-7.781994	-12.771623
30271		103.900865	-7.753842	-12.700314
30272		103.964138	-7.726516	-12.628433
30273		104.023510	-7.699035	-12.562469
30274		104.075345	-7.667222	-12.502086
30275		104.118601	-7.643648	-12.447637
30276		104.152360	-7.628745	-12.400232
30277		104.171984	-7.614683	-12.371164
30278		104.179120	-7.611177	-12.354148
30279		104.192002	-7.610561	-12.343086
30280		104.228871	-7.612796	-12.323526
30281		104.294208	-7.610222	-12.296456
30282		104.360975	-7.605378	-12.267346
30283		104.416104	-7.596355	-12.233991
30284		104.446673	-7.591651	-12.200816
30285		104.451879	-7.585692	-12.172791
30286		104.435812	-7.584469	-12.159062
30287		104.414085	-7.593861	-12.155421
30288		104.388533	-7.602812	-12.165089
30289		104.368888	-7.610931	-12.175316
30290		104.350506	-7.620523	-12.188884
30291		104.341390	-7.631290	-12.212653
30292		104.336782	-7.646055	-12.245263
30293		104.325571	-7.663260	-12.281252
30294		104.306333	-7.679598	-12.313035
30295		104.284738	-7.696358	-12.340727
30296		104.257750	-7.718715	-12.368351
30297		104.231859	-7.745748	-12.394188
30298		104.197238	-7.777703	-12.417145
30299		104.157542	-7.810245	-12.439611
30300		104.121664	-7.834160	-12.461732
30301		104.092485	-7.849607	-12.480382
30302		104.073337	-7.862777	-12.490031
30303		104.056035	-7.872354	-12.484141
30304		104.048813	-7.878461	-12.463678
30305		104.055066	-7.881540	-12.453325
30306		104.072586	-7.883953	-12.446815
30307		104.093418	-7.883916	-12.441796
30308		104.113203	-7.880697	-12.434082
30309		104.135466	-7.877937	-12.426810
30310		104.148895	-7.878001	-12.412667
30311		104.154221	-7.879308	-12.383608
30312		104.159465	-7.876284	-12.337113
30313		104.174330	-7.870309	-12.287042
30314		104.194359	-7.869287	-12.240932
30315		104.204694	-7.877267	-12.194400
30316		104.209574	-7.890049	-12.150668
30317		104.207121	-7.904772	-12.123630
30318		104.205245	-7.921887	-12.108805
30319		104.198310	-7.932593	-12.108354
30320		104.186706	-7.938911	-12.111145
30321		104.170345	-7.946400	-12.104704
30322		104.137889	-7.950365	-12.084022
30323		104.112075	-7.950083	-12.042649
30324		104.090457	-7.942451	-11.990620
30325		104.067792	-7.925423	-11.933272
30326		104.040111	-7.900620	-11.874266
30327		104.012182	-7.880573	-11.814674
30328		103.977666	-7.862105	-11.763404
30329		103.950355	-7.844717	-11.725520
30330		103.930690	-7.829695	-11.694030
30331		103.917154	-7.823272	-11.666047
30332		103.896817	-7.818267	-11.632513
30333		103.876503	-7.817820	-11.579955
30334		103.852073	-7.820576	-11.509655
30335		103.821138	-7.827956	-11.422861
30336		103.771051	-7.827453	-11.334774
30337		103.720847	-7.829167	-11.258827
30338		103.698258	-7.836383	-11.211723
30339		103.688790	-7.850324	-11.194669
30340		103.692353	-7.865792	-11.203449
30341		103.705652	-7.872528	-11.234422
30342		103.703630	-7.874296	-11.266261
30343		103.705267	-7.878423	-11.287466
30344		103.713745	-7.881602	-11.289640
30345		103.719377	-7.883149	-11.275794
30346		103.714721	-7.877317	-11.256257
30347		103.704266	-7.871175	-11.241082
30348		103.683300	-7.869161	-11.232928
30349		103.657461	-7.867527	-11.229672
30350		103.635615	-7.862172	-11.232445
30351		103.624075	-7.859387	-11.235875
30352		103.612622	-7.859629	-11.240660
30353		103.598744	-7.863114	-11.242406
30354		103.568479	-7.864747	-11.238576
30355		103.515258	-7.866383	-11.225084
30356		103.460364	-7.869006	-11.203486
30357		103.406377	-7.874157	-11.174835
30358		103.350819	-7.873468	-11.141677
30359		103.280196	-7.871732	-11.096817
30360		103.203578	-7.865634	-11.028563
30361		103.141856	-7.858075	-10.939679
30362		103.085390	-7.843136	-10.827083
30363		103.024126	-7.831353	-10.692663
30364		102.957686	-7.821447	-10.533496
30365		102.879856	-7.815186	-10.363472
30366		102.782443	-7.813212	-10.192630
30367		102.668640	-7.812778	-10.037486
30368		102.548106	-7.810877	-9.912117
30369		102.438143	-7.807970	-9.822424
30370		102.339202	-7.810720	-9.763559
30371		102.261211	-7.812812	-9.727618
30372		102.189471	-7.810010	-9.704374
30373		102.106818	-7.801533	-9.679468
30374		101.997669	-7.789729	-9.653551
30375		101.854460	-7.784080	-9.626442
30376		101.663143	-7.789164	-9.602814
30377		101.414460	-7.801345	-9.606742
30378		101.096209	-7.826733	-9.638675
30379		100.728854	-7.870558	-9.702532
30380		100.325503	-7.930412	-9.811467
30381		99.904434	-8.007954	-9.957715
30382		99.455008	-8.095225	-10.141748
30383		98.978100	-8.197749	-10.355625
30384		98.461799	-8.315662	-10.594057
30385		97.900143	-8.454906	-10.839173
30386		97.287899	-8.612366	-11.086194
30387		96.620496	-8.792941	-11.333028
30388		95.907863	-8.991778	-11.569112
30389		95.156358	-9.217742	-11.793102
30390		94.377660	-9.469575	-12.024994
30391		93.583888	-9.758761	-12.288284
30392		92.713739	-10.078046	-12.609883
30393		91.765990	-10.437964	-12.991982
30394		90.770826	-10.847699	-13.410734
30395		89.738244	-11.306790	-13.841029
30396		88.677761	-11.807975	-14.282107
30397		87.635016	-12.347106	-14.715086
30398		86.660560	-12.913416	-15.137507
30399		85.758841	-13.485959	-15.541159
30400		84.903568	-14.037941	-15.912266
30401		84.103739	-14.547787	-16.236182
30402		83.332614	-15.006125	-16.510537
30403		82.617988	-15.407258	-16.734600
30404		81.952843	-15.753190	-16.922295
30405		81.311551	-16.045965	-17.088621
30406		80.678557	-16.299158	-17.240909
30407		80.047400	-16.534482	-17.387238
30408		79.421731	-16.762217	-17.533686
30409		78.820966	-16.999543	-17.683447
30410		78.235857	-17.243925	-17.850312
30411		77.646535	-17.492585	-18.013017
30412		77.045615	-17.738537	-18.177736
30413		76.425058	-17.982078	-18.349547
30414		75.758316	-18.217937	-18.529951
30415		75.052723	-18.450009	-18.712548
30416		74.327237	-18.687770	-18.892461
30417		73.556844	-18.936975	-19.086346
30418		72.730617	-19.200800	-19.302064
30419		71.860711	-19.485999	-19.526137
30420		70.952068	-19.807821	-19.768184
30421		70.015123	-20.161861	-20.030127
30422		69.063098	-20.540971	-20.288686
30423		68.110802	-20.928582	-20.518569
30424		67.145700	-21.315532	-20.731572
30425		66.155025	-21.695528	-20.928927
30426		65.126581	-22.068812	-21.119077
30427		64.071373	-22.442213	-21.291664
30428		62.979739	-22.829328	-21.459574
30429		61.838505	-23.234928	-21.637440
30430		60.624220	-23.668235	-21.822474
30431		59.384716	-24.131892	-21.998712
30432		58.167966	-24.623740	-22.142916
30433		57.000789	-25.133054	-22.239226
30434		55.801087	-25.678828	-22.275713
30435		54.466010	-26.248547	-22.284127
30436		52.917233	-26.883880	-22.295025
30437		51.079295	-27.561814	-22.375642
30438		49.036721	-28.243387	-22.494865
30439		47.000824	-28.916319	-22.635465
30440		45.140231	-29.541974	-22.762265
30441		43.583334	-30.067965	-22.821377
30442		42.378939	-30.472114	-22.801227
30443		41.481537	-30.764464	-22.713265
30444		40.769682	-30.947928	-22.573167
30445		40.130133	-31.068799	-22.390646
30446		39.445744	-31.194644	-22.221539
30447		38.603928	-31.340153	-22.091406
30448		37.612058	-31.518341	-21.988158
30449		36.508216	-31.752898	-21.936604
30450		35.324021	-32.003468	-21.908689
30451		34.181475	-32.241479	-21.876940
30452		33.193282	-32.463805	-21.836586
30453		32.386514	-32.657715	-21.779046
30454		31.742293	-32.812430	-21.690778
30455		31.217937	-32.940701	-21.590360
30456		30.740109	-33.053229	-21.469399
30457		30.213656	-33.166609	-21.333703
30458		29.589462	-33.267984	-21.161569
30459		28.882164	-33.360302	-20.975387
30460		28.106662	-33.427307	-20.769374
30461		27.314406	-33.487375	-20.552482
30462		26.533219	-33.553597	-20.326278
30463		25.784363	-33.621409	-20.095381
30464		25.095940	-33.693233	-19.855833
30465		24.489985	-33.768541	-19.610410
30466		23.928485	-33.839968	-19.351548
30467		23.384130	-33.900011	-19.077614
30468		22.841781	-33.945895	-18.775253
30469		22.301360	-33.981070	-18.463727
30470		21.765731	-33.996902	-18.161317
30471		21.256985	-34.004102	-17.897045
30472		20.757070	-34.013826	-17.668379
30473		20.257220	-34.037489	-17.479349
30474		19.740546	-34.064636	-17.304164
30475		19.224029	-34.097803	-17.135379
30476		18.724506	-34.135412	-16.960683
30477		18.238633	-34.166506	-16.768842
30478		17.758313	-34.183188	-16.546531
30479		17.266695	-34.182973	-16.291237
30480		16.760409	-34.162179	-15.998008
30481		16.256669	-34.116341	-15.693839
30482		15.765458	-34.059934	-15.404189
30483		15.294723	-34.004826	-15.135618
30484		14.843821	-33.940983	-14.893866
30485		14.424922	-33.875420	-14.662835
30486		14.023115	-33.806578	-14.420387
30487		13.623997	-33.736931	-14.154092
30488		13.207423	-33.665474	-13.842476
30489		12.743161	-33.580755	-13.478967
30490		12.246713	-33.464553	-13.070388
30491		11.744811	-33.312673	-12.633149
30492		11.268903	-33.117269	-12.221900
30493		10.854887	-32.887888	-11.884900
30494		10.519169	-32.652853	-11.649646
30495		10.216350	-32.456043	-11.539226
30496		9.848991	-32.316047	-11.510898
30497		9.395742	-32.240528	-11.523391
30498		8.894151	-32.217787	-11.545560
30499		8.402456	-32.221816	-11.563117
30500		7.969827	-32.246113	-11.564475
30501		7.607476	-32.281483	-11.549342
30502		7.313990	-32.321439	-11.506635
30503		7.102092	-32.367437	-11.442207
30504		6.941624	-32.415911	-11.358288
30505		6.819257	-32.457069	-11.275666
30506		6.712024	-32.498733	-11.213495
30507		6.578166	-32.537035	-11.165038
30508		6.417845	-32.578312	-11.124363
30509		6.243977	-32.604273	-11.091256
30510		6.083516	-32.599632	-11.059941
30511		5.967554	-32.556490	-11.028881
30512		5.874360	-32.476064	-11.001025
30513		5.807727	-32.367382	-10.964495
30514		5.745987	-32.264176	-10.935784
30515		5.674179	-32.165071	-10.914569
30516		5.576266	-32.069427	-10.905135
30517		5.472739	-31.979359	-10.902982
30518		5.374384	-31.888670	-10.907564
30519		5.309036	-31.788590	-10.909251
30520		5.295474	-31.688309	-10.901910
30521		5.319730	-31.591515	-10.884503
30522		5.356865	-31.512821	-10.861389
30523		5.365290	-31.457662	-10.843401
30524		5.331937	-31.424991	-10.825023
30525		5.280965	-31.409662	-10.814892
30526		5.242329	-31.395836	-10.815041
30527		5.237174	-31.376941	-10.821822
30528		5.256860	-31.345525	-10.831480
30529		5.291604	-31.310251	-10.846970
30530		5.324899	-31.269425	-10.868289
30531		5.344209	-31.229859	-10.887019
30532		5.343996	-31.193616	-10.896482
30533		5.324463	-31.168793	-10.902801
30534		5.300468	-31.149371	-10.907097
30535		5.294788	-31.134873	-10.910060
30536		5.305502	-31.119591	-10.915280
30537		5.334113	-31.106093	-10.915411
30538		5.368679	-31.104960	-10.914059
30539		5.387083	-31.108559	-10.923823
30540		5.383813	-31.107504	-10.941983
30541		5.385562	-31.102452	-10.960259
30542		5.411888	-31.096704	-10.969976
30543		5.436291	-31.099395	-10.970310
30544		5.423878	-31.103431	-10.969611
30545		5.394480	-31.116024	-10.974084
30546		5.361864	-31.135768	-10.982276
30547		5.347189	-31.161300	-10.987246
30548		5.355746	-31.196055	-10.991429
30549		5.373080	-31.237819	-10.995591
30550		5.391849	-31.279560	-11.001260
30551		5.421964	-31.324493	-10.999453
30552		5.458232	-31.362815	-11.000189
30553		5.494525	-31.377992	-11.002933
30554		5.524844	-31.373129	-11.010717
30555		5.552333	-31.351372	-11.025225
30556		5.590215	-31.323827	-11.038939
30557		5.620836	-31.312596	-11.051830
30558		5.617527	-31.314382	-11.064626
30559		5.613014	-31.330104	-11.085417
30560		5.624072	-31.346859	-11.098291
30561		5.665341	-31.363838	-11.097176
30562		5.751960	-31.411067	-11.080892
30563		5.883544	-31.493484	-11.059446
30564		6.040781	-31.595497	-11.047406
30565		6.220999	-31.692403	-11.044426
30566		6.431016	-31.764787	-11.049062
30567		6.668852	-31.804754	-11.067583
30568		6.938077	-31.813494	-11.094752
30569		7.276487	-31.790463	-11.127862
30570		7.739081	-31.719483	-11.172858
30571		8.393196	-31.588366	-11.231014
30572		9.251339	-31.397452	-11.294440
30573		10.250215	-31.157841	-11.355062
30574		11.290161	-30.881052	-11.405002
30575		12.268660	-30.570144	-11.424326
30576		13.134628	-30.256756	-11.416863
30577		13.922035	-29.946522	-11.387629
30578		14.662756	-29.630594	-11.356500
30579		15.422835	-29.313091	-11.324134
30580		16.234500	-29.001237	-11.295422
30581		17.111344	-28.692363	-11.281930
30582		18.075228	-28.392476	-11.278958
30583		19.145173	-28.105185	-11.286412
30584		20.311228	-27.836312	-11.292145
30585		21.554908	-27.572009	-11.281565
30586		22.861723	-27.308229	-11.259979
30587		24.196493	-27.043576	-11.235874
30588		25.503511	-26.799748	-11.213584
30589		26.729504	-26.576629	-11.191543
30590		27.867878	-26.378360	-11.176196
30591		28.936682	-26.199562	-11.186373
30592		29.962368	-26.041549	-11.234800
30593		30.959485	-25.897155	-11.311895
30594		31.934247	-25.760236	-11.409154
30595		32.908379	-25.629945	-11.528158
30596		33.915370	-25.499550	-11.667529
30597		34.979180	-25.365759	-11.824469
30598		36.118026	-25.235604	-11.999769
30599		37.332631	-25.104998	-12.195245
30600		38.591995	-24.966722	-12.404519
30601		39.863988	-24.826163	-12.624374
30602		41.132693	-24.686192	-12.850819
30603		42.369040	-24.538303	-13.074057
30604		43.567119	-24.377580	-13.286481
30605		44.741693	-24.212250	-13.493794
30606		45.894282	-24.036436	-13.701397
30607		47.054719	-23.859942	-13.921994
30608		48.267400	-23.698805	-14.197178
30609		49.541768	-23.566343	-14.504395
30610		50.872085	-23.448167	-14.836786
30611		52.240785	-23.317679	-15.165539
30612		53.596351	-23.161576	-15.452570
30613		54.896636	-22.968068	-15.673366
30614		56.161183	-22.750246	-15.826218
30615		57.406639	-22.514365	-15.939657
30616		58.673941	-22.258380	-16.034787
30617		60.004161	-21.987705	-16.109314
30618		61.425718	-21.708035	-16.178493
30619		62.937656	-21.435474	-16.262518
30620		64.518493	-21.159934	-16.360514
30621		66.110251	-20.871260	-16.450986
30622		67.647622	-20.558007	-16.504275
30623		69.083076	-20.227953	-16.506467
30624		70.409019	-19.892870	-16.447248
30625		71.645433	-19.558406	-16.329846
30626		72.871651	-19.231718	-16.137129
30627		74.141371	-18.915678	-15.891114
30628		75.463701	-18.596770	-15.602318
30629		76.842917	-18.254971	-15.258503
30630		78.277777	-17.887269	-14.888802
30631		79.732449	-17.488578	-14.513308
30632		81.119554	-17.072368	-14.139874
30633		82.360306	-16.672160	-13.817045
30634		83.372729	-16.308685	-13.581722
30635		84.150026	-16.010388	-13.430253
30636		84.761963	-15.777165	-13.346310
30637		85.309994	-15.597939	-13.293842
30638		85.882445	-15.448523	-13.239923
30639		86.530725	-15.298498	-13.162180
30640		87.253080	-15.132176	-13.030604
30641		88.029619	-14.933173	-12.844952
30642		88.826373	-14.692265	-12.602947
30643		89.625795	-14.428052	-12.333447
30644		90.354718	-14.156494	-12.071484
30645		90.964393	-13.903635	-11.849416
30646		91.449726	-13.677053	-11.665572
30647		91.873552	-13.475716	-11.518156
30648		92.280152	-13.294516	-11.391778
30649		92.710081	-13.123944	-11.262210
30650		93.238003	-12.965514	-11.101484
30651		93.888034	-12.809483	-10.903380
30652		94.619374	-12.635263	-10.650250
30653		95.392695	-12.446434	-10.352348
30654		96.148718	-12.246166	-10.056480
30655		96.786851	-12.040647	-9.809221
30656		97.264695	-11.847288	-9.604954
30657		97.608965	-11.675994	-9.451240
30658		97.888534	-11.532312	-9.336034
30659		98.190290	-11.424592	-9.246243
30660		98.565356	-11.332494	-9.167622
30661		99.030058	-11.244345	-9.078825
30662		99.576689	-11.142031	-8.967420
30663		100.188750	-11.024526	-8.832029
30664		100.857611	-10.898257	-8.696335
30665		101.539190	-10.765600	-8.598647
30666		102.186994	-10.626343	-8.547669
30667		102.792303	-10.483783	-8.575555
30668		103.351517	-10.345292	-8.676373
30669		103.895690	-10.193873	-8.857718
30670		104.450143	-10.028787	-9.098156
30671		105.045314	-9.847167	-9.339946
30672		105.678408	-9.644335	-9.570811
30673		106.284754	-9.431574	-9.740697
30674		106.823366	-9.225442	-9.812244
30675		107.300028	-9.014594	-9.818101
30676		107.717458	-8.810963	-9.791593
30677		108.069380	-8.630749	-9.739934
30678		108.373548	-8.476991	-9.704806
30679		108.648982	-8.351694	-9.702539
30680		108.923853	-8.262676	-9.737563
30681		109.208399	-8.189422	-9.811596
30682		109.485175	-8.118719	-9.906674
30683		109.723752	-8.035230	-9.993022
30684		109.909990	-7.946380	-10.045693
30685		110.043399	-7.855538	-10.042328
30686		110.167241	-7.769869	-9.949331
30687		110.324051	-7.680133	-9.771884
30688		110.542609	-7.578426	-9.526916
30689		110.857928	-7.461288	-9.259081
30690		111.237052	-7.325928	-9.007483
30691		111.637632	-7.178396	-8.797141
30692		112.028986	-7.020222	-8.622324
30693		112.393250	-6.858789	-8.478724
30694		112.718643	-6.702630	-8.338491
30695		113.027202	-6.560414	-8.179193
30696		113.311522	-6.426153	-7.992655
30697		113.585545	-6.303712	-7.766915
30698		113.856811	-6.187826	-7.505670
30699		114.121538	-6.072972	-7.232731
30700		114.412803	-5.964904	-6.970731
30701		114.733922	-5.861733	-6.754841
30702		115.028174	-5.768707	-6.598700
30703		115.261705	-5.692859	-6.520748
30704		115.410143	-5.643141	-6.522001
30705		115.469454	-5.629001	-6.593527
30706		115.464242	-5.640394	-6.698696
30707		115.428147	-5.683556	-6.799927
30708		115.377064	-5.741241	-6.880086
30709		115.339429	-5.808863	-6.913435
30710		115.350419	-5.878427	-6.893424
30711		115.419852	-5.931740	-6.842303
30712		115.522172	-5.960547	-6.788207
30713		115.627610	-5.963367	-6.739729
30714		115.690888	-5.955729	-6.707144
30715		115.713078	-5.936921	-6.695652
30716		115.708521	-5.924996	-6.702711
30717		115.693267	-5.923271	-6.704617
30718		115.674024	-5.924779	-6.687298
30719		115.661866	-5.923926	-6.654405
30720		115.647973	-5.924392	-6.609965
30721		115.639150	-5.926556	-6.561575
30722		115.627594	-5.925945	-6.522106
30723		115.624621	-5.913213	-6.504323
30724		115.629534	-5.892608	-6.514401
30725		115.628509	-5.875449	-6.541058
30726		115.613809	-5.869433	-6.567897
30727		115.587422	-5.878805	-6.576893
30728		115.548413	-5.884355	-6.558830
30729		115.510355	-5.880897	-6.524577
30730		115.482180	-5.867215	-6.490948
30731		115.448905	-5.861895	-6.469143
30732		115.388971	-5.864553	-6.456761
30733		115.313446	-5.871321	-6.450716
30734		115.246499	-5.879804	-6.455949
30735		115.181589	-5.889002	-6.471052
30736		115.102344	-5.909615	-6.485508
30737		114.995267	-5.940185	-6.504132
30738		114.841937	-5.972383	-6.517703
30739		114.652946	-6.007534	-6.524474
30740		114.464982	-6.049968	-6.535836
30741		114.272292	-6.106517	-6.550598
30742		114.051262	-6.176302	-6.570609
30743		113.789750	-6.250086	-6.613417
30744		113.500440	-6.334146	-6.686368
30745		113.186281	-6.426203	-6.792041
30746		112.854211	-6.525175	-6.924104
30747		112.493675	-6.623115	-7.066249
30748		112.112258	-6.721129	-7.198272
30749		111.725670	-6.822555	-7.308871
30750		111.330845	-6.925007	-7.388117
30751		110.935578	-7.018393	-7.436663
30752		110.567878	-7.101957	-7.466878
30753		110.246465	-7.185081	-7.485670
30754		109.974293	-7.263752	-7.497258
30755		109.751314	-7.339994	-7.516478
30756		109.596185	-7.405284	-7.561800
30757		109.491724	-7.453081	-7.621752
30758		109.404633	-7.476751	-7.684962
30759		109.335588	-7.486040	-7.737196
30760		109.284551	-7.483399	-7.768243
30761		109.253108	-7.476620	-7.776729
30762		109.241690	-7.459168	-7.751656
30763		109.244299	-7.443346	-7.687539
30764		109.251837	-7.424529	-7.589717
30765		109.270742	-7.406358	-7.464435
30766		109.300423	-7.388270	-7.318316
30767		109.338814	-7.367417	-7.169889
30768		109.383661	-7.333801	-7.034499
30769		109.431198	-7.300413	-6.924872
30770		109.482665	-7.261682	-6.846577
30771		109.540717	-7.229924	-6.806243
30772		109.586092	-7.206086	-6.796040
30773		109.599386	-7.193281	-6.810584
30774		109.567046	-7.186249	-6.841271
30775		109.509080	-7.184342	-6.873986
30776		109.460468	-7.188989	-6.895608
30777		109.433184	-7.195316	-6.906256
30778		109.405825	-7.192153	-6.902402
30779		109.374785	-7.188355	-6.882379
30780		109.338748	-7.180281	-6.852270
30781		109.286953	-7.168640	-6.825865
30782		109.213509	-7.160186	-6.816840
30783		109.105172	-7.154746	-6.838269
30784		108.932582	-7.157034	-6.892362
30785		108.697784	-7.175684	-6.984053
30786		108.398337	-7.202827	-7.097304
30787		108.048065	-7.245465	-7.212392
30788		107.668370	-7.297760	-7.312439
30789		107.278960	-7.355800	-7.380667
30790		106.878351	-7.412889	-7.406525
30791		106.484152	-7.469222	-7.382161
30792		106.088217	-7.523302	-7.314800
30793		105.668428	-7.571277	-7.215527
30794		105.214578	-7.620921	-7.101599
30795		104.698525	-7.683861	-6.993615
30796		104.098697	-7.764625	-6.910165
30797		103.410238	-7.872563	-6.858383
30798		102.623533	-8.016534	-6.839156
30799		101.715776	-8.194395	-6.856677
30800		100.698389	-8.395619	-6.901895
30801		99.606471	-8.614341	-6.982968
30802		98.460089	-8.846600	-7.090931
30803		97.270044	-9.089935	-7.211153
30804		96.062758	-9.347447	-7.338159
30805		94.853666	-9.608565	-7.472371
30806		93.654977	-9.868829	-7.612997
30807		92.455329	-10.125498	-7.769094
30808		91.232558	-10.380715	-7.928544
30809		90.007108	-10.639672	-8.096536
30810		88.812108	-10.894478	-8.252740
30811		87.667498	-11.138394	-8.386098
30812		86.587950	-11.367551	-8.499445
30813		85.561546	-11.573466	-8.601500
30814		84.587599	-11.758714	-8.679502
30815		83.659219	-11.928255	-8.730514
30816		82.781065	-12.081027	-8.750908
30817		81.953659	-12.205782	-8.738019
30818		81.197166	-12.297594	-8.699033
30819		80.510346	-12.358071	-8.641023
30820		79.890614	-12.395939	-8.565487
30821		79.351526	-12.414386	-8.485721
30822		78.886870	-12.418264	-8.409753
30823		78.494356	-12.410111	-8.346934
30824		78.165594	-12.395057	-8.298172
30825		77.896087	-12.382999	-8.270383
30826		77.663705	-12.373132	-8.287134
30827		77.441615	-12.364971	-8.343787
30828		77.220553	-12.362510	-8.447668
30829		77.009240	-12.366712	-8.590148
30830		76.802056	-12.376591	-8.748937
30831		76.586501	-12.392024	-8.906384
30832		76.359629	-12.408695	-9.041652
30833		76.115899	-12.419954	-9.150032
30834		75.838373	-12.424684	-9.228212
30835		75.524652	-12.418555	-9.294379
30836		75.167830	-12.411837	-9.359712
30837		74.764935	-12.410034	-9.432777
30838		74.321508	-12.418192	-9.515469
30839		73.832894	-12.442724	-9.616317
30840		73.291511	-12.477696	-9.740284
30841		72.699662	-12.538765	-9.879664
30842		72.041383	-12.615793	-10.032831
30843		71.321407	-12.713917	-10.194468
30844		70.545249	-12.830570	-10.371406
30845		69.703983	-12.971080	-10.558662
30846		68.801709	-13.144124	-10.773780
30847		67.841614	-13.359051	-11.036032
30848		66.829420	-13.611253	-11.338702
30849		65.785634	-13.907251	-11.699962
30850		64.673658	-14.249786	-12.123901
30851		63.465158	-14.635402	-12.629373
30852		62.119158	-15.077611	-13.213907
30853		60.630986	-15.587746	-13.858750
30854		59.002277	-16.156154	-14.531599
30855		57.289206	-16.767517	-15.181227
30856		55.557718	-17.415377	-15.770622
30857		53.846414	-18.102833	-16.301377
30858		52.152340	-18.797688	-16.765573
30859		50.510597	-19.483615	-17.129917
30860		48.899626	-20.131566	-17.396087
30861		47.284534	-20.725746	-17.584448
30862		45.683220	-21.247360	-17.696877
30863		44.111951	-21.676792	-17.750482
30864		42.627360	-22.049169	-17.764116
30865		41.221097	-22.391761	-17.749636
30866		39.861018	-22.744239	-17.711955
30867		38.502407	-23.159281	-17.650584
30868		37.097675	-23.657515	-17.567803
30869		35.664103	-24.230056	-17.457339
30870		34.208418	-24.865260	-17.367483
30871		32.727656	-25.507661	-17.313404
30872		31.275306	-26.124269	-17.288697
30873		29.878503	-26.708745	-17.291461
30874		28.511451	-27.231965	-17.294343
30875		27.194769	-27.683463	-17.298080
30876		25.952332	-28.059471	-17.277918
30877		24.799560	-28.364148	-17.217986
30878		23.739254	-28.622036	-17.108118
30879		22.736679	-28.847524	-16.955994
30880		21.759156	-29.037655	-16.738528
30881		20.807843	-29.204275	-16.491103
30882		19.876590	-29.337772	-16.222483
30883		18.990516	-29.438184	-15.968838
30884		18.151669	-29.516577	-15.734206
30885		17.339034	-29.581540	-15.514658
30886		16.530365	-29.624582	-15.296853
30887		15.735298	-29.648888	-15.063487
30888		14.951982	-29.656058	-14.811314
30889		14.205590	-29.640513	-14.548480
30890		13.528194	-29.598777	-14.277804
30891		12.933623	-29.530604	-14.017136
30892		12.420730	-29.445837	-13.754342
30893		11.959352	-29.358950	-13.482737
30894		11.525301	-29.283757	-13.196021
30895		11.112077	-29.214049	-12.899334
30896		10.723581	-29.148290	-12.608744
30897		10.365667	-29.086600	-12.351128
30898		10.018380	-29.021752	-12.130627
30899		9.699413	-28.952008	-11.955165
30900		9.394877	-28.885999	-11.823388
30901		9.103772	-28.834726	-11.731301
30902		8.822482	-28.807722	-11.663799
30903		8.560351	-28.808447	-11.608877
30904		8.308249	-28.840233	-11.550072
30905		8.039458	-28.903183	-11.496853
30906		7.750331	-28.975226	-11.432074
30907		7.484113	-29.058625	-11.362883
30908		7.239012	-29.144702	-11.287633
30909		7.024085	-29.216768	-11.206395
30910		6.849729	-29.277937	-11.127694
30911		6.706927	-29.334642	-11.063415
30912		6.559755	-29.402205	-11.006919
30913		6.399320	-29.499468	-10.961457
30914		6.208776	-29.623018	-10.926361
30915		5.995167	-29.759040	-10.898302
30916		5.771399	-29.895704	-10.865586
30917		5.542011	-30.012578	-10.826662
30918		5.332902	-30.093945	-10.779741
30919		5.164210	-30.144377	-10.731652
30920		5.024305	-30.160526	-10.684679
30921		4.913999	-30.173493	-10.647189
30922		4.807927	-30.194625	-10.606254
30923		4.689895	-30.234096	-10.563456
30924		4.527909	-30.302966	-10.515116
30925		4.308232	-30.394228	-10.468026
30926		4.019670	-30.494270	-10.420877
30927		3.696898	-30.599401	-10.377450
30928		3.365293	-30.695077	-10.334053
30929		3.085624	-30.780538	-10.290479
30930		2.888218	-30.851213	-10.236516
30931		2.769214	-30.919393	-10.180539
30932		2.694172	-30.978310	-10.112604
30933		2.636861	-31.037953	-10.045895
30934		2.552666	-31.100144	-9.975789
30935		2.417440	-31.174457	-9.907220
30936		2.245990	-31.252041	-9.832657
30937		2.095052	-31.313680	-9.750993
30938		1.993926	-31.348752	-9.665645
30939		1.952848	-31.362716	-9.573057
30940		1.956365	-31.366082	-9.480820
30941		1.983111	-31.362924	-9.400875
30942		2.002392	-31.350823	-9.330378
30943		2.001622	-31.328772	-9.271160
30944		1.990313	-31.296646	-9.220537
30945		1.986830	-31.259803	-9.190344
30946		1.995287	-31.217617	-9.177955
30947		2.006711	-31.196197	-9.180660
30948		1.999009	-31.190779	-9.187786
30949		1.990385	-31.206382	-9.186506
30950		1.997746	-31.246390	-9.177761
30951		2.015596	-31.295213	-9.159304
30952		2.052179	-31.341785	-9.134119
30953		2.108085	-31.383207	-9.111895
30954		2.164077	-31.413705	-9.095125
30955		2.241396	-31.438300	-9.075868
30956		2.332924	-31.463692	-9.049833
30957		2.402244	-31.498348	-9.019577
30958		2.432433	-31.546296	-8.990933
30959		2.444402	-31.598087	-8.972157
30960		2.463127	-31.642140	-8.960188
30961		2.508044	-31.674795	-8.956849
30962		2.566153	-31.686569	-8.959889
30963		2.648566	-31.675606	-8.966844
30964		2.753784	-31.646419	-8.970601
30965		2.842830	-31.615852	-8.966644
30966		2.891828	-31.591242	-8.961841
30967		2.927189	-31.582957	-8.961283
30968		2.955351	-31.585016	-8.958249
30969		2.980112	-31.591903	-8.960767
30970		3.000731	-31.593299	-8.967952
30971		3.035329	-31.583422	-8.978258
30972		3.085591	-31.571554	-8.987421
30973		3.117394	-31.555812	-8.991325
30974		3.116289	-31.538869	-8.989255
30975		3.108074	-31.527671	-8.992186
30976		3.110202	-31.521034	-8.993769
30977		3.125892	-31.526506	-8.990731
30978		3.146665	-31.540943	-8.983043
30979		3.188401	-31.556388	-8.982347
30980		3.253975	-31.568842	-8.988471
30981		3.362901	-31.569162	-9.021656
30982		3.492513	-31.568082	-9.093343
30983		3.577357	-31.561153	-9.173000
30984		3.603136	-31.556056	-9.250508
30985		3.610091	-31.544921	-9.321244
30986		3.625604	-31.529820	-9.391691
30987		3.666552	-31.502585	-9.444143
30988		3.722799	-31.476250	-9.477190
30989		3.793513	-31.458649	-9.497652
30990		3.863746	-31.442208	-9.508853
30991		3.947211	-31.425389	-9.521276
30992		4.053542	-31.402755	-9.537104
30993		4.177520	-31.383122	-9.564129
30994		4.294320	-31.372423	-9.589332
30995		4.384155	-31.373896	-9.606903
30996		4.452010	-31.383511	-9.614556
30997		4.520835	-31.390116	-9.624309
30998		4.615792	-31.391961	-9.637840
30999		4.749058	-31.387001	-9.654849
31000		4.919430	-31.382659	-9.668298
31001		5.134392	-31.382179	-9.687145
31002		5.369357	-31.391344	-9.705267
31003		5.619583	-31.402051	-9.726024
31004		5.897839	-31.416901	-9.748330
31005		6.189054	-31.430652	-9.769615
31006		6.457782	-31.438576	-9.787422
31007		6.702430	-31.441227	-9.804294
31008		6.933185	-31.449228	-9.814961
31009		7.170243	-31.467820	-9.828482
31010		7.396353	-31.482787	-9.842045
31011		7.649735	-31.495778	-9.859967
31012		7.960504	-31.516501	-9.883321
31013		8.349272	-31.546380	-9.911581
31014		8.817759	-31.599530	-9.943653
31015		9.355798	-31.673169	-9.983223
31016		9.941075	-31.754940	-10.040466
31017		10.551892	-31.842131	-10.136873
31018		11.168701	-31.932740	-10.271304
31019		11.813798	-32.012794	-10.470838
31020		12.532962	-32.076347	-10.748718
31021		13.366574	-32.124999	-11.095337
31022		14.334665	-32.142136	-11.481583
31023		15.428697	-32.135395	-11.892733
31024		16.634648	-32.107212	-12.321253
31025		17.924509	-32.085097	-12.762333
31026		19.252086	-32.093975	-13.202344
31027		20.594069	-32.148671	-13.645261
31028		21.929740	-32.224699	-14.092422
31029		23.234453	-32.292784	-14.555361
31030		24.465271	-32.319671	-15.015508
31031		25.597294	-32.320979	-15.461104
31032		26.643009	-32.315130	-15.885763
31033		27.627789	-32.301546	-16.295907
31034		28.618845	-32.261723	-16.708765
31035		29.698670	-32.194734	-17.156968
31036		30.896968	-32.085103	-17.615383
31037		32.210493	-31.932784	-18.056461
31038		33.618390	-31.746559	-18.454467
31039		35.080028	-31.534670	-18.814731
31040		36.551626	-31.285681	-19.125885
31041		38.032504	-30.992689	-19.393254
31042		39.522439	-30.663961	-19.626613
31043		40.993704	-30.307987	-19.835775
31044		42.443176	-29.937327	-20.012981
31045		43.871053	-29.583393	-20.174049
31046		45.280022	-29.241055	-20.310126
31047		46.675954	-28.906938	-20.436233
31048		48.061084	-28.568974	-20.549029
31049		49.441865	-28.230798	-20.643744
31050		50.810440	-27.894473	-20.714450
31051		52.148792	-27.561907	-20.765946
31052		53.449025	-27.234154	-20.805235
31053		54.704364	-26.907408	-20.843922
31054		55.913392	-26.587831	-20.870775
31055		57.072137	-26.257838	-20.892160
31056		58.208443	-25.907434	-20.933141
31057		59.370639	-25.543020	-21.007794
31058		60.563665	-25.161481	-21.104066
31059		61.788378	-24.767095	-21.188301
31060		63.011119	-24.349505	-21.240878
31061		64.200764	-23.895479	-21.249054
31062		65.359940	-23.403911	-21.201671
31063		66.516741	-22.885788	-21.096087
31064		67.679039	-22.350544	-20.943917
31065		68.852707	-21.812294	-20.747751
31066		70.027451	-21.279496	-20.525437
31067		71.210450	-20.770336	-20.308882
31068		72.398569	-20.265962	-20.107360
31069		73.629188	-19.760194	-19.892009
31070		74.912254	-19.256353	-19.678397
31071		76.217883	-18.748970	-19.464320
31072		77.516732	-18.253947	-19.246906
31073		78.780441	-17.781672	-19.020579
31074		79.983866	-17.326276	-18.782715
31075		81.151980	-16.889909	-18.522590
31076		82.315086	-16.469871	-18.261601
31077		83.445823	-16.056607	-18.011504
31078		84.538513	-15.664934	-17.755820
31079		85.598373	-15.301340	-17.519034
31080		86.613716	-14.965053	-17.278643
31081		87.562703	-14.654059	-17.004138
31082		88.435274	-14.359626	-16.693304
31083		89.228046	-14.067870	-16.351168
31084		89.963888	-13.780651	-15.973737
31085		90.663789	-13.496757	-15.561918
31086		91.347985	-13.223807	-15.115319
31087		92.034305	-12.963081	-14.650170
31088		92.735952	-12.699673	-14.160192
31089		93.506658	-12.439776	-13.650506
31090		94.359285	-12.176885	-13.166642
31091		95.266373	-11.906214	-12.714205
31092		96.174717	-11.625027	-12.298326
31093		97.055981	-11.340394	-11.924674
31094		97.888071	-11.066419	-11.577398
31095		98.674242	-10.813537	-11.261825
31096		99.435176	-10.587015	-10.985391
31097		100.200538	-10.395569	-10.763230
31098		100.986249	-10.221646	-10.620699
31099		101.810775	-10.039193	-10.556069
31100		102.653341	-9.818516	-10.548199
31101		103.468054	-9.549010	-10.567388
31102		104.210030	-9.252556	-10.588127
31103		104.858209	-8.947651	-10.605117
31104		105.395733	-8.649769	-10.632337
31105		105.857221	-8.385050	-10.676727
31106		106.275421	-8.166226	-10.749955
31107		106.693154	-7.998981	-10.850776
31108		107.125508	-7.871969	-10.971893
31109		107.561362	-7.768200	-11.103150
31110		107.962082	-7.677829	-11.228114
31111		108.318990	-7.595919	-11.339912
31112		108.645860	-7.520163	-11.439285
31113		108.973909	-7.431776	-11.516656
31114		109.326701	-7.327713	-11.543438
31115		109.717394	-7.206758	-11.525733
31116		110.153620	-7.075318	-11.481052
31117		110.592192	-6.940967	-11.421502
31118		110.982543	-6.811202	-11.358267
31119		111.318671	-6.686439	-11.299457
31120		111.588796	-6.574931	-11.238828
31121		111.811746	-6.475851	-11.180602
31122		112.014356	-6.400138	-11.116606
31123		112.195464	-6.331339	-11.058854
31124		112.326156	-6.257293	-11.007208
31125		112.420718	-6.184751	-10.962113
31126		112.504551	-6.113632	-10.929331
31127		112.588430	-6.050048	-10.903896
31128		112.695034	-5.987582	-10.864445
31129		112.855643	-5.922211	-10.792706
31130		113.063926	-5.831756	-10.680471
31131		113.277200	-5.720855	-10.522910
31132		113.477478	-5.598797	-10.329532
31133		113.654243	-5.479359	-10.129855
31134		113.786950	-5.367235	-9.945730
31135		113.861425	-5.263954	-9.797526
31136		113.881026	-5.184489	-9.690190
31137		113.850685	-5.132053	-9.628523
31138		113.796204	-5.103159	-9.606107
31139		113.753462	-5.096634	-9.621120
31140		113.706649	-5.086218	-9.658110
31141		113.658073	-5.063606	-9.690203
31142		113.622848	-5.030179	-9.706798
31143		113.596349	-4.989569	-9.698676
31144		113.566907	-4.951959	-9.661218
31145		113.528144	-4.909345	-9.601740
31146		113.452999	-4.856448	-9.522616
31147		113.370261	-4.813522	-9.445810
31148		113.292578	-4.787663	-9.394921
31149		113.209822	-4.783557	-9.377796
31150		113.110537	-4.785605	-9.392519
31151		113.012373	-4.791067	-9.437521
31152		112.920363	-4.809465	-9.498578
31153		112.828170	-4.840906	-9.558711
31154		112.734343	-4.879896	-9.594914
31155		112.648010	-4.905202	-9.607718
31156		112.592059	-4.912257	-9.603441
31157		112.573628	-4.906096	-9.592981
31158		112.566359	-4.900775	-9.569201
31159		112.562750	-4.891195	-9.536121
31160		112.547479	-4.882639	-9.500074
31161		112.512474	-4.865619	-9.476312
31162		112.472601	-4.856329	-9.473099
31163		112.427048	-4.851440	-9.477430
31164		112.373145	-4.854090	-9.490449
31165		112.313255	-4.859255	-9.513981
31166		112.248048	-4.874965	-9.547731
31167		112.180649	-4.901038	-9.587310
31168		112.118733	-4.932684	-9.618883
31169		112.052790	-4.959837	-9.645500
31170		111.981467	-4.980762	-9.666413
31171		111.920280	-5.004453	-9.692410
31172		111.861897	-5.033651	-9.724239
31173		111.796454	-5.066362	-9.748864
31174		111.717787	-5.095255	-9.772147
31175		111.625395	-5.123648	-9.797463
31176		111.521484	-5.159604	-9.823351
31177		111.402817	-5.199204	-9.839846
31178		111.272328	-5.244981	-9.854600
31179		111.139499	-5.301181	-9.866003
31180		111.008441	-5.363119	-9.870742
31181		110.869785	-5.430340	-9.861840
31182		110.712703	-5.499953	-9.836477
31183		110.544764	-5.565411	-9.803275
31184		110.374571	-5.620007	-9.767698
31185		110.211084	-5.666985	-9.743235
31186		110.066334	-5.709493	-9.733283
31187		109.938235	-5.753958	-9.744778
31188		109.813643	-5.794643	-9.768983
31189		109.684910	-5.823997	-9.800980
31190		109.544327	-5.844391	-9.829903
31191		109.405166	-5.868902	-9.847769
31192		109.266120	-5.900159	-9.850735
31193		109.121687	-5.938069	-9.828886
31194		108.965044	-5.967435	-9.790853
31195		108.799490	-5.995129	-9.739477
31196		108.631331	-6.025292	-9.683620
31197		108.470465	-6.059132	-9.633534
31198		108.321821	-6.088477	-9.590916
31199		108.175857	-6.108237	-9.565598
31200		108.013284	-6.125630	-9.552405
31201		107.823860	-6.154668	-9.555823
31202		107.580337	-6.216430	-9.599532
31203		107.193911	-6.298310	-9.731797
31204		106.650966	-6.425708	-9.938403
31205		105.982830	-6.595722	-10.225218
31206		105.248546	-6.811021	-10.569715
31207		104.480333	-7.062253	-10.945602
31208		103.720811	-7.332047	-11.341648
31209		103.001714	-7.606525	-11.747602
31210		102.307062	-7.877243	-12.137228
31211		101.635854	-8.136919	-12.495152
31212		100.981254	-8.387632	-12.807723
31213		100.367557	-8.627680	-13.073744
31214		99.810682	-8.854198	-13.304392
31215		99.296863	-9.067525	-13.508231
31216		98.777519	-9.264745	-13.692405
31217		98.245263	-9.448500	-13.856144
31218		97.659171	-9.629902	-14.025906
31219		97.020239	-9.830477	-14.204274
31220		96.330008	-10.057101	-14.411991
31221		95.591151	-10.310489	-14.660854
31222		94.792350	-10.589166	-14.947097
31223		93.930523	-10.901855	-15.279487
31224		92.992030	-11.253581	-15.667874
31225		91.969636	-11.662078	-16.102915
31226		90.853707	-12.126484	-16.591037
31227		89.657521	-12.651017	-17.097788
31228		88.412769	-13.227217	-17.605321
31229		87.152443	-13.832800	-18.086830
31230		85.897869	-14.454871	-18.515022
31231		84.711086	-15.084093	-18.887413
31232		83.616973	-15.720717	-19.192053
31233		82.627620	-16.354613	-19.432757
31234		81.741653	-16.980364	-19.603246
31235		80.954635	-17.604019	-19.695350
31236		80.238870	-18.219271	-19.693620
31237		79.590582	-18.805318	-19.600126
31238		78.999724	-19.328592	-19.419146
31239		78.439904	-19.729393	-19.194150
31240		77.884209	-19.974335	-18.968864
31241		77.334029	-20.096597	-18.772242
31242		76.805794	-20.145702	-18.626967
31243		76.272088	-20.170768	-18.536714
31244		75.733564	-20.212174	-18.500499
31245		75.207488	-20.290696	-18.513601
31246		74.693626	-20.402365	-18.560558
31247		74.193331	-20.533025	-18.617143
31248		73.721435	-20.669280	-18.671927
31249		73.273244	-20.788821	-18.712481
31250		72.839382	-20.888458	-18.736100
31251		72.411277	-20.969075	-18.743475
31252		71.964804	-21.029140	-18.732581
31253		71.485155	-21.065854	-18.700155
31254		70.966996	-21.080447	-18.654856
31255		70.417775	-21.081363	-18.595897
31256		69.836624	-21.082375	-18.534671
31257		69.197674	-21.102119	-18.468614
31258		68.466890	-21.164597	-18.430531
31259		67.637617	-21.272447	-18.427385
31260		66.723569	-21.451059	-18.473453
31261		65.648016	-21.700297	-18.607519
31262		64.415886	-22.022431	-18.803446
31263		63.047488	-22.410005	-19.061654
31264		61.554500	-22.827988	-19.347449
31265		60.018777	-23.273941	-19.644377
31266		58.455525	-23.726546	-19.924406
31267		56.888193	-24.179202	-20.181176
31268		55.328125	-24.646214	-20.418103
31269		53.762296	-25.142628	-20.628352
31270		52.094917	-25.693206	-20.846618
31271		50.305360	-26.293386	-21.080320
31272		48.434012	-26.923708	-21.307317
31273		46.557112	-27.534896	-21.512542
31274		44.738320	-28.093782	-21.684448
31275		43.043173	-28.596512	-21.803165
31276		41.449651	-29.056082	-21.860755
31277		39.925198	-29.468548	-21.834087
31278		38.480805	-29.861752	-21.680004
31279		37.068539	-30.254163	-21.411172
31280		35.653424	-30.648787	-21.021810
31281		34.270674	-31.039694	-20.510595
31282		32.986496	-31.455720	-19.925145
31283		31.830786	-31.943033	-19.403318
31284		30.813468	-32.504997	-19.029074
31285		29.876413	-33.115656	-18.877285
31286		28.983860	-33.739593	-18.884181
31287		28.080086	-34.362992	-18.975924
31288		27.133792	-34.945792	-19.051385
31289		26.165619	-35.462543	-19.036587
31290		25.242011	-35.920365	-18.899259
31291		24.390202	-36.328988	-18.640485
31292		23.586269	-36.664215	-18.262144
31293		22.809862	-36.938046	-17.808039
31294		22.019567	-37.153075	-17.283237
31295		21.196074	-37.334693	-16.734829
31296		20.311810	-37.479728	-16.192584
31297		19.385308	-37.586612	-15.693665
31298		18.453766	-37.683990	-15.241503
31299		17.560669	-37.785853	-14.846848
31300		16.727307	-37.891264	-14.498682
31301		15.963736	-37.987959	-14.188905
31302		15.264854	-38.066308	-13.885434
31303		14.612838	-38.114093	-13.567336
31304		14.011129	-38.122677	-13.225519
31305		13.453573	-38.076988	-12.865774
31306		12.934939	-37.978949	-12.489758
31307		12.451517	-37.852859	-12.111083
31308		11.998414	-37.691325	-11.739095
31309		11.605843	-37.497809	-11.418276
31310		11.292653	-37.310775	-11.147609
31311		11.048733	-37.142151	-10.930255
31312		10.819949	-37.027292	-10.753182
31313		10.548378	-36.961575	-10.619676
31314		10.180059	-36.945734	-10.505787
31315		9.697153	-36.964622	-10.382409
31316		9.146814	-36.990914	-10.232888
31317		8.614282	-37.011869	-10.049669
31318		8.162294	-37.013685	-9.827210
31319		7.834459	-36.987858	-9.590381
31320		7.633466	-36.938933	-9.355214
31321		7.490322	-36.881287	-9.130496
31322		7.333323	-36.830947	-8.914620
31323		7.090739	-36.791748	-8.703295
31324		6.715990	-36.753086	-8.476942
31325		6.228268	-36.707432	-8.221798
31326		5.681534	-36.664862	-7.943726
31327		5.122310	-36.615533	-7.654808
31328		4.608825	-36.550626	-7.368453
31329		4.191591	-36.476944	-7.085485
31330		3.875356	-36.400398	-6.825876
31331		3.623573	-36.341518	-6.583077
31332		3.380716	-36.310449	-6.374144
31333		3.105646	-36.317459	-6.197222
31334		2.777826	-36.366225	-6.057218
31335		2.399855	-36.435658	-5.945461
31336		2.003678	-36.504358	-5.854730
31337		1.639582	-36.554842	-5.775147
31338		1.336542	-36.582793	-5.707095
31339		1.118498	-36.601819	-5.645968
31340		0.964246	-36.624712	-5.579081
31341		0.834461	-36.645948	-5.506595
31342		0.739877	-36.663285	-5.426337
31343		0.704467	-36.659213	-5.351111
31344		0.746875	-36.621494	-5.284193
31345		0.897901	-36.545349	-5.250274
31346		1.131604	-36.434847	-5.236272
31347		1.387219	-36.313135	-5.232187
31348		1.561410	-36.175071	-5.246309
31349		1.637743	-36.037503	-5.264443
31350		1.638350	-35.924750	-5.275550
31351		1.581986	-35.856623	-5.274242
31352		1.509127	-35.826966	-5.264300
31353		1.485215	-35.812002	-5.264277
31354		1.539777	-35.793467	-5.277203
31355		1.672272	-35.755852	-5.297922
31356		1.862685	-35.694314	-5.330417
31357		2.082754	-35.617131	-5.382746
31358		2.310658	-35.542685	-5.450489
31359		2.514867	-35.488296	-5.529632
31360		2.650403	-35.451673	-5.611308
31361		2.710370	-35.435636	-5.694076
31362		2.728253	-35.428765	-5.770093
31363		2.750355	-35.425577	-5.848360
31364		2.809068	-35.413860	-5.929383
31365		2.949500	-35.394155	-6.015164
31366		3.162091	-35.369318	-6.094453
31367		3.392827	-35.353525	-6.160398
31368		3.570587	-35.352652	-6.219389
31369		3.663847	-35.361351	-6.272643
31370		3.692523	-35.378547	-6.312853
31371		3.711205	-35.392275	-6.341525
31372		3.748046	-35.413178	-6.360432
31373		3.785062	-35.437389	-6.379690
31374		3.787823	-35.459528	-6.396867
31375		3.772317	-35.484612	-6.407612
31376		3.747290	-35.517023	-6.411576
31377		3.702931	-35.557997	-6.413397
31378		3.649999	-35.596365	-6.412728
31379		3.623437	-35.653626	-6.414006
31380		3.594430	-35.723014	-6.423761
31381		3.567366	-35.786681	-6.437827
31382		3.580703	-35.842169	-6.456982
31383		3.653768	-35.871718	-6.480398
31384		3.799164	-35.862960	-6.497785
31385		4.014284	-35.828785	-6.505172
31386		4.217349	-35.795493	-6.515145
31387		4.328975	-35.763857	-6.527700
31388		4.369267	-35.742762	-6.547353
31389		4.391098	-35.726466	-6.573825
31390		4.419358	-35.699507	-6.599354
31391		4.461290	-35.674832	-6.626928
31392		4.479415	-35.659934	-6.665267
31393		4.471332	-35.649007	-6.707197
31394		4.471913	-35.647279	-6.750669
31395		4.496369	-35.645473	-6.790750
31396		4.563430	-35.634530	-6.821701
31397		4.674389	-35.618100	-6.849962
31398		4.790091	-35.596944	-6.875492
31399		4.894621	-35.583697	-6.901152
31400		4.972952	-35.580916	-6.923889
31401		5.036173	-35.584352	-6.945014
31402		5.098079	-35.598257	-6.971823
31403		5.154295	-35.614235	-7.004338
31404		5.209685	-35.628612	-7.044115
31405		5.284691	-35.644363	-7.092108
31406		5.383570	-35.656571	-7.137706
31407		5.508969	-35.653566	-7.186549
31408		5.661978	-35.635895	-7.228757
31409		5.840420	-35.616521	-7.267733
31410		5.992533	-35.610211	-7.305686
31411		6.067778	-35.625910	-7.337905
31412		6.062782	-35.650121	-7.367184
31413		6.016825	-35.666631	-7.391339
31414		5.982028	-35.668175	-7.413353
31415		6.001680	-35.656240	-7.431440
31416		6.100174	-35.632326	-7.451865
31417		6.281714	-35.595336	-7.477251
31418		6.534476	-35.567780	-7.510305
31419		6.824047	-35.558052	-7.553742
31420		7.108748	-35.572117	-7.609375
31421		7.366842	-35.619741	-7.673306
31422		7.569765	-35.687195	-7.744160
31423		7.758720	-35.760688	-7.831201
31424		7.986596	-35.834287	-7.941808
31425		8.300641	-35.887906	-8.073691
31426		8.761346	-35.906819	-8.220422
31427		9.404768	-35.880958	-8.376369
31428		10.244045	-35.819691	-8.537969
31429		11.220238	-35.743336	-8.700151
31430		12.265217	-35.661825	-8.856907
31431		13.315969	-35.574956	-9.020806
31432		14.338212	-35.490473	-9.202722
31433		15.320011	-35.420793	-9.400244
31434		16.274823	-35.349455	-9.607499
31435		17.216095	-35.260264	-9.825909
31436		18.163025	-35.138312	-10.032179
31437		19.147420	-34.978842	-10.221919
31438		20.200735	-34.784661	-10.386844
31439		21.339659	-34.563302	-10.534674
31440		22.537366	-34.316931	-10.679032
31441		23.754110	-34.048502	-10.819765
31442		24.977613	-33.775668	-10.945012
31443		26.157260	-33.493151	-11.057059
31444		27.292521	-33.198991	-11.145135
31445		28.392810	-32.899066	-11.233119
31446		29.448225	-32.590987	-11.336070
31447		30.454573	-32.282996	-11.462805
31448		31.441323	-31.988697	-11.615896
31449		32.414178	-31.736257	-11.806216
31450		33.389131	-31.527688	-12.022123
31451		34.372977	-31.354583	-12.260149
31452		35.380755	-31.201009	-12.507059
31453		36.432043	-31.033036	-12.757208
31454		37.557167	-30.836679	-13.007912
31455		38.769690	-30.600268	-13.264759
31456		40.063881	-30.329587	-13.535265
31457		41.406729	-30.043947	-13.805223
31458		42.758161	-29.746829	-14.059761
31459		44.099081	-29.448241	-14.291728
31460		45.424009	-29.161856	-14.513900
31461		46.714007	-28.878786	-14.719834
31462		47.961899	-28.597614	-14.901545
31463		49.181491	-28.332149	-15.064993
31464		50.362401	-28.077599	-15.213596
31465		51.506589	-27.829102	-15.335490
31466		52.602277	-27.577927	-15.436127
31467		53.644164	-27.334579	-15.520889
31468		54.637103	-27.089635	-15.590186
31469		55.622282	-26.847744	-15.648923
31470		56.605305	-26.602160	-15.695968
31471		57.584285	-26.343224	-15.726376
31472		58.586692	-26.081729	-15.741370
31473		59.635038	-25.831422	-15.747732
31474		60.705099	-25.581355	-15.753917
31475		61.790383	-25.326733	-15.756206
31476		62.885011	-25.061142	-15.765224
31477		63.979983	-24.778763	-15.772088
31478		65.063739	-24.475058	-15.767984
31479		66.136117	-24.148570	-15.726645
31480		67.196559	-23.806807	-15.648064
31481		68.252764	-23.456006	-15.549522
31482		69.320806	-23.096117	-15.412219
31483		70.411522	-22.735710	-15.260468
31484		71.507554	-22.376462	-15.098110
31485		72.584485	-22.022331	-14.933740
31486		73.639492	-21.673267	-14.774483
31487		74.683944	-21.332626	-14.623970
31488		75.705937	-21.002201	-14.489430
31489		76.698634	-20.673118	-14.357967
31490		77.671697	-20.346953	-14.218463
31491		78.618277	-20.012686	-14.075012
31492		79.515629	-19.673957	-13.917809
31493		80.379353	-19.342932	-13.756925
31494		81.230638	-19.022691	-13.607072
31495		82.078949	-18.709689	-13.465767
31496		82.936641	-18.404532	-13.330658
31497		83.808885	-18.092467	-13.195478
31498		84.695400	-17.767251	-13.033308
31499		85.621881	-17.419068	-12.834769
31500		86.607766	-17.039951	-12.590828
31501		87.651545	-16.633467	-12.307841
31502		88.728597	-16.208095	-11.984711
31503		89.812681	-15.775624	-11.627154
31504		90.881806	-15.351825	-11.244928
31505		91.911357	-14.945134	-10.850038
31506		92.888098	-14.561320	-10.456007
31507		93.808858	-14.199534	-10.081974
31508		94.671873	-13.860480	-9.732828
31509		95.492501	-13.548204	-9.414298
31510		96.266678	-13.261577	-9.133650
31511		96.988372	-13.001147	-8.887683
31512		97.666458	-12.771209	-8.670483
31513		98.291625	-12.566825	-8.477119
31514		98.856676	-12.379177	-8.300526
31515		99.368518	-12.204669	-8.126498
31516		99.840316	-12.039203	-7.952202
31517		100.307664	-11.881983	-7.789464
31518		100.777982	-11.732999	-7.639619
31519		101.252716	-11.586999	-7.511704
31520		101.710318	-11.437130	-7.405881
31521		102.142758	-11.285888	-7.320480
31522		102.544112	-11.127443	-7.248626
31523		102.929754	-10.970682	-7.169459
31524		103.298439	-10.809809	-7.076966
31525		103.655408	-10.650321	-6.959080
31526		104.009524	-10.494356	-6.829808
31527		104.394312	-10.347176	-6.710163
31528		104.774550	-10.198581	-6.605721
31529		105.125357	-10.050863	-6.503448
31530		105.446016	-9.898776	-6.407507
31531		105.737058	-9.748648	-6.312163
31532		106.003090	-9.602510	-6.209978
31533		106.252925	-9.457929	-6.099640
31534		106.496577	-9.315960	-5.979298
31535		106.752247	-9.183424	-5.851573
31536		107.017795	-9.057011	-5.726912
31537		107.288201	-8.933039	-5.614494
31538		107.557324	-8.801824	-5.510970
31539		107.833666	-8.668921	-5.424894
31540		108.108882	-8.536617	-5.334615
31541		108.378420	-8.410016	-5.241245
31542		108.633259	-8.286676	-5.150757
31543		108.863451	-8.163128	-5.063814
31544		109.079950	-8.044910	-4.981374
31545		109.293731	-7.922685	-4.910394
31546		109.525672	-7.801352	-4.856515
31547		109.784066	-7.678170	-4.822581
31548		110.065258	-7.556743	-4.802179
31549		110.349626	-7.435697	-4.788242
31550		110.649108	-7.310860	-4.749710
31551		111.017898	-7.177215	-4.676308
31552		111.449110	-7.028215	-4.571891
31553		111.903509	-6.865519	-4.426681
31554		112.338889	-6.696740	-4.252576
31555		112.734350	-6.526013	-4.058538
31556		113.077506	-6.369844	-3.861228
31557		113.377294	-6.235096	-3.681330
31558		113.639294	-6.122826	-3.534294
31559		113.873409	-6.027967	-3.421782
31560		114.090498	-5.944847	-3.335873
31561		114.288641	-5.875545	-3.259270
31562		114.461975	-5.819948	-3.172534
31563		114.616867	-5.777731	-3.077059
31564		114.747876	-5.735832	-2.980767
31565		114.862861	-5.698523	-2.891191
31566		114.981929	-5.662563	-2.807944
31567		115.119814	-5.630972	-2.735250
31568		115.258297	-5.598345	-2.670179
31569		115.389132	-5.564756	-2.619049
31570		115.481723	-5.531142	-2.576742
31571		115.535835	-5.499976	-2.552651
31572		115.559557	-5.486443	-2.548224
31573		115.544927	-5.492674	-2.551715
31574		115.503155	-5.505630	-2.552166
31575		115.458910	-5.516970	-2.551542
31576		115.422572	-5.524382	-2.553755
31577		115.395838	-5.533394	-2.565268
31578		115.373206	-5.544512	-2.580481
31579		115.345248	-5.555902	-2.595157
31580		115.329057	-5.563113	-2.611320
31581		115.330080	-5.570525	-2.626654
31582		115.329480	-5.582762	-2.630526
31583		115.317103	-5.604200	-2.626224
31584		115.279819	-5.625544	-2.614152
31585		115.230138	-5.625635	-2.600474
31586		115.194830	-5.612859	-2.597307
31587		115.182661	-5.593656	-2.606143
31588		115.172525	-5.583456	-2.617050
31589		115.154315	-5.581514	-2.629915
31590		115.128243	-5.579307	-2.643536
31591		115.106726	-5.570934	-2.662960
31592		115.094572	-5.563179	-2.682619
31593		115.084815	-5.560925	-2.706112
31594		115.049933	-5.562160	-2.721738
31595		115.006957	-5.565718	-2.729756
31596		114.966464	-5.570588	-2.737622
31597		114.936327	-5.576844	-2.746726
31598		114.903896	-5.583627	-2.753960
31599		114.859606	-5.582988	-2.759500
31600		114.805092	-5.571026	-2.760764
31601		114.771722	-5.555011	-2.772703
31602		114.756609	-5.542554	-2.787294
31603		114.740838	-5.535336	-2.797795
31604		114.721741	-5.532314	-2.803018
31605		114.701912	-5.528789	-2.804672
31606		114.683998	-5.517948	-2.809738
31607		114.669541	-5.503821	-2.818656
31608		114.651932	-5.489957	-2.828812
31609		114.633769	-5.482095	-2.832200
31610		114.613929	-5.478535	-2.821634
31611		114.601046	-5.479305	-2.800517
31612		114.592577	-5.483882	-2.772636
31613		114.586689	-5.489628	-2.742528
31614		114.583888	-5.490503	-2.713583
31615		114.575293	-5.477934	-2.691931
31616		114.568635	-5.453617	-2.692953
31617		114.566897	-5.431540	-2.710172
31618		114.557655	-5.416922	-2.727247
31619		114.546616	-5.410547	-2.739467
31620		114.530567	-5.401503	-2.740633
31621		114.514013	-5.393299	-2.731657
31622		114.494857	-5.388527	-2.715742
31623		114.467996	-5.388374	-2.693070
31624		114.434112	-5.388128	-2.669318
31625		114.399935	-5.385130	-2.644413
31626		114.372387	-5.380923	-2.629231
31627		114.359856	-5.374070	-2.631254
31628		114.346017	-5.370337	-2.646817
31629		114.325766	-5.370389	-2.672407
31630		114.296993	-5.371150	-2.704170
31631		114.248601	-5.379790	-2.733328
31632		114.185266	-5.391970	-2.760304
31633		114.123833	-5.406166	-2.787937
31634		114.074764	-5.415092	-2.812937
31635		114.038541	-5.416132	-2.833170
31636		114.004803	-5.418119	-2.843171
31637		113.981850	-5.419334	-2.847935
31638		113.962785	-5.420644	-2.842813
31639		113.956354	-5.412398	-2.828194
31640		113.958582	-5.394920	-2.808767
31641		113.956669	-5.379744	-2.781595
31642		113.946965	-5.369776	-2.754669
31643		113.933454	-5.370604	-2.731566
31644		113.906069	-5.367431	-2.725078
31645		113.851918	-5.361291	-2.740790
31646		113.771751	-5.358197	-2.785989
31647		113.656826	-5.366910	-2.872748
31648		113.474648	-5.389658	-2.992972
31649		113.230233	-5.427061	-3.137393
31650		112.957350	-5.480953	-3.301178
31651		112.660507	-5.544909	-3.482145
31652		112.337090	-5.618564	-3.659320
31653		111.994774	-5.697611	-3.835533
31654		111.631306	-5.779901	-4.003607
31655		111.255193	-5.867401	-4.157427
31656		110.870760	-5.966713	-4.296821
31657		110.451100	-6.075221	-4.449220
31658		109.949058	-6.200169	-4.632643
31659		109.340111	-6.347110	-4.874134
31660		108.616315	-6.523652	-5.186345
31661		107.791187	-6.742073	-5.576246
31662		106.890920	-7.006125	-6.021788
31663		105.949763	-7.321284	-6.517133
31664		104.979255	-7.681190	-7.034311
31665		103.990713	-8.087619	-7.548325
31666		102.985727	-8.522720	-8.060492
31667		101.959605	-8.965921	-8.551408
31668		100.945779	-9.404779	-9.012231
31669		99.975139	-9.828137	-9.436627
31670		99.055857	-10.231874	-9.816033
31671		98.192934	-10.607099	-10.148037
31672		97.396568	-10.962872	-10.452362
31673		96.629938	-11.294413	-10.740735
31674		95.874948	-11.602511	-11.017811
31675		95.130841	-11.899835	-11.296799
31676		94.396396	-12.192786	-11.594672
31677		93.664581	-12.484959	-11.898727
31678		92.940076	-12.776716	-12.199858
31679		92.229379	-13.056883	-12.496433
31680		91.546426	-13.325728	-12.761520
31681		90.908352	-13.575859	-12.998995
31682		90.271342	-13.795251	-13.218846
31683		89.631610	-13.991697	-13.406780
31684		88.998125	-14.182943	-13.589274
31685		88.347491	-14.377047	-13.796642
31686		87.675283	-14.583114	-14.032277
31687		87.019678	-14.801169	-14.293427
31688		86.387229	-15.026820	-14.567985
31689		85.788649	-15.248268	-14.839623
31690		85.212528	-15.457252	-15.095225
31691		84.638750	-15.661917	-15.334036
31692		84.033397	-15.852412	-15.559516
31693		83.396746	-16.037501	-15.771638
31694		82.728851	-16.225030	-15.978898
31695		82.019837	-16.417451	-16.188583
31696		81.276235	-16.616876	-16.399402
31697		80.525220	-16.833000	-16.610827
31698		79.750474	-17.070977	-16.841145
31699		78.932925	-17.328036	-17.086014
31700		78.080618	-17.605777	-17.340843
31701		77.198129	-17.899124	-17.594784
31702		76.280574	-18.206233	-17.835565
31703		75.335445	-18.522269	-18.055247
31704		74.364242	-18.843683	-18.249925
31705		73.358370	-19.173701	-18.432596
31706		72.297950	-19.532881	-18.633937
31707		71.185989	-19.943696	-18.876514
31708		70.029963	-20.414401	-19.165963
31709		68.853079	-20.930880	-19.504573
31710		67.703015	-21.477212	-19.883092
31711		66.597048	-22.045764	-20.285214
31712		65.488106	-22.629583	-20.707646
31713		64.359727	-23.239088	-21.153903
31714		63.181071	-23.868584	-21.591777
31715		61.972429	-24.506166	-22.003638
31716		60.752499	-25.125142	-22.359573
31717		59.557323	-25.713840	-22.655427
31718		58.401814	-26.264539	-22.899515
31719		57.307800	-26.768727	-23.090581
31720		56.294928	-27.223677	-23.244703
31721		55.355258	-27.629725	-23.354286
31722		54.463102	-27.988101	-23.425223
31723		53.617629	-28.296909	-23.454976
31724		52.796629	-28.555566	-23.440639
31725		51.980506	-28.771654	-23.397986
31726		51.163591	-28.962809	-23.331728
31727		50.344302	-29.152733	-23.253166
31728		49.486934	-29.357472	-23.183115
31729		48.604855	-29.592843	-23.122139
31730		47.707406	-29.855526	-23.062414
31731		46.801809	-30.134599	-22.991366
31732		45.895322	-30.427182	-22.894915
31733		44.963249	-30.737853	-22.781039
31734		43.974572	-31.055443	-22.646016
31735		42.928930	-31.355461	-22.478487
31736		41.853976	-31.608422	-22.265798
31737		40.807407	-31.809145	-22.032788
31738		39.852757	-31.966104	-21.799174
31739		39.019366	-32.098765	-21.597769
31740		38.255044	-32.231671	-21.424490
31741		37.497418	-32.365425	-21.272164
31742		36.710902	-32.510641	-21.112654
31743		35.868835	-32.666923	-20.943975
31744		34.973660	-32.817938	-20.726046
31745		34.027532	-32.937644	-20.467856
31746		33.033768	-33.010893	-20.172606
31747		32.025229	-33.023244	-19.898895
31748		31.030334	-32.971798	-19.712297
31749		30.053109	-32.861212	-19.634609
31750		29.090479	-32.736529	-19.647170
31751		28.097587	-32.642461	-19.716579
31752		27.039432	-32.586676	-19.787384
31753		25.920065	-32.568122	-19.839547
31754		24.760730	-32.575177	-19.864919
31755		23.608771	-32.576348	-19.865767
31756		22.526031	-32.565667	-19.834286
31757		21.565419	-32.547165	-19.799001
31758		20.735052	-32.499200	-19.755610
31759		20.051239	-32.437452	-19.727030
31760		19.501081	-32.381213	-19.711398
31761		19.042846	-32.343512	-19.707641
31762		18.648453	-32.352483	-19.692921
31763		18.303210	-32.411052	-19.670207
31764		17.968241	-32.500559	-19.619961
31765		17.598987	-32.592080	-19.545202
31766		17.202196	-32.681723	-19.445870
31767		16.790718	-32.764990	-19.337570
31768		16.407328	-32.844462	-19.236925
31769		16.088479	-32.916880	-19.160472
31770		15.859459	-32.999051	-19.109778
31771		15.704901	-33.091198	-19.088005
31772		15.608310	-33.185493	-19.067889
31773		15.542040	-33.283332	-19.045598
31774		15.464025	-33.371136	-19.008243
31775		15.358599	-33.446308	-18.954960
31776		15.207200	-33.511839	-18.878894
31777		15.006158	-33.573584	-18.788481
31778		14.788118	-33.647699	-18.696134
31779		14.582799	-33.727189	-18.606291
31780		14.414414	-33.802523	-18.514457
31781		14.298407	-33.873996	-18.424557
31782		14.227460	-33.941603	-18.335285
31783		14.177437	-34.002150	-18.251787
31784		14.106645	-34.061889	-18.172881
31785		13.978881	-34.119608	-18.093551
31786		13.783767	-34.170846	-17.993702
31787		13.538932	-34.206735	-17.875756
31788		13.261829	-34.223382	-17.732137
31789		12.985261	-34.235804	-17.586180
31790		12.731811	-34.251286	-17.446436
31791		12.507453	-34.267466	-17.344814
31792		12.303845	-34.284789	-17.308213
31793		12.078250	-34.303828	-17.313509
31794		11.770676	-34.306786	-17.301992
31795		11.376864	-34.260574	-17.259228
31796		10.889668	-34.173917	-17.170567
31797		10.328839	-34.063238	-17.045007
31798		9.711513	-33.951259	-16.869923
31799		9.075481	-33.875302	-16.660501
31800		8.439929	-33.841686	-16.423424
31801		7.843869	-33.844250	-16.188546
31802		7.301788	-33.884836	-15.971401
31803		6.810043	-33.934638	-15.780300
31804		6.359258	-33.967596	-15.587825
31805		5.947831	-33.958977	-15.381597
31806		5.562349	-33.906097	-15.140878
31807		5.181495	-33.825274	-14.878059
31808		4.807411	-33.735617	-14.597135
31809		4.443170	-33.661059	-14.322496
31810		4.117294	-33.611026	-14.051399
31811		3.833574	-33.581505	-13.800520
31812		3.583140	-33.546668	-13.568485
31813		3.386722	-33.515481	-13.366228
31814		3.235718	-33.500715	-13.179242
31815		3.085516	-33.494720	-12.998834
31816		2.930474	-33.486650	-12.810013
31817		2.781750	-33.463635	-12.610430
31818		2.628344	-33.408586	-12.399525
31819		2.504632	-33.337602	-12.193417
31820		2.403861	-33.276606	-11.988284
31821		2.295887	-33.234175	-11.794176
31822		2.180188	-33.209977	-11.625931
31823		2.084102	-33.207701	-11.485634
31824		1.999220	-33.214883	-11.353519
31825		1.925441	-33.233253	-11.229938
31826		1.871741	-33.269068	-11.103919
31827		1.847787	-33.314126	-10.978931
31828		1.866716	-33.370599	-10.852718
31829		1.888233	-33.428593	-10.731294
31830		1.878258	-33.475460	-10.617338
31831		1.837504	-33.507415	-10.519736
31832		1.783448	-33.533337	-10.438818
31833		1.727188	-33.562142	-10.378347
31834		1.688946	-33.595384	-10.327070
31835		1.683831	-33.627992	-10.276597
31836		1.703433	-33.655484	-10.217432
31837		1.743835	-33.682898	-10.150586
31838		1.788906	-33.701072	-10.083414
31839		1.825636	-33.702862	-10.021019
31840		1.843695	-33.703602	-9.976259
31841		1.851044	-33.702550	-9.951871
31842		1.863003	-33.702294	-9.940367
31843		1.883329	-33.700270	-9.938397
31844		1.907446	-33.699386	-9.930162
31845		1.952325	-33.704440	-9.926964
31846		2.012025	-33.717647	-9.923162
31847		2.095026	-33.731563	-9.917695
31848		2.209767	-33.745809	-9.908080
31849		2.350046	-33.765439	-9.898363
31850		2.474820	-33.787689	-9.894431
31851		2.574740	-33.819280	-9.892523
31852		2.657129	-33.863588	-9.897306
31853		2.722869	-33.916572	-9.911420
31854		2.781886	-33.967715	-9.926992
31855		2.860539	-34.002343	-9.945076
31856		2.969019	-34.037635	-9.952812
31857		3.061104	-34.081564	-9.968798
31858		3.127015	-34.127744	-9.985290
31859		3.189534	-34.173515	-10.002501
31860		3.271324	-34.199278	-10.019221
31861		3.400792	-34.211538	-10.035015
31862		3.560586	-34.218225	-10.054399
31863		3.727237	-34.210582	-10.074282
31864		3.908741	-34.204910	-10.089638
31865		4.088729	-34.200603	-10.115179
31866		4.251469	-34.185652	-10.148266
31867		4.410197	-34.164169	-10.179009
31868		4.580752	-34.141078	-10.207976
31869		4.783375	-34.104215	-10.243317
31870		5.026947	-34.061831	-10.286861
31871		5.321127	-33.996408	-10.342845
31872		5.682540	-33.899475	-10.415003
31873		6.134608	-33.767819	-10.504863
31874		6.690394	-33.598073	-10.606287
31875		7.344658	-33.393042	-10.716383
31876		8.098869	-33.155756	-10.819295
31877		8.940331	-32.902213	-10.919235
31878		9.834311	-32.644870	-11.024335
31879		10.757979	-32.387731	-11.144312
31880		11.672408	-32.139599	-11.280099
31881		12.586845	-31.900019	-11.468281
31882		13.505527	-31.671268	-11.695744
31883		14.441901	-31.457786	-11.955356
31884		15.400135	-31.252155	-12.228394
31885		16.409829	-31.040388	-12.494333
31886		17.481851	-30.822900	-12.734114
31887		18.617216	-30.581728	-12.943588
31888		19.817966	-30.314361	-13.134883
31889		21.096383	-29.990760	-13.301964
31890		22.455827	-29.620668	-13.452415
31891		23.906712	-29.208637	-13.594218
31892		25.432289	-28.762647	-13.723142
31893		27.008453	-28.305062	-13.845140
31894		28.602064	-27.848082	-13.960746
31895		30.163583	-27.405145	-14.078244
31896		31.654909	-26.973470	-14.171529
31897		33.070721	-26.563214	-14.249009
31898		34.409949	-26.173359	-14.313370
31899		35.655178	-25.798221	-14.368841
31900		36.808179	-25.444407	-14.420116
31901		37.871946	-25.122333	-14.466000
31902		38.835821	-24.843691	-14.522264
31903		39.717126	-24.609425	-14.596582
31904		40.516069	-24.417722	-14.690047
31905		41.230866	-24.260180	-14.800947
31906		41.896449	-24.131630	-14.932955
31907		42.544811	-24.013326	-15.081302
31908		43.224503	-23.902287	-15.245082
31909		43.963271	-23.783269	-15.414891
31910		44.766407	-23.643708	-15.577657
31911		45.637456	-23.481203	-15.719891
31912		46.549554	-23.298591	-15.833529
31913		47.497809	-23.094906	-15.918254
31914		48.489344	-22.876885	-15.975370
31915		49.523559	-22.625551	-15.996065
31916		50.605975	-22.343670	-15.985144
31917		51.756797	-22.037058	-15.949461
31918		52.985085	-21.712796	-15.883286
31919		54.297781	-21.380890	-15.793949
31920		55.692774	-21.040338	-15.680174
31921		57.146966	-20.690007	-15.542831
31922		58.639369	-20.331755	-15.392138
31923		60.149250	-19.981058	-15.226221
31924		61.623731	-19.640918	-15.032187
31925		63.026637	-19.321971	-14.812754
31926		64.360373	-19.040935	-14.566680
31927		65.655527	-18.807749	-14.305053
31928		66.936338	-18.619313	-14.042214
31929		68.192582	-18.461208	-13.777072
31930		69.419954	-18.316794	-13.511298
31931		70.625092	-18.167754	-13.242225
31932		71.797066	-17.992981	-12.962050
31933		72.936444	-17.782970	-12.680181
31934		74.050277	-17.545824	-12.404353
31935		75.148500	-17.281284	-12.146191
31936		76.266150	-17.002177	-11.898443
31937		77.423277	-16.702051	-11.663586
31938		78.601596	-16.381719	-11.441786
31939		79.783339	-16.037924	-11.203507
31940		80.959227	-15.680921	-10.925766
31941		82.132873	-15.316395	-10.621359
31942		83.296381	-14.958746	-10.304592
31943		84.419178	-14.608634	-9.994250
31944		85.487079	-14.270394	-9.712352
31945		86.493976	-13.940421	-9.475136
31946		87.438274	-13.614956	-9.264184
31947		88.345120	-13.302319	-9.063520
31948		89.213522	-12.988943	-8.859956
31949		90.051120	-12.672132	-8.644062
31950		90.863034	-12.347513	-8.421398
31951		91.649400	-12.019752	-8.193178
31952		92.405394	-11.697805	-7.968727
31953		93.133016	-11.387273	-7.760137
31954		93.808899	-11.097211	-7.576768
31955		94.416328	-10.817673	-7.413267
31956		94.989838	-10.550858	-7.260912
31957		95.584577	-10.287899	-7.109607
31958		96.214900	-10.025277	-6.955613
31959		96.870138	-9.754359	-6.792886
31960		97.517746	-9.479109	-6.610844
31961		98.127424	-9.197266	-6.423704
31962		98.677772	-8.915820	-6.240831
31963		99.180828	-8.641845	-6.089681
31964		99.649850	-8.385237	-5.971026
31965		100.082810	-8.157509	-5.872813
31966		100.484888	-7.948887	-5.783831
31967		100.896377	-7.753809	-5.669945
31968		101.329434	-7.561557	-5.516412
31969		101.774854	-7.347373	-5.328429
31970		102.232691	-7.115714	-5.121635
31971		102.678625	-6.880587	-4.913591
31972		103.097861	-6.648846	-4.710947
31973		103.506729	-6.430844	-4.513140
31974		103.965246	-6.225207	-4.332886
31975		104.494589	-6.016715	-4.192416
31976		105.052277	-5.817335	-4.074550
31977		105.604747	-5.638517	-3.979494
31978		106.098689	-5.488323	-3.893915
31979		106.529829	-5.365418	-3.792811
31980		106.911720	-5.252087	-3.676773
31981		107.285249	-5.131623	-3.551803
31982		107.665867	-5.002832	-3.425980
31983		108.057501	-4.875300	-3.313620
31984		108.446017	-4.761135	-3.228746
31985		108.799267	-4.656511	-3.179943
31986		109.113358	-4.555996	-3.169697
31987		109.415549	-4.465796	-3.192953
31988		109.698694	-4.378902	-3.231153
31989		109.938012	-4.301407	-3.270844
31990		110.116562	-4.238849	-3.301605
31991		110.210552	-4.196880	-3.323100
31992		110.218698	-4.180927	-3.337560
31993		110.170981	-4.185270	-3.357039
31994		110.108013	-4.205654	-3.377223
31995		110.043422	-4.232397	-3.413687
31996		109.977549	-4.262605	-3.461141
31997		109.915350	-4.296724	-3.507547
31998		109.854840	-4.325474	-3.543794
31999		109.824790	-4.350019	-3.569290
32000		109.796313	-4.372785	-3.570350
32001		109.756401	-4.396078	-3.552901
32002		109.704615	-4.425251	-3.523578
32003		109.644226	-4.449574	-3.489480
32004		109.587565	-4.475196	-3.457855
32005		109.540196	-4.503092	-3.435168
32006		109.490136	-4.534602	-3.413019
32007		109.435001	-4.565238	-3.386809
32008		109.379341	-4.592444	-3.355433
32009		109.328613	-4.621133	-3.319931
32010		109.265256	-4.649965	-3.272515
32011		109.183508	-4.678334	-3.219384
32012		109.090932	-4.702467	-3.149845
32013		109.001768	-4.721689	-3.075657
32014		108.916956	-4.739838	-2.993708
32015		108.832837	-4.762308	-2.916652
32016		108.758711	-4.779299	-2.858527
32017		108.717897	-4.791522	-2.826768
32018		108.709081	-4.797062	-2.818160
32019		108.713415	-4.800667	-2.818801
32020		108.699500	-4.801688	-2.814562
32021		108.654876	-4.803520	-2.798366
32022		108.604343	-4.805177	-2.771743
32023		108.574112	-4.802232	-2.749493
32024		108.561708	-4.795777	-2.735165
32025		108.562716	-4.790897	-2.736912
32026		108.554871	-4.784987	-2.759436
32027		108.556047	-4.783164	-2.810946
32028		108.544080	-4.780360	-2.876333
32029		108.524437	-4.774322	-2.942447
32030		108.509318	-4.769570	-3.006693
32031		108.500154	-4.774212	-3.061118
32032		108.481775	-4.786884	-3.100118
32033		108.452267	-4.812994	-3.116023
32034		108.411306	-4.834636	-3.112343
32035		108.383292	-4.862405	-3.096633
32036		108.363289	-4.884112	-3.082584
32037		108.350367	-4.903084	-3.073431
32038		108.343083	-4.911599	-3.085984
32039		108.362886	-4.913860	-3.122053
32040		108.376435	-4.910559	-3.175263
32041		108.373482	-4.915579	-3.218813
32042		108.341656	-4.920914	-3.258710
32043		108.291146	-4.930116	-3.296222
32044		108.225534	-4.943091	-3.334669
32045		108.154531	-4.954045	-3.374439
32046		108.080406	-4.963356	-3.410901
32047		108.007354	-4.973971	-3.442200
32048		107.920210	-4.988581	-3.459750
32049		107.827984	-5.008555	-3.474827
32050		107.732010	-5.028637	-3.494373
32051		107.638953	-5.054227	-3.524519
32052		107.528176	-5.086296	-3.562220
32053		107.391586	-5.123966	-3.610262
32054		107.233482	-5.166915	-3.672752
32055		107.059956	-5.209346	-3.745198
32056		106.857278	-5.252997	-3.824560
32057		106.628465	-5.296859	-3.904059
32058		106.373006	-5.342244	-3.987486
32059		106.080646	-5.393630	-4.069450
32060		105.754897	-5.453597	-4.148038
32061		105.417486	-5.520225	-4.225304
32062		105.066085	-5.596200	-4.294703
32063		104.700445	-5.680109	-4.356782
32064		104.293720	-5.760776	-4.431191
32065		103.879119	-5.841691	-4.519333
32066		103.438515	-5.920862	-4.622607
32067		102.984210	-6.008653	-4.735174
32068		102.525267	-6.095582	-4.862039
32069		102.056995	-6.179570	-4.999713
32070		101.589606	-6.260402	-5.144129
32071		101.123232	-6.339881	-5.289845
32072		100.646981	-6.416398	-5.432547
32073		100.154415	-6.489998	-5.569783
32074		99.634504	-6.567325	-5.702317
32075		99.094164	-6.651142	-5.825706
32076		98.526210	-6.739601	-5.944561
32077		97.958085	-6.830849	-6.057204
32078		97.394857	-6.921141	-6.167856
32079		96.843777	-7.011965	-6.275886
32080		96.309292	-7.101832	-6.378716
32081		95.813413	-7.187598	-6.483216
32082		95.351196	-7.272269	-6.584012
32083		94.918113	-7.353076	-6.684625
32084		94.509126	-7.432143	-6.781276
32085		94.107107	-7.510391	-6.871206
32086		93.699345	-7.589363	-6.947814
32087		93.285594	-7.669740	-7.014490
32088		92.837277	-7.746499	-7.079998
32089		92.344467	-7.823290	-7.152856
32090		91.822797	-7.906463	-7.244870
32091		91.278319	-8.000653	-7.362750
32092		90.715197	-8.110075	-7.509644
32093		90.139926	-8.235158	-7.679096
32094		89.556367	-8.371388	-7.857497
32095		88.959975	-8.511038	-8.037742
32096		88.346479	-8.650938	-8.205993
32097		87.712860	-8.792037	-8.366539
32098		87.064875	-8.932812	-8.515586
32099		86.414020	-9.075103	-8.663660
32100		85.770515	-9.218775	-8.816587
32101		85.137532	-9.366274	-8.976748
32102		84.513062	-9.515989	-9.134605
32103		83.888861	-9.664909	-9.279039
32104		83.263396	-9.822195	-9.404845
32105		82.638568	-9.986639	-9.513654
32106		82.016190	-10.165939	-9.607474
32107		81.406069	-10.366260	-9.687911
32108		80.806939	-10.584858	-9.757573
32109		80.204698	-10.823504	-9.820932
32110		79.591571	-11.079042	-9.884346
32111		78.967949	-11.355020	-9.952583
32112		78.322354	-11.632630	-10.034528
32113		77.657293	-11.908256	-10.131664
32114		76.978107	-12.163390	-10.242608
32115		76.295481	-12.389443	-10.365990
32116		75.633523	-12.584487	-10.507092
32117		75.010363	-12.755199	-10.661195
32118		74.422987	-12.913657	-10.816269
32119		73.879247	-13.065311	-10.965527
32120		73.372816	-13.218394	-11.096644
32121		72.911322	-13.364652	-11.216750
32122		72.490858	-13.497409	-11.319164
32123		72.105978	-13.609586	-11.408821
32124		71.746919	-13.695460	-11.486763
32125		71.403827	-13.757390	-11.555352
32126		71.055127	-13.806401	-11.619294
32127		70.709949	-13.867492	-11.691573
32128		70.362126	-13.956033	-11.779007
32129		69.994188	-14.076174	-11.891391
32130		69.599006	-14.222613	-12.022352
32131		69.150224	-14.394221	-12.168055
32132		68.632670	-14.582074	-12.318186
32133		68.041890	-14.777782	-12.464381
32134		67.382736	-14.974914	-12.607412
32135		66.676455	-15.170984	-12.738356
32136		65.949634	-15.373365	-12.866101
32137		65.229791	-15.573614	-12.994309
32138		64.537067	-15.783962	-13.131511
32139		63.860291	-16.007442	-13.275937
32140		63.188329	-16.242800	-13.423400
32141		62.521855	-16.495038	-13.568929
32142		61.837663	-16.749193	-13.702403
32143		61.129952	-16.995988	-13.826331
32144		60.407677	-17.231657	-13.943641
32145		59.665855	-17.454504	-14.064591
32146		58.937293	-17.681704	-14.200428
32147		58.251260	-17.930325	-14.365116
32148		57.613224	-18.218771	-14.557438
32149		57.016105	-18.537737	-14.775190
32150		56.418178	-18.870808	-15.007603
32151		55.775364	-19.208175	-15.248378
32152		55.054185	-19.544161	-15.469639
32153		54.232483	-19.878963	-15.656603
32154		53.324160	-20.205858	-15.806698
32155		52.389472	-20.525825	-15.933973
32156		51.470294	-20.831307	-16.054456
32157		50.595353	-21.119436	-16.169704
32158		49.776865	-21.394566	-16.282200
32159		49.017551	-21.659710	-16.388987
32160		48.298077	-21.904102	-16.489930
32161		47.606894	-22.125137	-16.580281
32162		46.875582	-22.335731	-16.666948
32163		46.076550	-22.544025	-16.749626
32164		45.187141	-22.767180	-16.826796
32165		44.164688	-23.001984	-16.888846
32166		43.063854	-23.246455	-16.934582
32167		41.967664	-23.492456	-16.967540
32168		40.943888	-23.725914	-17.005142
32169		40.026937	-23.965384	-17.061273
32170		39.130938	-24.214413	-17.156491
32171		38.179925	-24.524782	-17.295657
32172		37.018443	-24.949235	-17.510817
32173		35.519119	-25.471143	-17.779953
32174		33.759929	-26.073187	-18.042615
32175		31.841048	-26.701831	-18.285319
32176		29.893724	-27.251272	-18.425998
32177		28.116228	-27.674675	-18.465314
32178		26.642152	-27.958361	-18.408508
32179		25.579910	-28.093575	-18.301583
32180		24.927341	-28.113029	-18.184096
32181		24.556038	-28.032086	-18.072524
32182		24.325829	-27.892237	-17.956028
32183		24.130903	-27.726093	-17.835935
32184		23.923512	-27.568630	-17.716887
32185		23.676303	-27.458947	-17.637359
32186		23.365628	-27.423055	-17.610049
32187		23.004572	-27.468804	-17.642125
32188		22.616635	-27.584661	-17.705054
32189		22.233529	-27.744018	-17.789730
32190		21.901678	-27.903835	-17.867782
32191		21.662171	-28.034183	-17.933680
32192		21.531837	-28.118377	-17.972247
32193		21.499200	-28.159700	-17.996452
32194		21.529083	-28.167271	-18.002319
32195		21.610686	-28.154487	-17.991777
32196		21.720283	-28.159490	-17.976090
32197		21.778770	-28.189952	-17.979841
32198		21.770567	-28.244150	-18.006376
32199		21.686488	-28.323691	-18.065157
32200		21.554214	-28.421692	-18.117744
32201		21.369766	-28.555470	-18.197801
32202		21.128603	-28.696437	-18.271857
32203		20.897125	-28.837392	-18.339542
