// General information: 
//  MT Manager version: 2022.2.0 
//  XDA version: 2022.2.0 build 7381 rev 124627 built on 2023-07-19
// Device information: 
//  DeviceId: 00B447F1
//  ProductCode: MTW2-3A7G6
//  Firmware Version: 4.3.5
//  Hardware Version: 2.0.0
// Device settings: 
//  Filter Profile: human(46.1)
//  Option Flags: Orientation Smoother Disabled, Position/Velocity Smoother Disabled, Continuous Zero Rotation Update Disabled, AHS Disabled, ICC Disabled
// Coordinate system: ENU
PacketCounter	SampleTimeFine	Roll	Pitch	Yaw
29100		48.016660	38.640205	-15.518684
29101		48.010662	38.572829	-15.523246
29102		48.037789	38.521719	-15.517875
29103		48.097686	38.486351	-15.513791
29104		48.187185	38.462136	-15.511628
29105		48.298612	38.442971	-15.496871
29106		48.403651	38.420266	-15.479862
29107		48.502076	38.387992	-15.465373
29108		48.584656	38.350497	-15.463740
29109		48.660646	38.314651	-15.478256
29110		48.735477	38.277988	-15.511250
29111		48.813646	38.251328	-15.540699
29112		48.882577	38.231121	-15.559388
29113		48.937634	38.219879	-15.576720
29114		48.984797	38.209702	-15.591743
29115		49.017117	38.200205	-15.603269
29116		49.041499	38.186970	-15.608224
29117		49.062452	38.171566	-15.607523
29118		49.080800	38.152160	-15.598064
29119		49.096693	38.125963	-15.582777
29120		49.117292	38.095844	-15.566570
29121		49.140423	38.064030	-15.557885
29122		49.164992	38.032361	-15.548337
29123		49.190404	37.997737	-15.548163
29124		49.226695	37.963070	-15.553580
29125		49.276695	37.932793	-15.556940
29126		49.332120	37.903611	-15.559707
29127		49.392070	37.875715	-15.563748
29128		49.458458	37.854838	-15.566016
29129		49.520014	37.838619	-15.571432
29130		49.574440	37.826895	-15.578316
29131		49.623088	37.820421	-15.589446
29132		49.666664	37.814896	-15.601714
29133		49.705583	37.810086	-15.612226
29134		49.738082	37.804412	-15.614533
29135		49.759702	37.792256	-15.618330
29136		49.775333	37.776766	-15.626392
29137		49.793305	37.756318	-15.638588
29138		49.810336	37.733724	-15.658751
29139		49.832845	37.711837	-15.679780
29140		49.858755	37.694739	-15.689444
29141		49.885545	37.684661	-15.689599
29142		49.914808	37.678279	-15.683343
29143		49.939410	37.672613	-15.675789
29144		49.962259	37.667141	-15.666900
29145		49.982978	37.662145	-15.660695
29146		50.006765	37.657637	-15.657468
29147		50.024560	37.657511	-15.659550
29148		50.034368	37.652045	-15.659363
29149		50.036197	37.644880	-15.658139
29150		50.040827	37.632547	-15.653441
29151		50.045675	37.625360	-15.647764
29152		50.048939	37.616794	-15.639403
29153		50.055172	37.609887	-15.635934
29154		50.064964	37.605248	-15.633646
29155		50.078660	37.597639	-15.636103
29156		50.087304	37.589365	-15.644256
29157		50.090759	37.584921	-15.651036
29158		50.090038	37.582563	-15.654807
29159		50.087164	37.583180	-15.654573
29160		50.076665	37.585877	-15.649752
29161		50.074023	37.589871	-15.641740
29162		50.072220	37.590507	-15.644670
29163		50.072719	37.591041	-15.650027
29164		50.068417	37.588593	-15.657685
29165		50.063469	37.586973	-15.666258
29166		50.063294	37.581508	-15.669427
29167		50.060214	37.573135	-15.670478
29168		50.060416	37.565422	-15.665341
29169		50.057454	37.556283	-15.663891
29170		50.055691	37.548816	-15.666958
29171		50.053796	37.543962	-15.667982
29172		50.044970	37.540447	-15.673873
29173		50.032847	37.533876	-15.682067
29174		50.012339	37.523501	-15.687774
29175		49.984837	37.509164	-15.695683
29176		49.953608	37.490501	-15.702689
29177		49.924176	37.468405	-15.707963
29178		49.893822	37.439395	-15.713080
29179		49.863171	37.409788	-15.708910
29180		49.829826	37.379420	-15.697738
29181		49.797595	37.348619	-15.691346
29182		49.773252	37.321838	-15.694799
29183		49.762798	37.297702	-15.705939
29184		49.764719	37.277097	-15.722688
29185		49.774617	37.262653	-15.739012
29186		49.791282	37.246412	-15.756980
29187		49.813392	37.228472	-15.771367
29188		49.833820	37.214892	-15.779899
29189		49.850811	37.201468	-15.786387
29190		49.865464	37.189008	-15.788844
29191		49.873915	37.176780	-15.795910
29192		49.881635	37.167518	-15.798412
29193		49.881562	37.157334	-15.802968
29194		49.883142	37.152278	-15.805563
29195		49.891634	37.147454	-15.809864
29196		49.908539	37.141974	-15.817298
29197		49.931858	37.136579	-15.824112
29198		49.958781	37.131191	-15.823399
29199		49.984574	37.123365	-15.815526
29200		50.006670	37.111226	-15.806162
29201		50.024457	37.097322	-15.802052
29202		50.036802	37.081916	-15.799538
29203		50.042220	37.066671	-15.794508
29204		50.047827	37.053808	-15.784405
29205		50.054243	37.038879	-15.771464
29206		50.059157	37.024257	-15.758561
29207		50.061467	37.009144	-15.748046
29208		50.067756	36.993322	-15.727658
29209		50.072153	36.976426	-15.703925
29210		50.080908	36.952322	-15.676990
29211		50.096561	36.921110	-15.649818
29212		50.118360	36.880560	-15.625133
29213		50.147404	36.836247	-15.597956
29214		50.171744	36.784938	-15.568277
29215		50.187303	36.730888	-15.536902
29216		50.196619	36.675200	-15.500499
29217		50.205018	36.622082	-15.450178
29218		50.211962	36.571898	-15.378950
29219		50.202584	36.529540	-15.291489
29220		50.174927	36.487504	-15.200367
29221		50.132469	36.449358	-15.112109
29222		50.081715	36.408119	-15.029965
29223		50.027304	36.367656	-14.958622
29224		49.987095	36.324626	-14.894162
29225		49.958539	36.291855	-14.831869
29226		49.936127	36.266954	-14.764573
29227		49.918300	36.247452	-14.689224
29228		49.893901	36.231053	-14.614711
29229		49.864068	36.213413	-14.545270
29230		49.824109	36.194765	-14.481101
29231		49.769323	36.177519	-14.420597
29232		49.700960	36.155175	-14.364208
29233		49.636282	36.134670	-14.304639
29234		49.572337	36.115804	-14.243828
29235		49.513781	36.098322	-14.186183
29236		49.463735	36.076125	-14.142579
29237		49.429921	36.056261	-14.105003
29238		49.404676	36.041622	-14.071769
29239		49.380222	36.037913	-14.038165
29240		49.352018	36.033118	-14.010580
29241		49.318133	36.032844	-13.973497
29242		49.278320	36.031001	-13.931774
29243		49.230891	36.033116	-13.884309
29244		49.173953	36.037658	-13.846354
29245		49.114152	36.040774	-13.817299
29246		49.064191	36.042831	-13.792401
29247		49.023483	36.039844	-13.773438
29248		48.992959	36.034358	-13.754619
29249		48.968263	36.032882	-13.734140
29250		48.945058	36.029984	-13.717305
29251		48.926627	36.030036	-13.697639
29252		48.906601	36.031149	-13.685790
29253		48.885103	36.037724	-13.674805
29254		48.866722	36.044946	-13.662974
29255		48.846151	36.050086	-13.658003
29256		48.824775	36.053255	-13.656245
29257		48.801018	36.053489	-13.653335
29258		48.775840	36.053287	-13.647898
29259		48.751196	36.054154	-13.640927
29260		48.727554	36.056756	-13.638306
29261		48.708820	36.059051	-13.641095
29262		48.691386	36.062293	-13.651313
29263		48.681159	36.060821	-13.665315
29264		48.674353	36.059301	-13.681365
29265		48.665137	36.054855	-13.696496
29266		48.650699	36.047419	-13.703101
29267		48.633618	36.041092	-13.707846
29268		48.615810	36.031982	-13.717588
29269		48.604899	36.027112	-13.728858
29270		48.590759	36.022926	-13.747703
29271		48.574279	36.014956	-13.771897
29272		48.558106	36.006138	-13.795417
29273		48.545078	35.997504	-13.809704
29274		48.529862	35.993078	-13.820938
29275		48.518945	35.984103	-13.836682
29276		48.518760	35.974406	-13.849358
29277		48.521080	35.967037	-13.858443
29278		48.520907	35.962294	-13.864208
29279		48.516748	35.956704	-13.869050
29280		48.507607	35.948092	-13.875435
29281		48.502287	35.938061	-13.882400
29282		48.498862	35.930035	-13.890653
29283		48.501140	35.923495	-13.906597
29284		48.511361	35.917113	-13.929020
29285		48.526322	35.912888	-13.951158
29286		48.544498	35.913475	-13.962593
29287		48.559094	35.916680	-13.961399
29288		48.560373	35.917304	-13.954240
29289		48.548712	35.917266	-13.946734
29290		48.526944	35.917876	-13.940211
29291		48.505297	35.921085	-13.932250
29292		48.483398	35.923247	-13.931152
29293		48.471534	35.926398	-13.929305
29294		48.470870	35.929752	-13.928747
29295		48.480228	35.934095	-13.927591
29296		48.493711	35.932818	-13.924295
29297		48.504178	35.930070	-13.914372
29298		48.508801	35.924228	-13.899442
29299		48.508400	35.914737	-13.891898
29300		48.506163	35.907098	-13.888657
29301		48.507163	35.902743	-13.891419
29302		48.512388	35.899346	-13.896281
29303		48.528669	35.898062	-13.897079
29304		48.548962	35.898486	-13.891650
29305		48.564949	35.898785	-13.886912
29306		48.576895	35.894686	-13.880809
29307		48.587070	35.891040	-13.872709
29308		48.593104	35.884645	-13.868160
29309		48.600441	35.876146	-13.866825
29310		48.608201	35.869314	-13.868580
29311		48.618298	35.867234	-13.869872
29312		48.628542	35.861801	-13.875919
29313		48.642329	35.859720	-13.883996
29314		48.662256	35.855847	-13.892264
29315		48.690349	35.850853	-13.894318
29316		48.720658	35.847137	-13.896043
29317		48.757373	35.847526	-13.892537
29318		48.791684	35.853817	-13.887614
29319		48.823347	35.866108	-13.883183
29320		48.853600	35.881978	-13.881087
29321		48.892371	35.904061	-13.880499
29322		48.932011	35.936084	-13.878203
29323		48.960583	35.980159	-13.865273
29324		48.965561	36.020071	-13.847327
29325		48.955092	36.048121	-13.838255
29326		48.940957	36.064495	-13.836871
29327		48.926197	36.075103	-13.847421
29328		48.908736	36.077478	-13.869275
29329		48.900220	36.069880	-13.894332
29330		48.899866	36.055977	-13.926257
29331		48.909754	36.039765	-13.960983
29332		48.928841	36.024066	-13.994695
29333		48.962022	36.009477	-14.025293
29334		49.007806	35.996251	-14.053883
29335		49.059466	35.984542	-14.087417
29336		49.106147	35.974705	-14.124943
29337		49.153274	35.970702	-14.164097
29338		49.196069	35.967185	-14.207999
29339		49.235425	35.962946	-14.252320
29340		49.272014	35.961981	-14.294945
29341		49.302945	35.960503	-14.338901
29342		49.335223	35.959266	-14.383214
29343		49.372336	35.960984	-14.419359
29344		49.406986	35.959587	-14.452296
29345		49.438991	35.958484	-14.485676
29346		49.468359	35.958191	-14.523590
29347		49.498687	35.955784	-14.564388
29348		49.528166	35.953872	-14.601690
29349		49.555188	35.953934	-14.631532
29350		49.580944	35.956953	-14.655376
29351		49.607725	35.962855	-14.669907
29352		49.626863	35.970924	-14.680686
29353		49.634871	35.977252	-14.685034
29354		49.638654	35.982486	-14.688955
29355		49.643899	35.983174	-14.697460
29356		49.641085	35.982605	-14.713915
29357		49.633573	35.983353	-14.735595
29358		49.630477	35.986752	-14.756041
29359		49.635846	35.988984	-14.771039
29360		49.640885	35.991978	-14.784043
29361		49.641241	35.993145	-14.794781
29362		49.636584	35.994629	-14.805538
29363		49.629362	35.995511	-14.818541
29364		49.625860	36.001377	-14.827251
29365		49.626164	36.009900	-14.836405
29366		49.628461	36.019630	-14.844205
29367		49.625500	36.028932	-14.856080
29368		49.627035	36.040851	-14.870617
29369		49.633646	36.050038	-14.882856
29370		49.638766	36.060423	-14.892968
29371		49.645207	36.067130	-14.901835
29372		49.650851	36.074435	-14.906582
29373		49.654556	36.084692	-14.903121
29374		49.650837	36.094749	-14.896646
29375		49.648815	36.100327	-14.895908
29376		49.648070	36.103589	-14.904951
29377		49.648876	36.112859	-14.927349
29378		49.661779	36.126630	-14.948407
29379		49.682309	36.145608	-14.971270
29380		49.713034	36.165393	-14.984932
29381		49.743869	36.184526	-14.990022
29382		49.763380	36.200959	-14.986922
29383		49.771174	36.216259	-14.978368
29384		49.770496	36.227795	-14.977629
29385		49.777592	36.240554	-14.972804
29386		49.783010	36.256001	-14.971848
29387		49.787158	36.272801	-14.972673
29388		49.791473	36.292082	-14.968778
29389		49.793820	36.310910	-14.963685
29390		49.796297	36.328170	-14.954169
29391		49.797708	36.344460	-14.942775
29392		49.803806	36.359299	-14.935700
29393		49.810361	36.371846	-14.929612
29394		49.810885	36.382837	-14.928992
29395		49.814957	36.392276	-14.928071
29396		49.820564	36.401262	-14.923831
29397		49.827416	36.409034	-14.916146
29398		49.837066	36.414124	-14.909609
29399		49.850268	36.420163	-14.907440
29400		49.863347	36.425200	-14.906709
29401		49.875340	36.432451	-14.906878
29402		49.878294	36.442430	-14.901681
29403		49.875189	36.452633	-14.891102
29404		49.870102	36.462360	-14.881064
29405		49.870074	36.469261	-14.873587
29406		49.872658	36.475873	-14.870498
29407		49.875202	36.477640	-14.869157
29408		49.875661	36.481300	-14.866636
29409		49.876953	36.484424	-14.863320
29410		49.881335	36.491552	-14.850061
29411		49.883765	36.493442	-14.833164
29412		49.881382	36.494121	-14.814648
29413		49.878882	36.495654	-14.798279
29414		49.875193	36.497582	-14.787182
29415		49.871113	36.499448	-14.784300
29416		49.879391	36.498450	-14.783271
29417		49.893540	36.499631	-14.785025
29418		49.913370	36.498931	-14.785013
29419		49.928624	36.501301	-14.782680
29420		49.940299	36.501944	-14.778476
29421		49.946560	36.506252	-14.771912
29422		49.948440	36.507057	-14.761336
29423		49.948556	36.507406	-14.751048
29424		49.946964	36.507339	-14.746375
29425		49.945509	36.508186	-14.744801
29426		49.944852	36.510729	-14.746331
29427		49.945455	36.516084	-14.748953
29428		49.950818	36.519221	-14.753061
29429		49.961388	36.522100	-14.754266
29430		49.972327	36.524983	-14.751997
29431		49.987275	36.528906	-14.744510
29432		49.991153	36.535066	-14.731906
29433		49.987931	36.538784	-14.721783
29434		49.986735	36.542935	-14.708097
29435		49.978016	36.545184	-14.704255
29436		49.969376	36.545843	-14.705133
29437		49.961236	36.545783	-14.713912
29438		49.955881	36.548809	-14.719142
29439		49.954840	36.552958	-14.715289
29440		49.955118	36.561525	-14.700244
29441		49.944512	36.571630	-14.686585
29442		49.931793	36.574665	-14.673989
29443		49.914276	36.579764	-14.669335
29444		49.896558	36.586377	-14.671341
29445		49.879804	36.593983	-14.683181
29446		49.868047	36.600275	-14.699469
29447		49.868256	36.604608	-14.713657
29448		49.870978	36.607054	-14.725797
29449		49.876345	36.609439	-14.731260
29450		49.883396	36.608917	-14.734911
29451		49.886724	36.607485	-14.738279
29452		49.888482	36.603257	-14.744315
29453		49.890729	36.599190	-14.751499
29454		49.895772	36.597328	-14.761886
29455		49.909796	36.598392	-14.778072
29456		49.924137	36.598622	-14.802282
29457		49.943949	36.597696	-14.831494
29458		49.970521	36.596740	-14.857495
29459		50.004815	36.598626	-14.871017
29460		50.039016	36.603687	-14.876904
29461		50.064629	36.611664	-14.878022
29462		50.079761	36.620327	-14.884216
29463		50.085974	36.626869	-14.900817
29464		50.086069	36.631815	-14.927822
29465		50.093529	36.632799	-14.962794
29466		50.111700	36.634610	-14.999726
29467		50.146567	36.637982	-15.035321
29468		50.188088	36.642046	-15.070815
29469		50.235060	36.642667	-15.101935
29470		50.285692	36.641618	-15.129437
29471		50.341360	36.640255	-15.143692
29472		50.392270	36.642686	-15.149102
29473		50.431359	36.643191	-15.156305
29474		50.454863	36.646397	-15.172374
29475		50.468984	36.644163	-15.197189
29476		50.478948	36.640051	-15.223299
29477		50.491962	36.634326	-15.242709
29478		50.507632	36.629238	-15.254881
29479		50.518694	36.623198	-15.264706
29480		50.528868	36.619354	-15.266705
29481		50.531245	36.616176	-15.265843
29482		50.531427	36.615770	-15.257892
29483		50.530361	36.615057	-15.251892
29484		50.526862	36.612957	-15.246419
29485		50.521898	36.609718	-15.248280
29486		50.523516	36.603018	-15.255112
29487		50.534874	36.596973	-15.265658
29488		50.552060	36.591459	-15.273850
29489		50.568583	36.591520	-15.280390
29490		50.584778	36.593130	-15.282778
29491		50.592369	36.592748	-15.287072
29492		50.596324	36.595578	-15.287639
29493		50.598524	36.598878	-15.285730
29494		50.592128	36.604985	-15.285276
29495		50.578767	36.616007	-15.284303
29496		50.565376	36.626089	-15.291388
29497		50.556254	36.636376	-15.305391
29498		50.552932	36.649434	-15.331224
29499		50.561387	36.668516	-15.358207
29500		50.572827	36.689816	-15.389966
29501		50.593932	36.713436	-15.421088
29502		50.622216	36.735485	-15.444671
29503		50.652054	36.757330	-15.449496
29504		50.678697	36.778485	-15.441188
29505		50.693989	36.799483	-15.432009
29506		50.692576	36.813210	-15.433176
29507		50.679442	36.821807	-15.440093
29508		50.664392	36.829881	-15.447141
29509		50.649627	36.835669	-15.460733
29510		50.642925	36.839120	-15.475553
29511		50.649080	36.836645	-15.494555
29512		50.657683	36.835447	-15.519131
29513		50.673837	36.828822	-15.541437
29514		50.682796	36.823742	-15.557172
29515		50.693486	36.821776	-15.555176
29516		50.699562	36.824361	-15.548337
29517		50.702531	36.829459	-15.544339
29518		50.696943	36.835731	-15.546051
29519		50.689724	36.843253	-15.553676
29520		50.683892	36.851813	-15.563600
29521		50.681638	36.862076	-15.575291
29522		50.678961	36.865619	-15.592544
29523		50.678659	36.870584	-15.613771
29524		50.677456	36.873646	-15.631860
29525		50.678402	36.875775	-15.639196
29526		50.681693	36.880961	-15.632042
29527		50.677258	36.884401	-15.619647
29528		50.659327	36.887202	-15.601729
29529		50.627684	36.890879	-15.582466
29530		50.592433	36.892083	-15.563796
29531		50.564041	36.892370	-15.553756
29532		50.544267	36.887971	-15.562140
29533		50.535236	36.883581	-15.584626
29534		50.537870	36.880151	-15.610805
29535		50.559089	36.882077	-15.627281
29536		50.592101	36.893278	-15.628763
29537		50.617715	36.913365	-15.625531
29538		50.630371	36.935323	-15.615982
29539		50.628393	36.974146	-15.596649
29540		50.621385	37.016019	-15.565528
29541		50.600048	37.049745	-15.529952
29542		50.559196	37.070742	-15.504146
29543		50.513622	37.075846	-15.501275
29544		50.480315	37.076354	-15.514688
29545		50.466691	37.074198	-15.530489
29546		50.466546	37.075139	-15.542511
29547		50.489457	37.078362	-15.536190
29548		50.520685	37.082055	-15.516182
29549		50.553788	37.086228	-15.484887
29550		50.581722	37.090078	-15.449380
29551		50.591770	37.090534	-15.415355
29552		50.583614	37.089213	-15.383896
29553		50.555436	37.083996	-15.363413
29554		50.515657	37.072757	-15.351719
29555		50.482068	37.058032	-15.347659
29556		50.461393	37.038209	-15.342606
29557		50.449742	37.018885	-15.333923
29558		50.452727	37.004667	-15.314809
29559		50.464911	36.996683	-15.288934
29560		50.476320	36.986830	-15.270422
29561		50.489491	36.973422	-15.245498
29562		50.498397	36.959029	-15.215871
29563		50.500125	36.945436	-15.186936
29564		50.491317	36.930159	-15.158630
29565		50.477755	36.912910	-15.135749
29566		50.457640	36.890055	-15.120511
29567		50.441253	36.865663	-15.110734
29568		50.432301	36.844529	-15.101211
29569		50.426532	36.821658	-15.100215
29570		50.429539	36.802381	-15.103366
29571		50.446923	36.787945	-15.102477
29572		50.474403	36.782485	-15.098372
29573		50.502133	36.777890	-15.087477
29574		50.521825	36.773129	-15.072367
29575		50.529025	36.763790	-15.062506
29576		50.532604	36.755238	-15.055782
29577		50.529624	36.745912	-15.048446
29578		50.514426	36.730573	-15.044451
29579		50.501915	36.716625	-15.029024
29580		50.500399	36.715227	-14.989308
29581		50.485122	36.708185	-14.955293
29582		50.445934	36.689055	-14.930791
29583		50.401770	36.666393	-14.898958
29584		50.354319	36.641348	-14.863618
29585		50.302464	36.615963	-14.838604
29586		50.259876	36.594295	-14.824196
29587		50.236631	36.578684	-14.818845
29588		50.226448	36.564305	-14.837204
29589		50.227840	36.552550	-14.865016
29590		50.247442	36.549138	-14.884933
29591		50.272777	36.549482	-14.901090
29592		50.300564	36.549575	-14.922996
29593		50.329695	36.552411	-14.940799
29594		50.355441	36.559452	-14.944478
29595		50.365163	36.570082	-14.936811
29596		50.352933	36.578115	-14.928254
29597		50.338003	36.587227	-14.913229
29598		50.320339	36.599721	-14.896528
29599		50.298803	36.612815	-14.884866
29600		50.271797	36.619792	-14.881966
29601		50.247080	36.631400	-14.878922
29602		50.230464	36.640019	-14.870001
29603		50.220073	36.646072	-14.861356
29604		50.209702	36.652083	-14.853728
29605		50.199520	36.658890	-14.848658
29606		50.191287	36.662956	-14.842641
29607		50.183844	36.666451	-14.831175
29608		50.178632	36.670513	-14.810303
29609		50.172872	36.678517	-14.787002
29610		50.154518	36.678686	-14.769261
29611		50.132433	36.677128	-14.753280
29612		50.106596	36.675512	-14.741151
29613		50.085515	36.675861	-14.728628
29614		50.066912	36.674286	-14.719166
29615		50.057273	36.665711	-14.712804
29616		50.058725	36.653397	-14.708732
29617		50.064657	36.638165	-14.705479
29618		50.074682	36.618979	-14.696140
29619		50.086277	36.600226	-14.674367
29620		50.093333	36.583678	-14.649635
29621		50.090989	36.568971	-14.624313
29622		50.078775	36.553561	-14.605487
29623		50.059216	36.534663	-14.595072
29624		50.036522	36.508626	-14.589369
29625		50.014721	36.485169	-14.577534
29626		49.996048	36.460937	-14.560467
29627		49.985649	36.437834	-14.541320
29628		49.983456	36.415078	-14.513296
29629		49.978544	36.395633	-14.476755
29630		49.970417	36.375589	-14.438596
29631		49.959636	36.355712	-14.400588
29632		49.943615	36.336222	-14.365871
29633		49.915557	36.317881	-14.338924
29634		49.889228	36.295077	-14.319156
29635		49.858618	36.273713	-14.302071
29636		49.826592	36.254434	-14.280349
29637		49.797467	36.239176	-14.252465
29638		49.772445	36.229693	-14.218782
29639		49.747258	36.223348	-14.185162
29640		49.718113	36.220174	-14.152330
29641		49.684554	36.218343	-14.125290
29642		49.651428	36.213353	-14.103784
29643		49.621336	36.211492	-14.087124
29644		49.595195	36.210510	-14.077018
29645		49.574074	36.207302	-14.071893
29646		49.559240	36.205698	-14.068898
29647		49.549510	36.200261	-14.070299
29648		49.549989	36.194177	-14.062585
29649		49.546219	36.186160	-14.054918
29650		49.542928	36.175153	-14.042932
29651		49.534377	36.164511	-14.032161
29652		49.520850	36.155106	-14.028124
29653		49.504368	36.149810	-14.028740
29654		49.488040	36.143761	-14.031865
29655		49.478057	36.136726	-14.036903
29656		49.469775	36.131771	-14.037953
29657		49.473345	36.128742	-14.030113
29658		49.481988	36.131891	-14.020121
29659		49.486427	36.133177	-14.014476
29660		49.488651	36.126659	-14.013054
29661		49.490626	36.120006	-14.009571
29662		49.495091	36.114833	-14.006942
29663		49.499257	36.109562	-14.007208
29664		49.495628	36.104055	-14.014115
29665		49.491154	36.097449	-14.015413
29666		49.485949	36.089150	-14.019537
29667		49.487163	36.081535	-14.020357
29668		49.491890	36.071517	-14.025370
29669		49.502392	36.064312	-14.024121
29670		49.510566	36.060014	-14.021108
29671		49.517921	36.055630	-14.019018
29672		49.527609	36.050052	-14.018893
29673		49.541031	36.044517	-14.019318
29674		49.550674	36.039724	-14.021893
29675		49.557800	36.036039	-14.018980
29676		49.558591	36.029175	-14.018816
29677		49.560396	36.019203	-14.023222
29678		49.563649	36.009651	-14.027427
29679		49.561395	36.004418	-14.032241
29680		49.558918	35.999191	-14.037193
29681		49.561908	35.994472	-14.041888
29682		49.569663	35.992470	-14.046269
29683		49.576879	35.989541	-14.045282
29684		49.578589	35.986965	-14.042357
29685		49.579716	35.985026	-14.039221
29686		49.577675	35.982361	-14.039377
29687		49.570629	35.980829	-14.044180
29688		49.563322	35.979332	-14.049290
29689		49.553335	35.981076	-14.055036
29690		49.547699	35.980771	-14.062297
29691		49.544266	35.981768	-14.067279
29692		49.541961	35.983899	-14.069318
29693		49.540307	35.986866	-14.071297
29694		49.539668	35.990214	-14.070725
29695		49.537187	35.992274	-14.077309
29696		49.536733	35.992375	-14.085005
29697		49.535595	35.988231	-14.090425
29698		49.532810	35.988609	-14.095193
29699		49.528715	35.987854	-14.096742
29700		49.521892	35.988078	-14.103888
29701		49.520117	35.985373	-14.117934
29702		49.522275	35.980344	-14.136192
29703		49.529976	35.975719	-14.158633
29704		49.541438	35.970294	-14.200830
29705		49.563341	35.969647	-14.256763
29706		49.598284	35.978616	-14.306749
29707		49.629627	35.994182	-14.338558
29708		49.642293	36.007769	-14.367462
29709		49.649367	36.015993	-14.396624
29710		49.653169	36.022617	-14.424959
29711		49.650928	36.031941	-14.451747
29712		49.637550	36.035326	-14.478695
29713		49.624139	36.034608	-14.504272
29714		49.608525	36.036628	-14.532429
29715		49.594764	36.038298	-14.557831
29716		49.579100	36.041077	-14.588696
29717		49.564383	36.047202	-14.622444
29718		49.558927	36.058045	-14.655371
29719		49.556983	36.069615	-14.690111
29720		49.556783	36.084103	-14.725471
29721		49.556300	36.099329	-14.760966
29722		49.550324	36.113212	-14.799280
29723		49.550335	36.127762	-14.838807
29724		49.560985	36.143930	-14.879202
29725		49.584481	36.164157	-14.911439
29726		49.613042	36.185533	-14.936890
29727		49.635452	36.202970	-14.961353
29728		49.648877	36.220738	-14.987650
29729		49.661026	36.234158	-15.019754
29730		49.674323	36.244444	-15.058511
29731		49.687322	36.254754	-15.094985
29732		49.705628	36.263900	-15.123275
29733		49.727942	36.272323	-15.145782
29734		49.746565	36.276745	-15.167371
29735		49.762824	36.279928	-15.184590
29736		49.780954	36.287524	-15.201972
29737		49.802611	36.298400	-15.211601
29738		49.822046	36.303929	-15.223669
29739		49.835876	36.309763	-15.240933
29740		49.852731	36.314583	-15.261011
29741		49.873509	36.320349	-15.280388
29742		49.898444	36.330397	-15.293518
29743		49.922064	36.342633	-15.301001
29744		49.942383	36.352443	-15.310320
29745		49.960016	36.360917	-15.319474
29746		49.972387	36.368025	-15.330230
29747		49.984652	36.376662	-15.340256
29748		50.002404	36.385878	-15.347999
29749		50.022923	36.393296	-15.352313
29750		50.038166	36.401159	-15.355762
29751		50.052245	36.410337	-15.350527
29752		50.060953	36.420796	-15.347194
29753		50.073543	36.429638	-15.338899
29754		50.088129	36.439022	-15.336767
29755		50.101836	36.447367	-15.333628
29756		50.109510	36.455940	-15.331613
29757		50.115488	36.462405	-15.328737
29758		50.128481	36.469842	-15.321711
29759		50.150451	36.474389	-15.317664
29760		50.177541	36.479430	-15.311191
29761		50.201396	36.484382	-15.308038
29762		50.223380	36.487373	-15.305297
29763		50.244422	36.491664	-15.299697
29764		50.265453	36.496059	-15.295468
29765		50.285586	36.499394	-15.290325
29766		50.303991	36.503969	-15.287239
29767		50.322833	36.508558	-15.287197
29768		50.342756	36.516708	-15.284829
29769		50.361863	36.525495	-15.276319
29770		50.379007	36.532283	-15.264146
29771		50.394777	36.542104	-15.244254
29772		50.405344	36.552253	-15.228002
29773		50.412822	36.560005	-15.216333
29774		50.417108	36.567792	-15.210589
29775		50.421822	36.574836	-15.203321
29776		50.428500	36.581552	-15.197804
29777		50.440733	36.587053	-15.196221
29778		50.456130	36.593270	-15.198986
29779		50.477557	36.598396	-15.203017
29780		50.501949	36.605082	-15.203086
29781		50.527782	36.612002	-15.195948
29782		50.553436	36.623148	-15.179520
29783		50.567140	36.634848	-15.167104
29784		50.568956	36.645279	-15.161747
29785		50.558478	36.650447	-15.164609
29786		50.548838	36.657386	-15.166643
29787		50.546507	36.661931	-15.171790
29788		50.546591	36.666187	-15.180884
29789		50.553976	36.668921	-15.195278
29790		50.577818	36.674563	-15.205607
29791		50.610637	36.680568	-15.211992
29792		50.645502	36.682301	-15.217170
29793		50.674709	36.685142	-15.216133
29794		50.698547	36.686807	-15.216972
29795		50.716026	36.683761	-15.217600
29796		50.727951	36.680283	-15.218985
29797		50.740935	36.675383	-15.222126
29798		50.761125	36.669734	-15.224955
29799		50.780602	36.663061	-15.232681
29800		50.796891	36.654051	-15.241478
29801		50.818544	36.645575	-15.245776
29802		50.836262	36.642623	-15.244210
29803		50.856138	36.641041	-15.240259
29804		50.872146	36.642554	-15.237036
29805		50.882480	36.646662	-15.237209
29806		50.885564	36.650055	-15.238338
29807		50.881718	36.651175	-15.237789
29808		50.870115	36.652048	-15.239145
29809		50.859950	36.650743	-15.249379
29810		50.855249	36.652294	-15.260217
29811		50.851569	36.653215	-15.279982
29812		50.859323	36.655098	-15.298718
29813		50.872701	36.659945	-15.311603
29814		50.887983	36.668522	-15.312900
29815		50.902495	36.677029	-15.300613
29816		50.904133	36.680988	-15.291300
29817		50.906702	36.681096	-15.284301
29818		50.903458	36.678206	-15.286479
29819		50.897217	36.671471	-15.287682
29820		50.893089	36.663498	-15.294756
29821		50.896060	36.659753	-15.303711
29822		50.909202	36.654868	-15.312126
29823		50.922700	36.651801	-15.316808
29824		50.928214	36.648482	-15.317671
29825		50.929376	36.646528	-15.309463
29826		50.924722	36.648211	-15.305881
29827		50.910702	36.650146	-15.310232
29828		50.890519	36.652146	-15.330753
29829		50.871860	36.655217	-15.362047
29830		50.855319	36.658726	-15.394506
29831		50.839628	36.663229	-15.420525
29832		50.825191	36.661684	-15.438209
29833		50.817309	36.660917	-15.444574
29834		50.820776	36.653099	-15.445391
29835		50.832557	36.646424	-15.438813
29836		50.848028	36.637285	-15.440676
29837		50.871481	36.629093	-15.448862
29838		50.900412	36.622914	-15.460011
29839		50.926867	36.616973	-15.476800
29840		50.953494	36.610225	-15.491908
29841		50.975196	36.601547	-15.505665
29842		50.995094	36.590904	-15.514847
29843		51.008949	36.583684	-15.515362
29844		51.018052	36.578751	-15.516588
29845		51.026394	36.574295	-15.516135
29846		51.036411	36.573633	-15.514555
29847		51.043357	36.572231	-15.515054
29848		51.048011	36.573559	-15.516390
29849		51.058849	36.570668	-15.517723
29850		51.079247	36.571550	-15.514916
29851		51.092807	36.569294	-15.516897
29852		51.101517	36.565838	-15.522856
29853		51.107535	36.561876	-15.530759
29854		51.119735	36.558390	-15.537705
29855		51.136556	36.556748	-15.542203
29856		51.145712	36.560727	-15.541088
29857		51.145332	36.563292	-15.541825
29858		51.138173	36.567609	-15.543431
29859		51.136659	36.574003	-15.546064
29860		51.138252	36.582700	-15.548957
29861		51.132852	36.589834	-15.548213
29862		51.122354	36.596690	-15.543275
29863		51.109301	36.602967	-15.534987
29864		51.093778	36.611101	-15.530961
29865		51.088435	36.617472	-15.532163
29866		51.085766	36.624387	-15.536133
29867		51.080634	36.633167	-15.536339
29868		51.070948	36.641006	-15.531449
29869		51.058555	36.644863	-15.535822
29870		51.055937	36.651006	-15.537077
29871		51.057249	36.664599	-15.525875
29872		51.057661	36.679697	-15.505111
29873		51.041729	36.690072	-15.501952
29874		51.017380	36.688756	-15.518132
29875		50.997511	36.683835	-15.522674
29876		50.985596	36.690436	-15.509411
29877		50.976246	36.711287	-15.492099
29878		50.961630	36.732379	-15.502215
29879		50.944970	36.746429	-15.531411
29880		50.933454	36.753555	-15.555974
29881		50.922557	36.765039	-15.561190
29882		50.911636	36.783016	-15.561432
29883		50.896156	36.807824	-15.567966
29884		50.877738	36.831917	-15.592878
29885		50.859116	36.848619	-15.623923
29886		50.845907	36.863393	-15.648871
29887		50.833028	36.876730	-15.667645
29888		50.819461	36.888266	-15.685107
29889		50.814052	36.912129	-15.701050
29890		50.809653	36.944255	-15.720084
29891		50.805424	36.981187	-15.750304
29892		50.797653	37.014011	-15.781488
29893		50.788721	37.042735	-15.798658
29894		50.784806	37.068741	-15.795912
29895		50.779796	37.091408	-15.783613
29896		50.771468	37.114044	-15.775792
29897		50.760837	37.130279	-15.779436
29898		50.743581	37.133662	-15.801059
29899		50.727793	37.131909	-15.814676
29900		50.717570	37.132209	-15.821758
29901		50.713913	37.133187	-15.826882
29902		50.713158	37.135587	-15.838092
29903		50.716402	37.138026	-15.854924
29904		50.730240	37.141395	-15.859658
29905		50.741558	37.149958	-15.853832
29906		50.746881	37.150699	-15.849009
29907		50.745286	37.146555	-15.842493
29908		50.741144	37.140343	-15.835732
29909		50.738533	37.137669	-15.827918
29910		50.736365	37.136702	-15.823938
29911		50.738138	37.137627	-15.816359
29912		50.738337	37.136412	-15.810501
29913		50.735337	37.132004	-15.811651
29914		50.728829	37.125156	-15.813684
29915		50.728481	37.120475	-15.813912
29916		50.733349	37.118642	-15.813943
29917		50.746355	37.122731	-15.803245
29918		50.757926	37.127406	-15.788472
29919		50.768088	37.134117	-15.777678
29920		50.772031	37.138602	-15.769209
29921		50.770869	37.142853	-15.764459
29922		50.768555	37.145159	-15.752118
29923		50.758862	37.148120	-15.742942
29924		50.742445	37.151220	-15.734323
29925		50.717876	37.152442	-15.723962
29926		50.692479	37.150338	-15.710661
29927		50.668847	37.146952	-15.694999
29928		50.648680	37.146092	-15.675185
29929		50.630967	37.149725	-15.653855
29930		50.611549	37.154582	-15.641540
29931		50.596510	37.161951	-15.635063
29932		50.585227	37.171836	-15.625314
29933		50.571390	37.182026	-15.612000
29934		50.560107	37.187934	-15.597532
29935		50.549838	37.190961	-15.582104
29936		50.536432	37.193142	-15.570325
29937		50.527183	37.198726	-15.556318
29938		50.518018	37.197786	-15.550442
29939		50.509211	37.199471	-15.538390
29940		50.501533	37.198926	-15.526423
29941		50.493736	37.195970	-15.508719
29942		50.490721	37.191711	-15.490997
29943		50.486954	37.188028	-15.473514
29944		50.481998	37.187393	-15.450748
29945		50.479002	37.184685	-15.433604
29946		50.474318	37.178389	-15.420631
29947		50.470231	37.172876	-15.409700
29948		50.461829	37.165776	-15.392347
29949		50.450336	37.159491	-15.372464
29950		50.438679	37.153278	-15.352790
29951		50.429551	37.145968	-15.333271
29952		50.420825	37.139614	-15.313137
29953		50.412449	37.130862	-15.298393
29954		50.402757	37.120201	-15.285858
29955		50.386955	37.112236	-15.271585
29956		50.370092	37.104815	-15.253632
29957		50.354493	37.097651	-15.233730
29958		50.337375	37.090213	-15.210271
29959		50.319707	37.079448	-15.187944
29960		50.298573	37.065431	-15.168476
29961		50.270916	37.049209	-15.137818
29962		50.231373	37.031912	-15.104726
29963		50.187567	37.011192	-15.070862
29964		50.141874	36.988371	-15.047058
29965		50.098673	36.965212	-15.035137
29966		50.066392	36.951798	-15.018950
29967		50.040853	36.945549	-15.000004
29968		50.025479	36.942450	-14.980723
29969		50.012131	36.940613	-14.952837
29970		49.988586	36.938107	-14.926786
29971		49.952542	36.935969	-14.893718
29972		49.908398	36.931994	-14.862096
29973		49.866115	36.927634	-14.827366
29974		49.822165	36.920471	-14.794487
29975		49.780186	36.910490	-14.760113
29976		49.740115	36.901771	-14.728258
29977		49.702741	36.884692	-14.697516
29978		49.674109	36.869721	-14.667327
29979		49.649224	36.855626	-14.634837
29980		49.626129	36.841170	-14.596175
29981		49.609588	36.828948	-14.555613
29982		49.592481	36.816670	-14.515314
29983		49.572025	36.804979	-14.481173
29984		49.548327	36.795141	-14.448550
29985		49.524110	36.787514	-14.421978
29986		49.504184	36.782502	-14.398401
29987		49.488604	36.775957	-14.376129
29988		49.476717	36.772760	-14.357874
29989		49.475063	36.767862	-14.339575
29990		49.478375	36.768960	-14.323008
29991		49.484277	36.769624	-14.308705
29992		49.488525	36.769290	-14.298372
29993		49.487325	36.769925	-14.285232
29994		49.469740	36.775083	-14.262982
29995		49.433108	36.779936	-14.236115
29996		49.384200	36.782724	-14.206924
29997		49.328444	36.782175	-14.173181
29998		49.262779	36.782698	-14.137439
29999		49.197242	36.783054	-14.099425
30000		49.139752	36.782976	-14.070449
30001		49.094290	36.779810	-14.054597
30002		49.062876	36.781655	-14.041725
30003		49.042081	36.780202	-14.038122
30004		49.033709	36.776098	-14.032422
30005		49.036539	36.773008	-14.018793
30006		49.039355	36.761883	-14.006528
30007		49.034068	36.747180	-13.996740
30008		49.021093	36.731570	-13.986183
30009		48.993530	36.718106	-13.978519
30010		48.962230	36.707047	-13.973384
30011		48.930657	36.698967	-13.968432
30012		48.896789	36.692092	-13.969151
30013		48.868221	36.687230	-13.970322
30014		48.847318	36.677723	-13.973350
30015		48.833476	36.666543	-13.975916
30016		48.827885	36.654168	-13.979381
30017		48.825397	36.641702	-13.986423
30018		48.825113	36.628125	-13.994353
30019		48.826933	36.617357	-14.005009
30020		48.828879	36.610717	-14.017048
30021		48.835397	36.605914	-14.026700
30022		48.843184	36.599035	-14.037798
30023		48.849846	36.594323	-14.048878
30024		48.853098	36.590389	-14.063000
30025		48.859660	36.584729	-14.079463
30026		48.870521	36.580154	-14.094137
30027		48.882278	36.574188	-14.103911
30028		48.892810	36.570389	-14.111083
30029		48.901633	36.568522	-14.117021
30030		48.910305	36.566709	-14.123348
30031		48.919418	36.563287	-14.132236
30032		48.927275	36.560445	-14.143278
30033		48.932897	36.559423	-14.156133
30034		48.940316	36.554060	-14.167190
30035		48.951389	36.550319	-14.174052
30036		48.963072	36.546798	-14.179271
30037		48.970732	36.544805	-14.182263
30038		48.976578	36.541524	-14.188419
30039		48.984235	36.539358	-14.196417
30040		48.986832	36.536911	-14.205042
30041		48.990231	36.535310	-14.211973
30042		48.994414	36.535665	-14.218625
30043		48.999712	36.534472	-14.226419
30044		49.006088	36.532124	-14.231919
30045		49.011965	36.531216	-14.231388
30046		49.016384	36.532509	-14.227175
30047		49.012760	36.531013	-14.222856
30048		49.006069	36.528061	-14.224032
30049		48.997721	36.525487	-14.228179
30050		48.993949	36.522413	-14.228887
30051		48.990201	36.518429	-14.229885
30052		48.988531	36.514238	-14.230085
30053		48.986589	36.512360	-14.227740
30054		48.986306	36.509323	-14.224624
30055		48.990263	36.506339	-14.223351
30056		48.992950	36.502338	-14.226577
30057		49.000846	36.501836	-14.226262
30058		49.007803	36.504531	-14.221529
30059		49.006191	36.506727	-14.219888
30060		49.002870	36.511026	-14.218458
30061		48.996508	36.515349	-14.216327
30062		48.988408	36.521756	-14.214518
30063		48.976387	36.523999	-14.214384
30064		48.971144	36.526242	-14.212178
30065		48.970204	36.525438	-14.206316
30066		48.973901	36.524115	-14.206169
30067		48.978987	36.515778	-14.212097
30068		48.987168	36.507398	-14.218508
30069		48.998360	36.498124	-14.221794
30070		49.004632	36.492541	-14.225306
30071		49.013526	36.489218	-14.230512
30072		49.022902	36.480308	-14.237024
30073		49.036198	36.476291	-14.233275
30074		49.037683	36.472851	-14.231656
30075		49.036513	36.467935	-14.234006
30076		49.040005	36.460077	-14.239399
30077		49.041634	36.452626	-14.241831
30078		49.042978	36.446695	-14.245676
30079		49.052899	36.441915	-14.247340
30080		49.066110	36.437142	-14.250668
30081		49.077597	36.434298	-14.257592
30082		49.089412	36.423516	-14.266364
30083		49.099217	36.415477	-14.275595
30084		49.107928	36.408022	-14.281367
30085		49.114138	36.402254	-14.288286
30086		49.121958	36.395357	-14.299412
30087		49.136109	36.393165	-14.307407
30088		49.154906	36.402609	-14.307491
30089		49.169810	36.411885	-14.309434
30090		49.181195	36.418772	-14.312414
30091		49.188349	36.425517	-14.311932
30092		49.189967	36.430133	-14.314922
30093		49.187325	36.434570	-14.314638
30094		49.184995	36.436700	-14.311960
30095		49.179407	36.437221	-14.307315
30096		49.172514	36.437517	-14.300271
30097		49.165056	36.438514	-14.289732
30098		49.159824	36.440055	-14.275323
30099		49.149938	36.441183	-14.264987
30100		49.138318	36.442783	-14.259614
30101		49.125689	36.445470	-14.265840
30102		49.117223	36.448495	-14.275593
30103		49.110969	36.453560	-14.284934
30104		49.108714	36.454811	-14.293814
30105		49.114762	36.455618	-14.299428
30106		49.125448	36.454293	-14.301150
30107		49.132539	36.452178	-14.302706
30108		49.136523	36.450915	-14.303265
30109		49.139534	36.448535	-14.307535
30110		49.132250	36.446177	-14.319513
30111		49.124581	36.446832	-14.336800
30112		49.119961	36.449068	-14.354990
30113		49.118224	36.452799	-14.373300
30114		49.111457	36.461812	-14.387823
30115		49.109453	36.467824	-14.403257
30116		49.110143	36.473725	-14.419058
30117		49.111210	36.476426	-14.437642
30118		49.115836	36.479951	-14.461238
30119		49.128435	36.483584	-14.488571
30120		49.148165	36.488120	-14.521391
30121		49.165665	36.494479	-14.560698
30122		49.184598	36.502779	-14.600881
30123		49.202749	36.514008	-14.639196
30124		49.218409	36.528019	-14.674989
30125		49.233756	36.541902	-14.708314
30126		49.248431	36.557344	-14.737911
30127		49.262946	36.571871	-14.768716
30128		49.281011	36.584075	-14.797266
30129		49.298429	36.597046	-14.827204
30130		49.318529	36.613838	-14.846310
30131		49.338403	36.629628	-14.864955
30132		49.358166	36.642315	-14.883429
30133		49.374691	36.654108	-14.902362
30134		49.384524	36.666917	-14.919447
30135		49.390393	36.678773	-14.936183
30136		49.389440	36.686628	-14.956673
30137		49.394074	36.691655	-14.975731
30138		49.402860	36.692937	-14.993623
30139		49.412160	36.697495	-15.009032
30140		49.421796	36.703853	-15.022137
30141		49.432351	36.711156	-15.035110
30142		49.447502	36.717972	-15.049285
30143		49.464999	36.721987	-15.066720
30144		49.478635	36.720331	-15.087064
30145		49.495068	36.721762	-15.103320
30146		49.511334	36.724718	-15.125144
30147		49.530847	36.729935	-15.140506
30148		49.548348	36.736446	-15.157592
30149		49.567196	36.746501	-15.174334
30150		49.581857	36.756346	-15.193894
30151		49.595562	36.766608	-15.212610
30152		49.612421	36.778603	-15.228884
30153		49.628928	36.791404	-15.240418
30154		49.648914	36.800224	-15.245371
30155		49.661134	36.803991	-15.252986
30156		49.671482	36.808159	-15.259379
30157		49.684877	36.809851	-15.266940
30158		49.699983	36.812663	-15.276426
30159		49.716572	36.814988	-15.284852
30160		49.728649	36.819501	-15.295460
30161		49.745957	36.826192	-15.297111
30162		49.761818	36.835764	-15.292880
30163		49.773109	36.841041	-15.289334
30164		49.785577	36.844195	-15.285655
30165		49.790991	36.847396	-15.278382
30166		49.792070	36.855199	-15.272443
30167		49.785033	36.865090	-15.269210
30168		49.779236	36.875257	-15.270253
30169		49.778108	36.882374	-15.270771
30170		49.774960	36.887510	-15.272777
30171		49.775909	36.892048	-15.272582
30172		49.774929	36.895305	-15.271360
30173		49.774059	36.899163	-15.267878
30174		49.773847	36.904225	-15.264629
30175		49.775797	36.909740	-15.261047
30176		49.776161	36.914917	-15.259202
30177		49.777249	36.919466	-15.260438
30178		49.781026	36.926262	-15.255388
30179		49.780144	36.930297	-15.251678
30180		49.780895	36.933953	-15.249887
30181		49.782533	36.934507	-15.250593
30182		49.790980	36.931838	-15.253550
30183		49.805352	36.929533	-15.258159
30184		49.812542	36.928100	-15.268520
30185		49.820913	36.927817	-15.274608
30186		49.835453	36.930497	-15.282677
30187		49.850592	36.936590	-15.278344
30188		49.862831	36.943699	-15.273874
30189		49.867354	36.951449	-15.267334
30190		49.870320	36.957251	-15.262240
30191		49.866861	36.959928	-15.259159
30192		49.857515	36.961238	-15.261491
30193		49.848559	36.958475	-15.264265
30194		49.841472	36.961115	-15.265363
30195		49.833528	36.965817	-15.272068
30196		49.833119	36.969134	-15.277033
30197		49.841674	36.972050	-15.280053
30198		49.852903	36.976426	-15.283755
30199		49.865044	36.978503	-15.286980
30200		49.875027	36.979383	-15.290662
30201		49.880468	36.978339	-15.299559
30202		49.884147	36.976918	-15.308997
30203		49.883274	36.976967	-15.316478
30204		49.884118	36.978993	-15.318824
30205		49.880615	36.984840	-15.316317
30206		49.869533	36.990642	-15.312304
30207		49.854651	36.994189	-15.311263
30208		49.840393	36.999245	-15.309099
30209		49.823568	37.001259	-15.310299
30210		49.809449	37.003867	-15.314340
30211		49.806389	37.005735	-15.318560
30212		49.809200	37.008978	-15.323752
30213		49.814499	37.011938	-15.326709
30214		49.818519	37.014706	-15.327209
30215		49.822324	37.015981	-15.326375
30216		49.822979	37.016371	-15.327371
30217		49.824245	37.011149	-15.322936
30218		49.819280	37.007886	-15.320879
30219		49.811023	37.000621	-15.318961
30220		49.800194	36.992776	-15.319997
30221		49.790926	36.983716	-15.319224
30222		49.781502	36.972188	-15.319052
30223		49.777914	36.961044	-15.323615
30224		49.778306	36.946857	-15.330305
30225		49.776845	36.934816	-15.340640
30226		49.771902	36.921813	-15.347622
30227		49.767868	36.909900	-15.349592
30228		49.757789	36.894928	-15.355565
30229		49.744183	36.879272	-15.360904
30230		49.728888	36.859060	-15.368639
30231		49.716500	36.838134	-15.373445
30232		49.705689	36.816556	-15.378774
30233		49.693489	36.801737	-15.390709
30234		49.688591	36.788599	-15.407216
30235		49.694989	36.781085	-15.418247
30236		49.707606	36.772857	-15.427723
30237		49.727857	36.761529	-15.433322
30238		49.749761	36.745035	-15.438147
30239		49.775956	36.727107	-15.439531
30240		49.799433	36.708612	-15.439752
30241		49.819410	36.690088	-15.439207
30242		49.834093	36.671967	-15.440857
30243		49.849610	36.654895	-15.442501
30244		49.862833	36.641273	-15.443296
30245		49.871806	36.627600	-15.440504
30246		49.873089	36.617764	-15.434921
30247		49.868640	36.609011	-15.427656
30248		49.865524	36.603867	-15.416900
30249		49.862017	36.599414	-15.411373
30250		49.865198	36.596465	-15.404439
30251		49.870460	36.590707	-15.399998
30252		49.878735	36.585689	-15.394157
30253		49.889149	36.580546	-15.385242
30254		49.897459	36.574763	-15.376698
30255		49.907908	36.570913	-15.368344
30256		49.918251	36.565531	-15.364710
30257		49.929160	36.564353	-15.360671
30258		49.943287	36.563859	-15.356538
30259		49.958730	36.568567	-15.347585
30260		49.966703	36.573127	-15.341538
30261		49.970205	36.577496	-15.337884
30262		49.969948	36.583332	-15.337338
30263		49.976699	36.592281	-15.334590
30264		49.978037	36.600858	-15.336827
30265		49.981084	36.610647	-15.336449
30266		49.985912	36.619257	-15.334852
30267		49.991255	36.630239	-15.335966
30268		49.995991	36.640426	-15.335009
30269		49.994589	36.650020	-15.334666
30270		49.993274	36.658836	-15.333302
30271		49.992302	36.668533	-15.334992
30272		49.990092	36.677885	-15.339005
30273		49.991232	36.689060	-15.339943
30274		49.992327	36.701601	-15.341403
30275		49.994962	36.712772	-15.343960
30276		49.997603	36.724021	-15.348283
30277		49.999916	36.732688	-15.352490
30278		50.002360	36.742300	-15.355470
30279		50.005689	36.752111	-15.358552
30280		50.007025	36.760676	-15.360794
30281		50.006434	36.772946	-15.362649
30282		50.000799	36.780731	-15.365099
30283		49.994135	36.788306	-15.369105
30284		49.991589	36.793511	-15.377280
30285		49.989061	36.795430	-15.388032
30286		49.987101	36.795907	-15.399752
30287		49.985047	36.795460	-15.412460
30288		49.990347	36.796773	-15.424674
30289		49.999837	36.798197	-15.434202
30290		50.007101	36.795994	-15.441850
30291		50.012610	36.790922	-15.450566
30292		50.022471	36.784501	-15.457117
30293		50.036869	36.779812	-15.461703
30294		50.055915	36.776256	-15.469531
30295		50.074464	36.773230	-15.478503
30296		50.086984	36.771346	-15.491297
30297		50.099754	36.768618	-15.505548
30298		50.116841	36.768573	-15.517950
30299		50.137964	36.774216	-15.526651
30300		50.154033	36.781175	-15.538159
30301		50.159520	36.791391	-15.547587
30302		50.155478	36.801856	-15.557601
30303		50.152135	36.810793	-15.568581
30304		50.144144	36.818770	-15.577690
30305		50.133145	36.823613	-15.578628
30306		50.123174	36.825590	-15.582261
30307		50.124665	36.826972	-15.583448
30308		50.132250	36.824119	-15.584318
30309		50.142101	36.820246	-15.579325
30310		50.153035	36.815036	-15.572292
30311		50.165409	36.809164	-15.569411
30312		50.178192	36.802659	-15.570725
30313		50.193447	36.795865	-15.565140
30314		50.203076	36.792757	-15.558663
30315		50.206688	36.790640	-15.554479
30316		50.210687	36.788676	-15.547580
30317		50.213522	36.788016	-15.538369
30318		50.212473	36.787311	-15.532452
30319		50.212298	36.788259	-15.529224
30320		50.212357	36.788596	-15.524046
30321		50.217931	36.786384	-15.512642
30322		50.217354	36.787422	-15.503994
30323		50.220069	36.786022	-15.497538
30324		50.225993	36.786082	-15.491416
30325		50.235318	36.790053	-15.485135
30326		50.239381	36.792055	-15.482931
30327		50.239876	36.794026	-15.478209
30328		50.242248	36.794870	-15.473866
30329		50.243599	36.796340	-15.463880
30330		50.251094	36.799233	-15.450987
30331		50.256427	36.804011	-15.434693
30332		50.257821	36.806308	-15.424111
30333		50.259540	36.806999	-15.416836
30334		50.258215	36.806180	-15.414996
30335		50.259114	36.805786	-15.414705
30336		50.259099	36.807644	-15.414943
30337		50.262516	36.806232	-15.412116
30338		50.266001	36.808114	-15.408508
30339		50.270028	36.811666	-15.406949
30340		50.277558	36.814449	-15.403602
30341		50.286000	36.817470	-15.397502
30342		50.289381	36.820975	-15.389758
30343		50.288612	36.822711	-15.387470
30344		50.289195	36.824634	-15.393884
30345		50.294296	36.823571	-15.400366
30346		50.299846	36.820919	-15.413368
30347		50.310944	36.819567	-15.420429
30348		50.322347	36.816682	-15.427710
30349		50.332649	36.814221	-15.434830
30350		50.343197	36.815949	-15.442629
30351		50.354045	36.819336	-15.446754
30352		50.358566	36.823785	-15.449295
30353		50.359758	36.826644	-15.454889
30354		50.362125	36.828147	-15.462805
30355		50.364074	36.830463	-15.471074
30356		50.366840	36.835231	-15.481671
30357		50.370891	36.841881	-15.490087
30358		50.378086	36.850864	-15.498851
30359		50.390208	36.859281	-15.507893
30360		50.406038	36.870935	-15.521290
30361		50.424030	36.887197	-15.534315
30362		50.442043	36.901689	-15.551895
30363		50.463666	36.918791	-15.560325
30364		50.480308	36.936301	-15.566816
30365		50.488141	36.953396	-15.570407
30366		50.487485	36.966223	-15.579910
30367		50.483559	36.975942	-15.591844
30368		50.477400	36.982703	-15.604531
30369		50.466864	36.989237	-15.617083
30370		50.455437	36.995684	-15.624640
30371		50.442089	37.000954	-15.629222
30372		50.430607	37.003379	-15.636869
30373		50.424593	37.005599	-15.643351
30374		50.420765	37.007374	-15.646755
30375		50.417172	37.007596	-15.649076
30376		50.409542	37.009287	-15.655638
30377		50.405175	37.017459	-15.660269
30378		50.407821	37.023783	-15.671531
30379		50.414100	37.034913	-15.681239
30380		50.423204	37.045895	-15.690791
30381		50.431036	37.055708	-15.698661
30382		50.438681	37.066463	-15.699918
30383		50.440372	37.078316	-15.700363
30384		50.441405	37.091681	-15.694966
30385		50.434356	37.102426	-15.696223
30386		50.421938	37.115088	-15.700197
30387		50.407962	37.126567	-15.701707
30388		50.393898	37.137260	-15.705623
30389		50.380832	37.145547	-15.711562
30390		50.371106	37.152363	-15.718588
30391		50.367512	37.156629	-15.725654
30392		50.366135	37.161226	-15.738752
30393		50.375058	37.170498	-15.751892
30394		50.387718	37.185450	-15.762293
30395		50.395421	37.197431	-15.773607
30396		50.396592	37.208166	-15.788811
30397		50.404242	37.220936	-15.812186
30398		50.418579	37.236846	-15.839109
30399		50.436466	37.253570	-15.859965
30400		50.449452	37.262862	-15.880095
30401		50.461673	37.273038	-15.892596
30402		50.468534	37.277094	-15.902845
30403		50.472456	37.277402	-15.908762
30404		50.473768	37.276215	-15.920123
30405		50.474581	37.274827	-15.934747
30406		50.476132	37.274447	-15.949533
30407		50.483099	37.269686	-15.961566
30408		50.498618	37.266873	-15.971153
30409		50.516097	37.262174	-15.981329
30410		50.539496	37.255518	-15.990147
30411		50.561126	37.248668	-15.994904
30412		50.582638	37.244125	-15.993290
30413		50.593851	37.240426	-15.992449
30414		50.597582	37.238359	-15.989612
30415		50.598212	37.236406	-15.986158
30416		50.597691	37.236583	-15.984363
30417		50.590718	37.237880	-15.984499
30418		50.583872	37.235846	-15.983701
30419		50.578414	37.232399	-15.984838
30420		50.573454	37.228371	-15.984890
30421		50.571841	37.224365	-15.984758
30422		50.577606	37.217920	-15.984200
30423		50.587389	37.210804	-15.977313
30424		50.588315	37.206617	-15.966806
30425		50.587089	37.202713	-15.952728
30426		50.584581	37.197046	-15.935867
30427		50.574415	37.189623	-15.923453
30428		50.562210	37.179269	-15.917684
30429		50.550979	37.168248	-15.909355
30430		50.543889	37.155871	-15.899862
30431		50.538018	37.140554	-15.890703
30432		50.533248	37.123850	-15.884193
30433		50.526432	37.110837	-15.877761
30434		50.520636	37.101176	-15.865566
30435		50.519284	37.089180	-15.851807
30436		50.514256	37.076485	-15.839731
30437		50.508226	37.058589	-15.836216
30438		50.499953	37.036960	-15.840511
30439		50.493796	37.016532	-15.842541
30440		50.484398	36.998748	-15.839160
30441		50.469261	36.982070	-15.824491
30442		50.451249	36.969883	-15.797196
30443		50.419800	36.960483	-15.767238
30444		50.377393	36.949246	-15.741698
30445		50.331854	36.939531	-15.716181
30446		50.285572	36.934532	-15.697086
30447		50.248903	36.929170	-15.686887
30448		50.231021	36.925511	-15.681271
30449		50.234103	36.924168	-15.675150
30450		50.248885	36.923697	-15.677118
30451		50.275463	36.929075	-15.684830
30452		50.300137	36.944411	-15.687144
30453		50.314342	36.966177	-15.684629
30454		50.317987	36.989702	-15.681268
30455		50.312384	37.014294	-15.675291
30456		50.298374	37.033882	-15.672210
30457		50.281746	37.050416	-15.668042
30458		50.270972	37.055436	-15.671616
30459		50.266102	37.058467	-15.677003
30460		50.262658	37.058717	-15.680471
30461		50.262040	37.058750	-15.677491
30462		50.262773	37.057627	-15.673071
30463		50.265572	37.055323	-15.666650
30464		50.266399	37.052628	-15.661586
30465		50.262687	37.049644	-15.647722
30466		50.248395	37.044448	-15.637626
30467		50.229932	37.041601	-15.623580
30468		50.215003	37.037103	-15.610021
30469		50.202106	37.034496	-15.597192
30470		50.190556	37.032352	-15.583128
30471		50.174884	37.030072	-15.569850
30472		50.161784	37.024389	-15.555076
30473		50.150472	37.019935	-15.537364
30474		50.138469	37.015340	-15.518555
30475		50.127254	37.010799	-15.495788
30476		50.107870	37.006953	-15.477172
30477		50.089414	37.004786	-15.460972
30478		50.070777	37.003437	-15.447812
30479		50.052946	37.002997	-15.435079
30480		50.032043	37.000323	-15.423166
30481		50.016863	36.993252	-15.409155
30482		49.998131	36.983818	-15.400916
30483		49.984270	36.972941	-15.390886
30484		49.969774	36.961260	-15.381599
30485		49.954804	36.951885	-15.368571
30486		49.936476	36.945041	-15.350783
30487		49.912270	36.939276	-15.331883
30488		49.889413	36.929784	-15.316577
30489		49.869576	36.920126	-15.295904
30490		49.854185	36.913133	-15.277637
30491		49.843901	36.907262	-15.265877
30492		49.834718	36.899952	-15.256856
30493		49.825962	36.890197	-15.255131
30494		49.825195	36.879877	-15.254183
30495		49.829442	36.877085	-15.248699
30496		49.834118	36.878471	-15.240414
30497		49.842664	36.876798	-15.231084
30498		49.851626	36.875129	-15.223811
30499		49.856284	36.878868	-15.209035
30500		49.843072	36.885796	-15.205612
30501		49.824120	36.894505	-15.209949
30502		49.803874	36.906963	-15.214816
30503		49.784654	36.920500	-15.214133
30504		49.758631	36.935758	-15.209765
30505		49.733389	36.940802	-15.198131
30506		49.708222	36.941088	-15.190014
30507		49.680330	36.934351	-15.180950
30508		49.653131	36.924528	-15.176955
30509		49.631943	36.915123	-15.174254
30510		49.615027	36.905181	-15.172262
30511		49.606191	36.893840	-15.168613
30512		49.595830	36.882171	-15.166380
30513		49.590974	36.870822	-15.168497
30514		49.587538	36.861451	-15.171415
30515		49.581764	36.848263	-15.179054
30516		49.581678	36.832366	-15.188396
30517		49.587979	36.816963	-15.194583
30518		49.597117	36.803215	-15.197692
30519		49.602985	36.791789	-15.199105
30520		49.607658	36.783523	-15.195058
30521		49.609085	36.778330	-15.194597
30522		49.610672	36.773294	-15.197085
30523		49.607637	36.765453	-15.205685
30524		49.610344	36.756630	-15.211020
30525		49.613118	36.750079	-15.214400
30526		49.615029	36.744339	-15.214885
30527		49.613406	36.737707	-15.215129
30528		49.614525	36.730219	-15.212878
30529		49.615271	36.721811	-15.215617
30530		49.618592	36.717171	-15.217532
30531		49.619985	36.710944	-15.224644
30532		49.620372	36.706437	-15.227045
30533		49.619525	36.701442	-15.230244
30534		49.619304	36.692750	-15.236064
30535		49.620945	36.680969	-15.238835
30536		49.619281	36.671226	-15.238475
30537		49.614761	36.663289	-15.238567
30538		49.616745	36.651902	-15.243217
30539		49.620576	36.644219	-15.249272
30540		49.623604	36.639520	-15.250492
30541		49.622175	36.632956	-15.246984
30542		49.618504	36.626827	-15.241689
30543		49.615179	36.620892	-15.236837
30544		49.610933	36.615358	-15.237593
30545		49.608889	36.607996	-15.232944
30546		49.602852	36.602877	-15.232220
30547		49.601233	36.596272	-15.229555
30548		49.599059	36.589668	-15.225045
30549		49.598222	36.583361	-15.217885
30550		49.593346	36.577761	-15.212504
30551		49.589245	36.568910	-15.210530
30552		49.583404	36.561350	-15.215952
30553		49.583475	36.554548	-15.212942
30554		49.578708	36.548082	-15.214352
30555		49.578981	36.541972	-15.210307
30556		49.577462	36.534669	-15.209237
30557		49.579262	36.528240	-15.210499
30558		49.582062	36.522667	-15.213071
30559		49.588978	36.518055	-15.210822
30560		49.598050	36.514006	-15.204987
30561		49.606454	36.507318	-15.201307
30562		49.614760	36.497395	-15.202292
30563		49.626652	36.489014	-15.204375
30564		49.634975	36.484640	-15.210683
30565		49.640992	36.480683	-15.213750
30566		49.646549	36.478127	-15.217136
30567		49.650491	36.475851	-15.218629
30568		49.650343	36.471176	-15.224379
30569		49.653907	36.463493	-15.229503
30570		49.657873	36.458914	-15.237556
30571		49.665825	36.453531	-15.244133
30572		49.674094	36.445131	-15.250513
30573		49.680336	36.437650	-15.255480
30574		49.689198	36.429364	-15.263253
30575		49.701993	36.417921	-15.271729
30576		49.713870	36.407921	-15.278388
30577		49.724190	36.399699	-15.288177
30578		49.730673	36.393951	-15.305897
30579		49.740465	36.388839	-15.321410
30580		49.749130	36.385228	-15.335859
30581		49.752582	36.387683	-15.348015
30582		49.748671	36.394068	-15.362785
30583		49.739017	36.403885	-15.378766
30584		49.722395	36.412972	-15.396693
30585		49.706062	36.426175	-15.410659
30586		49.692722	36.438436	-15.426062
30587		49.684103	36.454092	-15.435951
30588		49.674882	36.469758	-15.446175
30589		49.671570	36.485861	-15.453175
30590		49.675651	36.498938	-15.461630
30591		49.681656	36.510111	-15.470740
30592		49.687708	36.519619	-15.479385
30593		49.690726	36.527847	-15.483660
30594		49.691519	36.535515	-15.481827
30595		49.689184	36.542271	-15.482055
30596		49.685318	36.549673	-15.481273
30597		49.677679	36.557450	-15.479923
30598		49.671176	36.565041	-15.480321
30599		49.670876	36.573152	-15.483045
30600		49.677424	36.582881	-15.483592
30601		49.678979	36.592086	-15.487880
30602		49.677545	36.599123	-15.494720
30603		49.679936	36.606187	-15.503262
30604		49.688164	36.613751	-15.513439
30605		49.698241	36.624923	-15.525109
30606		49.708722	36.639343	-15.539396
30607		49.722101	36.657548	-15.551761
30608		49.732968	36.674521	-15.561290
30609		49.747952	36.691766	-15.568134
30610		49.769498	36.705642	-15.569584
30611		49.791361	36.721171	-15.567173
30612		49.810374	36.732201	-15.558998
30613		49.824852	36.739802	-15.548961
30614		49.833370	36.745250	-15.542230
30615		49.838580	36.751374	-15.541404
30616		49.843754	36.755861	-15.550077
30617		49.858123	36.763286	-15.560077
30618		49.878049	36.775171	-15.561430
30619		49.895248	36.790255	-15.555544
30620		49.908755	36.800077	-15.543618
30621		49.915123	36.806675	-15.527986
30622		49.919300	36.813811	-15.500574
30623		49.917913	36.818046	-15.472465
30624		49.906355	36.814367	-15.453070
30625		49.901161	36.812993	-15.437353
30626		49.899250	36.815407	-15.421857
30627		49.909479	36.817287	-15.400056
30628		49.932311	36.817281	-15.378026
30629		49.955375	36.818252	-15.349710
30630		49.976394	36.822033	-15.309178
30631		49.998838	36.822746	-15.265325
30632		50.020018	36.818522	-15.225647
30633		50.042779	36.808834	-15.198506
30634		50.055164	36.806463	-15.175201
30635		50.053002	36.811828	-15.159755
30636		50.053217	36.824973	-15.152303
30637		50.056554	36.837952	-15.153425
30638		50.053945	36.855209	-15.151134
30639		50.057678	36.870777	-15.137858
30640		50.054034	36.883200	-15.116613
30641		50.042294	36.888177	-15.092518
30642		50.027832	36.894237	-15.069387
30643		50.010548	36.901108	-15.049124
30644		49.992974	36.911950	-15.037915
30645		49.981034	36.925664	-15.040024
30646		49.980271	36.943178	-15.051412
30647		49.987735	36.960064	-15.063016
30648		50.002482	36.973012	-15.074091
30649		50.008483	36.986187	-15.081899
30650		50.009607	37.000210	-15.083984
30651		50.009617	37.009433	-15.075233
30652		50.010343	37.013125	-15.063937
30653		50.006784	37.012683	-15.048964
30654		50.001464	37.008656	-15.038825
30655		49.995049	37.008313	-15.030886
30656		49.988661	37.008749	-15.030089
30657		49.988962	37.008198	-15.036052
30658		50.000372	37.006838	-15.048573
30659		50.014602	37.008471	-15.061853
30660		50.027027	37.009756	-15.070990
30661		50.036546	37.010463	-15.068283
30662		50.046262	37.010569	-15.054211
30663		50.055143	37.007194	-15.035602
30664		50.054310	37.001009	-15.020357
30665		50.043815	36.993455	-15.016670
30666		50.031960	36.985566	-15.010976
30667		50.019624	36.979845	-15.006551
30668		50.015692	36.977680	-15.000532
30669		50.017132	36.978140	-14.992725
30670		50.019434	36.979777	-14.981573
30671		50.020643	36.982761	-14.962867
30672		50.010579	36.984136	-14.944878
30673		50.000772	36.983127	-14.923118
30674		49.988696	36.978444	-14.909213
30675		49.974692	36.976552	-14.902197
30676		49.961722	36.973931	-14.903786
30677		49.953229	36.972026	-14.911074
30678		49.951697	36.971025	-14.922799
30679		49.956864	36.970533	-14.933970
30680		49.965309	36.969358	-14.942227
30681		49.975331	36.970912	-14.939101
30682		49.980149	36.969870	-14.932228
30683		49.979644	36.969249	-14.923127
30684		49.972605	36.969635	-14.911450
30685		49.962525	36.967739	-14.903703
30686		49.949687	36.962743	-14.906707
30687		49.942787	36.956623	-14.915789
30688		49.949059	36.951801	-14.921959
30689		49.961298	36.947442	-14.929572
30690		49.978540	36.945857	-14.931586
30691		50.001402	36.941377	-14.932073
30692		50.024493	36.939522	-14.928349
30693		50.040033	36.936881	-14.923318
30694		50.047898	36.934080	-14.920061
30695		50.051521	36.932554	-14.915688
30696		50.053315	36.933229	-14.909956
30697		50.053615	36.931290	-14.905715
30698		50.059052	36.930327	-14.904981
30699		50.069442	36.926462	-14.906354
30700		50.079064	36.918434	-14.906713
30701		50.092036	36.909368	-14.904522
30702		50.103358	36.901753	-14.899560
30703		50.114265	36.894178	-14.894368
30704		50.124565	36.888757	-14.885911
30705		50.130090	36.887797	-14.880071
30706		50.130716	36.888974	-14.879001
30707		50.133753	36.893748	-14.874414
30708		50.133160	36.901069	-14.869058
30709		50.128155	36.908188	-14.858932
30710		50.117962	36.912673	-14.846972
30711		50.105126	36.914831	-14.836463
30712		50.090380	36.916709	-14.827006
30713		50.075721	36.919406	-14.824754
30714		50.060328	36.923479	-14.821982
30715		50.047454	36.930426	-14.819416
30716		50.034539	36.938200	-14.819419
30717		50.027557	36.945518	-14.818554
30718		50.028650	36.949182	-14.817453
30719		50.035331	36.952278	-14.815054
30720		50.035906	36.954252	-14.811930
30721		50.032127	36.952602	-14.813174
30722		50.027053	36.950906	-14.816573
30723		50.028210	36.949731	-14.822202
30724		50.029171	36.950935	-14.826566
30725		50.021122	36.952473	-14.826612
30726		50.011314	36.956178	-14.822160
30727		49.999169	36.958465	-14.819462
30728		49.994558	36.959257	-14.822832
30729		49.995078	36.958607	-14.832926
30730		49.997628	36.958502	-14.844861
30731		49.996105	36.956653	-14.852207
30732		49.999471	36.956785	-14.856737
30733		50.006094	36.954250	-14.861720
30734		50.011256	36.953965	-14.867719
30735		50.010117	36.952326	-14.869462
30736		50.002656	36.950927	-14.870005
30737		49.992001	36.944834	-14.867415
30738		49.985227	36.941210	-14.866016
30739		49.980275	36.938801	-14.871199
30740		49.978443	36.937009	-14.874788
30741		49.972194	36.937609	-14.878224
30742		49.969916	36.938902	-14.882395
30743		49.970612	36.944095	-14.886315
30744		49.973366	36.949715	-14.885272
30745		49.965529	36.956891	-14.886976
30746		49.958379	36.961121	-14.888770
30747		49.953407	36.966523	-14.892911
30748		49.953178	36.973830	-14.897752
30749		49.951871	36.980707	-14.904574
30750		49.948752	36.987360	-14.911972
30751		49.942140	36.990046	-14.923014
30752		49.939261	36.992720	-14.935930
30753		49.936051	36.994656	-14.943760
30754		49.931491	36.994640	-14.949187
30755		49.927616	36.994661	-14.955841
30756		49.929395	36.991265	-14.959673
30757		49.930594	36.987726	-14.960260
30758		49.929040	36.985257	-14.957109
30759		49.926967	36.981938	-14.952620
30760		49.924208	36.980003	-14.949387
30761		49.919372	36.975300	-14.951090
30762		49.918371	36.974483	-14.954706
30763		49.923086	36.969017	-14.961203
30764		49.932742	36.961731	-14.968957
30765		49.947637	36.955767	-14.974770
30766		49.965620	36.951917	-14.979556
30767		49.984036	36.949574	-14.982179
30768		49.998942	36.948243	-14.986059
30769		50.007699	36.944707	-14.990296
30770		50.015437	36.945781	-14.995738
30771		50.021821	36.945093	-14.996839
30772		50.026948	36.944839	-14.998096
30773		50.029313	36.944535	-14.999470
30774		50.032624	36.945467	-15.001949
30775		50.037628	36.943443	-15.006631
30776		50.042976	36.944817	-15.009219
30777		50.049963	36.948984	-15.009757
30778		50.054182	36.949323	-15.011625
30779		50.060832	36.948572	-15.008857
30780		50.064665	36.944851	-15.010114
30781		50.068252	36.939527	-15.015143
30782		50.071236	36.935596	-15.019065
30783		50.077998	36.936461	-15.020963
30784		50.084609	36.936497	-15.025686
30785		50.092076	36.935679	-15.033350
30786		50.102553	36.940540	-15.037516
30787		50.113791	36.951983	-15.045608
30788		50.125858	36.966704	-15.053710
30789		50.136147	36.979530	-15.060300
30790		50.141268	36.991948	-15.068048
30791		50.147234	37.002197	-15.073228
30792		50.147615	37.010348	-15.086894
30793		50.155776	37.017608	-15.100999
30794		50.166217	37.025495	-15.120679
30795		50.185471	37.036026	-15.139746
30796		50.206388	37.052501	-15.163914
30797		50.224033	37.073741	-15.193931
30798		50.240789	37.097949	-15.229228
30799		50.254174	37.123731	-15.270205
30800		50.268444	37.150514	-15.310760
30801		50.277463	37.177002	-15.355714
30802		50.279623	37.198704	-15.401836
30803		50.277169	37.220804	-15.441858
30804		50.270887	37.239137	-15.481498
30805		50.263029	37.253833	-15.518652
30806		50.261269	37.264391	-15.557371
30807		50.262021	37.269835	-15.595802
30808		50.262737	37.272942	-15.636180
30809		50.274401	37.271450	-15.681679
30810		50.295043	37.266867	-15.727420
30811		50.325451	37.264538	-15.763956
30812		50.360585	37.262540	-15.789409
30813		50.396732	37.259401	-15.806305
30814		50.432039	37.253560	-15.823017
30815		50.466025	37.246631	-15.838041
30816		50.497514	37.235909	-15.860093
30817		50.530204	37.227738	-15.887875
30818		50.564816	37.224783	-15.914057
30819		50.594847	37.221734	-15.940822
30820		50.623554	37.219072	-15.968034
30821		50.654463	37.216864	-15.989979
30822		50.688812	37.213077	-16.012797
30823		50.728389	37.208716	-16.036759
30824		50.765373	37.205463	-16.061105
30825		50.805407	37.205272	-16.080278
30826		50.845228	37.203469	-16.100014
30827		50.886911	37.204692	-16.108717
30828		50.929796	37.204503	-16.114993
30829		50.973469	37.202882	-16.121636
30830		51.013045	37.203586	-16.125661
30831		51.047438	37.205017	-16.123523
30832		51.075804	37.204995	-16.120765
30833		51.096200	37.202593	-16.118966
30834		51.110516	37.200399	-16.114056
30835		51.122183	37.200146	-16.105652
30836		51.125216	37.199511	-16.102067
30837		51.124324	37.200370	-16.102582
30838		51.119859	37.202107	-16.099847
30839		51.116414	37.206593	-16.088819
30840		51.110730	37.212259	-16.068878
30841		51.101755	37.216515	-16.041814
30842		51.089282	37.216779	-16.020246
30843		51.075630	37.217532	-16.001538
30844		51.054625	37.218281	-15.986947
30845		51.028733	37.219532	-15.975007
30846		51.000908	37.221190	-15.962040
30847		50.979874	37.221010	-15.948177
30848		50.958133	37.219918	-15.940412
30849		50.946649	37.213955	-15.927322
30850		50.930328	37.210107	-15.913820
30851		50.911398	37.203287	-15.894047
30852		50.893320	37.192790	-15.873123
30853		50.877458	37.179662	-15.851009
30854		50.860466	37.160586	-15.835125
30855		50.848715	37.140864	-15.825259
30856		50.841609	37.120567	-15.821549
30857		50.846016	37.108351	-15.811439
30858		50.854851	37.097120	-15.798943
30859		50.864934	37.083752	-15.786200
30860		50.876128	37.065921	-15.768586
30861		50.880235	37.045045	-15.746652
30862		50.880705	37.022596	-15.723778
30863		50.873293	37.000126	-15.701526
30864		50.861491	36.975827	-15.680693
30865		50.848310	36.948751	-15.661061
30866		50.838900	36.914474	-15.652178
30867		50.835667	36.882421	-15.636090
30868		50.828722	36.848799	-15.614466
30869		50.819519	36.816436	-15.588932
30870		50.809748	36.788704	-15.554802
30871		50.791460	36.758990	-15.523051
30872		50.768114	36.729002	-15.501703
30873		50.743357	36.704334	-15.477204
30874		50.716652	36.680851	-15.449384
30875		50.690963	36.659913	-15.416310
30876		50.663678	36.639572	-15.379590
30877		50.638287	36.616495	-15.338990
30878		50.617370	36.590377	-15.297440
30879		50.602018	36.560485	-15.256895
30880		50.591152	36.533278	-15.218742
30881		50.585307	36.506299	-15.183065
30882		50.575019	36.481499	-15.154362
30883		50.564782	36.460655	-15.123862
30884		50.558207	36.443039	-15.093190
30885		50.557054	36.426464	-15.062028
30886		50.558221	36.410540	-15.026430
30887		50.552509	36.396467	-14.985386
30888		50.539741	36.381574	-14.944849
30889		50.517889	36.368494	-14.908700
30890		50.496529	36.352455	-14.878445
30891		50.473943	36.339115	-14.849630
30892		50.452112	36.329290	-14.825907
30893		50.434875	36.320348	-14.804338
30894		50.424399	36.311371	-14.778631
30895		50.416691	36.300479	-14.751019
30896		50.410466	36.288411	-14.726358
30897		50.400987	36.281152	-14.699827
30898		50.389313	36.273480	-14.676715
30899		50.373702	36.263414	-14.652459
30900		50.356023	36.257662	-14.626226
30901		50.332174	36.251334	-14.597768
30902		50.305159	36.244371	-14.570987
30903		50.279585	36.237671	-14.543084
30904		50.250669	36.235056	-14.518753
30905		50.219737	36.232612	-14.495238
30906		50.188444	36.231850	-14.473402
30907		50.158991	36.227292	-14.453489
30908		50.133985	36.223876	-14.432807
30909		50.110661	36.219147	-14.414623
30910		50.089331	36.214088	-14.398924
30911		50.069752	36.207564	-14.385597
30912		50.048938	36.200171	-14.376709
30913		50.028408	36.195292	-14.364657
30914		50.010004	36.187597	-14.358612
30915		49.991636	36.181469	-14.352900
30916		49.975037	36.173352	-14.348319
30917		49.956915	36.166316	-14.339043
30918		49.940404	36.160645	-14.329036
30919		49.928054	36.158198	-14.317058
30920		49.909472	36.154446	-14.310222
30921		49.891538	36.154794	-14.308134
30922		49.879723	36.148437	-14.312515
30923		49.874769	36.145681	-14.311336
30924		49.871044	36.145908	-14.309341
30925		49.863379	36.146027	-14.304363
30926		49.857851	36.146671	-14.300905
30927		49.849775	36.147416	-14.293492
30928		49.839271	36.146996	-14.287744
30929		49.819077	36.145075	-14.289400
30930		49.799245	36.143430	-14.283106
30931		49.775206	36.144763	-14.278863
30932		49.753146	36.143379	-14.279126
30933		49.734542	36.142411	-14.281767
30934		49.715730	36.141706	-14.284894
30935		49.698359	36.141188	-14.284879
30936		49.686791	36.138921	-14.280454
30937		49.679698	36.133398	-14.281443
30938		49.674868	36.126967	-14.282895
30939		49.666377	36.117094	-14.289699
30940		49.658564	36.109146	-14.299705
30941		49.657534	36.101049	-14.310774
30942		49.661140	36.093194	-14.320813
30943		49.666217	36.080946	-14.328232
30944		49.671497	36.071128	-14.329720
30945		49.679230	36.062462	-14.324329
30946		49.687848	36.052641	-14.317327
30947		49.698148	36.043886	-14.310815
30948		49.707237	36.036560	-14.303787
30949		49.713874	36.029379	-14.297353
30950		49.719980	36.023788	-14.291436
30951		49.727511	36.019403	-14.284912
30952		49.732683	36.009595	-14.281723
30953		49.734792	36.003198	-14.275264
30954		49.735048	35.997921	-14.270314
30955		49.735882	35.990450	-14.266775
30956		49.739442	35.984278	-14.264064
30957		49.742834	35.979550	-14.260582
30958		49.748197	35.972960	-14.259334
30959		49.755361	35.968459	-14.257431
30960		49.770780	35.964085	-14.252082
30961		49.778862	35.959012	-14.249468
30962		49.788410	35.954172	-14.242426
30963		49.795214	35.947894	-14.239879
30964		49.800370	35.941228	-14.242640
30965		49.801879	35.936874	-14.248303
30966		49.803729	35.934254	-14.254758
30967		49.809415	35.929172	-14.257786
30968		49.816299	35.922885	-14.259980
30969		49.823937	35.917494	-14.260618
30970		49.827184	35.914407	-14.263164
30971		49.830469	35.912028	-14.263330
30972		49.836863	35.909637	-14.264053
30973		49.839163	35.908701	-14.267907
30974		49.838068	35.905458	-14.272187
30975		49.835680	35.905903	-14.272536
30976		49.832343	35.905395	-14.273255
30977		49.827285	35.905235	-14.272267
30978		49.818901	35.901212	-14.276102
30979		49.814395	35.899666	-14.276285
30980		49.808362	35.900176	-14.276137
30981		49.799007	35.900065	-14.276462
30982		49.790107	35.899154	-14.276170
30983		49.783457	35.897906	-14.274395
30984		49.781896	35.893045	-14.267992
30985		49.776233	35.891285	-14.260025
30986		49.771911	35.884990	-14.258162
30987		49.769300	35.880520	-14.259494
30988		49.769733	35.874431	-14.261268
30989		49.771382	35.871697	-14.263673
30990		49.775244	35.868732	-14.267587
30991		49.782929	35.865809	-14.271098
30992		49.792498	35.864900	-14.272649
30993		49.798449	35.859076	-14.273814
30994		49.807806	35.850909	-14.278220
30995		49.821024	35.842648	-14.284304
30996		49.832441	35.835703	-14.291485
30997		49.843346	35.831777	-14.297753
30998		49.851884	35.829812	-14.303280
30999		49.859510	35.829138	-14.307271
31000		49.862523	35.831592	-14.309652
31001		49.858684	35.834812	-14.312288
31002		49.853092	35.833008	-14.314233
31003		49.845274	35.832186	-14.320651
31004		49.842409	35.830145	-14.326116
31005		49.839576	35.828825	-14.332316
31006		49.841215	35.825344	-14.340112
31007		49.843297	35.821897	-14.348087
31008		49.850142	35.820336	-14.356834
31009		49.860146	35.816964	-14.363806
31010		49.868634	35.816579	-14.369957
31011		49.878557	35.812476	-14.374447
31012		49.882369	35.811091	-14.378988
31013		49.880333	35.807515	-14.384651
31014		49.876135	35.804357	-14.393399
31015		49.867684	35.804185	-14.404368
31016		49.867360	35.805865	-14.412567
31017		49.868661	35.811886	-14.419067
31018		49.869811	35.816341	-14.420609
31019		49.870546	35.819072	-14.419609
31020		49.871052	35.822623	-14.417125
31021		49.867943	35.823679	-14.414240
31022		49.858121	35.822591	-14.411886
31023		49.843789	35.825949	-14.403110
31024		49.822648	35.828021	-14.397946
31025		49.799663	35.835142	-14.392840
31026		49.773883	35.840132	-14.394658
31027		49.755245	35.847497	-14.392800
31028		49.741569	35.855923	-14.393304
31029		49.733421	35.866224	-14.390387
31030		49.728735	35.879063	-14.383338
31031		49.720633	35.890404	-14.374482
31032		49.709181	35.899341	-14.371118
31033		49.699402	35.906072	-14.375818
31034		49.694818	35.913961	-14.388945
31035		49.694211	35.921863	-14.408252
31036		49.701063	35.930616	-14.424081
31037		49.714780	35.937558	-14.440349
31038		49.731400	35.945215	-14.458820
31039		49.748074	35.954428	-14.477506
31040		49.763384	35.965776	-14.497148
31041		49.778447	35.974569	-14.521080
31042		49.795670	35.985472	-14.546875
31043		49.817562	35.999581	-14.572538
31044		49.835302	36.014528	-14.603626
31045		49.855652	36.032354	-14.634427
31046		49.882164	36.050847	-14.659292
31047		49.908368	36.068518	-14.675613
31048		49.929072	36.085870	-14.687431
31049		49.949487	36.099070	-14.698238
31050		49.967116	36.115044	-14.700521
31051		49.976325	36.129894	-14.704445
31052		49.976739	36.141403	-14.701092
31053		49.968583	36.152628	-14.692528
31054		49.955769	36.161350	-14.681742
31055		49.932755	36.167870	-14.673601
31056		49.909954	36.177606	-14.664203
31057		49.886309	36.186203	-14.658096
31058		49.864804	36.195371	-14.653492
31059		49.854654	36.205381	-14.646989
31060		49.851544	36.220952	-14.637982
31061		49.848368	36.234087	-14.629299
31062		49.841498	36.245581	-14.628206
31063		49.834271	36.258552	-14.635243
31064		49.832428	36.269397	-14.649207
31065		49.833673	36.281743	-14.662327
31066		49.836489	36.292805	-14.675226
31067		49.838152	36.301940	-14.687929
31068		49.842618	36.314177	-14.698221
31069		49.851223	36.328103	-14.706119
31070		49.859364	36.341180	-14.711245
31071		49.869121	36.351270	-14.713804
31072		49.882061	36.354266	-14.715417
31073		49.897542	36.358458	-14.719847
31074		49.914237	36.358241	-14.725776
31075		49.928847	36.360800	-14.737601
31076		49.940195	36.365714	-14.752491
31077		49.961025	36.368032	-14.763771
31078		49.985781	36.366329	-14.772895
31079		50.012357	36.365822	-14.775729
31080		50.037156	36.365018	-14.774106
31081		50.060391	36.361507	-14.769263
31082		50.074407	36.362424	-14.760932
31083		50.085003	36.364830	-14.756837
31084		50.088895	36.366669	-14.758623
31085		50.097539	36.367021	-14.763896
31086		50.109567	36.366574	-14.770913
31087		50.124856	36.364327	-14.780886
31088		50.145041	36.365619	-14.788339
31089		50.164733	36.364406	-14.795968
31090		50.185875	36.366772	-14.794730
31091		50.202393	36.369582	-14.792249
31092		50.217440	36.374665	-14.785884
31093		50.224964	36.379700	-14.775718
31094		50.223433	36.386051	-14.765660
31095		50.215729	36.391871	-14.756297
31096		50.204339	36.397664	-14.751718
31097		50.189054	36.401839	-14.753584
31098		50.180805	36.404297	-14.751963
31099		50.174510	36.408725	-14.751326
31100		50.173990	36.411328	-14.739415
31101		50.173355	36.414786	-14.720607
31102		50.166511	36.419249	-14.704927
31103		50.158366	36.424840	-14.695693
31104		50.145480	36.428641	-14.700484
31105		50.135115	36.432138	-14.712841
31106		50.130442	36.440000	-14.726055
31107		50.131951	36.445196	-14.738995
31108		50.143360	36.450996	-14.743120
31109		50.156012	36.454656	-14.741812
31110		50.158615	36.457050	-14.738809
31111		50.155036	36.454131	-14.735450
31112		50.149983	36.451684	-14.736160
31113		50.145100	36.450006	-14.739002
31114		50.142353	36.450400	-14.743797
31115		50.143614	36.449171	-14.744214
31116		50.150864	36.447754	-14.744930
31117		50.155724	36.441848	-14.744715
31118		50.159957	36.434247	-14.742734
31119		50.163668	36.425569	-14.741651
31120		50.168224	36.418802	-14.743024
31121		50.179382	36.410887	-14.746878
31122		50.190533	36.404662	-14.755999
31123		50.209237	36.400008	-14.759255
31124		50.227773	36.396211	-14.760693
31125		50.240336	36.392540	-14.761841
31126		50.249831	36.388386	-14.766122
31127		50.258541	36.383318	-14.770151
31128		50.263649	36.378240	-14.773534
31129		50.270649	36.372791	-14.772973
31130		50.279001	36.370848	-14.769083
31131		50.287497	36.370569	-14.761922
31132		50.293021	36.365646	-14.757280
31133		50.293830	36.359686	-14.754375
31134		50.291613	36.353853	-14.757355
31135		50.291253	36.349126	-14.762149
31136		50.296198	36.348766	-14.767408
31137		50.298196	36.354917	-14.769756
31138		50.297488	36.362120	-14.773137
31139		50.294288	36.371267	-14.769308
31140		50.282765	36.379436	-14.763318
31141		50.270534	36.385951	-14.753997
31142		50.259655	36.391885	-14.746098
31143		50.247580	36.397575	-14.738500
31144		50.233421	36.402723	-14.741167
31145		50.222923	36.407875	-14.749309
31146		50.217724	36.410926	-14.754561
31147		50.210849	36.416766	-14.760996
31148		50.204602	36.422007	-14.762779
31149		50.203767	36.428304	-14.762112
31150		50.205612	36.436070	-14.762280
31151		50.205766	36.445811	-14.760997
31152		50.196955	36.460089	-14.757037
31153		50.177990	36.479289	-14.753633
31154		50.159749	36.493942	-14.749815
31155		50.137080	36.506689	-14.745921
31156		50.109433	36.516123	-14.746422
31157		50.084235	36.519576	-14.749038
31158		50.067172	36.523293	-14.751620
31159		50.064585	36.526823	-14.753584
31160		50.067067	36.529111	-14.759296
31161		50.072180	36.531142	-14.767013
31162		50.081778	36.534111	-14.777129
31163		50.092764	36.538098	-14.784001
31164		50.098071	36.543361	-14.790469
31165		50.098060	36.551339	-14.792690
31166		50.088801	36.558300	-14.795632
31167		50.081275	36.563281	-14.798031
31168		50.076189	36.563950	-14.804711
31169		50.076564	36.564845	-14.806167
31170		50.074273	36.566942	-14.808269
31171		50.073446	36.569314	-14.809105
31172		50.075274	36.573825	-14.816744
31173		50.080420	36.578961	-14.827126
31174		50.083434	36.582159	-14.832178
31175		50.076442	36.587220	-14.836259
31176		50.073350	36.593135	-14.836216
31177		50.070606	36.596813	-14.841682
31178		50.070603	36.600971	-14.845205
31179		50.065022	36.604659	-14.852886
31180		50.061858	36.608895	-14.860936
31181		50.061992	36.613835	-14.866711
31182		50.062001	36.618763	-14.872905
31183		50.063886	36.624070	-14.878017
31184		50.063372	36.628856	-14.887544
31185		50.064735	36.631706	-14.892856
31186		50.064874	36.634267	-14.900456
31187		50.065604	36.639242	-14.902704
31188		50.065695	36.646617	-14.903477
31189		50.065286	36.655322	-14.903044
31190		50.060559	36.664849	-14.903511
31191		50.051833	36.676549	-14.904350
31192		50.046264	36.685102	-14.904798
31193		50.045358	36.695240	-14.909958
31194		50.047637	36.701451	-14.914907
31195		50.048476	36.708862	-14.916648
31196		50.050670	36.715098	-14.916891
31197		50.051798	36.722583	-14.919368
31198		50.056425	36.729284	-14.925102
31199		50.060728	36.736609	-14.928087
31200		50.056551	36.740689	-14.929387
31201		50.052337	36.745692	-14.928408
31202		50.042946	36.749415	-14.934147
31203		50.038224	36.754194	-14.939619
31204		50.040460	36.763507	-14.950548
31205		50.047035	36.776716	-14.976646
31206		50.055451	36.799059	-15.005095
31207		50.057432	36.827147	-15.023703
31208		50.053929	36.858212	-15.035232
31209		50.051296	36.887191	-15.033905
31210		50.036675	36.912034	-15.034254
31211		50.017346	36.927119	-15.034737
31212		49.989978	36.940525	-15.036047
31213		49.962510	36.950651	-15.040191
31214		49.933052	36.959594	-15.046215
31215		49.904275	36.965558	-15.050630
31216		49.882956	36.969150	-15.051119
31217		49.867656	36.968438	-15.051770
31218		49.861233	36.968114	-15.048362
31219		49.855353	36.967224	-15.046870
31220		49.853697	36.966322	-15.044380
31221		49.846537	36.968062	-15.043409
31222		49.840828	36.972600	-15.043983
31223		49.837006	36.979918	-15.043422
31224		49.830858	36.986758	-15.041916
31225		49.823911	36.989186	-15.037920
31226		49.820046	36.997317	-15.035158
31227		49.823225	37.003600	-15.037307
31228		49.829338	37.009038	-15.041136
31229		49.835718	37.013727	-15.046196
31230		49.841962	37.016039	-15.048742
31231		49.847247	37.013265	-15.044693
31232		49.849412	37.006068	-15.040488
31233		49.841611	36.996149	-15.028785
31234		49.825423	36.985952	-15.012981
31235		49.804323	36.974667	-14.994663
31236		49.781391	36.964573	-14.982565
31237		49.762961	36.959147	-14.979634
31238		49.754491	36.958381	-14.976139
31239		49.750060	36.960042	-14.968568
31240		49.737587	36.960853	-14.959473
31241		49.718627	36.962465	-14.947911
31242		49.696549	36.965219	-14.934961
31243		49.673823	36.970182	-14.923954
31244		49.650712	36.976650	-14.912915
31245		49.625100	36.981746	-14.907176
31246		49.593851	36.984708	-14.913291
31247		49.567656	36.987962	-14.918827
31248		49.554595	36.991704	-14.919081
31249		49.546237	36.998726	-14.914150
31250		49.540351	37.009653	-14.903880
31251		49.530857	37.022258	-14.893339
31252		49.516648	37.034553	-14.884006
31253		49.497845	37.044252	-14.875423
31254		49.473356	37.050338	-14.870422
31255		49.444324	37.052016	-14.865869
31256		49.422985	37.052492	-14.855730
31257		49.403219	37.049092	-14.848721
31258		49.396927	37.044090	-14.838686
31259		49.398782	37.031081	-14.841357
31260		49.413591	37.021001	-14.842446
31261		49.434722	37.013786	-14.833686
31262		49.459248	37.005931	-14.820427
31263		49.482350	36.993627	-14.808198
31264		49.492477	36.977148	-14.793751
31265		49.491515	36.958925	-14.774473
31266		49.475212	36.936065	-14.752191
31267		49.452090	36.906987	-14.730534
31268		49.427650	36.872915	-14.703361
31269		49.402435	36.839233	-14.668543
31270		49.378273	36.806898	-14.629305
31271		49.363495	36.768461	-14.592673
31272		49.360587	36.730329	-14.557937
31273		49.369415	36.693730	-14.514607
31274		49.369856	36.657115	-14.476718
31275		49.362373	36.621940	-14.432016
31276		49.363243	36.591004	-14.386744
31277		49.363236	36.565158	-14.343495
31278		49.361224	36.541455	-14.304674
31279		49.349448	36.521970	-14.269073
31280		49.333791	36.504765	-14.240156
31281		49.317703	36.481612	-14.221887
31282		49.302670	36.458835	-14.211809
31283		49.292094	36.433459	-14.203195
31284		49.289356	36.407724	-14.197799
31285		49.296208	36.385616	-14.183918
31286		49.311303	36.366233	-14.159311
31287		49.320875	36.354343	-14.114165
31288		49.307697	36.347343	-14.059880
31289		49.268130	36.341611	-14.005222
31290		49.215338	36.339568	-13.951517
31291		49.153894	36.340025	-13.910646
31292		49.106858	36.335819	-13.885957
31293		49.079613	36.332480	-13.866746
31294		49.064985	36.328786	-13.857666
31295		49.068273	36.326487	-13.849585
31296		49.090754	36.322045	-13.841052
31297		49.120769	36.316928	-13.828396
31298		49.155417	36.312749	-13.812491
31299		49.179822	36.308792	-13.794313
31300		49.197204	36.307264	-13.774160
31301		49.202869	36.305401	-13.753448
31302		49.202646	36.302478	-13.733108
31303		49.196062	36.295485	-13.716907
31304		49.193173	36.288786	-13.702509
31305		49.189374	36.284067	-13.692705
31306		49.182874	36.283698	-13.684638
31307		49.180804	36.280228	-13.680109
31308		49.181518	36.279783	-13.678395
31309		49.187533	36.278693	-13.677514
31310		49.197478	36.275459	-13.676328
31311		49.209289	36.273989	-13.674783
31312		49.220122	36.270153	-13.672992
31313		49.228991	36.269751	-13.671453
31314		49.234804	36.270423	-13.663321
31315		49.234648	36.270664	-13.653859
31316		49.224982	36.272817	-13.640257
31317		49.216446	36.274288	-13.625294
31318		49.200139	36.275009	-13.614719
31319		49.186755	36.275326	-13.607108
31320		49.170986	36.273749	-13.603265
31321		49.164173	36.274512	-13.603694
31322		49.167396	36.272991	-13.606783
31323		49.179905	36.271884	-13.611130
31324		49.197493	36.269478	-13.610971
31325		49.213984	36.264145	-13.607873
31326		49.227518	36.259290	-13.606906
31327		49.238866	36.252476	-13.604003
31328		49.242169	36.245444	-13.602576
31329		49.235076	36.236860	-13.602422
31330		49.225022	36.227757	-13.605022
31331		49.214453	36.218522	-13.609128
31332		49.206414	36.205858	-13.616560
31333		49.205308	36.191289	-13.624223
31334		49.208158	36.179352	-13.632852
31335		49.212732	36.166811	-13.638385
31336		49.216813	36.158330	-13.642346
31337		49.209266	36.152831	-13.646206
31338		49.194778	36.152296	-13.647704
31339		49.175536	36.152176	-13.648521
31340		49.144920	36.153719	-13.654465
31341		49.120684	36.153547	-13.658767
31342		49.102471	36.147405	-13.667506
31343		49.091978	36.135718	-13.678440
31344		49.088425	36.119185	-13.693457
31345		49.082549	36.101120	-13.716625
31346		49.074183	36.081083	-13.744074
31347		49.071181	36.067881	-13.766860
31348		49.067180	36.057569	-13.783697
31349		49.059878	36.051493	-13.795892
31350		49.050446	36.046420	-13.803705
31351		49.040868	36.046083	-13.808400
31352		49.028336	36.045106	-13.815967
31353		49.017126	36.043639	-13.823153
31354		49.008146	36.042624	-13.831567
31355		48.998346	36.042994	-13.841263
31356		48.993139	36.045152	-13.852466
31357		48.988082	36.047384	-13.868222
31358		48.988678	36.049145	-13.887037
31359		48.994070	36.052703	-13.904750
31360		48.999862	36.055596	-13.921824
31361		49.004571	36.057384	-13.938061
31362		49.009746	36.057796	-13.950505
31363		49.013723	36.059438	-13.960708
31364		49.016465	36.057784	-13.967090
31365		49.016032	36.055352	-13.970387
31366		49.014069	36.052695	-13.975215
31367		49.010374	36.048690	-13.981288
31368		49.005656	36.044605	-13.990647
31369		48.999991	36.041114	-13.998978
31370		48.998697	36.037005	-14.004530
31371		49.004297	36.031197	-14.007108
31372		49.014245	36.025628	-14.002651
31373		49.023188	36.018913	-13.997080
31374		49.032956	36.010914	-13.993327
31375		49.038817	36.001991	-13.993953
31376		49.045829	35.992564	-13.994734
31377		49.046126	35.990540	-13.995520
31378		49.044214	35.986309	-13.999716
31379		49.043800	35.986344	-13.997771
31380		49.045041	35.986820	-13.995405
31381		49.038520	35.984072	-13.995723
31382		49.032303	35.979764	-13.993059
31383		49.028046	35.974034	-13.988786
31384		49.022939	35.969982	-13.984184
31385		49.023382	35.964744	-13.983526
31386		49.026843	35.960064	-13.990000
31387		49.026330	35.954375	-13.996050
31388		49.027840	35.948461	-14.004434
31389		49.036121	35.941533	-14.006123
31390		49.046060	35.938315	-14.004951
31391		49.055827	35.935106	-14.002566
31392		49.065456	35.934181	-14.003987
31393		49.075323	35.932347	-14.007034
31394		49.081979	35.933155	-14.009592
31395		49.085445	35.934003	-14.011922
31396		49.087663	35.935446	-14.014233
31397		49.090099	35.936072	-14.012982
31398		49.088853	35.934403	-14.013182
31399		49.087035	35.933309	-14.012858
31400		49.085478	35.931578	-14.012379
31401		49.085820	35.932486	-14.014100
31402		49.086663	35.932038	-14.017038
31403		49.086240	35.932724	-14.018078
31404		49.090453	35.933823	-14.017847
31405		49.092429	35.935046	-14.014271
31406		49.088385	35.935181	-14.011635
31407		49.083872	35.935101	-14.007215
31408		49.081692	35.933247	-14.005380
31409		49.077996	35.931917	-14.006080
31410		49.076711	35.927810	-14.011630
31411		49.076910	35.926264	-14.019145
31412		49.081751	35.923474	-14.024991
31413		49.092349	35.921915	-14.025589
31414		49.099799	35.920559	-14.022262
31415		49.104806	35.917023	-14.016263
31416		49.106753	35.914473	-14.013996
31417		49.108929	35.911135	-14.013264
31418		49.109151	35.910564	-14.014845
31419		49.107854	35.907883	-14.021150
31420		49.110880	35.907864	-14.028835
31421		49.118053	35.907907	-14.033750
31422		49.128485	35.909528	-14.035827
31423		49.141807	35.911667	-14.035399
31424		49.150148	35.912066	-14.034738
31425		49.156947	35.911217	-14.031267
31426		49.159564	35.909572	-14.032998
31427		49.158791	35.903974	-14.043236
31428		49.157567	35.898996	-14.059418
31429		49.159798	35.894661	-14.077890
31430		49.161469	35.893449	-14.097464
31431		49.172759	35.891709	-14.116303
31432		49.188145	35.891864	-14.134591
31433		49.202426	35.890835	-14.152189
31434		49.214928	35.889573	-14.170357
31435		49.221072	35.890145	-14.190108
31436		49.224031	35.893963	-14.210322
31437		49.222228	35.899742	-14.230363
31438		49.213816	35.911404	-14.254468
31439		49.207156	35.925939	-14.277892
31440		49.203111	35.942541	-14.298168
31441		49.193382	35.960131	-14.316575
31442		49.179718	35.978667	-14.333009
31443		49.166393	35.994809	-14.350088
31444		49.152058	36.008417	-14.367261
31445		49.136836	36.020168	-14.385177
31446		49.123829	36.030861	-14.403813
31447		49.117498	36.041272	-14.422211
31448		49.119410	36.052808	-14.439621
31449		49.125959	36.066025	-14.456680
31450		49.137422	36.077186	-14.478579
31451		49.153658	36.087782	-14.501417
31452		49.169773	36.101504	-14.525512
31453		49.184928	36.117124	-14.546109
31454		49.194083	36.135015	-14.559815
31455		49.193231	36.152298	-14.572691
31456		49.191175	36.169379	-14.584518
31457		49.183316	36.185938	-14.594430
31458		49.178417	36.200030	-14.605507
31459		49.181780	36.212764	-14.610694
31460		49.189849	36.223359	-14.616493
31461		49.201793	36.233090	-14.629509
31462		49.215646	36.242490	-14.640273
31463		49.232345	36.253287	-14.646273
31464		49.246875	36.262912	-14.649745
31465		49.260013	36.274665	-14.649263
31466		49.270650	36.279479	-14.653284
31467		49.277757	36.283519	-14.658840
31468		49.283277	36.286398	-14.666632
31469		49.286676	36.288774	-14.672818
31470		49.288439	36.295623	-14.679029
31471		49.294454	36.302453	-14.682213
31472		49.303780	36.310933	-14.687439
31473		49.317857	36.319525	-14.691509
31474		49.325749	36.331699	-14.693273
31475		49.325690	36.343584	-14.691213
31476		49.322517	36.354274	-14.684467
31477		49.317999	36.366309	-14.673957
31478		49.312127	36.375672	-14.663107
31479		49.304723	36.385542	-14.654786
31480		49.296705	36.393586	-14.649851
31481		49.290119	36.400943	-14.644323
31482		49.280964	36.411060	-14.644632
31483		49.276516	36.418042	-14.641236
31484		49.275677	36.424437	-14.637341
31485		49.275280	36.428450	-14.630614
31486		49.274376	36.433303	-14.621412
31487		49.272673	36.436872	-14.615578
31488		49.273009	36.441959	-14.609095
31489		49.274974	36.449664	-14.600783
31490		49.274555	36.456992	-14.591563
31491		49.276340	36.465564	-14.584666
31492		49.279486	36.468842	-14.581008
31493		49.286576	36.470417	-14.581532
31494		49.300757	36.470397	-14.588437
31495		49.318282	36.473463	-14.596001
31496		49.334821	36.483388	-14.608182
31497		49.355709	36.494811	-14.627669
31498		49.388913	36.508935	-14.652557
31499		49.443208	36.526557	-14.680422
31500		49.500742	36.546583	-14.708349
31501		49.558049	36.573054	-14.725412
31502		49.607944	36.601129	-14.732140
31503		49.651338	36.624766	-14.732169
31504		49.685708	36.638547	-14.730411
31505		49.705238	36.651559	-14.726277
31506		49.715219	36.654673	-14.723593
31507		49.712069	36.656402	-14.723755
31508		49.706224	36.658523	-14.725035
31509		49.702132	36.659498	-14.728439
31510		49.710790	36.662277	-14.731709
31511		49.731539	36.663600	-14.729045
31512		49.757969	36.667817	-14.723755
31513		49.787165	36.667071	-14.723827
31514		49.810250	36.671288	-14.727064
31515		49.828575	36.670738	-14.728348
31516		49.837446	36.670365	-14.735033
31517		49.847080	36.669189	-14.739975
31518		49.853867	36.667614	-14.743918
31519		49.857402	36.667734	-14.743069
31520		49.865091	36.666452	-14.735695
31521		49.863324	36.665511	-14.728636
31522		49.865908	36.660762	-14.724440
31523		49.863726	36.658068	-14.728179
31524		49.867253	36.656603	-14.731970
31525		49.873191	36.658016	-14.734489
31526		49.879849	36.658796	-14.737042
31527		49.884090	36.657411	-14.736822
31528		49.888858	36.657068	-14.732634
31529		49.893066	36.655836	-14.724166
31530		49.892978	36.656874	-14.717053
31531		49.893114	36.658749	-14.708739
31532		49.890007	36.657524	-14.707545
31533		49.884226	36.655672	-14.708216
31534		49.882310	36.656245	-14.710376
31535		49.889322	36.655496	-14.711135
31536		49.898771	36.657687	-14.709110
31537		49.909046	36.657523	-14.704624
31538		49.914354	36.658084	-14.699773
31539		49.912997	36.658160	-14.695537
31540		49.911474	36.658886	-14.689701
31541		49.910036	36.658710	-14.686075
31542		49.905872	36.659664	-14.681448
31543		49.900790	36.662911	-14.677910
31544		49.899104	36.664334	-14.678727
31545		49.898619	36.668213	-14.680739
31546		49.900044	36.667884	-14.685074
31547		49.902074	36.670776	-14.683574
31548		49.904385	36.673070	-14.679881
31549		49.907951	36.673187	-14.675786
31550		49.914054	36.669944	-14.673057
31551		49.924126	36.667458	-14.669269
31552		49.936749	36.663989	-14.666844
31553		49.947805	36.660955	-14.662032
31554		49.956076	36.659000	-14.653369
31555		49.961471	36.653326	-14.649586
31556		49.969693	36.643386	-14.650451
31557		49.980266	36.633100	-14.652624
31558		49.992988	36.623279	-14.656367
31559		50.010939	36.619328	-14.659671
31560		50.028818	36.620064	-14.661407
31561		50.042716	36.628357	-14.672931
31562		50.057151	36.636926	-14.691006
31563		50.075922	36.650355	-14.703704
31564		50.089448	36.662735	-14.714973
31565		50.100480	36.676081	-14.721493
31566		50.113811	36.689261	-14.726056
31567		50.123944	36.701799	-14.727496
31568		50.126075	36.710343	-14.726313
31569		50.121064	36.718357	-14.720595
31570		50.109164	36.720090	-14.715600
31571		50.093465	36.721037	-14.711163
31572		50.080139	36.720123	-14.704165
31573		50.072281	36.721739	-14.700271
31574		50.075986	36.725898	-14.695927
31575		50.087137	36.730649	-14.691870
31576		50.091153	36.734865	-14.688205
31577		50.095418	36.735156	-14.679970
31578		50.097123	36.734988	-14.671631
31579		50.101806	36.732887	-14.665625
31580		50.105725	36.731565	-14.661420
31581		50.106879	36.729572	-14.654387
31582		50.101903	36.728001	-14.649122
31583		50.098357	36.725125	-14.642286
31584		50.093771	36.722825	-14.639727
31585		50.101843	36.719099	-14.637988
31586		50.116713	36.718444	-14.634928
31587		50.125958	36.717339	-14.631112
31588		50.129487	36.716742	-14.624204
31589		50.136766	36.714631	-14.616939
31590		50.144567	36.713304	-14.614247
31591		50.154710	36.709912	-14.612632
31592		50.156184	36.705683	-14.613066
31593		50.155083	36.703286	-14.606679
31594		50.151236	36.698754	-14.606882
31595		50.151511	36.699829	-14.603498
31596		50.150680	36.702220	-14.604329
31597		50.147880	36.703532	-14.601892
31598		50.139822	36.706830	-14.599039
31599		50.133384	36.708853	-14.598943
31600		50.128869	36.708106	-14.601690
31601		50.128521	36.708867	-14.602284
31602		50.123106	36.711928	-14.598222
31603		50.115759	36.714639	-14.593585
31604		50.114108	36.720048	-14.589634
31605		50.118507	36.725905	-14.586903
31606		50.122962	36.727821	-14.585312
31607		50.120721	36.728099	-14.582075
31608		50.113637	36.730008	-14.580639
31609		50.106600	36.732589	-14.581993
31610		50.103627	36.737682	-14.583999
31611		50.101102	36.741310	-14.590844
31612		50.096768	36.745310	-14.596154
31613		50.095399	36.750714	-14.596301
31614		50.098529	36.755520	-14.593244
31615		50.102693	36.758964	-14.596512
31616		50.108582	36.763522	-14.596919
31617		50.109691	36.770993	-14.594680
31618		50.102441	36.776812	-14.592480
31619		50.096062	36.778132	-14.589288
31620		50.093678	36.780224	-14.586725
31621		50.094621	36.784444	-14.584356
31622		50.091730	36.786408	-14.585111
31623		50.084686	36.788283	-14.588735
31624		50.084129	36.789952	-14.587598
31625		50.083039	36.790776	-14.587127
31626		50.086142	36.789260	-14.585558
31627		50.087899	36.790590	-14.577621
31628		50.084274	36.792447	-14.572342
31629		50.079979	36.794132	-14.564084
31630		50.072969	36.798455	-14.557265
31631		50.067471	36.805137	-14.547404
31632		50.060766	36.811856	-14.544545
31633		50.054185	36.817741	-14.543670
31634		50.051210	36.822827	-14.545684
31635		50.051714	36.824622	-14.546225
31636		50.055788	36.827260	-14.541924
31637		50.058416	36.830343	-14.536722
31638		50.062450	36.834541	-14.533048
31639		50.069453	36.840195	-14.534353
31640		50.078189	36.846915	-14.532817
31641		50.079091	36.854302	-14.531485
31642		50.075386	36.859278	-14.527465
31643		50.072319	36.863308	-14.525497
31644		50.072660	36.864373	-14.523744
31645		50.076765	36.865352	-14.522226
31646		50.081223	36.869597	-14.523905
31647		50.082671	36.875623	-14.530018
31648		50.082021	36.885086	-14.536698
31649		50.086293	36.896284	-14.541988
31650		50.091359	36.910856	-14.547447
31651		50.089888	36.925642	-14.557810
31652		50.084629	36.940442	-14.566181
31653		50.083821	36.953656	-14.572288
31654		50.079411	36.969413	-14.580678
31655		50.072733	36.981423	-14.590380
31656		50.066166	36.994339	-14.604103
31657		50.055945	37.007194	-14.617480
31658		50.056500	37.019210	-14.630184
31659		50.057681	37.030553	-14.649764
31660		50.060131	37.046793	-14.675154
31661		50.068275	37.070272	-14.706048
31662		50.082283	37.100577	-14.742298
31663		50.100775	37.134955	-14.776917
31664		50.113108	37.173592	-14.806923
31665		50.116604	37.217469	-14.828377
31666		50.115394	37.258942	-14.842431
31667		50.111288	37.296753	-14.843085
31668		50.092730	37.326133	-14.844047
31669		50.060067	37.349376	-14.847427
31670		50.023310	37.367132	-14.854030
31671		49.986527	37.380908	-14.865389
31672		49.955455	37.391923	-14.876386
31673		49.929470	37.398417	-14.888699
31674		49.913457	37.402346	-14.894352
31675		49.902739	37.404024	-14.902520
31676		49.896002	37.405942	-14.906534
31677		49.892149	37.407506	-14.908694
31678		49.889651	37.407164	-14.911560
31679		49.886911	37.406726	-14.913641
31680		49.877508	37.405019	-14.910255
31681		49.861085	37.405730	-14.912971
31682		49.844030	37.406289	-14.919326
31683		49.830790	37.409187	-14.920743
31684		49.811219	37.410837	-14.922301
31685		49.791659	37.411075	-14.923363
31686		49.776144	37.408064	-14.924476
31687		49.766756	37.403884	-14.929340
31688		49.764252	37.397242	-14.933648
31689		49.758880	37.390732	-14.938259
31690		49.751559	37.383913	-14.939049
31691		49.739748	37.376091	-14.934425
31692		49.723457	37.367478	-14.928898
31693		49.705743	37.356048	-14.924806
31694		49.691284	37.347011	-14.920686
31695		49.678952	37.339587	-14.912324
31696		49.664495	37.330547	-14.908203
31697		49.653258	37.319835	-14.902206
31698		49.640594	37.308842	-14.894161
31699		49.633877	37.292558	-14.890268
31700		49.628352	37.277482	-14.888562
31701		49.624158	37.262553	-14.884387
31702		49.618177	37.248995	-14.877958
31703		49.613927	37.238184	-14.869220
31704		49.609804	37.221884	-14.860896
31705		49.600723	37.205423	-14.855887
31706		49.591408	37.187221	-14.851415
31707		49.583238	37.169421	-14.844879
31708		49.573018	37.148591	-14.848432
31709		49.566824	37.127796	-14.856173
31710		49.562596	37.111379	-14.856530
31711		49.557904	37.102810	-14.845743
31712		49.545007	37.094170	-14.831631
31713		49.525435	37.083350	-14.820961
31714		49.502097	37.071692	-14.812516
31715		49.476350	37.056186	-14.809185
31716		49.450601	37.042370	-14.808019
31717		49.425746	37.031648	-14.805184
31718		49.407961	37.023470	-14.798886
31719		49.395739	37.015678	-14.788796
31720		49.385885	37.006069	-14.776145
31721		49.372488	36.998124	-14.763004
31722		49.354203	36.990697	-14.749340
31723		49.338048	36.985270	-14.730929
31724		49.317749	36.982161	-14.715131
31725		49.299228	36.979294	-14.698847
31726		49.284755	36.972660	-14.684654
31727		49.276155	36.963243	-14.669709
31728		49.266345	36.952064	-14.656422
31729		49.260438	36.943809	-14.638759
31730		49.251672	36.933671	-14.621502
31731		49.247543	36.924496	-14.601145
31732		49.236007	36.914595	-14.580456
31733		49.218290	36.905014	-14.554917
31734		49.202085	36.894227	-14.524087
31735		49.184503	36.880881	-14.496160
31736		49.166657	36.869692	-14.470610
31737		49.143580	36.861162	-14.450717
31738		49.127632	36.851089	-14.431882
31739		49.120702	36.847446	-14.407405
31740		49.112262	36.845303	-14.381426
31741		49.097814	36.841787	-14.354725
31742		49.080449	36.833041	-14.329182
31743		49.053217	36.821135	-14.301063
31744		49.021696	36.808647	-14.273064
31745		48.988939	36.796643	-14.240150
31746		48.952009	36.782265	-14.206674
31747		48.909296	36.763495	-14.175676
31748		48.866290	36.741471	-14.148066
31749		48.824756	36.718880	-14.116422
31750		48.786076	36.697081	-14.073714
31751		48.745313	36.678038	-14.018528
31752		48.704862	36.660680	-13.961138
31753		48.662902	36.643700	-13.901226
31754		48.614825	36.627026	-13.848223
31755		48.564793	36.607344	-13.805201
31756		48.519091	36.586293	-13.768260
31757		48.485197	36.566034	-13.733021
31758		48.462821	36.545112	-13.704894
31759		48.447901	36.525959	-13.674276
31760		48.432956	36.510554	-13.644382
31761		48.416812	36.496977	-13.615215
31762		48.398170	36.486287	-13.586456
31763		48.378021	36.478305	-13.555280
31764		48.347195	36.471307	-13.529335
31765		48.316496	36.467357	-13.504071
31766		48.285512	36.464258	-13.477421
31767		48.253643	36.460043	-13.456212
31768		48.228132	36.451734	-13.438423
31769		48.210332	36.447190	-13.422757
31770		48.195682	36.438776	-13.411973
31771		48.188965	36.432723	-13.398589
31772		48.186204	36.425242	-13.390873
31773		48.186891	36.417496	-13.379534
31774		48.183413	36.410671	-13.368486
31775		48.178399	36.405460	-13.353980
31776		48.169446	36.402202	-13.342028
31777		48.161848	36.396611	-13.329311
31778		48.148975	36.393261	-13.324474
31779		48.141394	36.387023	-13.317154
31780		48.136243	36.382950	-13.312610
31781		48.134153	36.378498	-13.307340
31782		48.132349	36.373547	-13.304908
31783		48.132820	36.366576	-13.303712
31784		48.137848	36.361497	-13.302194
31785		48.142567	36.356920	-13.301202
31786		48.147022	36.352499	-13.300974
31787		48.152593	36.351409	-13.294772
31788		48.151554	36.348209	-13.290370
31789		48.147268	36.346036	-13.288584
31790		48.142484	36.342808	-13.287341
31791		48.136394	36.341340	-13.285414
31792		48.132885	36.342337	-13.282188
31793		48.127097	36.340613	-13.274474
31794		48.113981	36.341955	-13.266934
31795		48.100893	36.344763	-13.246382
31796		48.082360	36.349785	-13.220808
31797		48.050889	36.349427	-13.202007
31798		48.021485	36.347317	-13.189970
31799		47.997734	36.344432	-13.181438
31800		47.981464	36.339538	-13.179795
31801		47.975250	36.334386	-13.174266
31802		47.976496	36.332463	-13.168613
31803		47.980158	36.327802	-13.160786
31804		47.983045	36.319146	-13.153296
31805		47.983423	36.310554	-13.141624
31806		47.974521	36.304145	-13.128413
31807		47.958595	36.299155	-13.113945
31808		47.934099	36.292505	-13.112021
31809		47.920582	36.282292	-13.110830
31810		47.906509	36.273863	-13.118516
31811		47.900654	36.261550	-13.132197
31812		47.903976	36.248930	-13.143192
31813		47.910414	36.240629	-13.151531
31814		47.916315	36.234895	-13.157939
31815		47.918754	36.228952	-13.163395
31816		47.925643	36.225815	-13.166522
31817		47.925914	36.223584	-13.174174
31818		47.920312	36.221726	-13.176166
31819		47.907336	36.220652	-13.183608
31820		47.896003	36.219107	-13.191306
31821		47.886784	36.215708	-13.203970
31822		47.883703	36.210376	-13.215959
31823		47.881762	36.205966	-13.227061
31824		47.882544	36.198317	-13.237241
31825		47.887886	36.192469	-13.242105
31826		47.893164	36.186607	-13.247172
31827		47.892590	36.180815	-13.251618
31828		47.889837	36.175605	-13.255720
31829		47.884371	36.170479	-13.259635
31830		47.874790	36.165388	-13.262821
31831		47.864028	36.159949	-13.261300
31832		47.855367	36.156675	-13.258581
31833		47.848438	36.154405	-13.258302
31834		47.847017	36.150290	-13.259150
31835		47.844678	36.148259	-13.264681
31836		47.843920	36.146620	-13.270132
31837		47.845383	36.142882	-13.277064
31838		47.848992	36.137424	-13.285346
31839		47.857686	36.135378	-13.288742
31840		47.859774	36.134369	-13.291664
31841		47.860295	36.133774	-13.292273
31842		47.860806	36.128471	-13.296493
31843		47.861916	36.125794	-13.296941
31844		47.857745	36.124246	-13.297660
31845		47.853948	36.122736	-13.298887
31846		47.850285	36.119683	-13.304241
31847		47.848146	36.116771	-13.311479
31848		47.849323	36.113940	-13.320300
31849		47.853309	36.113968	-13.325056
31850		47.858939	36.114496	-13.329411
31851		47.865133	36.112786	-13.335374
31852		47.872631	36.111341	-13.340476
31853		47.880887	36.110592	-13.344350
31854		47.887436	36.108960	-13.347446
31855		47.890229	36.107356	-13.348576
31856		47.889281	36.107284	-13.350059
31857		47.889256	36.106392	-13.354351
31858		47.890338	36.104345	-13.361190
31859		47.893228	36.103375	-13.364965
31860		47.895001	36.102303	-13.367218
31861		47.896313	36.099376	-13.367156
31862		47.896819	36.098053	-13.366734
31863		47.898815	36.095408	-13.367698
31864		47.898063	36.093768	-13.373148
31865		47.904700	36.091071	-13.376677
31866		47.909456	36.088211	-13.386291
31867		47.916951	36.085128	-13.390982
31868		47.926977	36.084249	-13.392890
31869		47.939496	36.082251	-13.394654
31870		47.947882	36.080210	-13.399141
31871		47.956605	36.078067	-13.402515
31872		47.963700	36.073360	-13.409611
31873		47.974752	36.068683	-13.414599
31874		47.983050	36.063443	-13.421748
31875		47.996068	36.062398	-13.426269
31876		48.008961	36.062009	-13.442747
31877		48.022320	36.058538	-13.458353
31878		48.033291	36.055357	-13.476105
31879		48.039275	36.051631	-13.494536
31880		48.050981	36.047786	-13.515614
31881		48.058592	36.045180	-13.534935
31882		48.068165	36.048010	-13.552577
31883		48.075162	36.049183	-13.582936
31884		48.079870	36.054700	-13.624038
31885		48.088352	36.065691	-13.666277
31886		48.098553	36.080280	-13.705547
31887		48.108366	36.094641	-13.742688
31888		48.121236	36.109773	-13.783393
31889		48.142360	36.124110	-13.826290
31890		48.167842	36.139493	-13.873425
31891		48.195400	36.153564	-13.920211
31892		48.224280	36.168906	-13.963551
31893		48.251397	36.186821	-14.000216
31894		48.276695	36.204698	-14.028916
31895		48.295892	36.220576	-14.050912
31896		48.303822	36.233287	-14.067796
31897		48.307528	36.242659	-14.081725
31898		48.312902	36.252551	-14.089970
31899		48.314650	36.260965	-14.100411
31900		48.312745	36.269283	-14.110376
31901		48.312211	36.275097	-14.128193
31902		48.315546	36.280457	-14.149599
31903		48.324970	36.287972	-14.172474
31904		48.338150	36.293818	-14.196890
31905		48.362117	36.298051	-14.217835
31906		48.394623	36.304139	-14.236382
31907		48.425472	36.306585	-14.260998
31908		48.461802	36.309485	-14.283688
31909		48.497615	36.316191	-14.305113
31910		48.530714	36.323937	-14.325664
31911		48.554385	36.332911	-14.345802
31912		48.574558	36.345109	-14.357238
31913		48.581421	36.355179	-14.367393
31914		48.581984	36.365625	-14.374804
31915		48.576916	36.375690	-14.389819
31916		48.573569	36.386008	-14.404358
31917		48.569726	36.397911	-14.414129
31918		48.570508	36.411529	-14.423511
31919		48.575702	36.429216	-14.429611
31920		48.581294	36.444694	-14.434530
31921		48.586939	36.459332	-14.436536
31922		48.592957	36.474179	-14.435525
31923		48.592793	36.486022	-14.432139
31924		48.593302	36.495793	-14.428328
31925		48.595839	36.503590	-14.424777
31926		48.596151	36.508521	-14.426955
31927		48.593142	36.507694	-14.440357
31928		48.601565	36.506304	-14.456111
31929		48.618966	36.512310	-14.465626
31930		48.642075	36.519675	-14.469925
31931		48.667679	36.524470	-14.468393
31932		48.687697	36.525694	-14.469992
31933		48.696934	36.526030	-14.471920
31934		48.699024	36.527452	-14.469566
31935		48.694959	36.528274	-14.467959
31936		48.690878	36.530720	-14.468680
31937		48.692363	36.530215	-14.467986
31938		48.695926	36.530395	-14.463711
31939		48.700308	36.530467	-14.460352
31940		48.709518	36.531040	-14.456938
31941		48.723296	36.530733	-14.451757
31942		48.737388	36.527613	-14.447895
31943		48.750935	36.525148	-14.445264
31944		48.764903	36.520387	-14.444725
31945		48.774372	36.518402	-14.450905
31946		48.791401	36.515016	-14.455094
31947		48.816921	36.514264	-14.458153
31948		48.842276	36.515797	-14.459946
31949		48.866212	36.519449	-14.457814
31950		48.880216	36.519432	-14.455246
31951		48.891343	36.517679	-14.456115
31952		48.900579	36.516583	-14.460666
31953		48.915336	36.517278	-14.465335
31954		48.927487	36.517577	-14.469975
31955		48.938786	36.520005	-14.475637
31956		48.950937	36.520303	-14.480278
31957		48.969522	36.519481	-14.486176
31958		48.993176	36.519063	-14.487940
31959		49.018508	36.521356	-14.487524
31960		49.038507	36.524190	-14.481173
31961		49.053650	36.524953	-14.477771
31962		49.063904	36.524892	-14.478382
31963		49.075794	36.523514	-14.476557
31964		49.080177	36.522226	-14.477633
31965		49.084990	36.521690	-14.476729
31966		49.093047	36.523545	-14.475910
31967		49.102235	36.528802	-14.474071
31968		49.115138	36.534821	-14.472044
31969		49.130960	36.545341	-14.465934
31970		49.144810	36.555511	-14.461230
31971		49.153653	36.562234	-14.464570
31972		49.163927	36.564496	-14.468454
31973		49.173252	36.564300	-14.470225
31974		49.175108	36.564779	-14.477803
31975		49.177682	36.564431	-14.483762
31976		49.181412	36.566910	-14.487407
31977		49.189789	36.571142	-14.485455
31978		49.198299	36.570705	-14.486669
31979		49.201704	36.571564	-14.484037
31980		49.199091	36.572780	-14.482839
31981		49.196574	36.571578	-14.486549
31982		49.191067	36.569756	-14.493235
31983		49.192652	36.568373	-14.499801
31984		49.197054	36.569412	-14.504153
31985		49.201595	36.569663	-14.510389
31986		49.205420	36.571355	-14.516035
31987		49.207361	36.574237	-14.518154
31988		49.207330	36.580670	-14.520281
31989		49.208769	36.586539	-14.521548
31990		49.206451	36.591699	-14.524936
31991		49.202751	36.593188	-14.532025
31992		49.198930	36.597175	-14.542660
31993		49.198379	36.599413	-14.556322
31994		49.200758	36.600699	-14.571853
31995		49.202822	36.603505	-14.587226
31996		49.207555	36.606927	-14.595529
31997		49.213778	36.611483	-14.599951
31998		49.217782	36.615575	-14.604909
31999		49.219893	36.620718	-14.606516
32000		49.214538	36.622948	-14.604548
32001		49.206201	36.626999	-14.603695
32002		49.198901	36.626362	-14.611632
32003		49.197997	36.625323	-14.621948
32004		49.200664	36.628316	-14.630186
32005		49.200355	36.632308	-14.636696
32006		49.198424	36.634409	-14.639487
32007		49.200863	36.640013	-14.632862
32008		49.200079	36.644787	-14.628373
32009		49.193971	36.649184	-14.623767
32010		49.179696	36.653471	-14.624112
32011		49.171803	36.658334	-14.621073
32012		49.167767	36.661562	-14.624440
32013		49.165638	36.664053	-14.629343
32014		49.163169	36.665247	-14.632793
32015		49.160368	36.667105	-14.633383
32016		49.161793	36.665983	-14.635011
32017		49.169127	36.665265	-14.638522
32018		49.171492	36.668295	-14.637479
32019		49.166112	36.671136	-14.633474
32020		49.155759	36.675525	-14.626677
32021		49.145627	36.680739	-14.621899
32022		49.137639	36.685513	-14.624452
32023		49.130136	36.691833	-14.629578
32024		49.119195	36.692794	-14.637380
32025		49.116364	36.696230	-14.638568
32026		49.120940	36.693365	-14.643635
32027		49.127849	36.690800	-14.644691
32028		49.132275	36.687955	-14.645119
32029		49.134949	36.691712	-14.642599
32030		49.137442	36.696374	-14.638228
32031		49.137762	36.700768	-14.634114
32032		49.134192	36.701807	-14.630910
32033		49.132429	36.705356	-14.630484
32034		49.136626	36.705641	-14.627551
32035		49.139311	36.706343	-14.627234
32036		49.144195	36.707512	-14.628286
32037		49.157517	36.710399	-14.630957
32038		49.173550	36.716214	-14.632983
32039		49.187928	36.723453	-14.632332
32040		49.187700	36.731447	-14.630471
32041		49.189002	36.737495	-14.626878
32042		49.186969	36.744353	-14.622985
32043		49.183792	36.750009	-14.621822
32044		49.184781	36.753492	-14.624698
32045		49.190678	36.757170	-14.630929
32046		49.204466	36.760154	-14.633574
32047		49.218274	36.765534	-14.631046
32048		49.233442	36.772028	-14.625074
32049		49.242472	36.774957	-14.623814
32050		49.247079	36.778481	-14.618859
32051		49.244739	36.778024	-14.616275
32052		49.239732	36.778754	-14.614356
32053		49.233933	36.780185	-14.612630
32054		49.228179	36.781491	-14.615977
32055		49.225139	36.782538	-14.621178
32056		49.225248	36.788937	-14.627959
32057		49.227287	36.794877	-14.635914
32058		49.233190	36.803277	-14.640207
32059		49.234374	36.809025	-14.651001
32060		49.238169	36.814582	-14.660567
32061		49.244877	36.819072	-14.673566
32062		49.252098	36.824496	-14.687884
32063		49.258129	36.830301	-14.700320
32064		49.263714	36.834668	-14.708637
32065		49.272854	36.837402	-14.717482
32066		49.276778	36.840615	-14.728414
32067		49.282451	36.847226	-14.739861
32068		49.286147	36.853564	-14.747431
32069		49.287450	36.858553	-14.754852
32070		49.290553	36.863222	-14.760437
32071		49.291488	36.869012	-14.761724
32072		49.292641	36.872570	-14.760632
32073		49.288021	36.872575	-14.761536
32074		49.280357	36.873534	-14.760861
32075		49.269735	36.870647	-14.760363
32076		49.260135	36.868841	-14.760990
32077		49.252340	36.868004	-14.761912
32078		49.247735	36.868005	-14.762673
32079		49.244807	36.869955	-14.763663
32080		49.240928	36.869284	-14.767770
32081		49.240038	36.866698	-14.771038
32082		49.237714	36.865651	-14.767246
32083		49.231747	36.863824	-14.760175
32084		49.222976	36.862312	-14.749557
32085		49.211129	36.863156	-14.738328
32086		49.192562	36.862738	-14.730042
32087		49.173634	36.861377	-14.721850
32088		49.154257	36.854470	-14.717596
32089		49.137825	36.848873	-14.708343
32090		49.124963	36.840979	-14.701654
32091		49.114270	36.832612	-14.705646
32092		49.109441	36.825473	-14.709133
32093		49.110101	36.817843	-14.709525
32094		49.110624	36.811020	-14.713175
32095		49.110678	36.803939	-14.715088
32096		49.109207	36.797556	-14.712709
32097		49.100603	36.788942	-14.710538
32098		49.090249	36.776868	-14.702650
32099		49.082163	36.766774	-14.699836
32100		49.076511	36.754797	-14.699375
32101		49.077062	36.743426	-14.696248
32102		49.078413	36.732922	-14.693347
32103		49.085191	36.723494	-14.688039
32104		49.089282	36.711977	-14.685903
32105		49.091601	36.700785	-14.682283
32106		49.086882	36.686659	-14.680557
32107		49.081242	36.675321	-14.677934
32108		49.074538	36.663954	-14.673463
32109		49.067729	36.651581	-14.664875
32110		49.057128	36.636329	-14.655033
32111		49.051072	36.622119	-14.637081
32112		49.042713	36.609788	-14.618027
32113		49.031414	36.599084	-14.600156
32114		49.017753	36.591077	-14.587486
32115		49.002547	36.584233	-14.583726
32116		48.999310	36.581350	-14.585872
32117		49.005370	36.580329	-14.590086
32118		49.013777	36.578256	-14.594589
32119		49.026782	36.578148	-14.593490
32120		49.031787	36.574648	-14.592614
32121		49.034094	36.574622	-14.585627
32122		49.028036	36.575961	-14.579701
32123		49.015916	36.575789	-14.576635
32124		49.001016	36.576073	-14.571753
32125		48.983913	36.576562	-14.568468
32126		48.969076	36.577611	-14.566223
32127		48.956699	36.579199	-14.564450
32128		48.956023	36.579297	-14.558058
32129		48.958250	36.579030	-14.558130
32130		48.964393	36.578106	-14.558576
32131		48.970663	36.575645	-14.552821
32132		48.973794	36.570240	-14.547280
32133		48.975356	36.565855	-14.542373
32134		48.979723	36.562238	-14.540153
32135		48.983175	36.557691	-14.541472
32136		48.984212	36.546924	-14.555077
32137		48.994518	36.538864	-14.559875
32138		48.998513	36.534324	-14.562938
32139		49.000105	36.528406	-14.565910
32140		49.006573	36.523659	-14.563117
32141		49.011924	36.516304	-14.553744
32142		49.011457	36.507068	-14.543519
32143		49.001336	36.496427	-14.532000
32144		48.990720	36.483578	-14.516865
32145		48.970009	36.472732	-14.500908
32146		48.947096	36.456534	-14.487384
32147		48.928287	36.439453	-14.471842
32148		48.911503	36.423757	-14.455879
32149		48.892985	36.409221	-14.435785
32150		48.869485	36.396171	-14.409679
32151		48.840691	36.384476	-14.375087
32152		48.805589	36.371459	-14.340694
32153		48.764634	36.356235	-14.310639
32154		48.721436	36.340524	-14.295111
32155		48.686003	36.323186	-14.285679
32156		48.660781	36.308691	-14.283240
32157		48.651678	36.298352	-14.278617
32158		48.646677	36.291290	-14.268879
32159		48.642118	36.284263	-14.250791
32160		48.636931	36.275743	-14.227251
32161		48.619747	36.263750	-14.204360
32162		48.594482	36.250277	-14.178887
32163		48.565253	36.237394	-14.150028
32164		48.535965	36.224681	-14.121130
32165		48.510052	36.210172	-14.096962
32166		48.486948	36.196320	-14.073552
32167		48.465808	36.182646	-14.054257
32168		48.455399	36.171427	-14.031911
32169		48.443288	36.162041	-14.008318
32170		48.437319	36.154150	-13.981498
32171		48.437535	36.143504	-13.945793
32172		48.441344	36.138626	-13.899593
32173		48.446299	36.130663	-13.853809
32174		48.455261	36.117293	-13.818406
32175		48.458157	36.110585	-13.781541
32176		48.445116	36.105218	-13.743993
32177		48.422749	36.098581	-13.705772
32178		48.400220	36.093581	-13.668568
32179		48.374121	36.089237	-13.640385
32180		48.346731	36.090149	-13.619342
32181		48.324378	36.092823	-13.601719
32182		48.313794	36.096382	-13.587768
32183		48.312603	36.098495	-13.577941
32184		48.313388	36.105163	-13.568919
32185		48.310587	36.116479	-13.560890
32186		48.298958	36.129159	-13.557282
32187		48.286486	36.139239	-13.547836
32188		48.270242	36.149433	-13.538216
32189		48.249221	36.157780	-13.527710
32190		48.226371	36.163436	-13.519906
32191		48.206126	36.167066	-13.514063
32192		48.186685	36.166308	-13.512347
32193		48.171983	36.168732	-13.510591
32194		48.158248	36.168298	-13.518229
32195		48.150502	36.167345	-13.527955
32196		48.146874	36.168218	-13.537211
32197		48.145268	36.168405	-13.547489
32198		48.144613	36.167551	-13.555548
32199		48.147006	36.166942	-13.557338
32200		48.139593	36.162394	-13.556702
32201		48.132112	36.161770	-13.555061
32202		48.119364	36.156894	-13.554258
32203		48.111490	36.152913	-13.554675
32204		48.105365	36.148609	-13.556696
32205		48.099184	36.144125	-13.559186
32206		48.093895	36.142346	-13.561862
32207		48.093543	36.140839	-13.562426
32208		48.096084	36.141505	-13.562706
32209		48.098436	36.142888	-13.562821
32210		48.097768	36.148401	-13.560985
32211		48.101615	36.148489	-13.555712
32212		48.106192	36.148090	-13.546897
32213		48.103000	36.145180	-13.540381
32214		48.097166	36.139441	-13.533912
32215		48.087498	36.137399	-13.529952
32216		48.079850	36.135971	-13.526001
32217		48.067167	36.135654	-13.526760
32218		48.060629	36.139933	-13.525407
32219		48.057609	36.140842	-13.530972
32220		48.061443	36.144156	-13.528645
32221		48.057401	36.147214	-13.518589
32222		48.052300	36.147182	-13.505539
32223		48.049024	36.147498	-13.491672
32224		48.041164	36.147629	-13.483774
32225		48.032264	36.151387	-13.476377
32226		48.021810	36.153240	-13.478858
32227		48.021816	36.155637	-13.480688
32228		48.025515	36.156485	-13.487545
32229		48.034755	36.152994	-13.492156
32230		48.047718	36.149572	-13.490177
32231		48.059117	36.145782	-13.484781
32232		48.065459	36.144185	-13.474724
32233		48.067245	36.140721	-13.464895
32234		48.069583	36.135920	-13.456057
32235		48.069585	36.135301	-13.448023
32236		48.068586	36.135285	-13.440996
32237		48.068128	36.135400	-13.439097
32238		48.069746	36.130355	-13.441368
32239		48.082269	36.126872	-13.442560
32240		48.098392	36.124116	-13.438715
32241		48.107577	36.122107	-13.435475
32242		48.117094	36.117215	-13.428177
