// General information: 
//  MT Manager version: 2022.2.0 
//  XDA version: 2022.2.0 build 7381 rev 124627 built on 2023-07-19
// Device information: 
//  DeviceId: 00B44730
//  ProductCode: MTW2-3A7G6
//  Firmware Version: 4.3.5
//  Hardware Version: 2.0.0
// Device settings: 
//  Filter Profile: human(46.1)
//  Option Flags: Orientation Smoother Disabled, Position/Velocity Smoother Disabled, Continuous Zero Rotation Update Disabled, AHS Disabled, ICC Disabled
// Coordinate system: ENU
PacketCounter	SampleTimeFine	Roll	Pitch	Yaw
29100		21.492055	23.901773	-71.978043
29101		21.476623	23.908034	-71.969252
29102		21.478894	23.905078	-71.970932
29103		21.497478	23.893379	-71.987725
29104		21.527916	23.871765	-72.019226
29105		21.575149	23.850437	-72.059196
29106		21.643926	23.828313	-72.108722
29107		21.731850	23.805679	-72.159647
29108		21.829087	23.784957	-72.207702
29109		21.918478	23.765543	-72.249881
29110		21.996542	23.749491	-72.287039
29111		22.057478	23.734344	-72.318681
29112		22.107824	23.719875	-72.347703
29113		22.145635	23.705395	-72.373505
29114		22.179804	23.687824	-72.395976
29115		22.200152	23.668104	-72.413886
29116		22.219762	23.649553	-72.427790
29117		22.237952	23.634226	-72.434037
29118		22.257153	23.623723	-72.433930
29119		22.270488	23.615690	-72.426708
29120		22.277244	23.610502	-72.413685
29121		22.288358	23.605065	-72.395360
29122		22.305041	23.602309	-72.376069
29123		22.338804	23.595971	-72.354663
29124		22.380618	23.591249	-72.335658
29125		22.431112	23.584234	-72.316883
29126		22.485523	23.576477	-72.300250
29127		22.539400	23.566267	-72.287757
29128		22.590294	23.553022	-72.284233
29129		22.640774	23.538092	-72.281829
29130		22.675594	23.524569	-72.288299
29131		22.703012	23.509414	-72.296887
29132		22.720962	23.499286	-72.308055
29133		22.730625	23.491892	-72.317692
29134		22.739613	23.488628	-72.330483
29135		22.754662	23.485203	-72.346227
29136		22.769809	23.485396	-72.359844
29137		22.789107	23.488485	-72.367422
29138		22.817136	23.492491	-72.365223
29139		22.849190	23.487372	-72.358873
29140		22.879919	23.479222	-72.352408
29141		22.907010	23.466664	-72.349237
29142		22.929851	23.451714	-72.352200
29143		22.951709	23.436219	-72.359215
29144		22.977224	23.422375	-72.368843
29145		23.005631	23.411441	-72.377676
29146		23.020639	23.407354	-72.387501
29147		23.027724	23.403178	-72.393365
29148		23.031339	23.399655	-72.396292
29149		23.035775	23.393625	-72.398123
29150		23.042367	23.391280	-72.402352
29151		23.058009	23.391958	-72.407369
29152		23.078641	23.389608	-72.416576
29153		23.099678	23.389834	-72.426322
29154		23.111089	23.389978	-72.434197
29155		23.113458	23.387526	-72.441179
29156		23.112652	23.385575	-72.445670
29157		23.105941	23.383505	-72.446465
29158		23.097019	23.383373	-72.442497
29159		23.086883	23.382362	-72.436754
29160		23.078073	23.380161	-72.432255
29161		23.076413	23.375711	-72.424623
29162		23.072346	23.368382	-72.415582
29163		23.068999	23.359708	-72.402483
29164		23.071931	23.349596	-72.390581
29165		23.074109	23.340435	-72.379397
29166		23.079151	23.333467	-72.364776
29167		23.087100	23.327321	-72.351527
29168		23.094343	23.323711	-72.344768
29169		23.101189	23.321151	-72.336321
29170		23.106404	23.316963	-72.332223
29171		23.115639	23.310677	-72.331529
29172		23.119765	23.305980	-72.331676
29173		23.125276	23.301120	-72.330914
29174		23.130892	23.296978	-72.331368
29175		23.136393	23.294496	-72.331703
29176		23.137199	23.290747	-72.334694
29177		23.139719	23.285890	-72.337763
29178		23.143135	23.285089	-72.339861
29179		23.145953	23.286696	-72.338908
29180		23.144340	23.291183	-72.339397
29181		23.140781	23.299191	-72.336796
29182		23.136259	23.309225	-72.336876
29183		23.136445	23.319070	-72.335146
29184		23.147279	23.329402	-72.330069
29185		23.157771	23.337608	-72.328003
29186		23.166956	23.341223	-72.327148
29187		23.178127	23.345048	-72.329020
29188		23.185463	23.347622	-72.331590
29189		23.189261	23.351313	-72.330551
29190		23.187538	23.352974	-72.328144
29191		23.186795	23.355674	-72.323471
29192		23.185470	23.359166	-72.322083
29193		23.194013	23.360826	-72.319090
29194		23.207103	23.364008	-72.315131
29195		23.214597	23.365386	-72.314451
29196		23.221675	23.369316	-72.314549
29197		23.228059	23.368646	-72.316771
29198		23.236461	23.369618	-72.319262
29199		23.248400	23.372910	-72.324732
29200		23.261037	23.378221	-72.329603
29201		23.272872	23.384818	-72.338680
29202		23.278812	23.392536	-72.344513
29203		23.278630	23.397730	-72.349031
29204		23.274129	23.401487	-72.352938
29205		23.270100	23.404573	-72.358569
29206		23.270672	23.406369	-72.362160
29207		23.271506	23.412150	-72.365203
29208		23.270444	23.415465	-72.366831
29209		23.266383	23.417667	-72.372759
29210		23.266785	23.416438	-72.380926
29211		23.269058	23.416117	-72.390977
29212		23.273135	23.416343	-72.399415
29213		23.277288	23.415155	-72.409078
29214		23.281220	23.415549	-72.420297
29215		23.285301	23.417360	-72.432728
29216		23.293369	23.424881	-72.442576
29217		23.304497	23.434985	-72.447988
29218		23.312588	23.445873	-72.453569
29219		23.315295	23.450790	-72.456224
29220		23.312702	23.452506	-72.460623
29221		23.304945	23.454638	-72.465111
29222		23.293554	23.458757	-72.465700
29223		23.284483	23.466951	-72.460367
29224		23.277769	23.474645	-72.455949
29225		23.281714	23.482764	-72.453428
29226		23.288013	23.486116	-72.451265
29227		23.286144	23.489148	-72.450594
29228		23.271074	23.493596	-72.450525
29229		23.233846	23.512138	-72.449117
29230		23.184620	23.552702	-72.444578
29231		23.138262	23.603870	-72.430456
29232		23.098625	23.659583	-72.410133
29233		23.067712	23.709714	-72.387207
29234		23.049367	23.743269	-72.367157
29235		23.039291	23.770355	-72.351575
29236		23.041396	23.792774	-72.337422
29237		23.050698	23.812437	-72.326520
29238		23.065120	23.828597	-72.319084
29239		23.083503	23.842185	-72.312408
29240		23.096974	23.847863	-72.307036
29241		23.102798	23.851857	-72.303311
29242		23.104086	23.850539	-72.299459
29243		23.101305	23.848511	-72.296128
29244		23.097371	23.847702	-72.291458
29245		23.092055	23.849751	-72.284030
29246		23.085680	23.849677	-72.276730
29247		23.082081	23.846421	-72.270383
29248		23.085244	23.840009	-72.260474
29249		23.086096	23.830304	-72.256440
29250		23.089647	23.823304	-72.250085
29251		23.098049	23.818142	-72.247435
29252		23.106594	23.811362	-72.244706
29253		23.108230	23.802003	-72.243986
29254		23.097503	23.790453	-72.247124
29255		23.076409	23.781202	-72.249920
29256		23.047008	23.773406	-72.253862
29257		23.020377	23.769443	-72.256954
29258		23.004794	23.767141	-72.259778
29259		22.998119	23.768095	-72.260594
29260		22.987723	23.766265	-72.259728
29261		22.975445	23.763582	-72.258169
29262		22.962141	23.762761	-72.259980
29263		22.950750	23.765464	-72.261937
29264		22.943223	23.769258	-72.264506
29265		22.943173	23.779207	-72.268396
29266		22.944234	23.788852	-72.269119
29267		22.945042	23.796147	-72.273547
29268		22.939216	23.802852	-72.278632
29269		22.929498	23.806513	-72.285240
29270		22.922707	23.809227	-72.290867
29271		22.919656	23.809653	-72.294252
29272		22.915645	23.811611	-72.296769
29273		22.913553	23.810850	-72.299261
29274		22.912813	23.810462	-72.307285
29275		22.918009	23.810718	-72.315154
29276		22.924118	23.810233	-72.323757
29277		22.930172	23.807834	-72.332164
29278		22.937468	23.806478	-72.339984
29279		22.942600	23.803770	-72.347898
29280		22.941066	23.801554	-72.352267
29281		22.940885	23.803189	-72.355157
29282		22.942996	23.807210	-72.352393
29283		22.945684	23.812439	-72.355874
29284		22.951974	23.815567	-72.359739
29285		22.959052	23.814953	-72.367207
29286		22.960162	23.810635	-72.377290
29287		22.955759	23.806379	-72.387294
29288		22.952582	23.806083	-72.391095
29289		22.943918	23.807638	-72.394297
29290		22.935477	23.807917	-72.388940
29291		22.920643	23.809314	-72.383314
29292		22.905962	23.811544	-72.377024
29293		22.897729	23.812707	-72.370940
29294		22.896839	23.814346	-72.366035
29295		22.903523	23.814487	-72.362289
29296		22.914045	23.814641	-72.357045
29297		22.926505	23.818084	-72.352005
29298		22.936025	23.823119	-72.345402
29299		22.944790	23.826511	-72.338937
29300		22.951135	23.829758	-72.329711
29301		22.953365	23.832781	-72.322026
29302		22.950351	23.833099	-72.319476
29303		22.949311	23.830237	-72.318564
29304		22.951688	23.827517	-72.319804
29305		22.958011	23.825059	-72.322576
29306		22.967251	23.823754	-72.324664
29307		22.975587	23.821579	-72.324765
29308		22.982326	23.821145	-72.322602
29309		22.989043	23.820977	-72.318016
29310		22.995835	23.820742	-72.312240
29311		23.000736	23.820840	-72.306375
29312		23.003628	23.816734	-72.303158
29313		23.008301	23.816590	-72.302083
29314		23.018540	23.813654	-72.301555
29315		23.032522	23.812421	-72.302084
29316		23.054394	23.811673	-72.300586
29317		23.078016	23.812251	-72.297036
29318		23.104575	23.813445	-72.291223
29319		23.133972	23.813736	-72.284743
29320		23.161742	23.816882	-72.275812
29321		23.193152	23.817447	-72.266658
29322		23.230186	23.820904	-72.258488
29323		23.265584	23.828608	-72.248352
29324		23.291767	23.836809	-72.238192
29325		23.315674	23.842084	-72.231158
29326		23.338481	23.848435	-72.222267
29327		23.356942	23.854494	-72.211393
29328		23.376328	23.863511	-72.198168
29329		23.395813	23.875239	-72.188782
29330		23.422136	23.890537	-72.178165
29331		23.449239	23.910389	-72.171693
29332		23.471350	23.928068	-72.169773
29333		23.492935	23.938875	-72.175666
29334		23.517103	23.943741	-72.184836
29335		23.541989	23.947259	-72.196536
29336		23.564009	23.948032	-72.208429
29337		23.583840	23.945349	-72.224002
29338		23.596995	23.940118	-72.238567
29339		23.602937	23.936327	-72.248444
29340		23.608231	23.933707	-72.253344
29341		23.610950	23.933877	-72.253825
29342		23.612097	23.933889	-72.250442
29343		23.611964	23.932544	-72.250604
29344		23.616490	23.930341	-72.252018
29345		23.626632	23.927922	-72.253420
29346		23.640341	23.923865	-72.254651
29347		23.651479	23.922334	-72.255399
29348		23.660103	23.922094	-72.252541
29349		23.668503	23.921705	-72.252059
29350		23.674850	23.920151	-72.252224
29351		23.681372	23.920644	-72.252140
29352		23.690807	23.920725	-72.250223
29353		23.696346	23.917621	-72.248894
29354		23.697396	23.914143	-72.246086
29355		23.695330	23.910399	-72.245891
29356		23.691683	23.905199	-72.241278
29357		23.686108	23.901917	-72.235717
29358		23.681392	23.897538	-72.230615
29359		23.679695	23.896348	-72.223877
29360		23.678087	23.898262	-72.219228
29361		23.676293	23.896813	-72.214467
29362		23.676491	23.898343	-72.211284
29363		23.680463	23.899299	-72.205480
29364		23.688216	23.900277	-72.200792
29365		23.697792	23.898894	-72.194635
29366		23.706235	23.898284	-72.191926
29367		23.713914	23.899295	-72.187531
29368		23.718547	23.897636	-72.185384
29369		23.723194	23.895101	-72.183266
29370		23.729399	23.891351	-72.183885
29371		23.732992	23.888556	-72.184096
29372		23.734869	23.887339	-72.184085
29373		23.733719	23.882716	-72.183850
29374		23.730763	23.878749	-72.183993
29375		23.726914	23.876156	-72.182221
29376		23.726594	23.872779	-72.185106
29377		23.730408	23.870189	-72.180527
29378		23.739884	23.869467	-72.178512
29379		23.745539	23.869016	-72.176266
29380		23.750203	23.866429	-72.176456
29381		23.753457	23.860773	-72.182375
29382		23.756766	23.855370	-72.188831
29383		23.759886	23.848570	-72.197033
29384		23.764130	23.842370	-72.203248
29385		23.774298	23.842344	-72.205707
29386		23.784753	23.842183	-72.202420
29387		23.797200	23.844702	-72.197634
29388		23.806086	23.845766	-72.191570
29389		23.805280	23.845201	-72.186161
29390		23.799748	23.842453	-72.181907
29391		23.794020	23.840747	-72.180536
29392		23.787447	23.837760	-72.178533
29393		23.784644	23.838139	-72.176329
29394		23.786555	23.838601	-72.174953
29395		23.791331	23.839920	-72.172444
29396		23.795215	23.840757	-72.169582
29397		23.796081	23.840307	-72.169093
29398		23.792085	23.838329	-72.171809
29399		23.784172	23.834341	-72.175710
29400		23.779994	23.830301	-72.178912
29401		23.777708	23.823653	-72.181626
29402		23.776536	23.815694	-72.182782
29403		23.773427	23.810189	-72.183563
29404		23.771253	23.805408	-72.186625
29405		23.773954	23.803184	-72.186045
29406		23.780593	23.801139	-72.182247
29407		23.786220	23.798286	-72.178946
29408		23.789233	23.796948	-72.173375
29409		23.787427	23.795501	-72.168624
29410		23.785654	23.794630	-72.165266
29411		23.781016	23.794074	-72.161261
29412		23.781081	23.795232	-72.158274
29413		23.782215	23.797069	-72.153215
29414		23.784265	23.797163	-72.148258
29415		23.786967	23.794941	-72.147679
29416		23.791384	23.790186	-72.148897
29417		23.798618	23.784157	-72.149769
29418		23.809584	23.779214	-72.152919
29419		23.820487	23.772352	-72.155506
29420		23.830465	23.766053	-72.159830
29421		23.835696	23.762487	-72.165268
29422		23.836650	23.762169	-72.165357
29423		23.833725	23.759897	-72.164079
29424		23.831852	23.757975	-72.161656
29425		23.829889	23.758417	-72.161910
29426		23.830857	23.756937	-72.159090
29427		23.831643	23.754718	-72.159216
29428		23.834958	23.750607	-72.164074
29429		23.842890	23.745009	-72.171051
29430		23.854627	23.740618	-72.179664
29431		23.871989	23.735380	-72.186772
29432		23.885708	23.730285	-72.193035
29433		23.896518	23.727405	-72.200843
29434		23.903972	23.723065	-72.200470
29435		23.909467	23.721783	-72.201342
29436		23.915173	23.719902	-72.198691
29437		23.917085	23.719705	-72.195876
29438		23.921068	23.721779	-72.190904
29439		23.924992	23.724550	-72.187291
29440		23.927325	23.729791	-72.180563
29441		23.924699	23.730683	-72.174413
29442		23.916571	23.735032	-72.169095
29443		23.907360	23.735881	-72.162598
29444		23.896445	23.737982	-72.155346
29445		23.888227	23.741234	-72.149544
29446		23.882801	23.741749	-72.145853
29447		23.879924	23.743085	-72.146150
29448		23.882901	23.747313	-72.144570
29449		23.883814	23.751986	-72.147005
29450		23.889665	23.755368	-72.146328
29451		23.894299	23.758576	-72.148807
29452		23.898062	23.760119	-72.150261
29453		23.908331	23.761856	-72.152079
29454		23.917657	23.764469	-72.154438
29455		23.924236	23.765840	-72.154024
29456		23.929781	23.767033	-72.157259
29457		23.938172	23.771180	-72.160825
29458		23.948468	23.772308	-72.165511
29459		23.961424	23.775051	-72.171574
29460		23.980993	23.777227	-72.176727
29461		23.994393	23.782753	-72.174265
29462		23.998659	23.788325	-72.167354
29463		23.989658	23.792084	-72.157963
29464		23.970174	23.793139	-72.150556
29465		23.949347	23.789860	-72.147888
29466		23.931555	23.790059	-72.145539
29467		23.921872	23.788452	-72.148412
29468		23.918757	23.786837	-72.154272
29469		23.923005	23.785114	-72.162250
29470		23.931801	23.780191	-72.173175
29471		23.941727	23.777881	-72.180179
29472		23.945159	23.774440	-72.186803
29473		23.936428	23.774345	-72.190678
29474		23.923097	23.772913	-72.190731
29475		23.904076	23.768175	-72.188812
29476		23.888902	23.763661	-72.186521
29477		23.875691	23.759478	-72.181339
29478		23.861717	23.757226	-72.176355
29479		23.846909	23.758939	-72.168871
29480		23.829220	23.758831	-72.162994
29481		23.807504	23.756150	-72.159533
29482		23.786895	23.756903	-72.157281
29483		23.768855	23.753386	-72.155523
29484		23.759269	23.747356	-72.155104
29485		23.756213	23.742440	-72.154763
29486		23.753088	23.736623	-72.157331
29487		23.749003	23.734173	-72.161193
29488		23.749805	23.731303	-72.162322
29489		23.751416	23.729458	-72.165731
29490		23.754164	23.728020	-72.167373
29491		23.755756	23.724975	-72.170260
29492		23.753803	23.724143	-72.172328
29493		23.747895	23.720441	-72.173568
29494		23.739211	23.717280	-72.174985
29495		23.731541	23.714414	-72.173814
29496		23.723975	23.713287	-72.174321
29497		23.715558	23.714857	-72.171952
29498		23.715742	23.714564	-72.168824
29499		23.715340	23.709755	-72.173034
29500		23.714845	23.702830	-72.179775
29501		23.718906	23.696660	-72.189283
29502		23.722900	23.688934	-72.200564
29503		23.726879	23.680993	-72.210692
29504		23.731947	23.675350	-72.221308
29505		23.738154	23.671773	-72.226375
29506		23.745504	23.667265	-72.227326
29507		23.748889	23.661553	-72.230436
29508		23.750543	23.658169	-72.232578
29509		23.755300	23.659795	-72.230879
29510		23.765770	23.660114	-72.229106
29511		23.777821	23.657967	-72.230605
29512		23.794480	23.655226	-72.234880
29513		23.814759	23.651142	-72.241409
29514		23.836779	23.645340	-72.252776
29515		23.855893	23.638359	-72.262568
29516		23.869519	23.630094	-72.270004
29517		23.879302	23.624235	-72.278237
29518		23.887263	23.616495	-72.284897
29519		23.884909	23.610816	-72.290135
29520		23.870156	23.603290	-72.300328
29521		23.861925	23.596815	-72.310793
29522		23.865887	23.589770	-72.323825
29523		23.874783	23.587526	-72.333967
29524		23.880947	23.586677	-72.344138
29525		23.880388	23.585929	-72.356351
29526		23.876157	23.584999	-72.367662
29527		23.866447	23.585547	-72.373538
29528		23.847475	23.582429	-72.374353
29529		23.820663	23.576906	-72.378370
29530		23.794027	23.569928	-72.379355
29531		23.774986	23.567033	-72.379614
29532		23.762617	23.562744	-72.378055
29533		23.759499	23.558770	-72.380208
29534		23.762987	23.554419	-72.384738
29535		23.766078	23.547381	-72.394905
29536		23.772985	23.537547	-72.404307
29537		23.777014	23.529306	-72.413602
29538		23.776651	23.520089	-72.415167
29539		23.767819	23.509749	-72.413202
29540		23.753181	23.492117	-72.410666
29541		23.729840	23.472545	-72.410645
29542		23.699217	23.455122	-72.410653
29543		23.664068	23.447379	-72.409182
29544		23.633117	23.445466	-72.403312
29545		23.614445	23.447524	-72.398054
29546		23.608973	23.449043	-72.396294
29547		23.618886	23.444616	-72.403050
29548		23.645526	23.438133	-72.417489
29549		23.673737	23.426851	-72.433700
29550		23.693742	23.416494	-72.447171
29551		23.698572	23.406536	-72.459521
29552		23.695465	23.401253	-72.461910
29553		23.679399	23.399804	-72.459639
29554		23.666541	23.399836	-72.452302
29555		23.659226	23.403412	-72.446976
29556		23.657638	23.409361	-72.443727
29557		23.661476	23.413387	-72.443414
29558		23.664321	23.416744	-72.447320
29559		23.670680	23.418858	-72.454142
29560		23.679915	23.418424	-72.461210
29561		23.686112	23.415480	-72.467924
29562		23.689381	23.409520	-72.476307
29563		23.688054	23.406233	-72.482206
29564		23.684957	23.402134	-72.487324
29565		23.680042	23.401141	-72.490069
29566		23.675401	23.404147	-72.490930
29567		23.670737	23.406633	-72.489633
29568		23.668069	23.410763	-72.490031
29569		23.669975	23.413596	-72.489900
29570		23.675531	23.414666	-72.494557
29571		23.684733	23.415567	-72.499800
29572		23.698758	23.412386	-72.502783
29573		23.710797	23.410554	-72.505103
29574		23.716322	23.407660	-72.507311
29575		23.717018	23.405503	-72.510227
29576		23.716210	23.405479	-72.508433
29577		23.714517	23.407569	-72.502453
29578		23.712119	23.407617	-72.493245
29579		23.708165	23.403268	-72.492117
29580		23.708495	23.406998	-72.487640
29581		23.714570	23.414743	-72.480601
29582		23.713184	23.419263	-72.471236
29583		23.703218	23.422096	-72.459719
29584		23.694436	23.428404	-72.448773
29585		23.686549	23.436294	-72.436653
29586		23.681651	23.445228	-72.424252
29587		23.679607	23.457583	-72.411256
29588		23.678575	23.468643	-72.399477
29589		23.675254	23.473921	-72.389326
29590		23.670915	23.477395	-72.382885
29591		23.664346	23.479912	-72.382299
29592		23.653964	23.480633	-72.385522
29593		23.649870	23.478829	-72.391033
29594		23.646922	23.474433	-72.391809
29595		23.637377	23.469123	-72.387519
29596		23.623140	23.458558	-72.381640
29597		23.601305	23.447773	-72.372611
29598		23.578832	23.438832	-72.361075
29599		23.559351	23.436277	-72.346562
29600		23.544284	23.439959	-72.323458
29601		23.527243	23.444063	-72.299321
29602		23.503489	23.445729	-72.279768
29603		23.484280	23.451566	-72.266083
29604		23.473688	23.457896	-72.253282
29605		23.466518	23.462359	-72.244852
29606		23.464994	23.463719	-72.237202
29607		23.463193	23.463189	-72.232146
29608		23.449180	23.462531	-72.229228
29609		23.433290	23.461068	-72.221390
29610		23.411951	23.460672	-72.212767
29611		23.394285	23.460067	-72.202525
29612		23.377000	23.462527	-72.187642
29613		23.353307	23.469815	-72.168683
29614		23.332566	23.478510	-72.152277
29615		23.323944	23.489753	-72.138441
29616		23.322850	23.499170	-72.127173
29617		23.331076	23.508323	-72.115150
29618		23.344986	23.517425	-72.106081
29619		23.354933	23.525151	-72.097596
29620		23.362122	23.531292	-72.088551
29621		23.361635	23.536041	-72.078470
29622		23.360310	23.537914	-72.066407
29623		23.357200	23.544989	-72.052826
29624		23.356007	23.547143	-72.037904
29625		23.354650	23.550338	-72.024029
29626		23.352594	23.556398	-72.009922
29627		23.355606	23.557042	-72.003605
29628		23.363414	23.558159	-71.999508
29629		23.376807	23.561196	-71.995917
29630		23.387451	23.562588	-71.991869
29631		23.393401	23.567117	-71.986866
29632		23.392092	23.573553	-71.979295
29633		23.387750	23.577467	-71.970943
29634		23.384434	23.580655	-71.963229
29635		23.379288	23.588761	-71.955640
29636		23.378007	23.596382	-71.948850
29637		23.375592	23.605454	-71.945480
29638		23.373289	23.614460	-71.941877
29639		23.365095	23.622716	-71.940958
29640		23.357019	23.629305	-71.938685
29641		23.349814	23.635094	-71.933578
29642		23.339860	23.639646	-71.928380
29643		23.331562	23.642787	-71.924569
29644		23.329938	23.643662	-71.920518
29645		23.322520	23.644703	-71.916147
29646		23.318872	23.644368	-71.915415
29647		23.324649	23.647177	-71.913826
29648		23.330377	23.648409	-71.916245
29649		23.336001	23.650698	-71.918597
29650		23.346686	23.655734	-71.918715
29651		23.358060	23.659467	-71.920270
29652		23.363162	23.665714	-71.918237
29653		23.359720	23.670888	-71.912847
29654		23.344887	23.673648	-71.910716
29655		23.325965	23.675472	-71.912295
29656		23.311809	23.675070	-71.914320
29657		23.304020	23.674501	-71.918980
29658		23.303966	23.672569	-71.921656
29659		23.310485	23.674271	-71.924789
29660		23.316925	23.672576	-71.930229
29661		23.323243	23.669209	-71.933271
29662		23.332669	23.665008	-71.932453
29663		23.343811	23.660636	-71.931223
29664		23.351440	23.657608	-71.927348
29665		23.357121	23.654978	-71.922038
29666		23.361893	23.652271	-71.919800
29667		23.371183	23.648497	-71.918145
29668		23.376823	23.645267	-71.918439
29669		23.382275	23.641859	-71.919042
29670		23.388036	23.640950	-71.918232
29671		23.393507	23.639060	-71.920177
29672		23.401833	23.636248	-71.923700
29673		23.406503	23.636720	-71.924232
29674		23.408468	23.637707	-71.924854
29675		23.416998	23.641163	-71.926639
29676		23.427522	23.643229	-71.927532
29677		23.434262	23.647858	-71.927746
29678		23.435548	23.651079	-71.924120
29679		23.430979	23.654234	-71.921686
29680		23.425489	23.654256	-71.919410
29681		23.422663	23.655352	-71.918861
29682		23.422788	23.654532	-71.915186
29683		23.426544	23.654073	-71.913590
29684		23.432413	23.653159	-71.909350
29685		23.440934	23.652947	-71.906793
29686		23.449760	23.653052	-71.900275
29687		23.459386	23.653339	-71.893419
29688		23.466514	23.654914	-71.882893
29689		23.469600	23.655812	-71.874600
29690		23.471857	23.655930	-71.867466
29691		23.475545	23.653064	-71.864848
29692		23.481319	23.651515	-71.862824
29693		23.485111	23.652260	-71.861740
29694		23.488987	23.650704	-71.860380
29695		23.495612	23.650202	-71.857711
29696		23.500276	23.647246	-71.857962
29697		23.502993	23.644710	-71.856531
29698		23.505083	23.645005	-71.854534
29699		23.506144	23.646622	-71.851410
29700		23.509117	23.646353	-71.850249
29701		23.514760	23.646497	-71.849592
29702		23.519690	23.647352	-71.846693
29703		23.523337	23.645433	-71.846559
29704		23.528915	23.640106	-71.846323
29705		23.532256	23.635330	-71.851908
29706		23.536761	23.630429	-71.854073
29707		23.543006	23.626813	-71.859093
29708		23.554979	23.620927	-71.864204
29709		23.562046	23.614318	-71.868992
29710		23.566590	23.609360	-71.870844
29711		23.566257	23.605155	-71.873923
29712		23.566276	23.601557	-71.871290
29713		23.567395	23.603743	-71.867021
29714		23.568961	23.610466	-71.859574
29715		23.577751	23.614052	-71.853774
29716		23.585784	23.617789	-71.846531
29717		23.587934	23.620215	-71.839933
29718		23.579665	23.619332	-71.835704
29719		23.566269	23.617885	-71.837257
29720		23.555664	23.612168	-71.839282
29721		23.550516	23.606838	-71.843645
29722		23.547386	23.601411	-71.847546
29723		23.544104	23.597316	-71.854496
29724		23.542913	23.593645	-71.859816
29725		23.541674	23.590345	-71.862935
29726		23.542583	23.588377	-71.863789
29727		23.544379	23.587061	-71.863227
29728		23.546144	23.583647	-71.864764
29729		23.548836	23.581744	-71.864988
29730		23.553411	23.579180	-71.868686
29731		23.557980	23.578196	-71.870671
29732		23.563554	23.575921	-71.873853
29733		23.568959	23.573780	-71.877768
29734		23.572688	23.573287	-71.881778
29735		23.579027	23.571766	-71.886986
29736		23.586412	23.570767	-71.893457
29737		23.593679	23.567709	-71.896973
29738		23.603144	23.569312	-71.901587
29739		23.611621	23.570360	-71.902328
29740		23.623080	23.571548	-71.902781
29741		23.629668	23.571993	-71.902588
29742		23.630856	23.574765	-71.901730
29743		23.630877	23.576461	-71.901759
29744		23.634944	23.579486	-71.898502
29745		23.641335	23.576381	-71.899584
29746		23.648975	23.576114	-71.899555
29747		23.652886	23.577998	-71.896179
29748		23.655897	23.578614	-71.894596
29749		23.661610	23.579008	-71.891965
29750		23.669570	23.581276	-71.886905
29751		23.675283	23.581671	-71.884273
29752		23.679369	23.582176	-71.879011
29753		23.683053	23.581465	-71.879387
29754		23.688044	23.582293	-71.875194
29755		23.691012	23.583875	-71.871350
29756		23.696848	23.584424	-71.869620
29757		23.701597	23.585153	-71.868172
29758		23.703695	23.586937	-71.867812
29759		23.707579	23.589776	-71.866907
29760		23.714627	23.594565	-71.863202
29761		23.720221	23.593821	-71.862859
29762		23.724080	23.593537	-71.863998
29763		23.733146	23.588994	-71.868264
29764		23.742475	23.586341	-71.872297
29765		23.750837	23.586254	-71.875320
29766		23.756661	23.588770	-71.877222
29767		23.765193	23.590708	-71.877632
29768		23.775839	23.591877	-71.874193
29769		23.781533	23.592908	-71.873209
29770		23.784455	23.590252	-71.869927
29771		23.785216	23.586223	-71.867906
29772		23.785183	23.581779	-71.864572
29773		23.784896	23.575673	-71.862729
29774		23.781124	23.571138	-71.858922
29775		23.779189	23.569186	-71.855366
29776		23.783037	23.569899	-71.856682
29777		23.785150	23.573271	-71.852552
29778		23.789195	23.575253	-71.850514
29779		23.793715	23.573390	-71.852822
29780		23.803946	23.569516	-71.856323
29781		23.813977	23.564638	-71.859408
29782		23.822429	23.561636	-71.860341
29783		23.825158	23.560945	-71.861078
29784		23.820756	23.563446	-71.855917
29785		23.805980	23.566852	-71.847091
29786		23.781942	23.571411	-71.839148
29787		23.756542	23.573889	-71.836574
29788		23.741646	23.576259	-71.834752
29789		23.735789	23.575411	-71.837901
29790		23.737503	23.573195	-71.843427
29791		23.744792	23.572305	-71.849914
29792		23.756873	23.568130	-71.854709
29793		23.768741	23.563282	-71.859861
29794		23.778997	23.559501	-71.862193
29795		23.784549	23.557549	-71.861345
29796		23.788487	23.558159	-71.859899
29797		23.791446	23.560059	-71.856873
29798		23.792827	23.564175	-71.852022
29799		23.797792	23.568133	-71.848453
29800		23.806673	23.573486	-71.847318
29801		23.817146	23.577551	-71.849964
29802		23.829429	23.578572	-71.854531
29803		23.842590	23.580882	-71.859533
29804		23.848314	23.581603	-71.862471
29805		23.846267	23.581007	-71.865010
29806		23.841680	23.580490	-71.862951
29807		23.833954	23.577763	-71.861891
29808		23.825510	23.576676	-71.860799
29809		23.819205	23.581919	-71.856471
29810		23.810885	23.583544	-71.854450
29811		23.806224	23.584634	-71.851839
29812		23.807238	23.583172	-71.851009
29813		23.813782	23.582727	-71.851122
29814		23.822190	23.580444	-71.853742
29815		23.832468	23.580638	-71.856850
29816		23.839063	23.578289	-71.857085
29817		23.841866	23.577526	-71.855027
29818		23.839183	23.577254	-71.851404
29819		23.836452	23.577346	-71.845604
29820		23.836729	23.579104	-71.841333
29821		23.840585	23.580418	-71.839088
29822		23.851106	23.581903	-71.838939
29823		23.868962	23.581696	-71.841123
29824		23.888668	23.578706	-71.845669
29825		23.910168	23.576726	-71.849850
29826		23.933513	23.571067	-71.854026
29827		23.949274	23.566071	-71.854945
29828		23.955587	23.556137	-71.851794
29829		23.947505	23.546241	-71.850556
29830		23.934767	23.534435	-71.848998
29831		23.920969	23.524017	-71.848276
29832		23.906508	23.517151	-71.849007
29833		23.890017	23.512591	-71.853819
29834		23.885088	23.510834	-71.862293
29835		23.887607	23.510696	-71.872220
29836		23.901496	23.509175	-71.883192
29837		23.920014	23.506444	-71.891572
29838		23.942504	23.504506	-71.899791
29839		23.965780	23.502652	-71.908834
29840		23.987207	23.499811	-71.919226
29841		24.005674	23.496211	-71.927934
29842		24.020557	23.494976	-71.938854
29843		24.029593	23.492705	-71.948878
29844		24.032218	23.488789	-71.955324
29845		24.028186	23.488965	-71.963022
29846		24.031885	23.488934	-71.970012
29847		24.031475	23.484841	-71.975926
29848		24.027496	23.480840	-71.978824
29849		24.023325	23.477388	-71.985034
29850		24.026117	23.476670	-71.988366
29851		24.032690	23.478408	-71.991442
29852		24.042342	23.482429	-71.994093
29853		24.055521	23.484761	-71.999072
29854		24.067870	23.487333	-72.004980
29855		24.077411	23.490789	-72.006320
29856		24.080315	23.489637	-72.005499
29857		24.073363	23.484871	-72.006726
29858		24.065538	23.479419	-72.009506
29859		24.055892	23.476401	-72.008373
29860		24.048318	23.472876	-72.005380
29861		24.040794	23.473045	-72.001399
29862		24.036341	23.473890	-71.995795
29863		24.033373	23.471061	-71.992954
29864		24.035252	23.468171	-71.990384
29865		24.040163	23.470910	-71.986305
29866		24.046243	23.473350	-71.979263
29867		24.051916	23.471229	-71.972845
29868		24.058863	23.471987	-71.964862
29869		24.064476	23.469625	-71.960413
29870		24.067493	23.468287	-71.954604
29871		24.065590	23.466568	-71.949110
29872		24.061281	23.469521	-71.940575
29873		24.053294	23.476410	-71.930733
29874		24.049871	23.477192	-71.921516
29875		24.049782	23.472692	-71.913491
29876		24.057549	23.471308	-71.905910
29877		24.076262	23.480200	-71.892504
29878		24.097182	23.488745	-71.872191
29879		24.122384	23.492640	-71.854273
29880		24.139556	23.486116	-71.838256
29881		24.147682	23.474242	-71.826822
29882		24.154739	23.472883	-71.811570
29883		24.171643	23.479449	-71.790345
29884		24.197971	23.478690	-71.762651
29885		24.212281	23.470201	-71.737410
29886		24.215074	23.457353	-71.715067
29887		24.211926	23.443870	-71.695532
29888		24.205895	23.429982	-71.683201
29889		24.198071	23.420014	-71.668910
29890		24.192644	23.415839	-71.653395
29891		24.183580	23.416889	-71.636691
29892		24.174410	23.414979	-71.622946
29893		24.160847	23.407434	-71.616557
29894		24.151910	23.398464	-71.617824
29895		24.149602	23.393797	-71.622830
29896		24.149952	23.396796	-71.620858
29897		24.149391	23.402577	-71.615974
29898		24.146063	23.407079	-71.611500
29899		24.137648	23.409185	-71.610008
29900		24.131297	23.412670	-71.609525
29901		24.132638	23.420345	-71.608833
29902		24.141627	23.427589	-71.609440
29903		24.154740	23.427783	-71.614223
29904		24.164999	23.427454	-71.623911
29905		24.177991	23.428145	-71.635087
29906		24.192035	23.427475	-71.644625
29907		24.202113	23.426386	-71.654760
29908		24.210589	23.426291	-71.660093
29909		24.214335	23.428099	-71.664229
29910		24.218301	23.430629	-71.665139
29911		24.224238	23.436498	-71.666079
29912		24.227980	23.436760	-71.671684
29913		24.229765	23.436109	-71.672782
29914		24.228739	23.435488	-71.677990
29915		24.231531	23.437322	-71.682488
29916		24.233449	23.438507	-71.688091
29917		24.241849	23.440048	-71.695169
29918		24.250244	23.439671	-71.703308
29919		24.252751	23.437724	-71.711098
29920		24.255248	23.434605	-71.720928
29921		24.254897	23.431107	-71.725713
29922		24.246268	23.429420	-71.729811
29923		24.235819	23.430768	-71.732174
29924		24.223731	23.433533	-71.732969
29925		24.213508	23.438104	-71.733190
29926		24.202488	23.441550	-71.731232
29927		24.191256	23.444287	-71.729693
29928		24.171455	23.445340	-71.732192
29929		24.154385	23.446776	-71.734310
29930		24.142217	23.447415	-71.734656
29931		24.128907	23.448193	-71.736472
29932		24.121142	23.444589	-71.739100
29933		24.115970	23.439672	-71.744384
29934		24.110920	23.434965	-71.750590
29935		24.100923	23.429284	-71.758017
29936		24.090218	23.425640	-71.765523
29937		24.080669	23.427054	-71.770308
29938		24.071243	23.427749	-71.773189
29939		24.066297	23.426055	-71.776331
29940		24.065341	23.426657	-71.781902
29941		24.069035	23.427574	-71.786358
29942		24.070831	23.426987	-71.792995
29943		24.067903	23.428963	-71.799663
29944		24.058390	23.430656	-71.808689
29945		24.051866	23.437574	-71.818764
29946		24.048143	23.440011	-71.825065
29947		24.043304	23.443007	-71.834915
29948		24.044386	23.446913	-71.842957
29949		24.047178	23.450363	-71.851539
29950		24.049196	23.453594	-71.857965
29951		24.049182	23.455735	-71.861578
29952		24.045514	23.458418	-71.865822
29953		24.041006	23.465118	-71.869603
29954		24.039394	23.469126	-71.869223
29955		24.038702	23.474431	-71.868276
29956		24.041895	23.478673	-71.866042
29957		24.044855	23.480895	-71.863811
29958		24.047055	23.484773	-71.862357
29959		24.048329	23.491243	-71.861169
29960		24.052664	23.497135	-71.854835
29961		24.058824	23.504608	-71.849528
29962		24.064201	23.511939	-71.841868
29963		24.070644	23.522551	-71.831630
29964		24.078200	23.533314	-71.821561
29965		24.087457	23.542639	-71.809737
29966		24.094830	23.549501	-71.797380
29967		24.099988	23.553189	-71.785396
29968		24.104086	23.553580	-71.776055
29969		24.104187	23.553284	-71.768371
29970		24.097932	23.555443	-71.760692
29971		24.086862	23.559897	-71.755731
29972		24.072028	23.561846	-71.748861
29973		24.055286	23.565403	-71.740852
29974		24.039596	23.568786	-71.733481
29975		24.027630	23.572546	-71.724464
29976		24.019514	23.575603	-71.717741
29977		24.013337	23.581394	-71.709473
29978		24.010010	23.586069	-71.703952
29979		24.009162	23.587757	-71.701539
29980		24.005660	23.591261	-71.701940
29981		24.003800	23.593060	-71.702678
29982		24.000097	23.594239	-71.705323
29983		23.995256	23.594018	-71.707004
29984		23.989691	23.595490	-71.708600
29985		23.982158	23.598015	-71.710384
29986		23.977649	23.601560	-71.712041
29987		23.980509	23.604606	-71.717008
29988		23.991002	23.606552	-71.722220
29989		23.998754	23.611890	-71.726328
29990		24.013448	23.619336	-71.728535
29991		24.032780	23.627429	-71.730853
29992		24.050516	23.636178	-71.727607
29993		24.062205	23.641890	-71.726309
29994		24.073134	23.648103	-71.723745
29995		24.076573	23.657439	-71.718841
29996		24.072842	23.670223	-71.710195
29997		24.063546	23.684840	-71.694500
29998		24.042968	23.698062	-71.678057
29999		24.021016	23.707551	-71.663564
30000		24.000542	23.710240	-71.657130
30001		23.990430	23.714388	-71.651005
30002		23.986961	23.717172	-71.647435
30003		23.990599	23.716232	-71.649757
30004		24.002075	23.718147	-71.654128
30005		24.020775	23.717101	-71.661714
30006		24.047408	23.719696	-71.668805
30007		24.069271	23.722366	-71.671984
30008		24.084840	23.728263	-71.673176
30009		24.087996	23.734138	-71.672382
30010		24.085522	23.737464	-71.667512
30011		24.077203	23.741401	-71.665413
30012		24.068961	23.744668	-71.664234
30013		24.060583	23.748369	-71.664104
30014		24.059056	23.752374	-71.662679
30015		24.057194	23.754513	-71.664244
30016		24.060190	23.755227	-71.663004
30017		24.062214	23.758792	-71.664395
30018		24.065113	23.759207	-71.666246
30019		24.067734	23.757411	-71.669273
30020		24.068730	23.756022	-71.668354
30021		24.064832	23.755140	-71.668054
30022		24.058284	23.755398	-71.666866
30023		24.047810	23.755194	-71.665209
30024		24.038552	23.756648	-71.662177
30025		24.034716	23.756657	-71.661543
30026		24.030897	23.754805	-71.661145
30027		24.032440	23.750284	-71.662754
30028		24.034105	23.746264	-71.666320
30029		24.035591	23.741505	-71.669898
30030		24.033573	23.739085	-71.672784
30031		24.030515	23.737050	-71.674417
30032		24.031719	23.738898	-71.671809
30033		24.033626	23.740686	-71.673864
30034		24.038206	23.736842	-71.674370
30035		24.040948	23.736498	-71.675907
30036		24.047576	23.736023	-71.678805
30037		24.054265	23.737992	-71.679833
30038		24.056349	23.739930	-71.679813
30039		24.056340	23.740800	-71.680154
30040		24.057431	23.742151	-71.681555
30041		24.057537	23.743823	-71.678777
30042		24.055733	23.744310	-71.679102
30043		24.054588	23.742545	-71.680817
30044		24.058381	23.741107	-71.682027
30045		24.060228	23.741682	-71.683599
30046		24.061420	23.743890	-71.681828
30047		24.061649	23.747666	-71.679196
30048		24.061931	23.750152	-71.675972
30049		24.066099	23.754611	-71.668742
30050		24.069388	23.757766	-71.661083
30051		24.075353	23.761039	-71.655417
30052		24.084199	23.762354	-71.648889
30053		24.091957	23.764115	-71.643971
30054		24.098810	23.764894	-71.640028
30055		24.105669	23.766920	-71.633510
30056		24.112612	23.768617	-71.628418
30057		24.119349	23.768865	-71.622572
30058		24.124527	23.771279	-71.613158
30059		24.124556	23.769783	-71.605002
30060		24.116043	23.766882	-71.598948
30061		24.101847	23.766649	-71.593217
30062		24.095352	23.767128	-71.590199
30063		24.092522	23.766707	-71.585600
30064		24.085395	23.771020	-71.579204
30065		24.081918	23.775076	-71.573293
30066		24.082261	23.777762	-71.568354
30067		24.087163	23.780264	-71.566171
30068		24.097954	23.784009	-71.563657
30069		24.111544	23.789402	-71.563516
30070		24.124251	23.794384	-71.563715
30071		24.131969	23.796882	-71.563204
30072		24.133289	23.801199	-71.561658
30073		24.126654	23.803191	-71.564256
30074		24.116326	23.804512	-71.566469
30075		24.110463	23.804132	-71.570524
30076		24.109565	23.803708	-71.570631
30077		24.109562	23.804591	-71.570973
30078		24.110571	23.805120	-71.572885
30079		24.113436	23.805908	-71.572114
30080		24.114257	23.803730	-71.575226
30081		24.117963	23.803687	-71.577207
30082		24.121649	23.800450	-71.576553
30083		24.123373	23.798929	-71.577981
30084		24.126234	23.797797	-71.577981
30085		24.128974	23.796807	-71.577885
30086		24.134713	23.795570	-71.576628
30087		24.137630	23.796267	-71.573072
30088		24.134842	23.795876	-71.571380
30089		24.133931	23.796375	-71.568492
30090		24.130344	23.798049	-71.567157
30091		24.130137	23.794960	-71.565249
30092		24.126145	23.790697	-71.564368
30093		24.123007	23.786816	-71.563911
30094		24.121945	23.784259	-71.564648
30095		24.124564	23.781818	-71.566042
30096		24.130306	23.781194	-71.564356
30097		24.128263	23.780040	-71.565298
30098		24.131181	23.779121	-71.563290
30099		24.131285	23.780152	-71.558878
30100		24.129537	23.779557	-71.553679
30101		24.122038	23.780433	-71.548636
30102		24.110782	23.778893	-71.542377
30103		24.103220	23.778883	-71.537671
30104		24.095516	23.776931	-71.540670
30105		24.097307	23.776301	-71.541756
30106		24.106620	23.774438	-71.547633
30107		24.118838	23.774281	-71.551833
30108		24.133118	23.774167	-71.553640
30109		24.143648	23.775673	-71.552340
30110		24.149529	23.776485	-71.548907
30111		24.151543	23.777450	-71.543752
30112		24.152793	23.779138	-71.536530
30113		24.148027	23.777813	-71.530240
30114		24.143392	23.776339	-71.523889
30115		24.134749	23.774915	-71.521052
30116		24.129915	23.773811	-71.523602
30117		24.130634	23.772093	-71.527367
30118		24.134533	23.772855	-71.528728
30119		24.137286	23.772520	-71.530259
30120		24.143067	23.772554	-71.529683
30121		24.151491	23.771129	-71.529323
30122		24.158113	23.769062	-71.527647
30123		24.160715	23.765641	-71.526598
30124		24.162498	23.762484	-71.526323
30125		24.164028	23.757974	-71.527954
30126		24.166687	23.754546	-71.529840
30127		24.169365	23.752669	-71.530081
30128		24.171535	23.755767	-71.528489
30129		24.172558	23.757515	-71.528115
30130		24.175615	23.759725	-71.528733
30131		24.181295	23.759852	-71.527994
30132		24.185171	23.759039	-71.527205
30133		24.188752	23.756894	-71.529043
30134		24.188597	23.753758	-71.530249
30135		24.185650	23.752883	-71.529599
30136		24.183777	23.752536	-71.530230
30137		24.186841	23.755995	-71.528431
30138		24.194898	23.760383	-71.524629
30139		24.196852	23.760787	-71.520627
30140		24.198718	23.758750	-71.518640
30141		24.199542	23.757505	-71.518472
30142		24.202375	23.755747	-71.516924
30143		24.209264	23.759068	-71.513636
30144		24.220949	23.761293	-71.511328
30145		24.231429	23.762230	-71.511167
30146		24.237171	23.762019	-71.512321
30147		24.236212	23.762623	-71.512217
30148		24.229522	23.761525	-71.514757
30149		24.220658	23.758852	-71.518994
30150		24.214747	23.755407	-71.522641
30151		24.212509	23.751600	-71.524613
30152		24.211310	23.746453	-71.524791
30153		24.207096	23.741827	-71.527847
30154		24.203059	23.738262	-71.529368
30155		24.201857	23.735965	-71.532252
30156		24.204620	23.733655	-71.531985
30157		24.209274	23.732599	-71.531142
30158		24.213208	23.732271	-71.527102
30159		24.217093	23.733588	-71.524795
30160		24.221549	23.728272	-71.523940
30161		24.227903	23.723820	-71.521751
30162		24.235299	23.720590	-71.525633
30163		24.240721	23.717159	-71.526256
30164		24.243622	23.717013	-71.525767
30165		24.245589	23.718073	-71.523390
30166		24.246574	23.716989	-71.521014
30167		24.243667	23.716024	-71.517589
30168		24.241191	23.718528	-71.511538
30169		24.240375	23.719503	-71.504717
30170		24.242398	23.718596	-71.499513
30171		24.247150	23.718003	-71.494734
30172		24.250125	23.717289	-71.490753
30173		24.250101	23.716876	-71.487836
30174		24.251215	23.716877	-71.483151
30175		24.253273	23.718073	-71.476025
30176		24.253405	23.716811	-71.468226
30177		24.249649	23.716681	-71.462052
30178		24.243961	23.715371	-71.459441
30179		24.240173	23.715668	-71.456858
30180		24.236348	23.713917	-71.455940
30181		24.234184	23.711338	-71.458386
30182		24.239012	23.711152	-71.459299
30183		24.245463	23.708900	-71.460018
30184		24.250264	23.709020	-71.462556
30185		24.257829	23.709495	-71.464654
30186		24.265498	23.709204	-71.464887
30187		24.269924	23.705905	-71.468662
30188		24.276320	23.701597	-71.471349
30189		24.279650	23.696230	-71.475370
30190		24.278547	23.692807	-71.475775
30191		24.274625	23.691325	-71.473880
30192		24.266109	23.690413	-71.472841
30193		24.261336	23.689761	-71.468197
30194		24.251848	23.688600	-71.466662
30195		24.247227	23.690385	-71.462955
30196		24.245310	23.688794	-71.462853
30197		24.246023	23.686434	-71.464994
30198		24.251623	23.684746	-71.468303
30199		24.260081	23.684294	-71.470367
30200		24.271669	23.686062	-71.472075
30201		24.285867	23.685716	-71.472714
30202		24.295624	23.689601	-71.474280
30203		24.299533	23.691577	-71.473588
30204		24.298788	23.693216	-71.471370
30205		24.292189	23.694188	-71.468756
30206		24.281901	23.695189	-71.464704
30207		24.273439	23.696469	-71.460869
30208		24.264006	23.696244	-71.458947
30209		24.253634	23.697602	-71.455857
30210		24.249020	23.698160	-71.454316
30211		24.245230	23.698464	-71.451736
30212		24.246205	23.698369	-71.452574
30213		24.253655	23.697392	-71.456161
30214		24.259256	23.695212	-71.459127
30215		24.256014	23.691229	-71.463450
30216		24.252139	23.689811	-71.467026
30217		24.245226	23.687002	-71.467753
30218		24.238520	23.685205	-71.466370
30219		24.228989	23.685410	-71.465218
30220		24.224220	23.683866	-71.463598
30221		24.221071	23.680346	-71.463986
30222		24.216144	23.676983	-71.463791
30223		24.205437	23.673903	-71.462421
30224		24.192044	23.672766	-71.464527
30225		24.179516	23.671312	-71.465181
30226		24.171748	23.667750	-71.461890
30227		24.167670	23.663845	-71.459058
30228		24.161821	23.660515	-71.456004
30229		24.151271	23.658797	-71.450354
30230		24.133589	23.660961	-71.438016
30231		24.114219	23.666937	-71.421087
30232		24.093342	23.677269	-71.401779
30233		24.076034	23.684219	-71.379018
30234		24.065262	23.687294	-71.357011
30235		24.055784	23.684538	-71.338251
30236		24.052673	23.677104	-71.324468
30237		24.053007	23.666839	-71.314645
30238		24.055530	23.659233	-71.307695
30239		24.059034	23.654465	-71.303024
30240		24.058377	23.656874	-71.298134
30241		24.054039	23.662259	-71.293045
30242		24.049542	23.663964	-71.288995
30243		24.040135	23.665339	-71.285527
30244		24.030887	23.667555	-71.281524
30245		24.023514	23.670304	-71.275809
30246		24.018194	23.673698	-71.269682
30247		24.010822	23.676451	-71.263968
30248		24.003448	23.678011	-71.260115
30249		23.993961	23.678178	-71.256179
30250		23.988325	23.677622	-71.254127
30251		23.986318	23.676100	-71.251476
30252		23.985367	23.675761	-71.252348
30253		23.986423	23.677531	-71.251943
30254		23.991491	23.680574	-71.251133
30255		24.002336	23.685585	-71.248388
30256		24.014088	23.688367	-71.247433
30257		24.025154	23.696376	-71.244465
30258		24.035073	23.699412	-71.236767
30259		24.042033	23.703699	-71.235860
30260		24.048031	23.706639	-71.232879
30261		24.051204	23.711000	-71.230691
30262		24.054371	23.714322	-71.229653
30263		24.054750	23.719699	-71.228244
30264		24.051384	23.724940	-71.232305
30265		24.045103	23.731265	-71.235142
30266		24.044663	23.737266	-71.235291
30267		24.043054	23.742586	-71.239376
30268		24.041736	23.749800	-71.240745
30269		24.037338	23.755388	-71.241213
30270		24.030261	23.761909	-71.242051
30271		24.021157	23.768599	-71.244052
30272		24.014826	23.773271	-71.246583
30273		24.006607	23.779030	-71.248555
30274		23.997428	23.783526	-71.250757
30275		23.993988	23.790151	-71.256062
30276		23.994424	23.795346	-71.261018
30277		23.996740	23.802373	-71.265690
30278		23.997356	23.810309	-71.269830
30279		23.997863	23.818220	-71.272130
30280		23.997383	23.824675	-71.276123
30281		23.995220	23.835059	-71.277706
30282		23.988103	23.842536	-71.282494
30283		23.981906	23.850417	-71.286620
30284		23.971989	23.858952	-71.292025
30285		23.961885	23.865783	-71.297195
30286		23.952790	23.871198	-71.301170
30287		23.947267	23.875473	-71.306304
30288		23.947328	23.877237	-71.316242
30289		23.957687	23.877834	-71.325492
30290		23.968840	23.874616	-71.333318
30291		23.981590	23.868104	-71.339454
30292		23.999905	23.858285	-71.346774
30293		24.021017	23.848820	-71.353335
30294		24.046150	23.839943	-71.357537
30295		24.076109	23.833766	-71.362107
30296		24.109958	23.827110	-71.366678
30297		24.138790	23.819302	-71.375100
30298		24.157539	23.814661	-71.381025
30299		24.162120	23.814222	-71.389297
30300		24.156395	23.814955	-71.398384
30301		24.146773	23.815839	-71.406408
30302		24.136252	23.816002	-71.413511
30303		24.124849	23.817664	-71.416390
30304		24.111451	23.816518	-71.418508
30305		24.096230	23.817592	-71.418498
30306		24.083932	23.817846	-71.418479
30307		24.080922	23.816459	-71.419003
30308		24.085731	23.816190	-71.418000
30309		24.095140	23.815011	-71.418021
30310		24.107301	23.811044	-71.420030
30311		24.121345	23.808630	-71.423254
30312		24.135618	23.807850	-71.425954
30313		24.149844	23.807451	-71.426519
30314		24.162065	23.803929	-71.425096
30315		24.164687	23.801498	-71.426486
30316		24.162698	23.799082	-71.426045
30317		24.161570	23.796951	-71.424201
30318		24.156711	23.794451	-71.420540
30319		24.152675	23.791459	-71.417399
30320		24.152866	23.791994	-71.409435
30321		24.156613	23.790443	-71.402583
30322		24.165115	23.787994	-71.396044
30323		24.168945	23.787662	-71.389654
30324		24.169983	23.786706	-71.382473
30325		24.171130	23.788515	-71.374552
30326		24.170472	23.790018	-71.365808
30327		24.171379	23.788497	-71.357312
30328		24.173384	23.788468	-71.352829
30329		24.178311	23.789875	-71.345365
30330		24.183243	23.790065	-71.339636
30331		24.185335	23.792263	-71.334920
30332		24.190388	23.794021	-71.330030
30333		24.197073	23.793988	-71.326091
30334		24.202929	23.794430	-71.321808
30335		24.205051	23.797289	-71.318709
30336		24.206105	23.797399	-71.316867
30337		24.207159	23.799182	-71.316460
30338		24.208493	23.803311	-71.316635
30339		24.212289	23.804272	-71.320994
30340		24.217882	23.802009	-71.324526
30341		24.222506	23.801476	-71.330014
30342		24.229059	23.799522	-71.334060
30343		24.234537	23.797395	-71.337902
30344		24.240533	23.800645	-71.338962
30345		24.244284	23.800617	-71.340895
30346		24.247229	23.801803	-71.343959
30347		24.247086	23.801061	-71.347754
30348		24.250744	23.798624	-71.353950
30349		24.258951	23.795350	-71.361748
30350		24.267284	23.792977	-71.372143
30351		24.275578	23.790927	-71.380401
30352		24.278265	23.788932	-71.388053
30353		24.278840	23.785580	-71.395293
30354		24.278601	23.782777	-71.401665
30355		24.281285	23.781676	-71.406292
30356		24.282305	23.782286	-71.408162
30357		24.285945	23.781142	-71.412411
30358		24.289662	23.779709	-71.417956
30359		24.295110	23.778128	-71.428154
30360		24.299580	23.775020	-71.437190
30361		24.304041	23.772821	-71.446151
30362		24.305467	23.767665	-71.456964
30363		24.311620	23.763148	-71.469799
30364		24.323604	23.758376	-71.482538
30365		24.330839	23.755267	-71.493488
30366		24.330622	23.752761	-71.500754
30367		24.323990	23.754666	-71.505337
30368		24.314506	23.754699	-71.508357
30369		24.306284	23.760478	-71.510331
30370		24.302669	23.762965	-71.511045
30371		24.307508	23.765114	-71.515479
30372		24.312445	23.767377	-71.518492
30373		24.316601	23.772361	-71.517516
30374		24.314030	23.776263	-71.516890
30375		24.307456	23.778290	-71.516739
30376		24.298842	23.777802	-71.520626
30377		24.295785	23.776198	-71.523135
30378		24.298345	23.772040	-71.527500
30379		24.300872	23.768831	-71.532019
30380		24.305093	23.762184	-71.538772
30381		24.309369	23.757213	-71.546008
30382		24.312813	23.753027	-71.554165
30383		24.316243	23.749216	-71.559465
30384		24.318297	23.750496	-71.558283
30385		24.317151	23.748804	-71.560036
30386		24.314432	23.750691	-71.561570
30387		24.311586	23.751758	-71.563028
30388		24.311929	23.755210	-71.562137
30389		24.313913	23.756614	-71.560545
30390		24.316169	23.760697	-71.560797
30391		24.317354	23.764699	-71.563267
30392		24.322268	23.766675	-71.565434
30393		24.323664	23.773349	-71.566850
30394		24.329911	23.779067	-71.567178
30395		24.334791	23.781446	-71.569641
30396		24.337505	23.779008	-71.573413
30397		24.338297	23.778337	-71.579604
30398		24.337269	23.776925	-71.584625
30399		24.332278	23.775965	-71.594248
30400		24.325361	23.775127	-71.608781
30401		24.320315	23.774050	-71.623140
30402		24.311733	23.775301	-71.634578
30403		24.305131	23.778321	-71.644361
30404		24.298795	23.783583	-71.652491
30405		24.297021	23.786938	-71.659221
30406		24.299121	23.789773	-71.666395
30407		24.302952	23.791858	-71.675936
30408		24.313432	23.792886	-71.688822
30409		24.321861	23.793193	-71.702711
30410		24.336935	23.791828	-71.714344
30411		24.350088	23.791365	-71.727493
30412		24.362330	23.791476	-71.741174
30413		24.372671	23.791261	-71.750726
30414		24.379305	23.790954	-71.759060
30415		24.383241	23.793716	-71.762708
30416		24.379314	23.792444	-71.766337
30417		24.372707	23.794574	-71.768972
30418		24.370849	23.795272	-71.769229
30419		24.369851	23.795693	-71.771095
30420		24.370891	23.796871	-71.775061
30421		24.376563	23.797096	-71.777040
30422		24.384160	23.795657	-71.778960
30423		24.392732	23.796420	-71.781411
30424		24.398244	23.793537	-71.783927
30425		24.402197	23.795740	-71.781226
30426		24.404403	23.798612	-71.780048
30427		24.404640	23.802102	-71.776550
30428		24.402984	23.804032	-71.771814
30429		24.399311	23.806476	-71.769383
30430		24.397679	23.809792	-71.768498
30431		24.401792	23.814110	-71.765895
30432		24.409518	23.815402	-71.767914
30433		24.410731	23.819634	-71.768417
30434		24.406902	23.819640	-71.768640
30435		24.400135	23.819664	-71.771179
30436		24.390565	23.819410	-71.773994
30437		24.385727	23.819679	-71.776578
30438		24.387741	23.820782	-71.776992
30439		24.392635	23.823054	-71.776677
30440		24.391774	23.822589	-71.772930
30441		24.387110	23.824412	-71.769269
30442		24.377660	23.825525	-71.764699
30443		24.366321	23.827105	-71.757357
30444		24.355994	23.828278	-71.748806
30445		24.346476	23.828102	-71.736674
30446		24.334913	23.824620	-71.724130
30447		24.326211	23.823071	-71.715896
30448		24.322018	23.817063	-71.708719
30449		24.321437	23.809652	-71.703909
30450		24.323779	23.802178	-71.700737
30451		24.325026	23.794343	-71.701864
30452		24.326202	23.784331	-71.702694
30453		24.324153	23.770844	-71.703506
30454		24.314495	23.756876	-71.703412
30455		24.301048	23.743942	-71.701281
30456		24.282976	23.732134	-71.703476
30457		24.265275	23.726002	-71.701576
30458		24.254407	23.720655	-71.697998
30459		24.254136	23.717588	-71.696151
30460		24.251374	23.717812	-71.692691
30461		24.252350	23.718707	-71.692627
30462		24.259031	23.717877	-71.694050
30463		24.267478	23.716841	-71.697189
30464		24.275302	23.718547	-71.694886
30465		24.278360	23.721353	-71.691394
30466		24.274858	23.724286	-71.687212
30467		24.269368	23.727624	-71.682409
30468		24.261852	23.728716	-71.676342
30469		24.254322	23.730259	-71.670238
30470		24.248736	23.731244	-71.663135
30471		24.247158	23.735624	-71.657263
30472		24.249133	23.735663	-71.652272
30473		24.252338	23.740253	-71.648070
30474		24.251415	23.740049	-71.643888
30475		24.243763	23.740152	-71.639297
30476		24.235457	23.741992	-71.633052
30477		24.228072	23.745328	-71.626243
30478		24.220570	23.745753	-71.617748
30479		24.214069	23.748154	-71.610911
30480		24.207498	23.748408	-71.606547
30481		24.202700	23.748486	-71.603581
30482		24.197303	23.752222	-71.602278
30483		24.193790	23.756485	-71.599128
30484		24.190415	23.761317	-71.597336
30485		24.185106	23.767235	-71.596205
30486		24.178030	23.773349	-71.593486
30487		24.169744	23.777855	-71.592243
30488		24.163348	23.781320	-71.590843
30489		24.155062	23.785829	-71.589601
30490		24.148447	23.786615	-71.589305
30491		24.143836	23.789149	-71.587244
30492		24.142273	23.792672	-71.584232
30493		24.142269	23.793397	-71.586507
30494		24.143380	23.795524	-71.590220
30495		24.151037	23.796744	-71.596589
30496		24.164433	23.797506	-71.605556
30497		24.176760	23.797371	-71.612332
30498		24.190167	23.797684	-71.617427
30499		24.199485	23.795915	-71.626057
30500		24.203983	23.793161	-71.632609
30501		24.195134	23.790872	-71.635007
30502		24.184595	23.790394	-71.637389
30503		24.178777	23.790077	-71.638738
30504		24.170814	23.785843	-71.641561
30505		24.162277	23.787455	-71.643348
30506		24.159692	23.790708	-71.647202
30507		24.162977	23.796747	-71.648975
30508		24.168160	23.801040	-71.648245
30509		24.169494	23.806510	-71.649173
30510		24.166981	23.811171	-71.652523
30511		24.162026	23.810135	-71.659382
30512		24.160161	23.811207	-71.663950
30513		24.158996	23.809752	-71.671243
30514		24.156958	23.808211	-71.675873
30515		24.151952	23.806616	-71.683891
30516		24.150935	23.805336	-71.688293
30517		24.152708	23.804626	-71.694084
30518		24.159476	23.805445	-71.699948
30519		24.163159	23.804639	-71.704974
30520		24.164182	23.804324	-71.706037
30521		24.163092	23.803096	-71.703870
30522		24.155467	23.802663	-71.702873
30523		24.151635	23.803032	-71.700340
30524		24.148091	23.805735	-71.698394
30525		24.146423	23.809460	-71.698408
30526		24.146655	23.812103	-71.698205
30527		24.145942	23.815779	-71.697837
30528		24.146157	23.817884	-71.698126
30529		24.147252	23.820347	-71.699309
30530		24.150170	23.820175	-71.698315
30531		24.151273	23.822529	-71.696730
30532		24.153411	23.823792	-71.694062
30533		24.156278	23.824264	-71.692420
30534		24.157590	23.827919	-71.689378
30535		24.155902	23.831313	-71.688588
30536		24.158232	23.834864	-71.681193
30537		24.162201	23.837070	-71.678458
30538		24.171085	23.840204	-71.674480
30539		24.178897	23.842546	-71.671015
30540		24.185904	23.845948	-71.666068
30541		24.188925	23.848094	-71.660948
30542		24.189112	23.849722	-71.658021
30543		24.193061	23.851595	-71.654480
30544		24.197165	23.854702	-71.651109
30545		24.198424	23.858731	-71.646044
30546		24.201510	23.860863	-71.640675
30547		24.207297	23.861744	-71.636721
30548		24.213088	23.861962	-71.634224
30549		24.218016	23.864119	-71.631101
30550		24.220204	23.866697	-71.629292
30551		24.221312	23.869057	-71.627704
30552		24.222736	23.874076	-71.627534
30553		24.225806	23.876891	-71.624018
30554		24.222121	23.878795	-71.623210
30555		24.218413	23.880627	-71.619169
30556		24.214670	23.881926	-71.619836
30557		24.212764	23.882656	-71.620114
30558		24.214888	23.885028	-71.620763
30559		24.217879	23.887065	-71.620369
30560		24.224587	23.886452	-71.619850
30561		24.234087	23.886127	-71.619443
30562		24.243828	23.887516	-71.617797
30563		24.250622	23.888900	-71.612295
30564		24.254566	23.890763	-71.609626
30565		24.256509	23.891512	-71.606404
30566		24.256705	23.892742	-71.602471
30567		24.259679	23.894331	-71.598506
30568		24.266644	23.897325	-71.597096
30569		24.273387	23.898152	-71.592753
30570		24.272428	23.897509	-71.591845
30571		24.273214	23.895970	-71.590883
30572		24.264162	23.891042	-71.594391
30573		24.264012	23.890004	-71.597382
30574		24.263206	23.891245	-71.598432
30575		24.271094	23.894702	-71.600125
30576		24.282821	23.897656	-71.605705
30577		24.292671	23.901567	-71.605466
30578		24.294652	23.901607	-71.606954
30579		24.294652	23.902354	-71.609231
30580		24.294561	23.901438	-71.610887
30581		24.297180	23.898903	-71.609516
30582		24.299120	23.898009	-71.604181
30583		24.297925	23.895452	-71.598819
30584		24.291890	23.892120	-71.593716
30585		24.282957	23.888639	-71.588224
30586		24.277802	23.883014	-71.581628
30587		24.274724	23.880786	-71.575071
30588		24.273706	23.879020	-71.568908
30589		24.276432	23.877484	-71.562448
30590		24.277034	23.873364	-71.558379
30591		24.277695	23.870264	-71.556171
30592		24.277728	23.871029	-71.554882
30593		24.280500	23.870279	-71.552791
30594		24.280471	23.869690	-71.554733
30595		24.281382	23.869717	-71.555016
30596		24.279260	23.866744	-71.556688
30597		24.277653	23.859741	-71.560612
30598		24.269432	23.852165	-71.562368
30599		24.259310	23.846417	-71.566632
30600		24.250083	23.838656	-71.567957
30601		24.240039	23.833799	-71.571860
30602		24.228986	23.827064	-71.573443
30603		24.203618	23.822046	-71.573602
30604		24.168689	23.816635	-71.574146
30605		24.136744	23.813111	-71.574670
30606		24.114190	23.806433	-71.575085
30607		24.095362	23.799493	-71.578781
30608		24.088150	23.793424	-71.579504
30609		24.081783	23.786572	-71.582565
30610		24.075515	23.780326	-71.587433
30611		24.071084	23.773703	-71.590525
30612		24.068923	23.769895	-71.591853
30613		24.070746	23.769308	-71.592900
30614		24.076583	23.770229	-71.591879
30615		24.082445	23.771995	-71.587551
30616		24.085281	23.770961	-71.586908
30617		24.083085	23.768135	-71.588604
30618		24.077032	23.764769	-71.591069
30619		24.073787	23.760991	-71.598232
30620		24.073642	23.758138	-71.603760
30621		24.074470	23.757268	-71.611876
30622		24.079423	23.759340	-71.616581
30623		24.080697	23.763715	-71.619788
30624		24.081034	23.767648	-71.619858
30625		24.078232	23.769003	-71.619349
30626		24.073434	23.769324	-71.622446
30627		24.072346	23.768340	-71.625806
30628		24.075220	23.767829	-71.631503
30629		24.084763	23.768041	-71.637401
30630		24.097168	23.767494	-71.643225
30631		24.113341	23.766776	-71.647589
30632		24.126935	23.768730	-71.645098
30633		24.129102	23.772158	-71.640790
30634		24.126313	23.773210	-71.635323
30635		24.118752	23.774832	-71.629255
30636		24.116773	23.773765	-71.622569
30637		24.115719	23.773005	-71.616484
30638		24.110990	23.773220	-71.608432
30639		24.103555	23.776299	-71.600845
30640		24.100978	23.779594	-71.597856
30641		24.100129	23.781292	-71.592655
30642		24.091848	23.784248	-71.581912
30643		24.079585	23.786827	-71.571887
30644		24.064301	23.787047	-71.562449
30645		24.045802	23.783940	-71.555285
30646		24.028285	23.780544	-71.549766
30647		24.012666	23.777610	-71.549731
30648		24.007417	23.771635	-71.554573
30649		24.006291	23.770209	-71.561851
30650		24.006195	23.768530	-71.565784
30651		23.998213	23.765369	-71.575676
30652		23.991439	23.764476	-71.583237
30653		23.988324	23.762156	-71.588881
30654		23.988151	23.759865	-71.591301
30655		23.987158	23.759894	-71.589575
30656		23.982489	23.761530	-71.588628
30657		23.976726	23.761836	-71.588829
30658		23.974811	23.761394	-71.591277
30659		23.983104	23.757964	-71.596216
30660		23.998072	23.753606	-71.602809
30661		24.013077	23.750237	-71.608614
30662		24.023384	23.747350	-71.614310
30663		24.028891	23.744983	-71.620049
30664		24.030888	23.745901	-71.622640
30665		24.029997	23.747157	-71.621357
30666		24.028123	23.747215	-71.619613
30667		24.021405	23.747576	-71.620202
30668		24.013867	23.748269	-71.621236
30669		24.014521	23.745174	-71.626499
30670		24.017808	23.738288	-71.631753
30671		24.018284	23.733073	-71.636933
30672		24.018824	23.727391	-71.641078
30673		24.018593	23.725132	-71.643606
30674		24.015598	23.724000	-71.642880
30675		24.010607	23.722131	-71.642614
30676		24.001081	23.722717	-71.639894
30677		23.990691	23.724977	-71.638546
30678		23.984147	23.726361	-71.636678
30679		23.982237	23.726893	-71.638898
30680		23.985754	23.722872	-71.644985
30681		23.994383	23.723348	-71.649285
30682		24.001811	23.720139	-71.652520
30683		24.012109	23.717715	-71.654366
30684		24.018005	23.719015	-71.653503
30685		24.019858	23.718765	-71.647860
30686		24.016292	23.721355	-71.640264
30687		24.008740	23.723228	-71.632240
30688		24.005896	23.724085	-71.629205
30689		24.011750	23.725733	-71.629580
30690		24.023986	23.722749	-71.630027
30691		24.035297	23.720937	-71.633086
30692		24.043881	23.719532	-71.637533
30693		24.045827	23.720291	-71.641771
30694		24.044048	23.721254	-71.642697
30695		24.038313	23.721902	-71.643704
30696		24.030470	23.720018	-71.642439
30697		24.030392	23.719549	-71.644249
30698		24.032140	23.717599	-71.642272
30699		24.037783	23.716792	-71.641765
30700		24.046476	23.717341	-71.641270
30701		24.057158	23.719378	-71.641311
30702		24.068770	23.720696	-71.642803
30703		24.080419	23.722792	-71.645216
30704		24.089149	23.724550	-71.646279
30705		24.097571	23.722575	-71.649695
30706		24.103223	23.720618	-71.650642
30707		24.111509	23.717079	-71.652820
30708		24.121899	23.714486	-71.651121
30709		24.130324	23.712617	-71.649818
30710		24.131216	23.711251	-71.646363
30711		24.125435	23.711453	-71.643816
30712		24.115177	23.714291	-71.636359
30713		24.104002	23.718735	-71.628006
30714		24.096597	23.721340	-71.624054
30715		24.095907	23.724947	-71.620887
30716		24.092233	23.726804	-71.620401
30717		24.094247	23.728348	-71.621516
30718		24.102767	23.727061	-71.625789
30719		24.109301	23.725419	-71.628015
30720		24.116101	23.725398	-71.629132
30721		24.119114	23.727337	-71.633418
30722		24.126704	23.725904	-71.635920
30723		24.130764	23.728899	-71.637497
30724		24.125452	23.733235	-71.634737
30725		24.111104	23.734182	-71.633716
30726		24.094801	23.733406	-71.636947
30727		24.086158	23.733684	-71.640283
30728		24.081378	23.733180	-71.642420
30729		24.083269	23.733275	-71.645055
30730		24.086954	23.731142	-71.642119
30731		24.087598	23.727944	-71.644630
30732		24.088249	23.723021	-71.649302
30733		24.091724	23.719209	-71.654570
30734		24.095481	23.718217	-71.657247
30735		24.098341	23.718475	-71.657536
30736		24.098460	23.719950	-71.657194
30737		24.099383	23.719987	-71.657457
30738		24.103413	23.722135	-71.654859
30739		24.106567	23.725848	-71.650940
30740		24.106645	23.727373	-71.647553
30741		24.104659	23.727133	-71.645422
30742		24.103570	23.725669	-71.645592
30743		24.107137	23.722971	-71.648540
30744		24.108945	23.721871	-71.646580
30745		24.108806	23.720739	-71.646795
30746		24.110694	23.720128	-71.647788
30747		24.115292	23.718265	-71.649985
30748		24.121264	23.720138	-71.651100
30749		24.125124	23.720895	-71.649839
30750		24.127165	23.722008	-71.650402
30751		24.126369	23.724287	-71.651513
30752		24.122934	23.728287	-71.646727
30753		24.122950	23.728943	-71.646217
30754		24.127991	23.731201	-71.645215
30755		24.127992	23.731637	-71.646664
30756		24.132008	23.733327	-71.647898
30757		24.137904	23.735314	-71.649052
30758		24.144659	23.735095	-71.649088
30759		24.148474	23.735297	-71.648987
30760		24.151658	23.737874	-71.646314
30761		24.153736	23.740198	-71.644302
30762		24.151116	23.743308	-71.643671
30763		24.150223	23.744580	-71.642388
30764		24.151412	23.746612	-71.642776
30765		24.153418	23.747944	-71.645843
30766		24.157201	23.747124	-71.650968
30767		24.162823	23.745779	-71.659089
30768		24.166861	23.747179	-71.662065
30769		24.167756	23.746785	-71.666249
30770		24.166233	23.751429	-71.670696
30771		24.166514	23.755103	-71.669893
30772		24.166699	23.756550	-71.668718
30773		24.167744	23.758041	-71.667457
30774		24.169744	23.758252	-71.667859
30775		24.169823	23.759585	-71.668946
30776		24.170961	23.761026	-71.670730
30777		24.173855	23.761626	-71.671813
30778		24.176482	23.758595	-71.674529
30779		24.174706	23.760506	-71.679947
30780		24.177660	23.761717	-71.683647
30781		24.180540	23.762099	-71.686689
30782		24.187488	23.764326	-71.688127
30783		24.196201	23.765582	-71.689269
30784		24.202935	23.764469	-71.692371
30785		24.208933	23.767474	-71.695909
30786		24.220285	23.765431	-71.700992
30787		24.231821	23.765861	-71.706845
30788		24.236496	23.764976	-71.712591
30789		24.239454	23.766254	-71.715269
30790		24.239578	23.767318	-71.718365
30791		24.238734	23.769052	-71.720640
30792		24.240192	23.773730	-71.724044
30793		24.242351	23.776546	-71.733055
30794		24.245588	23.779279	-71.744159
30795		24.247899	23.783575	-71.759113
30796		24.254006	23.786323	-71.771707
30797		24.253198	23.787998	-71.786169
30798		24.247338	23.785698	-71.801873
30799		24.236371	23.781129	-71.816478
30800		24.224388	23.775272	-71.831617
30801		24.217339	23.771786	-71.840379
30802		24.212193	23.767400	-71.847129
30803		24.204381	23.766404	-71.849673
30804		24.196548	23.763745	-71.850375
30805		24.188858	23.764196	-71.851391
30806		24.183156	23.763751	-71.849086
30807		24.183406	23.767301	-71.845526
30808		24.184666	23.770616	-71.846724
30809		24.192814	23.776401	-71.846422
30810		24.206400	23.778863	-71.848361
30811		24.222798	23.779806	-71.856603
30812		24.238251	23.780323	-71.869573
30813		24.257389	23.779345	-71.884846
30814		24.276882	23.781149	-71.901056
30815		24.297187	23.782379	-71.918757
30816		24.314820	23.786231	-71.935129
30817		24.334392	23.790298	-71.947405
30818		24.357211	23.797576	-71.953705
30819		24.378046	23.805457	-71.957447
30820		24.394081	23.812803	-71.958653
30821		24.402325	23.819621	-71.960730
30822		24.407624	23.824104	-71.965495
30823		24.412761	23.828214	-71.971802
30824		24.422052	23.833784	-71.974136
30825		24.427423	23.840573	-71.979340
30826		24.437276	23.842885	-71.985063
30827		24.444154	23.844886	-71.993281
30828		24.449750	23.842698	-72.005195
30829		24.455306	23.840432	-72.018398
30830		24.466846	23.840292	-72.030120
30831		24.479193	23.838852	-72.041015
30832		24.497602	23.840520	-72.048745
30833		24.515019	23.842433	-72.051500
30834		24.524582	23.842780	-72.053394
30835		24.531520	23.846037	-72.049859
30836		24.532785	23.849375	-72.046003
30837		24.529145	23.852669	-72.040466
30838		24.524584	23.855925	-72.035913
30839		24.521855	23.858613	-72.031148
30840		24.519883	23.857647	-72.030181
30841		24.517281	23.861498	-72.030555
30842		24.518593	23.865125	-72.028590
30843		24.515820	23.867265	-72.024989
30844		24.511308	23.869988	-72.020237
30845		24.505569	23.871281	-72.015426
30846		24.497858	23.870992	-72.010200
30847		24.493029	23.871678	-72.006161
30848		24.488477	23.874862	-71.998258
30849		24.484692	23.876591	-71.991498
30850		24.482921	23.877662	-71.987281
30851		24.479107	23.878769	-71.986399
30852		24.479129	23.879343	-71.986517
30853		24.481065	23.880223	-71.986038
30854		24.486093	23.882613	-71.988366
30855		24.487005	23.882868	-71.986689
30856		24.481205	23.882231	-71.987216
30857		24.474404	23.882077	-71.989044
30858		24.474480	23.882232	-71.992098
30859		24.478978	23.879286	-71.996632
30860		24.485517	23.876606	-72.003992
30861		24.490304	23.876608	-72.012924
30862		24.492366	23.877846	-72.020901
30863		24.490773	23.881915	-72.026388
30864		24.489363	23.887378	-72.030389
30865		24.484994	23.892730	-72.034724
30866		24.482062	23.891895	-72.038662
30867		24.476116	23.890373	-72.044388
30868		24.473874	23.886506	-72.051586
30869		24.472297	23.880010	-72.059157
30870		24.466021	23.873962	-72.066776
30871		24.458010	23.870773	-72.074022
30872		24.450451	23.872719	-72.077312
30873		24.442071	23.876671	-72.074532
30874		24.433202	23.884346	-72.072543
30875		24.429515	23.887105	-72.068171
30876		24.428683	23.888600	-72.064431
30877		24.426738	23.889245	-72.061971
30878		24.421309	23.892399	-72.058250
30879		24.413990	23.897325	-72.057462
30880		24.409568	23.901932	-72.052502
30881		24.406146	23.907510	-72.049774
30882		24.400928	23.913237	-72.046730
30883		24.399134	23.915464	-72.045489
30884		24.401076	23.916065	-72.047657
30885		24.405752	23.915318	-72.047527
30886		24.410532	23.915215	-72.044562
30887		24.410576	23.916636	-72.040946
30888		24.405122	23.920025	-72.035626
30889		24.397846	23.926003	-72.025047
30890		24.389933	23.933153	-72.013616
30891		24.384525	23.938462	-72.003414
30892		24.382089	23.944153	-71.994224
30893		24.381376	23.948264	-71.982424
30894		24.382653	23.952278	-71.972886
30895		24.383816	23.955430	-71.968133
30896		24.384077	23.958984	-71.963993
30897		24.385089	23.960559	-71.958023
30898		24.384661	23.967043	-71.955739
30899		24.386942	23.971922	-71.949850
30900		24.392889	23.974189	-71.944284
30901		24.394659	23.973573	-71.937867
30902		24.394429	23.972641	-71.933267
30903		24.387660	23.973352	-71.927272
30904		24.375154	23.972727	-71.921603
30905		24.364243	23.970119	-71.918667
30906		24.354635	23.969384	-71.915761
30907		24.348687	23.968383	-71.912864
30908		24.346709	23.966940	-71.912391
30909		24.348535	23.966591	-71.911476
30910		24.348789	23.968976	-71.914580
30911		24.349843	23.970401	-71.918030
30912		24.357052	23.974704	-71.919131
30913		24.360925	23.975388	-71.922563
30914		24.360256	23.978101	-71.923552
30915		24.358482	23.980059	-71.928978
30916		24.355739	23.980974	-71.932084
30917		24.352945	23.982520	-71.934358
30918		24.347415	23.983799	-71.935928
30919		24.345568	23.985073	-71.939766
30920		24.351620	23.988322	-71.941566
30921		24.354509	23.988937	-71.942638
30922		24.350689	23.988620	-71.946067
30923		24.348687	23.988316	-71.948690
30924		24.347652	23.986426	-71.951571
30925		24.346370	23.983587	-71.952954
30926		24.348276	23.982663	-71.955957
30927		24.358826	23.982694	-71.958581
30928		24.377363	23.984038	-71.958952
30929		24.386469	23.989634	-71.955424
30930		24.376188	23.992949	-71.952085
30931		24.358028	23.995120	-71.952422
30932		24.338818	23.994798	-71.951434
30933		24.325063	23.992525	-71.952448
30934		24.317293	23.990175	-71.953393
30935		24.317070	23.988090	-71.958720
30936		24.322537	23.984615	-71.958823
30937		24.330056	23.982836	-71.965328
30938		24.339722	23.981848	-71.968119
30939		24.349333	23.982358	-71.967216
30940		24.350334	23.983110	-71.964666
30941		24.345526	23.983972	-71.963391
30942		24.343714	23.985868	-71.961781
30943		24.341839	23.987014	-71.962866
30944		24.341312	23.991553	-71.962267
30945		24.339713	23.995516	-71.964988
30946		24.336178	23.997347	-71.971884
30947		24.332587	24.000544	-71.975768
30948		24.330816	24.001912	-71.982534
30949		24.333733	24.002453	-71.988311
30950		24.335831	24.003777	-71.990934
30951		24.335272	24.008779	-71.990929
30952		24.336782	24.014675	-71.992481
30953		24.341148	24.020727	-71.993670
30954		24.345620	24.027796	-71.993272
30955		24.347166	24.034593	-71.994482
30956		24.345707	24.039250	-71.993629
30957		24.346895	24.042336	-71.993577
30958		24.350872	24.043760	-71.993770
30959		24.357621	24.044463	-71.994045
30960		24.364284	24.043975	-71.993735
30961		24.370995	24.044335	-71.993217
30962		24.376816	24.045242	-71.992471
30963		24.379921	24.048408	-71.989667
30964		24.384880	24.051044	-71.986376
30965		24.390902	24.054774	-71.979257
30966		24.395803	24.055411	-71.972370
30967		24.397676	24.055824	-71.968330
30968		24.402695	24.058315	-71.965858
30969		24.409737	24.062251	-71.963843
30970		24.415576	24.062449	-71.960333
30971		24.420467	24.064041	-71.958274
30972		24.422493	24.065628	-71.955111
30973		24.424652	24.069068	-71.950742
30974		24.424753	24.070982	-71.946733
30975		24.421684	24.069936	-71.945427
30976		24.417786	24.069623	-71.941329
30977		24.416871	24.070923	-71.940064
30978		24.416020	24.072520	-71.935255
30979		24.415239	24.075472	-71.930490
30980		24.413346	24.077237	-71.926896
30981		24.409533	24.078601	-71.924071
30982		24.409615	24.079722	-71.922909
30983		24.412637	24.081790	-71.922431
30984		24.421175	24.081468	-71.918664
30985		24.426393	24.086223	-71.919019
30986		24.438100	24.087451	-71.916381
30987		24.444699	24.086778	-71.913481
30988		24.444829	24.088086	-71.909853
30989		24.446613	24.087401	-71.908147
30990		24.446327	24.085024	-71.908600
30991		24.445072	24.082544	-71.910795
30992		24.449852	24.080941	-71.912726
30993		24.454893	24.083495	-71.917745
30994		24.466625	24.084881	-71.921664
30995		24.475532	24.087721	-71.923926
30996		24.475737	24.089497	-71.928673
30997		24.471822	24.089351	-71.932104
30998		24.468869	24.088150	-71.935240
30999		24.466692	24.085876	-71.940586
31000		24.469417	24.084140	-71.938828
31001		24.465345	24.082618	-71.939093
31002		24.457548	24.081734	-71.936625
31003		24.448754	24.081510	-71.933793
31004		24.441169	24.083192	-71.931276
31005		24.433538	24.085036	-71.928086
31006		24.429842	24.086711	-71.925760
31007		24.429883	24.087950	-71.924096
31008		24.435554	24.086157	-71.923242
31009		24.446004	24.085142	-71.923455
31010		24.451781	24.084907	-71.924698
31011		24.455718	24.086359	-71.924984
31012		24.454793	24.086658	-71.924131
31013		24.449156	24.089265	-71.919770
31014		24.447327	24.090223	-71.917902
31015		24.442477	24.090975	-71.913896
31016		24.434560	24.089215	-71.912225
31017		24.425845	24.089690	-71.910978
31018		24.428314	24.084926	-71.913927
31019		24.431044	24.083762	-71.915738
31020		24.434623	24.080984	-71.919348
31021		24.440383	24.081200	-71.921170
31022		24.443389	24.081751	-71.916724
31023		24.444392	24.083337	-71.910744
31024		24.444605	24.086706	-71.900474
31025		24.441553	24.086912	-71.887424
31026		24.434806	24.087342	-71.875044
31027		24.431537	24.085007	-71.865873
31028		24.428210	24.081728	-71.857458
31029		24.423976	24.078845	-71.854561
31030		24.426889	24.079134	-71.849756
31031		24.432620	24.079416	-71.846867
31032		24.437538	24.080035	-71.844636
31033		24.441270	24.079355	-71.844878
31034		24.441203	24.079381	-71.843078
31035		24.443067	24.079183	-71.844908
31036		24.441997	24.077885	-71.847541
31037		24.443855	24.077275	-71.853287
31038		24.451572	24.076599	-71.860548
31039		24.460194	24.075990	-71.867045
31040		24.467032	24.076764	-71.870316
31041		24.468849	24.075811	-71.875273
31042		24.468840	24.074852	-71.880970
31043		24.465675	24.072521	-71.883968
31044		24.462333	24.067831	-71.888990
31045		24.463683	24.062060	-71.895044
31046		24.468070	24.057064	-71.902320
31047		24.475230	24.051160	-71.911481
31048		24.487213	24.044591	-71.920850
31049		24.500312	24.040205	-71.929614
31050		24.511496	24.036348	-71.935939
31051		24.520952	24.034846	-71.937710
31052		24.526626	24.033851	-71.937854
31053		24.525542	24.033579	-71.935386
31054		24.526629	24.035018	-71.934287
31055		24.526755	24.037157	-71.932244
31056		24.517334	24.039172	-71.928692
31057		24.503315	24.044752	-71.925996
31058		24.492998	24.048214	-71.922508
31059		24.484749	24.053727	-71.918210
31060		24.479308	24.057889	-71.915397
31061		24.480519	24.061405	-71.911407
31062		24.482666	24.064124	-71.910301
31063		24.482966	24.068260	-71.905541
31064		24.470650	24.070386	-71.900234
31065		24.456119	24.071023	-71.895896
31066		24.438081	24.074406	-71.893929
31067		24.422338	24.072229	-71.893083
31068		24.413225	24.067616	-71.894815
31069		24.409849	24.063363	-71.895821
31070		24.404816	24.060841	-71.898259
31071		24.401654	24.058516	-71.901256
31072		24.399481	24.055810	-71.901304
31073		24.398399	24.055341	-71.900788
31074		24.399408	24.055454	-71.900178
31075		24.400848	24.051194	-71.899978
31076		24.401626	24.049883	-71.902189
31077		24.404364	24.048516	-71.905949
31078		24.408289	24.048933	-71.911837
31079		24.414105	24.049080	-71.918348
31080		24.422415	24.046153	-71.923602
31081		24.429228	24.046781	-71.928546
31082		24.431120	24.046255	-71.929142
31083		24.434811	24.045024	-71.930547
31084		24.434603	24.043413	-71.931075
31085		24.432478	24.042325	-71.929382
31086		24.432553	24.042887	-71.928894
31087		24.436244	24.041657	-71.930299
31088		24.445137	24.043366	-71.929807
31089		24.452775	24.043093	-71.930025
31090		24.460833	24.045925	-71.932418
31091		24.468557	24.046547	-71.932256
31092		24.473531	24.048125	-71.929759
31093		24.472228	24.045931	-71.925303
31094		24.469071	24.043132	-71.918909
31095		24.468154	24.045271	-71.909809
31096		24.464103	24.044758	-71.900547
31097		24.461278	24.047042	-71.892245
31098		24.458268	24.046768	-71.882950
31099		24.454101	24.044998	-71.877734
31100		24.450748	24.041829	-71.877781
31101		24.450578	24.040745	-71.878036
31102		24.452603	24.041795	-71.875408
31103		24.453603	24.042979	-71.873335
31104		24.456713	24.045502	-71.872226
31105		24.454630	24.044972	-71.869367
31106		24.442926	24.044445	-71.869452
31107		24.430735	24.038919	-71.872080
31108		24.418096	24.036323	-71.878394
31109		24.413076	24.034090	-71.886897
31110		24.414267	24.036188	-71.892517
31111		24.417359	24.038200	-71.896711
31112		24.422593	24.040891	-71.898544
31113		24.424594	24.042144	-71.898816
31114		24.421913	24.044195	-71.900199
31115		24.417055	24.044572	-71.900116
31116		24.413473	24.047803	-71.899954
31117		24.408791	24.049766	-71.901068
31118		24.409122	24.052642	-71.903378
31119		24.411520	24.057412	-71.906831
31120		24.418525	24.059936	-71.909744
31121		24.426347	24.061039	-71.913105
31122		24.433173	24.060847	-71.916168
31123		24.440825	24.059957	-71.922246
31124		24.453215	24.056639	-71.927936
31125		24.461689	24.054438	-71.933206
31126		24.466353	24.052796	-71.936922
31127		24.472128	24.053213	-71.936762
31128		24.477868	24.052177	-71.937399
31129		24.478782	24.052264	-71.937664
31130		24.478719	24.052226	-71.935890
31131		24.479897	24.054795	-71.936969
31132		24.483045	24.057391	-71.935019
31133		24.483996	24.058230	-71.932158
31134		24.477268	24.058905	-71.931006
31135		24.465810	24.060892	-71.931395
31136		24.456859	24.057894	-71.929071
31137		24.448780	24.055319	-71.927806
31138		24.445749	24.054296	-71.926383
31139		24.447182	24.049835	-71.928151
31140		24.447719	24.045543	-71.928436
31141		24.448186	24.041766	-71.924735
31142		24.446121	24.041635	-71.918085
31143		24.441060	24.041451	-71.907029
31144		24.433137	24.040576	-71.896972
31145		24.424568	24.043722	-71.887161
31146		24.420801	24.045885	-71.876328
31147		24.423705	24.047132	-71.871492
31148		24.427634	24.047759	-71.866429
31149		24.434457	24.048994	-71.865477
31150		24.444080	24.048480	-71.864780
31151		24.450713	24.048536	-71.858722
31152		24.453159	24.044747	-71.851991
31153		24.445443	24.037009	-71.845963
31154		24.430621	24.034845	-71.834977
31155		24.414650	24.032180	-71.823199
31156		24.398218	24.033405	-71.810852
31157		24.385874	24.037627	-71.799516
31158		24.378494	24.042190	-71.790816
31159		24.377034	24.047742	-71.787239
31160		24.379928	24.047839	-71.784539
31161		24.386398	24.045694	-71.783152
31162		24.394026	24.044279	-71.785498
31163		24.403367	24.041499	-71.786823
31164		24.405839	24.037176	-71.789472
31165		24.402544	24.033643	-71.792073
31166		24.397568	24.031817	-71.791475
31167		24.393716	24.032492	-71.791779
31168		24.393010	24.034711	-71.789283
31169		24.393116	24.036122	-71.790344
31170		24.394612	24.032276	-71.789687
31171		24.391679	24.032122	-71.792715
31172		24.389714	24.031217	-71.796724
31173		24.386876	24.031753	-71.801326
31174		24.386997	24.032927	-71.804828
31175		24.384894	24.031048	-71.810964
31176		24.381019	24.030737	-71.816870
31177		24.377227	24.031349	-71.821874
31178		24.373385	24.031271	-71.825205
31179		24.369416	24.030092	-71.830973
31180		24.368567	24.030698	-71.836059
31181		24.368679	24.031905	-71.839075
31182		24.370658	24.031983	-71.841806
31183		24.371860	24.034356	-71.844825
31184		24.376942	24.036299	-71.846325
31185		24.381230	24.040584	-71.848160
31186		24.383426	24.043191	-71.852251
31187		24.381350	24.042272	-71.853307
31188		24.377540	24.041774	-71.855065
31189		24.373603	24.041351	-71.857710
31190		24.368979	24.042839	-71.857834
31191		24.364252	24.044693	-71.856203
31192		24.361736	24.047649	-71.856393
31193		24.370126	24.044939	-71.858111
31194		24.372927	24.044740	-71.858925
31195		24.373583	24.042149	-71.860328
31196		24.373521	24.040710	-71.862292
31197		24.371364	24.038692	-71.865687
31198		24.374615	24.040306	-71.867393
31199		24.377774	24.042876	-71.870391
31200		24.383930	24.046750	-71.874683
31201		24.387307	24.051663	-71.875745
31202		24.383340	24.051276	-71.873823
31203		24.374852	24.053578	-71.876545
31204		24.367385	24.055810	-71.878466
31205		24.362309	24.053879	-71.880326
31206		24.359041	24.049787	-71.883714
31207		24.360127	24.041541	-71.888970
31208		24.362446	24.033649	-71.895803
31209		24.360946	24.028114	-71.903071
31210		24.360762	24.025610	-71.909158
31211		24.358548	24.023451	-71.909811
31212		24.350972	24.024887	-71.905362
31213		24.335314	24.024468	-71.901079
31214		24.319711	24.024971	-71.897231
31215		24.306058	24.025097	-71.893715
31216		24.293559	24.026197	-71.891892
31217		24.288761	24.026752	-71.894553
31218		24.285216	24.029038	-71.898864
31219		24.286433	24.031209	-71.903829
31220		24.285553	24.031891	-71.909077
31221		24.283466	24.029810	-71.917164
31222		24.279371	24.026721	-71.924006
31223		24.271270	24.023024	-71.929789
31224		24.262637	24.021764	-71.935792
31225		24.254587	24.018412	-71.942361
31226		24.247606	24.015362	-71.947431
31227		24.239888	24.016005	-71.948557
31228		24.234143	24.015522	-71.953329
31229		24.229316	24.015320	-71.959113
31230		24.227324	24.013046	-71.963166
31231		24.232016	24.011118	-71.970004
31232		24.236529	24.006257	-71.979508
31233		24.242964	24.002181	-71.988262
31234		24.248157	24.004301	-71.997014
31235		24.251157	24.004872	-72.002723
31236		24.255376	24.007652	-72.006043
31237		24.257674	24.011194	-72.009050
31238		24.258022	24.014071	-72.011470
31239		24.261136	24.016294	-72.013672
31240		24.268193	24.017772	-72.017358
31241		24.271684	24.014196	-72.020672
31242		24.269535	24.010893	-72.026510
31243		24.260657	24.009064	-72.031933
31244		24.246166	24.009310	-72.036914
31245		24.236237	24.006864	-72.041168
31246		24.234428	24.007683	-72.040947
31247		24.232251	24.006073	-72.040427
31248		24.233021	24.004455	-72.039968
31249		24.229503	23.998787	-72.042552
31250		24.224954	23.991949	-72.044834
31251		24.215742	23.987495	-72.046710
31252		24.204736	23.984325	-72.046967
31253		24.190721	23.980871	-72.044991
31254		24.175121	23.979628	-72.043374
31255		24.160604	23.980532	-72.041839
31256		24.149235	23.982030	-72.036912
31257		24.142406	23.982462	-72.034895
31258		24.139984	23.987070	-72.037241
31259		24.143129	23.988879	-72.043344
31260		24.141287	23.988735	-72.048484
31261		24.142263	23.988008	-72.056539
31262		24.152180	23.987975	-72.062415
31263		24.164695	23.987018	-72.067208
31264		24.171630	23.987286	-72.074235
31265		24.176769	23.989841	-72.079148
31266		24.170737	23.996520	-72.082121
31267		24.160868	24.004367	-72.083349
31268		24.150054	24.012561	-72.081526
31269		24.136243	24.020438	-72.078891
31270		24.125206	24.026268	-72.079251
31271		24.120808	24.030761	-72.081165
31272		24.124893	24.032216	-72.084368
31273		24.131662	24.032130	-72.087666
31274		24.140330	24.030616	-72.092715
31275		24.145482	24.032966	-72.099578
31276		24.148642	24.034376	-72.104639
31277		24.152676	24.035971	-72.107596
31278		24.149143	24.039318	-72.110540
31279		24.133610	24.039961	-72.108644
31280		24.114282	24.040391	-72.109151
31281		24.096078	24.042858	-72.109653
31282		24.082597	24.043600	-72.107346
31283		24.077622	24.042367	-72.110774
31284		24.078819	24.043704	-72.114238
31285		24.087475	24.042702	-72.119846
31286		24.097963	24.039812	-72.128398
31287		24.105352	24.035854	-72.134775
31288		24.106953	24.032578	-72.137193
31289		24.101498	24.027476	-72.136680
31290		24.085024	24.028659	-72.129622
31291		24.061841	24.031309	-72.121976
31292		24.037758	24.033916	-72.109526
31293		24.023135	24.035121	-72.101365
31294		24.018361	24.038130	-72.093624
31295		24.016293	24.038187	-72.089595
31296		24.018910	24.035036	-72.094168
31297		24.027622	24.034372	-72.100555
31298		24.038327	24.032692	-72.114070
31299		24.056024	24.033129	-72.128174
31300		24.075637	24.034280	-72.137045
31301		24.085426	24.034994	-72.141476
31302		24.086592	24.035714	-72.142135
31303		24.082612	24.035922	-72.138918
31304		24.074997	24.037780	-72.135915
31305		24.066499	24.041278	-72.131615
31306		24.059980	24.043413	-72.127812
31307		24.057409	24.047827	-72.124225
31308		24.057658	24.050393	-72.122321
31309		24.060730	24.052270	-72.123718
31310		24.063886	24.054070	-72.124741
31311		24.067824	24.054972	-72.126118
31312		24.070985	24.057033	-72.128859
31313		24.073175	24.060093	-72.128323
31314		24.075259	24.062307	-72.127191
31315		24.078668	24.067981	-72.125097
31316		24.077054	24.072913	-72.120592
31317		24.069456	24.075996	-72.115107
31318		24.056237	24.079628	-72.109542
31319		24.040768	24.081413	-72.105329
31320		24.032298	24.083944	-72.100657
31321		24.031460	24.086413	-72.097026
31322		24.042067	24.085774	-72.099730
31323		24.054849	24.087692	-72.101378
31324		24.074604	24.089653	-72.105541
31325		24.096964	24.089204	-72.114071
31326		24.110452	24.087944	-72.120905
31327		24.118043	24.086532	-72.123382
31328		24.123038	24.086310	-72.128787
31329		24.124241	24.088901	-72.129823
31330		24.122018	24.095750	-72.126814
31331		24.128574	24.103676	-72.124292
31332		24.136889	24.108848	-72.124804
31333		24.148173	24.114869	-72.126497
31334		24.152762	24.120788	-72.127261
31335		24.147622	24.126775	-72.132718
31336		24.137470	24.129926	-72.140764
31337		24.126690	24.128089	-72.148989
31338		24.120890	24.127040	-72.155376
31339		24.115641	24.123133	-72.159982
31340		24.110460	24.120068	-72.165082
31341		24.107860	24.113576	-72.170410
31342		24.111364	24.109079	-72.173376
31343		24.118779	24.105872	-72.176621
31344		24.129516	24.105145	-72.179525
31345		24.142301	24.107071	-72.181161
31346		24.160358	24.113340	-72.180320
31347		24.174453	24.118777	-72.180003
31348		24.185181	24.121020	-72.182713
31349		24.190831	24.120176	-72.182094
31350		24.189596	24.118433	-72.181826
31351		24.181647	24.117722	-72.179855
31352		24.172714	24.116685	-72.177898
31353		24.165684	24.115346	-72.176690
31354		24.163652	24.114851	-72.173246
31355		24.156676	24.114817	-72.167744
31356		24.154761	24.116282	-72.162256
31357		24.156314	24.114224	-72.157390
31358		24.160046	24.113562	-72.152531
31359		24.159655	24.111115	-72.149648
31360		24.155559	24.110199	-72.144212
31361		24.152271	24.107444	-72.143718
31362		24.154291	24.108631	-72.144650
31363		24.159855	24.107843	-72.139337
31364		24.164703	24.108439	-72.132432
31365		24.165679	24.110807	-72.123300
31366		24.164028	24.114814	-72.113144
31367		24.159032	24.115731	-72.104490
31368		24.156149	24.118195	-72.094676
31369		24.153294	24.120138	-72.090293
31370		24.155857	24.117584	-72.089119
31371		24.161601	24.117635	-72.088106
31372		24.174438	24.119063	-72.088677
31373		24.190116	24.120529	-72.091027
31374		24.206815	24.122692	-72.093677
31375		24.220423	24.123280	-72.094493
31376		24.229036	24.122538	-72.093281
31377		24.233772	24.122323	-72.091893
31378		24.237458	24.121972	-72.089132
31379		24.234474	24.122467	-72.086312
31380		24.234583	24.123949	-72.082086
31381		24.232462	24.123466	-72.079247
31382		24.228451	24.123660	-72.076854
31383		24.225467	24.124157	-72.074033
31384		24.222619	24.125182	-72.069346
31385		24.221853	24.128760	-72.063373
31386		24.220173	24.131791	-72.058746
31387		24.221296	24.134453	-72.055082
31388		24.223962	24.132728	-72.053589
31389		24.228663	24.131964	-72.053370
31390		24.240371	24.131659	-72.055179
31391		24.251050	24.132341	-72.054473
31392		24.255032	24.132497	-72.053144
31393		24.257935	24.133546	-72.050226
31394		24.262391	24.130784	-72.048513
31395		24.260984	24.128078	-72.045266
31396		24.258126	24.129011	-72.041015
31397		24.257105	24.129696	-72.038162
31398		24.258153	24.130844	-72.036095
31399		24.260048	24.131629	-72.032801
31400		24.251776	24.135618	-72.031428
31401		24.242209	24.137603	-72.031072
31402		24.232648	24.138343	-72.033041
31403		24.228474	24.135836	-72.035705
31404		24.232146	24.133037	-72.038410
31405		24.237730	24.131089	-72.040123
31406		24.240578	24.129786	-72.041763
31407		24.241503	24.129903	-72.042000
31408		24.242458	24.130219	-72.040118
31409		24.240518	24.131540	-72.036501
31410		24.236793	24.133731	-72.035574
31411		24.236596	24.132888	-72.033875
31412		24.239483	24.132713	-72.033488
31413		24.245271	24.132360	-72.036373
31414		24.253900	24.131291	-72.037632
31415		24.258586	24.129776	-72.040535
31416		24.263663	24.131157	-72.039105
31417		24.263742	24.133009	-72.036235
31418		24.260088	24.136160	-72.033456
31419		24.257195	24.137567	-72.030247
31420		24.253178	24.137036	-72.025103
31421		24.249147	24.136733	-72.023084
31422		24.250950	24.135723	-72.024051
31423		24.255766	24.135655	-72.025389
31424		24.261844	24.136991	-72.027039
31425		24.264057	24.140070	-72.026475
31426		24.264305	24.142567	-72.025120
31427		24.257654	24.144663	-72.024325
31428		24.239900	24.142868	-72.025024
31429		24.235858	24.140865	-72.031209
31430		24.240840	24.141056	-72.032719
31431		24.249214	24.137755	-72.035548
31432		24.260784	24.136379	-72.040470
31433		24.272102	24.132024	-72.049887
31434		24.284445	24.127918	-72.058438
31435		24.292036	24.125751	-72.064020
31436		24.297708	24.124997	-72.067474
31437		24.302559	24.125479	-72.067639
31438		24.307439	24.125742	-72.064443
31439		24.312098	24.125376	-72.060314
31440		24.317704	24.124956	-72.054627
31441		24.321595	24.126470	-72.050123
31442		24.321398	24.125105	-72.043774
31443		24.320143	24.124399	-72.037802
31444		24.314094	24.123755	-72.033250
31445		24.307249	24.125008	-72.028164
31446		24.300612	24.126919	-72.024107
31447		24.300390	24.126281	-72.020458
31448		24.304235	24.126346	-72.021196
31449		24.313447	24.122261	-72.022058
31450		24.321826	24.118367	-72.026170
31451		24.331096	24.114632	-72.027812
31452		24.334705	24.111130	-72.028368
31453		24.333667	24.111077	-72.028642
31454		24.330769	24.111854	-72.026942
31455		24.325629	24.110395	-72.024950
31456		24.320282	24.106212	-72.023805
31457		24.314769	24.101163	-72.023384
31458		24.308768	24.099944	-72.024841
31459		24.303453	24.095745	-72.028711
31460		24.305212	24.092395	-72.035257
31461		24.306743	24.088644	-72.038606
31462		24.309744	24.089076	-72.041693
31463		24.320051	24.085403	-72.045657
31464		24.329604	24.083563	-72.049645
31465		24.335426	24.083014	-72.054473
31466		24.342182	24.082114	-72.056167
31467		24.344901	24.079678	-72.062228
31468		24.348623	24.077325	-72.065538
31469		24.348410	24.075741	-72.066968
31470		24.342702	24.076103	-72.068651
31471		24.333654	24.074090	-72.068690
31472		24.326582	24.071350	-72.072529
31473		24.326268	24.068122	-72.077476
31474		24.329491	24.061200	-72.077616
31475		24.329741	24.055239	-72.078652
31476		24.327161	24.049279	-72.077625
31477		24.322750	24.045393	-72.077184
31478		24.320367	24.042288	-72.075416
31479		24.319034	24.040487	-72.071791
31480		24.319758	24.039739	-72.062378
31481		24.321383	24.039324	-72.054010
31482		24.322510	24.041945	-72.045031
31483		24.323268	24.041769	-72.039801
31484		24.325241	24.043154	-72.033432
31485		24.324316	24.045496	-72.027059
31486		24.320289	24.044766	-72.024175
31487		24.317272	24.045488	-72.019406
31488		24.316950	24.041651	-72.020039
31489		24.311619	24.038408	-72.018835
31490		24.310445	24.037214	-72.017055
31491		24.309325	24.037016	-72.014593
31492		24.311343	24.038149	-72.011707
31493		24.312497	24.040623	-72.009976
31494		24.310816	24.042426	-72.008991
31495		24.306007	24.043278	-72.009722
31496		24.304063	24.043293	-72.010359
31497		24.308791	24.041579	-72.015201
31498		24.312451	24.037519	-72.021828
31499		24.322483	24.031143	-72.026967
31500		24.335511	24.024985	-72.034923
31501		24.352324	24.017955	-72.041884
31502		24.371112	24.011297	-72.046753
31503		24.384244	24.006067	-72.053785
31504		24.391560	24.001888	-72.058240
31505		24.392303	24.000222	-72.059261
31506		24.381756	24.002046	-72.056778
31507		24.368482	24.006070	-72.054545
31508		24.358432	24.012451	-72.049562
31509		24.354923	24.017004	-72.046354
31510		24.359970	24.018344	-72.045582
31511		24.365591	24.016198	-72.049238
31512		24.374385	24.015754	-72.053447
31513		24.380035	24.013412	-72.059054
31514		24.384814	24.011723	-72.063628
31515		24.387485	24.008944	-72.068906
31516		24.387447	24.008199	-72.069668
31517		24.385243	24.006643	-72.069187
31518		24.384137	24.005755	-72.068197
31519		24.379968	24.004025	-72.067757
31520		24.379052	24.004454	-72.066538
31521		24.378267	24.006556	-72.066794
31522		24.376514	24.008546	-72.064411
31523		24.378557	24.010581	-72.061490
31524		24.377927	24.013873	-72.056856
31525		24.377881	24.015033	-72.052419
31526		24.377759	24.014185	-72.050200
31527		24.378534	24.013070	-72.050047
31528		24.378196	24.010379	-72.049103
31529		24.376239	24.010231	-72.051733
31530		24.372262	24.009836	-72.049784
31531		24.369265	24.010366	-72.046970
31532		24.371206	24.010869	-72.046048
31533		24.377817	24.009923	-72.044994
31534		24.380461	24.007828	-72.042238
31535		24.383140	24.006536	-72.041266
31536		24.388009	24.006068	-72.041242
31537		24.393669	24.005211	-72.040597
31538		24.399597	24.006124	-72.038697
31539		24.403001	24.010724	-72.038851
31540		24.407178	24.012866	-72.040505
31541		24.407381	24.015432	-72.039176
31542		24.400485	24.015265	-72.039337
31543		24.386734	24.014828	-72.039096
31544		24.371102	24.014040	-72.040571
31545		24.362456	24.015460	-72.040993
31546		24.362069	24.011835	-72.040025
31547		24.365668	24.009907	-72.039816
31548		24.370330	24.008085	-72.040341
31549		24.372025	24.006336	-72.040951
31550		24.375695	24.004871	-72.039802
31551		24.378374	24.003579	-72.038829
31552		24.378222	24.002725	-72.037007
31553		24.378110	24.002796	-72.034916
31554		24.377842	24.001012	-72.033824
31555		24.376904	24.001876	-72.033696
31556		24.378003	24.001802	-72.034769
31557		24.381188	24.004061	-72.036885
31558		24.385301	24.005057	-72.041132
31559		24.389121	24.003987	-72.045203
31560		24.390001	24.001659	-72.052231
31561		24.397374	23.997341	-72.057804
31562		24.406399	23.990679	-72.056955
31563		24.415072	23.981733	-72.059020
31564		24.422998	23.973884	-72.058148
31565		24.428878	23.967042	-72.055973
31566		24.430403	23.964505	-72.050200
31567		24.422581	23.965881	-72.045536
31568		24.410822	23.967181	-72.037206
31569		24.402176	23.970096	-72.031380
31570		24.394593	23.973507	-72.023295
31571		24.391720	23.976234	-72.015786
31572		24.390642	23.977390	-72.013384
31573		24.393384	23.977192	-72.010061
31574		24.400069	23.976318	-72.006664
31575		24.407538	23.974379	-72.005590
31576		24.417051	23.971731	-72.007560
31577		24.426456	23.969415	-72.007617
31578		24.434015	23.966141	-72.009966
31579		24.441804	23.966700	-72.009648
31580		24.446861	23.968494	-72.008386
31581		24.447070	23.971068	-72.007049
31582		24.443292	23.971775	-72.007193
31583		24.438521	23.972462	-72.009878
31584		24.431919	23.972995	-72.015801
31585		24.430359	23.974973	-72.023083
31586		24.433634	23.976915	-72.027404
31587		24.437621	23.977098	-72.031849
31588		24.441697	23.976485	-72.039003
31589		24.446606	23.975292	-72.047336
31590		24.451538	23.974239	-72.053644
31591		24.454700	23.975958	-72.056926
31592		24.456885	23.977996	-72.057192
31593		24.459914	23.979750	-72.055798
31594		24.462094	23.981711	-72.058051
31595		24.465092	23.982920	-72.057832
31596		24.464983	23.982450	-72.056893
31597		24.463854	23.981524	-72.057564
31598		24.461876	23.981055	-72.059336
31599		24.459796	23.980221	-72.060417
31600		24.455312	23.982390	-72.064377
31601		24.453877	23.986556	-72.066961
31602		24.456871	23.986011	-72.070062
31603		24.461780	23.985560	-72.075268
31604		24.461886	23.985220	-72.081910
31605		24.462034	23.985965	-72.086045
31606		24.463094	23.985758	-72.088107
31607		24.463138	23.987083	-72.086394
31608		24.461173	23.987023	-72.087679
31609		24.457442	23.989259	-72.086434
31610		24.456047	23.993304	-72.089365
31611		24.452640	23.998042	-72.088871
31612		24.444953	23.999286	-72.089535
31613		24.433387	23.999917	-72.093553
31614		24.421852	23.999275	-72.101599
31615		24.414163	23.999151	-72.107871
31616		24.414214	23.998520	-72.111715
31617		24.414956	23.996866	-72.112737
31618		24.412723	23.994234	-72.114549
31619		24.411401	23.991514	-72.116018
31620		24.408462	23.991738	-72.115584
31621		24.406597	23.993988	-72.111567
31622		24.404715	23.995784	-72.106947
31623		24.405609	23.996861	-72.102096
31624		24.404281	23.994797	-72.101098
31625		24.408636	23.990980	-72.101274
31626		24.408454	23.989843	-72.102370
31627		24.407613	23.991616	-72.101840
31628		24.404834	23.992319	-72.100732
31629		24.401861	23.992674	-72.099875
31630		24.398970	23.992377	-72.099655
31631		24.391995	23.992047	-72.098119
31632		24.386734	23.989987	-72.092609
31633		24.381757	23.990371	-72.089850
31634		24.382276	23.987238	-72.087928
31635		24.383309	23.988282	-72.087747
31636		24.385338	23.989173	-72.087221
31637		24.386377	23.989477	-72.090164
31638		24.385761	23.991574	-72.095263
31639		24.384898	23.992063	-72.099029
31640		24.383021	23.992727	-72.102288
31641		24.380152	23.993244	-72.104154
31642		24.380858	23.990694	-72.103524
31643		24.382493	23.987858	-72.106482
31644		24.385580	23.988446	-72.106748
31645		24.387698	23.990102	-72.107704
31646		24.390910	23.992574	-72.107690
31647		24.394669	23.991895	-72.107849
31648		24.397497	23.989419	-72.113674
31649		24.402060	23.985918	-72.119296
31650		24.400806	23.982239	-72.126088
31651		24.400614	23.979204	-72.133767
31652		24.400482	23.975989	-72.141778
31653		24.396478	23.974065	-72.147980
31654		24.394514	23.972706	-72.153389
31655		24.391395	23.970336	-72.158405
31656		24.392442	23.969068	-72.162268
31657		24.393319	23.968122	-72.164837
31658		24.394569	23.969657	-72.168131
31659		24.395254	23.966915	-72.171501
31660		24.396238	23.965564	-72.178134
31661		24.402553	23.959889	-72.185681
31662		24.409207	23.956927	-72.191807
31663		24.420751	23.953260	-72.202711
31664		24.430128	23.948463	-72.209601
31665		24.441556	23.935566	-72.221384
31666		24.451923	23.929843	-72.231005
31667		24.454378	23.916402	-72.238731
31668		24.450606	23.908123	-72.242034
31669		24.440224	23.903224	-72.242970
31670		24.429553	23.903137	-72.242617
31671		24.419014	23.906061	-72.239580
31672		24.405438	23.907938	-72.238332
31673		24.395077	23.911380	-72.238790
31674		24.393325	23.911831	-72.243161
31675		24.399381	23.911801	-72.251432
31676		24.408479	23.911575	-72.260906
31677		24.420688	23.912919	-72.273293
31678		24.429049	23.914401	-72.284517
31679		24.430215	23.914135	-72.293299
31680		24.423781	23.915443	-72.300339
31681		24.409368	23.916369	-72.305599
31682		24.398320	23.912627	-72.308748
31683		24.388618	23.913278	-72.310001
31684		24.382352	23.909830	-72.311913
31685		24.377755	23.903989	-72.314275
31686		24.375583	23.900593	-72.318851
31687		24.372402	23.897869	-72.323091
31688		24.375006	23.895092	-72.323593
31689		24.376077	23.895942	-72.325356
31690		24.380941	23.896279	-72.326395
31691		24.381778	23.895524	-72.327013
31692		24.379658	23.893953	-72.324122
31693		24.373716	23.894425	-72.321781
31694		24.363772	23.893097	-72.319140
31695		24.354772	23.892792	-72.315715
31696		24.346100	23.893147	-72.316767
31697		24.342118	23.892507	-72.318669
31698		24.341722	23.888884	-72.317644
31699		24.341637	23.888768	-72.317497
31700		24.344386	23.887398	-72.316268
31701		24.347264	23.887163	-72.317605
31702		24.350127	23.886675	-72.315815
31703		24.349161	23.887007	-72.316852
31704		24.347245	23.888252	-72.315101
31705		24.346331	23.889675	-72.313791
31706		24.346523	23.891173	-72.314668
31707		24.354578	23.893870	-72.314284
31708		24.363773	23.898281	-72.313040
31709		24.368961	23.901997	-72.310771
31710		24.375200	23.904927	-72.310506
31711		24.381356	23.907814	-72.310945
31712		24.389002	23.905371	-72.313381
31713		24.395724	23.904570	-72.315016
31714		24.403170	23.901727	-72.313777
31715		24.406004	23.901685	-72.313168
31716		24.406107	23.902322	-72.312465
31717		24.402246	23.903132	-72.312796
31718		24.399405	23.903545	-72.315146
31719		24.398028	23.899744	-72.318970
31720		24.395750	23.894658	-72.327600
31721		24.390688	23.891398	-72.335791
31722		24.383486	23.886931	-72.341614
31723		24.372643	23.885899	-72.344090
31724		24.360833	23.884675	-72.343973
31725		24.349142	23.885917	-72.342163
31726		24.339079	23.884910	-72.337962
31727		24.329288	23.885966	-72.335327
31728		24.321349	23.885569	-72.330649
31729		24.315519	23.886218	-72.331028
31730		24.308508	23.883789	-72.331675
31731		24.304623	23.884058	-72.333175
31732		24.301693	23.883695	-72.335433
31733		24.297784	23.883419	-72.338107
31734		24.294203	23.885836	-72.339503
31735		24.295139	23.885984	-72.339712
31736		24.292396	23.888416	-72.339785
31737		24.284525	23.888552	-72.339445
31738		24.279290	23.886304	-72.335765
31739		24.277144	23.886415	-72.331775
31740		24.274135	23.886525	-72.327969
31741		24.272227	23.888243	-72.325120
31742		24.274794	23.894009	-72.323404
31743		24.275236	23.898202	-72.323186
31744		24.272836	23.903485	-72.319161
31745		24.256924	23.910815	-72.315060
31746		24.236724	23.914135	-72.312976
31747		24.211760	23.918578	-72.311485
31748		24.197557	23.922596	-72.312157
31749		24.193133	23.927113	-72.311287
31750		24.190843	23.932135	-72.310524
31751		24.189483	23.937423	-72.310730
31752		24.184265	23.943650	-72.306349
31753		24.178293	23.943611	-72.305185
31754		24.170164	23.942341	-72.301888
31755		24.164616	23.937904	-72.300374
31756		24.161214	23.934461	-72.298142
31757		24.159943	23.932849	-72.297258
31758		24.161861	23.932630	-72.295328
31759		24.164701	23.932590	-72.294703
31760		24.165551	23.931828	-72.295688
31761		24.159865	23.933203	-72.297611
31762		24.148552	23.935430	-72.297098
31763		24.137098	23.938323	-72.296437
31764		24.123617	23.940408	-72.298083
31765		24.107884	23.940482	-72.296794
31766		24.092934	23.939209	-72.295106
31767		24.082045	23.938411	-72.295638
31768		24.077868	23.937102	-72.295170
31769		24.076959	23.938545	-72.293848
31770		24.079849	23.938431	-72.293323
31771		24.082077	23.940991	-72.293847
31772		24.087301	23.942955	-72.294727
31773		24.091283	23.943327	-72.297174
31774		24.096537	23.945374	-72.297468
31775		24.100640	23.947194	-72.298338
31776		24.101796	23.947089	-72.299249
31777		24.097768	23.945382	-72.303497
31778		24.092731	23.943595	-72.305251
31779		24.087045	23.944978	-72.307174
31780		24.084215	23.945120	-72.307698
31781		24.085228	23.945627	-72.308668
31782		24.087362	23.946055	-72.312263
31783		24.093341	23.947132	-72.313476
31784		24.099262	23.946684	-72.316233
31785		24.106336	23.948370	-72.318574
31786		24.108387	23.948554	-72.321111
31787		24.108425	23.948611	-72.323669
31788		24.106554	23.949410	-72.326614
31789		24.104716	23.950210	-72.328827
31790		24.103631	23.950720	-72.329234
31791		24.099773	23.951558	-72.329559
31792		24.095470	23.954988	-72.329665
31793		24.096361	23.954048	-72.332211
31794		24.109751	23.960487	-72.329903
31795		24.100387	23.966292	-72.323320
31796		24.091742	23.968477	-72.320942
31797		24.084204	23.971158	-72.321349
31798		24.080436	23.972929	-72.319827
31799		24.075798	23.976413	-72.316641
31800		24.076968	23.978400	-72.314132
31801		24.078442	23.982864	-72.314258
31802		24.084585	23.984099	-72.318121
31803		24.098409	23.983417	-72.325736
31804		24.110319	23.983160	-72.330308
31805		24.114279	23.982987	-72.333924
31806		24.118147	23.982023	-72.336085
31807		24.117869	23.980126	-72.336735
31808		24.117225	23.983363	-72.332404
31809		24.113585	23.987843	-72.326454
31810		24.111366	23.994137	-72.320871
31811		24.113914	23.999952	-72.318999
31812		24.117532	24.005600	-72.316040
31813		24.116255	24.011263	-72.317004
31814		24.113857	24.013415	-72.322595
31815		24.116086	24.014694	-72.327406
31816		24.121467	24.010975	-72.328707
31817		24.124063	24.008042	-72.331233
31818		24.118646	24.004921	-72.330575
31819		24.108645	24.004243	-72.328775
31820		24.099611	24.003608	-72.324495
31821		24.093899	24.007039	-72.319009
31822		24.090142	24.009520	-72.315977
31823		24.093081	24.010383	-72.314937
31824		24.103794	24.011087	-72.312501
31825		24.112680	24.012961	-72.310102
31826		24.125149	24.011524	-72.309364
31827		24.130234	24.013796	-72.308628
31828		24.131133	24.013692	-72.305985
31829		24.128174	24.014640	-72.303955
31830		24.122506	24.016112	-72.299480
31831		24.114525	24.016694	-72.295272
31832		24.112742	24.018815	-72.291136
31833		24.110759	24.020213	-72.287513
31834		24.111869	24.022571	-72.282640
31835		24.114711	24.023824	-72.277706
31836		24.115776	24.024979	-72.275494
31837		24.118717	24.025844	-72.274451
31838		24.119861	24.027395	-72.272814
31839		24.120099	24.030557	-72.270263
31840		24.121116	24.030818	-72.267911
31841		24.125230	24.032643	-72.268761
31842		24.130007	24.032337	-72.267555
31843		24.130048	24.033698	-72.265815
31844		24.130107	24.036177	-72.262358
31845		24.125124	24.037175	-72.258445
31846		24.119356	24.038846	-72.257153
31847		24.117447	24.040604	-72.254300
31848		24.117576	24.042557	-72.249130
31849		24.118370	24.042018	-72.247785
31850		24.121180	24.040835	-72.249926
31851		24.126925	24.040305	-72.249983
31852		24.130774	24.039573	-72.249801
31853		24.133643	24.038798	-72.252284
31854		24.137635	24.038785	-72.253667
31855		24.139603	24.039206	-72.254215
31856		24.138743	24.040299	-72.255843
31857		24.138909	24.041823	-72.256817
31858		24.140121	24.043747	-72.255984
31859		24.140063	24.044210	-72.254650
31860		24.142976	24.044055	-72.254054
31861		24.143217	24.045934	-72.255797
31862		24.144398	24.047525	-72.253655
31863		24.144241	24.047088	-72.252728
31864		24.143732	24.050103	-72.251491
31865		24.145999	24.053227	-72.250816
31866		24.148798	24.052302	-72.248503
31867		24.151842	24.054071	-72.247048
31868		24.154862	24.054694	-72.248180
31869		24.158031	24.056624	-72.249440
31870		24.167094	24.057413	-72.251972
31871		24.175066	24.058641	-72.253091
31872		24.172978	24.058023	-72.252211
31873		24.171143	24.060140	-72.250127
31874		24.174904	24.059425	-72.250805
31875		24.176822	24.060042	-72.249406
31876		24.179874	24.061459	-72.246640
31877		24.187921	24.064327	-72.244226
31878		24.196097	24.067249	-72.245235
31879		24.200418	24.070880	-72.245259
31880		24.197820	24.073151	-72.244572
31881		24.183102	24.072833	-72.246839
31882		24.164082	24.068510	-72.251078
31883		24.161048	24.067837	-72.252582
31884		24.157301	24.062764	-72.250125
31885		24.155813	24.060664	-72.245772
31886		24.153459	24.059167	-72.240574
31887		24.152797	24.055517	-72.237389
31888		24.156817	24.049201	-72.234919
31889		24.157658	24.049760	-72.231221
31890		24.164086	24.047352	-72.230850
31891		24.171203	24.042849	-72.228985
31892		24.175276	24.037212	-72.229187
31893		24.179667	24.034464	-72.226990
31894		24.184799	24.029842	-72.223674
31895		24.188965	24.024747	-72.223472
31896		24.188402	24.022471	-72.219576
31897		24.190015	24.021673	-72.215101
31898		24.183181	24.018122	-72.207684
31899		24.173452	24.013473	-72.201705
31900		24.156590	24.006730	-72.191483
31901		24.137620	23.999836	-72.182342
31902		24.119157	23.995788	-72.174405
31903		24.106503	23.991110	-72.168902
31904		24.098845	23.985820	-72.165873
31905		24.094883	23.977790	-72.167923
31906		24.094535	23.973956	-72.170821
31907		24.094243	23.970243	-72.176947
31908		24.100191	23.968698	-72.181478
31909		24.109034	23.967621	-72.186874
31910		24.117697	23.965366	-72.192079
31911		24.123481	23.964088	-72.195245
31912		24.122939	23.960206	-72.198420
31913		24.116755	23.958441	-72.198095
31914		24.116363	23.955595	-72.199922
31915		24.113375	23.957315	-72.194766
31916		24.109495	23.958985	-72.192291
31917		24.106685	23.961962	-72.187493
31918		24.104884	23.964110	-72.185509
31919		24.104831	23.964586	-72.184166
31920		24.107409	23.960678	-72.186934
31921		24.107344	23.959318	-72.191067
31922		24.104160	23.956248	-72.194464
31923		24.098210	23.955549	-72.196443
31924		24.090570	23.957193	-72.193877
31925		24.083705	23.958984	-72.189622
31926		24.079398	23.957348	-72.184196
31927		24.077926	23.955809	-72.178663
31928		24.077443	23.952390	-72.175893
31929		24.077111	23.950712	-72.174599
31930		24.080997	23.948961	-72.175754
31931		24.090583	23.947261	-72.177245
31932		24.098348	23.946124	-72.178796
31933		24.100532	23.948355	-72.178509
31934		24.100614	23.950238	-72.176002
31935		24.097636	23.950678	-72.175142
31936		24.096626	23.950492	-72.171689
31937		24.091614	23.950984	-72.168952
31938		24.093317	23.948883	-72.166411
31939		24.101898	23.947480	-72.166373
31940		24.112907	23.947863	-72.163698
31941		24.116911	23.949530	-72.161806
31942		24.122249	23.953510	-72.160661
31943		24.129780	23.951311	-72.161451
31944		24.127118	23.952807	-72.162482
31945		24.131012	23.951739	-72.166476
31946		24.137235	23.955120	-72.166358
31947		24.149016	23.954077	-72.171255
31948		24.158308	23.958204	-72.172369
31949		24.157363	23.958598	-72.173388
31950		24.149839	23.959627	-72.177395
31951		24.138229	23.958835	-72.185010
31952		24.134274	23.956168	-72.188761
31953		24.134415	23.956617	-72.192072
31954		24.134122	23.953771	-72.192859
31955		24.133901	23.951710	-72.195458
31956		24.134943	23.950493	-72.199901
31957		24.139888	23.950221	-72.203065
31958		24.147828	23.949429	-72.206378
31959		24.159350	23.946778	-72.210149
31960		24.168824	23.944503	-72.207616
31961		24.170704	23.944033	-72.208558
31962		24.173527	23.942035	-72.207818
31963		24.172567	23.943714	-72.204537
31964		24.169858	23.946032	-72.200370
31965		24.166030	23.947484	-72.199521
31966		24.163259	23.949671	-72.198377
31967		24.164892	23.946307	-72.202496
31968		24.162713	23.943844	-72.201520
31969		24.158333	23.939699	-72.205083
31970		24.156069	23.937135	-72.207270
31971		24.155768	23.934721	-72.209103
31972		24.159601	23.933981	-72.209233
31973		24.161504	23.934058	-72.208995
31974		24.158678	23.934208	-72.209840
31975		24.156727	23.934903	-72.209331
31976		24.154192	23.937531	-72.207029
31977		24.155146	23.937715	-72.207209
31978		24.154266	23.939114	-72.206373
31979		24.154292	23.939952	-72.205793
31980		24.154434	23.940647	-72.204921
31981		24.153249	23.939981	-72.203640
31982		24.151338	23.940420	-72.204024
31983		24.151263	23.940358	-72.203856
31984		24.152052	23.938758	-72.202891
31985		24.152760	23.936048	-72.206250
31986		24.153715	23.935851	-72.211996
31987		24.158461	23.933778	-72.215978
31988		24.164391	23.932996	-72.217369
31989		24.169321	23.932179	-72.221705
31990		24.173075	23.929899	-72.223293
31991		24.175099	23.929595	-72.226941
31992		24.174961	23.927565	-72.227080
31993		24.173935	23.925781	-72.232808
31994		24.173164	23.925766	-72.237709
31995		24.174821	23.921122	-72.246128
31996		24.177824	23.919407	-72.254054
31997		24.181624	23.915615	-72.263932
31998		24.186898	23.915195	-72.271310
31999		24.190116	23.915851	-72.276835
32000		24.191345	23.916495	-72.280591
32001		24.189555	23.916076	-72.287091
32002		24.186155	23.918798	-72.291127
32003		24.188016	23.917784	-72.293244
32004		24.191312	23.919685	-72.293973
32005		24.194386	23.920177	-72.296789
32006		24.196564	23.920725	-72.300105
32007		24.197557	23.920175	-72.303407
32008		24.202858	23.921888	-72.308818
32009		24.201872	23.921198	-72.312192
32010		24.196117	23.920912	-72.314047
32011		24.188529	23.923888	-72.312521
32012		24.184632	23.925220	-72.313184
32013		24.184757	23.926959	-72.312191
32014		24.187026	23.928622	-72.310515
32015		24.193213	23.930405	-72.313188
32016		24.203339	23.930959	-72.316845
32017		24.209750	23.935091	-72.317513
32018		24.208999	23.938290	-72.316571
32019		24.202135	23.938815	-72.316634
32020		24.192307	23.938240	-72.317868
32021		24.183239	23.936278	-72.320008
32022		24.178389	23.936576	-72.318466
32023		24.173320	23.935986	-72.318102
32024		24.168916	23.933000	-72.318182
32025		24.168695	23.930947	-72.320785
32026		24.173533	23.929051	-72.326473
32027		24.182446	23.929063	-72.329476
32028		24.192685	23.930731	-72.329937
32029		24.201944	23.934538	-72.329342
32030		24.206955	23.936433	-72.328453
32031		24.208335	23.940770	-72.325798
32032		24.205550	23.942178	-72.328463
32033		24.202541	23.942087	-72.328793
32034		24.196272	23.945861	-72.328776
32035		24.193614	23.947740	-72.330983
32036		24.197348	23.945404	-72.334921
32037		24.202054	23.944069	-72.335779
32038		24.202590	23.941108	-72.337387
32039		24.201151	23.937551	-72.339299
32040		24.198745	23.934536	-72.336862
32041		24.197224	23.930624	-72.338009
32042		24.190559	23.933104	-72.335219
32043		24.182988	23.936640	-72.332518
32044		24.177157	23.938085	-72.329927
32045		24.175033	23.938078	-72.327893
32046		24.179931	23.938751	-72.325793
32047		24.186619	23.937554	-72.326573
32048		24.194114	23.934335	-72.327806
32049		24.202577	23.931474	-72.329339
32050		24.207713	23.932670	-72.330634
32051		24.212440	23.931880	-72.330311
32052		24.212483	23.932377	-72.328244
32053		24.211577	23.933876	-72.326904
32054		24.211519	23.933465	-72.325262
32055		24.211691	23.934479	-72.327386
32056		24.218788	23.936277	-72.328112
32057		24.224425	23.934288	-72.329726
32058		24.232569	23.934159	-72.334572
32059		24.238663	23.935044	-72.337646
32060		24.242845	23.935553	-72.343261
32061		24.242997	23.936023	-72.346565
32062		24.244083	23.933106	-72.349131
32063		24.253069	23.932932	-72.354064
32064		24.250159	23.931564	-72.358333
32065		24.256263	23.930631	-72.366884
32066		24.261421	23.931731	-72.368287
32067		24.260317	23.929608	-72.373258
32068		24.263335	23.927775	-72.381574
32069		24.265142	23.925137	-72.387227
32070		24.266224	23.923499	-72.392080
32071		24.267306	23.923317	-72.396143
32072		24.268644	23.924684	-72.402097
32073		24.274786	23.924842	-72.408289
32074		24.279671	23.924167	-72.411151
32075		24.275051	23.926459	-72.412257
32076		24.270307	23.926510	-72.412432
32077		24.266618	23.928150	-72.414297
32078		24.266696	23.928922	-72.413762
32079		24.270986	23.932748	-72.411777
32080		24.276571	23.937200	-72.414212
32081		24.282957	23.940250	-72.417211
32082		24.286236	23.942660	-72.417310
32083		24.284836	23.947144	-72.417848
32084		24.280113	23.948366	-72.420373
32085		24.273306	23.948721	-72.422393
32086		24.267628	23.949727	-72.423642
32087		24.263617	23.950483	-72.421279
32088		24.261383	23.949199	-72.418507
32089		24.259165	23.948835	-72.415719
32090		24.258262	23.950203	-72.415145
32091		24.259144	23.950583	-72.413382
32092		24.261254	23.951488	-72.412274
32093		24.266234	23.951771	-72.414234
32094		24.271524	23.953240	-72.415929
32095		24.280638	23.954514	-72.419255
32096		24.282041	23.958032	-72.420698
32097		24.282436	23.961399	-72.420808
32098		24.282992	23.964343	-72.425117
32099		24.280628	23.968400	-72.427254
32100		24.282050	23.970916	-72.430213
32101		24.283321	23.972000	-72.434620
32102		24.286525	23.973979	-72.436154
32103		24.292848	23.977215	-72.437202
32104		24.304100	23.978958	-72.440966
32105		24.318042	23.980041	-72.442942
32106		24.325528	23.983308	-72.444080
32107		24.324871	23.985886	-72.445029
32108		24.321326	23.987784	-72.447774
32109		24.317427	23.987632	-72.450481
32110		24.316599	23.987964	-72.450911
32111		24.315581	23.988566	-72.449993
32112		24.314070	23.993425	-72.446828
32113		24.314710	23.993274	-72.441602
32114		24.312187	23.997767	-72.438254
32115		24.314412	24.001101	-72.435577
32116		24.322311	24.002351	-72.431213
32117		24.333863	24.002044	-72.428275
32118		24.346370	24.001406	-72.428006
32119		24.357764	23.998569	-72.429027
32120		24.365143	23.993309	-72.435061
32121		24.367950	23.992201	-72.436759
32122		24.366700	23.988951	-72.438898
32123		24.360681	23.989036	-72.437807
32124		24.354765	23.989596	-72.435309
32125		24.348782	23.990768	-72.431858
32126		24.343711	23.990856	-72.428377
32127		24.338658	23.991375	-72.425684
32128		24.334705	23.991080	-72.425033
32129		24.329755	23.990147	-72.428582
32130		24.330811	23.989240	-72.430146
32131		24.330689	23.988107	-72.432346
32132		24.330692	23.986102	-72.437802
32133		24.328950	23.986812	-72.441949
32134		24.330093	23.986646	-72.445840
32135		24.336094	23.986637	-72.449313
32136		24.342703	23.993853	-72.445212
32137		24.341545	23.992474	-72.447074
32138		24.346872	23.993210	-72.452119
32139		24.350629	23.989637	-72.460055
32140		24.350257	23.984705	-72.465320
32141		24.351240	23.983637	-72.469801
32142		24.354515	23.984429	-72.472982
32143		24.354774	23.985819	-72.475866
32144		24.357999	23.987353	-72.475854
32145		24.361816	23.994176	-72.475712
32146		24.370285	23.999176	-72.472473
32147		24.372980	24.005393	-72.471231
32148		24.368876	24.011701	-72.469577
32149		24.356701	24.016003	-72.471712
32150		24.345523	24.019795	-72.471860
32151		24.338864	24.022706	-72.469938
32152		24.335089	24.024140	-72.468976
32153		24.330066	24.025751	-72.463926
32154		24.323077	24.025727	-72.459748
32155		24.314348	24.028149	-72.457151
32156		24.310172	24.027443	-72.457220
32157		24.309979	24.026498	-72.457479
32158		24.312982	24.026203	-72.458555
32159		24.317037	24.027145	-72.459743
32160		24.320990	24.025216	-72.463047
32161		24.323218	24.026201	-72.467022
32162		24.325609	24.029176	-72.466374
32163		24.321231	24.034391	-72.464286
32164		24.312264	24.035574	-72.460131
32165		24.300233	24.036003	-72.456185
32166		24.287179	24.034931	-72.454782
32167		24.278926	24.032011	-72.456986
32168		24.277750	24.030680	-72.457260
32169		24.277524	24.028650	-72.459878
32170		24.282836	24.029432	-72.464996
32171		24.288512	24.026171	-72.470898
32172		24.292714	24.025190	-72.477099
32173		24.293787	24.024484	-72.482336
32174		24.287047	24.024226	-72.485367
32175		24.277178	24.023154	-72.489519
32176		24.271101	24.022366	-72.488702
32177		24.267115	24.021876	-72.490653
32178		24.264252	24.022811	-72.488110
32179		24.262229	24.024267	-72.484491
32180		24.261183	24.025655	-72.480422
32181		24.258123	24.026867	-72.476466
32182		24.256790	24.024870	-72.474870
32183		24.253505	24.023735	-72.472936
32184		24.245170	24.020516	-72.472569
32185		24.234789	24.017841	-72.470979
32186		24.224854	24.015475	-72.474118
32187		24.215197	24.016216	-72.477427
32188		24.207300	24.014882	-72.480624
32189		24.198663	24.015324	-72.485449
32190		24.189208	24.015793	-72.490165
32191		24.179110	24.020618	-72.492977
32192		24.167707	24.021876	-72.497972
32193		24.157520	24.026343	-72.500024
32194		24.147602	24.030349	-72.505467
32195		24.139157	24.032053	-72.510633
32196		24.133717	24.032419	-72.520007
32197		24.126438	24.033450	-72.530571
32198		24.121940	24.032072	-72.540594
32199		24.120054	24.030255	-72.548693
32200		24.118201	24.027783	-72.558313
32201		24.115441	24.025893	-72.568776
32202		24.119418	24.024837	-72.572666
32203		24.122394	24.023898	-72.577044
32204		24.124493	24.024590	-72.578894
32205		24.129558	24.024685	-72.582765
32206		24.131515	24.024610	-72.582906
32207		24.126507	24.024421	-72.583338
32208		24.120765	24.025231	-72.585247
32209		24.114127	24.026347	-72.588806
32210		24.110036	24.023977	-72.591282
32211		24.106139	24.023849	-72.593989
32212		24.106282	24.023763	-72.599100
32213		24.109289	24.023913	-72.601117
32214		24.110573	24.025718	-72.600272
32215		24.106661	24.027953	-72.596320
32216		24.097092	24.031587	-72.591408
32217		24.083904	24.030897	-72.587555
32218		24.072989	24.032469	-72.584209
32219		24.069596	24.030438	-72.582691
32220		24.071123	24.027447	-72.581065
32221		24.071582	24.024227	-72.580969
32222		24.072379	24.023593	-72.580216
32223		24.069873	24.022179	-72.575154
32224		24.064597	24.022153	-72.569191
32225		24.056343	24.022162	-72.563555
32226		24.046430	24.017814	-72.555702
32227		24.035333	24.018173	-72.551338
32228		24.029298	24.018382	-72.548418
32229		24.029123	24.017989	-72.547482
32230		24.032258	24.019742	-72.545720
32231		24.038294	24.020261	-72.547975
32232		24.044303	24.018713	-72.552615
32233		24.048084	24.018030	-72.552681
32234		24.050198	24.020461	-72.550991
32235		24.046804	24.018437	-72.549473
32236		24.040489	24.017443	-72.546883
32237		24.037394	24.017585	-72.545283
32238		24.037583	24.019720	-72.545724
32239		24.043560	24.020971	-72.544858
32240		24.049341	24.026307	-72.548533
32241		24.055740	24.028260	-72.553823
32242		24.063071	24.029842	-72.555190
