// General information: 
//  MT Manager version: 2022.2.0 
//  XDA version: 2022.2.0 build 7381 rev 124627 built on 2023-07-19
// Device information: 
//  DeviceId: 00B447F1
//  ProductCode: MTW2-3A7G6
//  Firmware Version: 4.3.5
//  Hardware Version: 2.0.0
// Device settings: 
//  Filter Profile: human(46.1)
//  Option Flags: Orientation Smoother Disabled, Position/Velocity Smoother Disabled, Continuous Zero Rotation Update Disabled, AHS Disabled, ICC Disabled
// Coordinate system: ENU
PacketCounter	SampleTimeFine	Roll	Pitch	Yaw
20147		8.304998	2.715615	-23.667151
20148		8.226315	2.706413	-23.612925
20149		8.136671	2.699507	-23.562353
20150		8.028234	2.697539	-23.512874
20151		7.909526	2.706793	-23.467751
20152		7.782818	2.728634	-23.420159
20153		7.656021	2.762596	-23.374302
20154		7.533000	2.795067	-23.319581
20155		7.423001	2.824789	-23.258651
20156		7.315482	2.854307	-23.194561
20157		7.207345	2.889325	-23.134137
20158		7.097027	2.923700	-23.079781
20159		6.995717	2.957525	-23.039697
20160		6.901025	2.989717	-23.005824
20161		6.825224	3.022113	-22.983217
20162		6.762955	3.048473	-22.967942
20163		6.726133	3.066466	-22.968093
20164		6.711664	3.073485	-22.973243
20165		6.718323	3.087075	-22.981764
20166		6.737235	3.105314	-22.982466
20167		6.768320	3.120713	-22.976335
20168		6.810467	3.125169	-22.965648
20169		6.864993	3.121583	-22.955094
20170		6.924136	3.113049	-22.944603
20171		6.991976	3.100304	-22.934881
20172		7.058136	3.086406	-22.920958
20173		7.110083	3.074039	-22.898285
20174		7.141205	3.061850	-22.868254
20175		7.162572	3.055119	-22.836464
20176		7.179984	3.051100	-22.803015
20177		7.193437	3.046409	-22.770203
20178		7.199982	3.038360	-22.733789
20179		7.213843	3.023659	-22.699796
20180		7.231416	3.005052	-22.666292
20181		7.249432	2.983850	-22.631029
20182		7.256305	2.958628	-22.594347
20183		7.247073	2.925364	-22.563636
20184		7.217198	2.895837	-22.531073
20185		7.167740	2.874730	-22.502267
20186		7.096494	2.859986	-22.471954
20187		7.020251	2.846010	-22.442928
20188		6.939453	2.829396	-22.422052
20189		6.866822	2.805213	-22.406453
20190		6.790215	2.775934	-22.408047
20191		6.707808	2.752188	-22.420706
20192		6.610801	2.731931	-22.439291
20193		6.493419	2.715855	-22.457683
20194		6.354819	2.702348	-22.464197
20195		6.203060	2.679265	-22.458793
20196		6.033854	2.653482	-22.447409
20197		5.866696	2.628395	-22.435236
20198		5.709972	2.593777	-22.421976
20199		5.583796	2.551200	-22.413048
20200		5.507592	2.501784	-22.405778
20201		5.483030	2.452494	-22.407621
20202		5.483232	2.404573	-22.411291
20203		5.515814	2.360541	-22.419983
20204		5.575706	2.321498	-22.434031
20205		5.668268	2.287137	-22.450001
20206		5.781473	2.258950	-22.468686
20207		5.896133	2.221447	-22.481464
20208		5.994316	2.181921	-22.489788
20209		6.067321	2.151986	-22.492539
20210		6.120132	2.142000	-22.495532
20211		6.151213	2.144015	-22.500476
20212		6.151335	2.151815	-22.509394
20213		6.126047	2.162308	-22.521916
20214		6.075474	2.176861	-22.534610
20215		6.018875	2.201175	-22.540882
20216		5.962406	2.236005	-22.543173
20217		5.925409	2.274921	-22.545812
20218		5.917225	2.322272	-22.545811
20219		5.936794	2.371577	-22.545989
20220		5.974540	2.428210	-22.534036
20221		6.030522	2.486883	-22.515972
20222		6.089666	2.541962	-22.490808
20223		6.143341	2.590971	-22.462299
20224		6.185166	2.647455	-22.429940
20225		6.219512	2.713626	-22.402369
20226		6.246059	2.780605	-22.374543
20227		6.259446	2.842800	-22.363302
20228		6.261570	2.901186	-22.364439
20229		6.271168	2.950693	-22.369080
20230		6.281063	2.987194	-22.375596
20231		6.299742	3.019268	-22.385422
20232		6.329888	3.056997	-22.383465
20233		6.376135	3.094643	-22.377966
20234		6.427151	3.126515	-22.364705
20235		6.485045	3.151181	-22.360289
20236		6.548031	3.171907	-22.353744
20237		6.604535	3.192628	-22.353915
20238		6.642540	3.205831	-22.359203
20239		6.661812	3.222653	-22.364390
20240		6.667008	3.241760	-22.368905
20241		6.655292	3.258360	-22.369817
20242		6.631605	3.270152	-22.362687
20243		6.613411	3.275631	-22.362062
20244		6.599189	3.277631	-22.368043
20245		6.597591	3.279955	-22.381946
20246		6.598140	3.273062	-22.391726
20247		6.593312	3.265051	-22.410208
20248		6.578779	3.257891	-22.426243
20249		6.558556	3.251060	-22.442810
20250		6.529113	3.244245	-22.459964
20251		6.493292	3.235257	-22.479895
20252		6.450664	3.221503	-22.502981
20253		6.409648	3.205873	-22.529990
20254		6.377355	3.189384	-22.562514
20255		6.364232	3.167949	-22.603535
20256		6.370594	3.139056	-22.646727
20257		6.401465	3.103253	-22.694837
20258		6.444612	3.063357	-22.745324
20259		6.488345	3.023795	-22.793162
20260		6.525178	2.986195	-22.842421
20261		6.559283	2.953879	-22.892741
20262		6.591586	2.922480	-22.951817
20263		6.618939	2.898891	-23.019704
20264		6.633869	2.872813	-23.087060
20265		6.639442	2.852011	-23.154516
20266		6.627350	2.834033	-23.221229
20267		6.596637	2.823202	-23.287273
20268		6.550312	2.816942	-23.350195
20269		6.492157	2.818534	-23.420150
20270		6.430652	2.823036	-23.490245
20271		6.373200	2.826799	-23.569188
20272		6.305005	2.831582	-23.651872
20273		6.235842	2.837782	-23.742959
20274		6.169297	2.845107	-23.847083
20275		6.108499	2.842609	-23.964759
20276		6.048658	2.825464	-24.095193
20277		5.988172	2.796810	-24.242690
20278		5.923815	2.770123	-24.402728
20279		5.855637	2.740979	-24.580471
20280		5.769763	2.708137	-24.772150
20281		5.673730	2.671857	-24.981087
20282		5.566280	2.633048	-25.204749
20283		5.461185	2.588028	-25.450220
20284		5.357506	2.534161	-25.711340
20285		5.264104	2.474380	-25.992362
20286		5.182147	2.412941	-26.293429
20287		5.125969	2.339096	-26.611627
20288		5.079747	2.264832	-26.949560
20289		5.044768	2.179732	-27.303873
20290		5.013705	2.088901	-27.666754
20291		4.989473	2.000725	-28.050356
20292		4.964269	1.913677	-28.445584
20293		4.936590	1.825207	-28.859934
20294		4.892696	1.730682	-29.290510
20295		4.846105	1.634757	-29.745280
20296		4.793222	1.529069	-30.208138
20297		4.738371	1.422205	-30.683969
20298		4.680351	1.327293	-31.168057
20299		4.640748	1.237495	-31.668028
20300		4.602002	1.144088	-32.177575
20301		4.569108	1.046355	-32.708744
20302		4.545867	0.947072	-33.248696
20303		4.530887	0.843806	-33.801491
20304		4.522836	0.740439	-34.360141
20305		4.521337	0.645550	-34.918936
20306		4.513890	0.559344	-35.476279
20307		4.502244	0.479852	-36.038914
20308		4.482110	0.400695	-36.603314
20309		4.460353	0.319388	-37.182480
20310		4.440391	0.240469	-37.766266
20311		4.437217	0.152198	-38.364759
20312		4.444180	0.056569	-38.965534
20313		4.479174	-0.042283	-39.573581
20314		4.541461	-0.154284	-40.172234
20315		4.642093	-0.276850	-40.773733
20316		4.777710	-0.396759	-41.370351
20317		4.973037	-0.520257	-41.960318
20318		5.199837	-0.644447	-42.533927
20319		5.448530	-0.754085	-43.095761
20320		5.681180	-0.837612	-43.629397
20321		5.876585	-0.900917	-44.152918
20322		6.006146	-0.951111	-44.668360
20323		6.077639	-0.995887	-45.186191
20324		6.080877	-1.039909	-45.701014
20325		6.019772	-1.079640	-46.214963
20326		5.903444	-1.121303	-46.723798
20327		5.772841	-1.168266	-47.230246
20328		5.638533	-1.217954	-47.724031
20329		5.519637	-1.271790	-48.228038
20330		5.427632	-1.322857	-48.730644
20331		5.382847	-1.376013	-49.242393
20332		5.370519	-1.431069	-49.750226
20333		5.391215	-1.489975	-50.270864
20334		5.437399	-1.545823	-50.791340
20335		5.508485	-1.599085	-51.323874
20336		5.584259	-1.652343	-51.857082
20337		5.659580	-1.702531	-52.405183
20338		5.729846	-1.748399	-52.957547
20339		5.808982	-1.792303	-53.528243
20340		5.880794	-1.832821	-54.108745
20341		5.953859	-1.875228	-54.713458
20342		6.013740	-1.916300	-55.326577
20343		6.058671	-1.947405	-55.966498
20344		6.071642	-1.970996	-56.620093
20345		6.044092	-1.992726	-57.293592
20346		5.963854	-2.007836	-57.982396
20347		5.834655	-2.006634	-58.692012
20348		5.649986	-1.987972	-59.412980
20349		5.424396	-1.969198	-60.162397
20350		5.171672	-1.956714	-60.925114
20351		4.915718	-1.951026	-61.702869
20352		4.670609	-1.955018	-62.482054
20353		4.462623	-1.968821	-63.273573
20354		4.314474	-1.986500	-64.073651
20355		4.248781	-2.016204	-64.893669
20356		4.257272	-2.057749	-65.726991
20357		4.345826	-2.113360	-66.570922
20358		4.489198	-2.183408	-67.421402
20359		4.677992	-2.255616	-68.273916
20360		4.898671	-2.320904	-69.122722
20361		5.141875	-2.386721	-69.983624
20362		5.392158	-2.454765	-70.846519
20363		5.658356	-2.515920	-71.724644
20364		5.930802	-2.574660	-72.603760
20365		6.183510	-2.634728	-73.476146
20366		6.396038	-2.684863	-74.335235
20367		6.587697	-2.732404	-75.183455
20368		6.750194	-2.771582	-76.023064
20369		6.912070	-2.806895	-76.865054
20370		7.084066	-2.836403	-77.700498
20371		7.277579	-2.863619	-78.535215
20372		7.493234	-2.883741	-79.368769
20373		7.742071	-2.900936	-80.207779
20374		8.020175	-2.933541	-81.045944
20375		8.320106	-2.971817	-81.874621
20376		8.637964	-3.006012	-82.684440
20377		8.986400	-3.024640	-83.497945
20378		9.377641	-3.023226	-84.315773
20379		9.813901	-3.042236	-85.139033
20380		10.228638	-3.076546	-85.967635
20381		10.612818	-3.107970	-86.792507
20382		10.958628	-3.127705	-87.603858
20383		11.242015	-3.130537	-88.389564
20384		11.454118	-3.114264	-89.146067
20385		11.612628	-3.084043	-89.881486
20386		11.733834	-3.052365	-90.609254
20387		11.844118	-3.010454	-91.339049
20388		11.960374	-2.956491	-92.073141
20389		12.111467	-2.902855	-92.813254
20390		12.308115	-2.864459	-93.538139
20391		12.538876	-2.839049	-94.245042
20392		12.770016	-2.802970	-94.920353
20393		12.987936	-2.753685	-95.578986
20394		13.177210	-2.700740	-96.222641
20395		13.335363	-2.660147	-96.865252
20396		13.463313	-2.622759	-97.502115
20397		13.592610	-2.575593	-98.127784
20398		13.734190	-2.521971	-98.736777
20399		13.893618	-2.463485	-99.325949
20400		14.066015	-2.394646	-99.894140
20401		14.267778	-2.328485	-100.448061
20402		14.485350	-2.274659	-100.986239
20403		14.712760	-2.225230	-101.512090
20404		14.933425	-2.173429	-102.022410
20405		15.141862	-2.122498	-102.513098
20406		15.316355	-2.070216	-102.984708
20407		15.464453	-2.010339	-103.435785
20408		15.595035	-1.946300	-103.872212
20409		15.721651	-1.888541	-104.298876
20410		15.842231	-1.837317	-104.714066
20411		15.968891	-1.787105	-105.112916
20412		16.101710	-1.733322	-105.487154
20413		16.219715	-1.679704	-105.840502
20414		16.308944	-1.624491	-106.171260
20415		16.379905	-1.565445	-106.483344
20416		16.430810	-1.508741	-106.782839
20417		16.471516	-1.459370	-107.069922
20418		16.504970	-1.413264	-107.340079
20419		16.532968	-1.371904	-107.592654
20420		16.568652	-1.332868	-107.830337
20421		16.614080	-1.293175	-108.062018
20422		16.673865	-1.261129	-108.295533
20423		16.752138	-1.232122	-108.533041
20424		16.845033	-1.215418	-108.770034
20425		16.951196	-1.213477	-109.003823
20426		17.055203	-1.212819	-109.226897
20427		17.151471	-1.215329	-109.441109
20428		17.234026	-1.216491	-109.647986
20429		17.305185	-1.216587	-109.854338
20430		17.366365	-1.223605	-110.065083
20431		17.433613	-1.238463	-110.274873
20432		17.515476	-1.250760	-110.481357
20433		17.627469	-1.263142	-110.686806
20434		17.762376	-1.273337	-110.884849
20435		17.913490	-1.282396	-111.078590
20436		18.070772	-1.287572	-111.266092
20437		18.229350	-1.300809	-111.455807
20438		18.376305	-1.321532	-111.647814
20439		18.520387	-1.337369	-111.843752
20440		18.654376	-1.340764	-112.034718
20441		18.782736	-1.334334	-112.221026
20442		18.899925	-1.321378	-112.401009
20443		19.007544	-1.309521	-112.579334
20444		19.105815	-1.301819	-112.754702
20445		19.217121	-1.291245	-112.928009
20446		19.334923	-1.270714	-113.095902
20447		19.460287	-1.249735	-113.264291
20448		19.588276	-1.224924	-113.426429
20449		19.717017	-1.201839	-113.586831
20450		19.841045	-1.179567	-113.744280
20451		19.966534	-1.152102	-113.903041
20452		20.091299	-1.121982	-114.067636
20453		20.219818	-1.088087	-114.239820
20454		20.354922	-1.053504	-114.421997
20455		20.488697	-1.017482	-114.611617
20456		20.598607	-0.975786	-114.796605
20457		20.680150	-0.923024	-114.969596
20458		20.740838	-0.865126	-115.131550
20459		20.794947	-0.818568	-115.290782
20460		20.848185	-0.782679	-115.452755
20461		20.915751	-0.750960	-115.613734
20462		21.003447	-0.719230	-115.763253
20463		21.116721	-0.689499	-115.903518
20464		21.252761	-0.666100	-116.035472
20465		21.403806	-0.642184	-116.161069
20466		21.551229	-0.619799	-116.280193
20467		21.681679	-0.596377	-116.389393
20468		21.779043	-0.564416	-116.484751
20469		21.840449	-0.529061	-116.568149
20470		21.865239	-0.486663	-116.639618
20471		21.888196	-0.446389	-116.700643
20472		21.917346	-0.408027	-116.751845
20473		21.959084	-0.371357	-116.794226
20474		22.011481	-0.338606	-116.826372
20475		22.073625	-0.311766	-116.852548
20476		22.141001	-0.288373	-116.873330
20477		22.203462	-0.266565	-116.886035
20478		22.264933	-0.241920	-116.887090
20479		22.320595	-0.222107	-116.881349
20480		22.365024	-0.201675	-116.871038
20481		22.403251	-0.174998	-116.856521
20482		22.428959	-0.147485	-116.835561
20483		22.447360	-0.129371	-116.812729
20484		22.463943	-0.118366	-116.787213
20485		22.491486	-0.108264	-116.754904
20486		22.521338	-0.096876	-116.719904
20487		22.557951	-0.084707	-116.678842
20488		22.597288	-0.070656	-116.639514
20489		22.629392	-0.061067	-116.601688
20490		22.642386	-0.054210	-116.559547
20491		22.638290	-0.047512	-116.509329
20492		22.609031	-0.040322	-116.449382
20493		22.572543	-0.030921	-116.383333
20494		22.543629	-0.028118	-116.313150
20495		22.524418	-0.028754	-116.242298
20496		22.515440	-0.030100	-116.173302
20497		22.510986	-0.033104	-116.101816
20498		22.498132	-0.040124	-116.027969
20499		22.471017	-0.050847	-115.950725
20500		22.436202	-0.065766	-115.867837
20501		22.385857	-0.079728	-115.779730
20502		22.329016	-0.093899	-115.686973
20503		22.283716	-0.110420	-115.595554
20504		22.255943	-0.134653	-115.497435
20505		22.240639	-0.169533	-115.394965
20506		22.237393	-0.208726	-115.283309
20507		22.243055	-0.252857	-115.163181
20508		22.255107	-0.302356	-115.033454
20509		22.273615	-0.354157	-114.895156
20510		22.284516	-0.408709	-114.750030
20511		22.288017	-0.471472	-114.596244
20512		22.296753	-0.531372	-114.432633
20513		22.310230	-0.594182	-114.263694
20514		22.324072	-0.659892	-114.087228
20515		22.345600	-0.729002	-113.901680
20516		22.373798	-0.805731	-113.704733
20517		22.407131	-0.885903	-113.494532
20518		22.440560	-0.964808	-113.276172
20519		22.481253	-1.043839	-113.052689
20520		22.527816	-1.124992	-112.826873
20521		22.577817	-1.204166	-112.591265
20522		22.626354	-1.280118	-112.340412
20523		22.665316	-1.349466	-112.068982
20524		22.689653	-1.416719	-111.778446
20525		22.705060	-1.482934	-111.478444
20526		22.717722	-1.550923	-111.165716
20527		22.732998	-1.617761	-110.852959
20528		22.745119	-1.685430	-110.530398
20529		22.753808	-1.753845	-110.200992
20530		22.755749	-1.820781	-109.862132
20531		22.748934	-1.883345	-109.510993
20532		22.729337	-1.942961	-109.147817
20533		22.702727	-2.002640	-108.776185
20534		22.666408	-2.060036	-108.392104
20535		22.617538	-2.122761	-107.999239
20536		22.555793	-2.178277	-107.600513
20537		22.497826	-2.231085	-107.193643
20538		22.442504	-2.282083	-106.775216
20539		22.390394	-2.335717	-106.346947
20540		22.333918	-2.390983	-105.906955
20541		22.282515	-2.449684	-105.458124
20542		22.231326	-2.511454	-105.003180
20543		22.170405	-2.567828	-104.540810
20544		22.108846	-2.623634	-104.068765
20545		22.045826	-2.679046	-103.583208
20546		21.984532	-2.741945	-103.084578
20547		21.928543	-2.809707	-102.574210
20548		21.874040	-2.877678	-102.051455
20549		21.818466	-2.943353	-101.515450
20550		21.760416	-3.009301	-100.970116
20551		21.694601	-3.081600	-100.413935
20552		21.620425	-3.147971	-99.844290
20553		21.535518	-3.215738	-99.261445
20554		21.437782	-3.288590	-98.675849
20555		21.329472	-3.357231	-98.078631
20556		21.218243	-3.423299	-97.468898
20557		21.103473	-3.494629	-96.848499
20558		20.986073	-3.570346	-96.218334
20559		20.878729	-3.647210	-95.583293
20560		20.786665	-3.719424	-94.942849
20561		20.709664	-3.791881	-94.299086
20562		20.652636	-3.866635	-93.649393
20563		20.622863	-3.947132	-92.989524
20564		20.628032	-4.023174	-92.319662
20565		20.672561	-4.100873	-91.636091
20566		20.768600	-4.189141	-90.964774
20567		20.917048	-4.289292	-90.305197
20568		21.121210	-4.393020	-89.657876
20569		21.342080	-4.496454	-89.020547
20570		21.550238	-4.600736	-88.396427
20571		21.722229	-4.692878	-87.774607
20572		21.869164	-4.768831	-87.156126
20573		21.979598	-4.833160	-86.530181
20574		22.053031	-4.891932	-85.903384
20575		22.096098	-4.949581	-85.268520
20576		22.123741	-5.006309	-84.637408
20577		22.146839	-5.060117	-84.007087
20578		22.163450	-5.110701	-83.378510
20579		22.163956	-5.159030	-82.744701
20580		22.144338	-5.197112	-82.104603
20581		22.105019	-5.231653	-81.454475
20582		22.057558	-5.263482	-80.794678
20583		22.007471	-5.292684	-80.135746
20584		21.962886	-5.322837	-79.481381
20585		21.940896	-5.354187	-78.834651
20586		21.942718	-5.380059	-78.196134
20587		21.954774	-5.411984	-77.561035
20588		21.970835	-5.441464	-76.923072
20589		21.972342	-5.471122	-76.272014
20590		21.954274	-5.503433	-75.615697
20591		21.920624	-5.533373	-74.954976
20592		21.891222	-5.565557	-74.304705
20593		21.875994	-5.600045	-73.656337
20594		21.863025	-5.636062	-73.005034
20595		21.829198	-5.674892	-72.346534
20596		21.777869	-5.713124	-71.680244
20597		21.719007	-5.743901	-71.002571
20598		21.658231	-5.772667	-70.321343
20599		21.596732	-5.805787	-69.636803
20600		21.546826	-5.840421	-68.955450
20601		21.518910	-5.878547	-68.280102
20602		21.509213	-5.918475	-67.607439
20603		21.497749	-5.963014	-66.932618
20604		21.473944	-6.007442	-66.252236
20605		21.429214	-6.045734	-65.559895
20606		21.365760	-6.073812	-64.860134
20607		21.298140	-6.093623	-64.159900
20608		21.237184	-6.114932	-63.466420
20609		21.199794	-6.137518	-62.784096
20610		21.182596	-6.156257	-62.109669
20611		21.166537	-6.177697	-61.437724
20612		21.131080	-6.191592	-60.762484
20613		21.069997	-6.198181	-60.081437
20614		20.988665	-6.192097	-59.398757
20615		20.903485	-6.187878	-58.714030
20616		20.836266	-6.186329	-58.037899
20617		20.797941	-6.191164	-57.371933
20618		20.782344	-6.186170	-56.711750
20619		20.770069	-6.176427	-56.054872
20620		20.728885	-6.153507	-55.395780
20621		20.671627	-6.110665	-54.729675
20622		20.618432	-6.051888	-54.056355
20623		20.568455	-5.983526	-53.381553
20624		20.550286	-5.911543	-52.708749
20625		20.573385	-5.857522	-52.021326
20626		20.635820	-5.824055	-51.312108
20627		20.736494	-5.802692	-50.582081
20628		20.877296	-5.779495	-49.844959
20629		21.053976	-5.743099	-49.114732
20630		21.268939	-5.704601	-48.408370
20631		21.541879	-5.686692	-47.715496
20632		21.829735	-5.693505	-47.039727
20633		22.053932	-5.701481	-46.363200
20634		22.200708	-5.699456	-45.687394
20635		22.256979	-5.696222	-45.019907
20636		22.217304	-5.685952	-44.359868
20637		22.097398	-5.680850	-43.708363
20638		21.945815	-5.681079	-43.064510
20639		21.798253	-5.686020	-42.426188
20640		21.681280	-5.696958	-41.795737
20641		21.602478	-5.721702	-41.174622
20642		21.529481	-5.753858	-40.560583
20643		21.424985	-5.781009	-39.944936
20644		21.279039	-5.795008	-39.326230
20645		21.082441	-5.803658	-38.713333
20646		20.857091	-5.810902	-38.107301
20647		20.638257	-5.819869	-37.509378
20648		20.423069	-5.837522	-36.924650
20649		20.211131	-5.850440	-36.342832
20650		20.003089	-5.854819	-35.766734
20651		19.778241	-5.850475	-35.198237
20652		19.553956	-5.836378	-34.632819
20653		19.326327	-5.820471	-34.072794
20654		19.103529	-5.798095	-33.519331
20655		18.909510	-5.762572	-32.971873
20656		18.737210	-5.718400	-32.433892
20657		18.573973	-5.688951	-31.905973
20658		18.392001	-5.654633	-31.384669
20659		18.197673	-5.599351	-30.861547
20660		17.980882	-5.521275	-30.342304
20661		17.750971	-5.435125	-29.835706
20662		17.525179	-5.353888	-29.348959
20663		17.310182	-5.278429	-28.876526
20664		17.111339	-5.198321	-28.407586
20665		16.901514	-5.126111	-27.938526
20666		16.653368	-5.056498	-27.472527
20667		16.360682	-4.978683	-27.011069
20668		16.033431	-4.882553	-26.554802
20669		15.676369	-4.779504	-26.105134
20670		15.323461	-4.669955	-25.659752
20671		15.014500	-4.582137	-25.220435
20672		14.743118	-4.524065	-24.793014
20673		14.501213	-4.482142	-24.378514
20674		14.291762	-4.447524	-23.973466
20675		14.086237	-4.414438	-23.579044
20676		13.888455	-4.362609	-23.189474
20677		13.721007	-4.303691	-22.821643
20678		13.610008	-4.249782	-22.476624
20679		13.562921	-4.210745	-22.150804
20680		13.566597	-4.178419	-21.840484
20681		13.573294	-4.153083	-21.542569
20682		13.567079	-4.118512	-21.253416
20683		13.547451	-4.082347	-20.971596
20684		13.517235	-4.042423	-20.698142
20685		13.476096	-3.992637	-20.440381
20686		13.431684	-3.939323	-20.195434
20687		13.381029	-3.886080	-19.969244
20688		13.326452	-3.826200	-19.757262
20689		13.266634	-3.771591	-19.558693
20690		13.194262	-3.710914	-19.366958
20691		13.126539	-3.646335	-19.183984
20692		13.066374	-3.578451	-19.007304
20693		13.016759	-3.509197	-18.842687
20694		12.988875	-3.435982	-18.683630
20695		12.968855	-3.376546	-18.528257
20696		12.929701	-3.322164	-18.372842
20697		12.869099	-3.253553	-18.213459
20698		12.801209	-3.169346	-18.053414
20699		12.725684	-3.093884	-17.900818
20700		12.655193	-3.020047	-17.758143
20701		12.607687	-2.944882	-17.622160
20702		12.574622	-2.868355	-17.487933
20703		12.536605	-2.798676	-17.353620
20704		12.481293	-2.714095	-17.214097
20705		12.402623	-2.634799	-17.072976
20706		12.297145	-2.561479	-16.928561
20707		12.181218	-2.500641	-16.791451
20708		12.069546	-2.439940	-16.658384
20709		11.976140	-2.378316	-16.532316
20710		11.919976	-2.320022	-16.413622
20711		11.902434	-2.269900	-16.310904
20712		11.909858	-2.232561	-16.216165
20713		11.910969	-2.209283	-16.131477
20714		11.897792	-2.188052	-16.051486
20715		11.872337	-2.172373	-15.982362
20716		11.828304	-2.153576	-15.925997
20717		11.767098	-2.131344	-15.882180
20718		11.696758	-2.095789	-15.852609
20719		11.627666	-2.060903	-15.835523
20720		11.562944	-2.029187	-15.835469
20721		11.508570	-2.011015	-15.849079
20722		11.456877	-1.995972	-15.870974
20723		11.413421	-1.990097	-15.899265
20724		11.380393	-1.991440	-15.928071
20725		11.364327	-2.000261	-15.958402
20726		11.371382	-2.010124	-15.985166
20727		11.394848	-2.030948	-16.015089
20728		11.433918	-2.048737	-16.045212
20729		11.482089	-2.067636	-16.084696
20730		11.527092	-2.085551	-16.125537
20731		11.557305	-2.106437	-16.168670
20732		11.567658	-2.122879	-16.207897
20733		11.563155	-2.140569	-16.240479
20734		11.535051	-2.146366	-16.269448
20735		11.490636	-2.144829	-16.293209
20736		11.432383	-2.138710	-16.310376
20737		11.366090	-2.128348	-16.323061
20738		11.307628	-2.115899	-16.329583
20739		11.266683	-2.107227	-16.334266
20740		11.252702	-2.096933	-16.334962
20741		11.273010	-2.094060	-16.336514
20742		11.314584	-2.094290	-16.340789
20743		11.360330	-2.094422	-16.346243
20744		11.394439	-2.093246	-16.350456
20745		11.403942	-2.096627	-16.352762
20746		11.393139	-2.095938	-16.354221
20747		11.368585	-2.096707	-16.357923
20748		11.330168	-2.096377	-16.362182
20749		11.295007	-2.094306	-16.376722
20750		11.266610	-2.091274	-16.403878
20751		11.237473	-2.084600	-16.448618
20752		11.206552	-2.074507	-16.503748
20753		11.161710	-2.058151	-16.572191
20754		11.090362	-2.040032	-16.647721
20755		10.992574	-2.025352	-16.733752
20756		10.873532	-2.011204	-16.824449
20757		10.747029	-2.003839	-16.927773
20758		10.612186	-2.002791	-17.038116
20759		10.486990	-2.004111	-17.163538
20760		10.375454	-2.006969	-17.303022
20761		10.288438	-2.014386	-17.458780
20762		10.223337	-2.021705	-17.621530
20763		10.178856	-2.030214	-17.793415
20764		10.155269	-2.033462	-17.975366
20765		10.145390	-2.040432	-18.170513
20766		10.135701	-2.053344	-18.374725
20767		10.119557	-2.066675	-18.593402
20768		10.083449	-2.080661	-18.815482
20769		10.034921	-2.097373	-19.048498
20770		9.970777	-2.113978	-19.285672
20771		9.902025	-2.131889	-19.526707
20772		9.828760	-2.153642	-19.770145
20773		9.753521	-2.181142	-20.029266
20774		9.683566	-2.212331	-20.296049
20775		9.622339	-2.246243	-20.582069
20776		9.566022	-2.279718	-20.883512
20777		9.522562	-2.308918	-21.191796
20778		9.481241	-2.335217	-21.497609
20779		9.447109	-2.358986	-21.805898
20780		9.432080	-2.385901	-22.115465
20781		9.447396	-2.421269	-22.440080
20782		9.485651	-2.457688	-22.775999
20783		9.544776	-2.500951	-23.128733
20784		9.607338	-2.547711	-23.492797
20785		9.676798	-2.595092	-23.868122
20786		9.744728	-2.634708	-24.246039
20787		9.812488	-2.666103	-24.632017
20788		9.874455	-2.685002	-25.022319
20789		9.933344	-2.701778	-25.418294
20790		9.983646	-2.724448	-25.817917
20791		10.022475	-2.750257	-26.233080
20792		10.054793	-2.772606	-26.649678
20793		10.081205	-2.798253	-27.080609
20794		10.097764	-2.824737	-27.518071
20795		10.117167	-2.850718	-27.965756
20796		10.132358	-2.876046	-28.412270
20797		10.142461	-2.895209	-28.867454
20798		10.144501	-2.908077	-29.330222
20799		10.141601	-2.923289	-29.803683
20800		10.132407	-2.933937	-30.282978
20801		10.127593	-2.941405	-30.774636
20802		10.126150	-2.952409	-31.268555
20803		10.126691	-2.968379	-31.770704
20804		10.124212	-2.980646	-32.278080
20805		10.123336	-3.003347	-32.796364
20806		10.105771	-3.022728	-33.323865
20807		10.068231	-3.041293	-33.869660
20808		9.998256	-3.053272	-34.433031
20809		9.894963	-3.063747	-35.024436
20810		9.750890	-3.065236	-35.637242
20811		9.569780	-3.063916	-36.268162
20812		9.335585	-3.060707	-36.905394
20813		9.051297	-3.054847	-37.552478
20814		8.722718	-3.031528	-38.198494
20815		8.378721	-3.007189	-38.845226
20816		8.036313	-2.976720	-39.492289
20817		7.731377	-2.943421	-40.151085
20818		7.476536	-2.916956	-40.801194
20819		7.276011	-2.904976	-41.441392
20820		7.126776	-2.899422	-42.072690
20821		7.034716	-2.893925	-42.703599
20822		6.997278	-2.889851	-43.340722
20823		7.008576	-2.894729	-43.992980
20824		7.057011	-2.898450	-44.651301
20825		7.141133	-2.905958	-45.323463
20826		7.234921	-2.907863	-45.999514
20827		7.330425	-2.909549	-46.672265
20828		7.404610	-2.921649	-47.330414
20829		7.460517	-2.930513	-47.986206
20830		7.512218	-2.928852	-48.634575
20831		7.573910	-2.936820	-49.288291
20832		7.637236	-2.947101	-49.945423
20833		7.728295	-2.962105	-50.609760
20834		7.837405	-2.977716	-51.272439
20835		7.966303	-2.998845	-51.930648
20836		8.102519	-3.022962	-52.579432
20837		8.239538	-3.050380	-53.221814
20838		8.381866	-3.074137	-53.854947
20839		8.523288	-3.095323	-54.488620
20840		8.666406	-3.117146	-55.114119
20841		8.827495	-3.134769	-55.749836
20842		9.007515	-3.149600	-56.383993
20843		9.203813	-3.168985	-57.027364
20844		9.401230	-3.192716	-57.667768
20845		9.588756	-3.211971	-58.306899
20846		9.741849	-3.226170	-58.938007
20847		9.847073	-3.227185	-59.569104
20848		9.907341	-3.211101	-60.192558
20849		9.941136	-3.181630	-60.825999
20850		9.955077	-3.143639	-61.454839
20851		9.944224	-3.114057	-62.084779
20852		9.883003	-3.075201	-62.707049
20853		9.805816	-3.033246	-63.326735
20854		9.701179	-2.988906	-63.943318
20855		9.601613	-2.937690	-64.567002
20856		9.518060	-2.880481	-65.186699
20857		9.472578	-2.821979	-65.812416
20858		9.453290	-2.775942	-66.434017
20859		9.463991	-2.729183	-67.067876
20860		9.508815	-2.677867	-67.695452
20861		9.586396	-2.633334	-68.325646
20862		9.681002	-2.594110	-68.953152
20863		9.798133	-2.559023	-69.588839
20864		9.923247	-2.524525	-70.222421
20865		10.050721	-2.490349	-70.861042
20866		10.157990	-2.457705	-71.495518
20867		10.251226	-2.415070	-72.133255
20868		10.335740	-2.368447	-72.768513
20869		10.425127	-2.329730	-73.408824
20870		10.509221	-2.295784	-74.046433
20871		10.595573	-2.256337	-74.681280
20872		10.694005	-2.221438	-75.309152
20873		10.816626	-2.193347	-75.933803
20874		10.958437	-2.166275	-76.558639
20875		11.134563	-2.142283	-77.184697
20876		11.344802	-2.129613	-77.805389
20877		11.563091	-2.115148	-78.429900
20878		11.780663	-2.095335	-79.047826
20879		11.997724	-2.083181	-79.662961
20880		12.189054	-2.068980	-80.271376
20881		12.373906	-2.037758	-80.877981
20882		12.570183	-2.005306	-81.480482
20883		12.784128	-1.981793	-82.081585
20884		13.015313	-1.964186	-82.671945
20885		13.268558	-1.959224	-83.256560
20886		13.518409	-1.952133	-83.833625
20887		13.758836	-1.940235	-84.401822
20888		13.969395	-1.925810	-84.961764
20889		14.153838	-1.906661	-85.521908
20890		14.316506	-1.875117	-86.077506
20891		14.472658	-1.845243	-86.634587
20892		14.632549	-1.822309	-87.187968
20893		14.804904	-1.802108	-87.735961
20894		14.991832	-1.773521	-88.269863
20895		15.193361	-1.743819	-88.795116
20896		15.400993	-1.719601	-89.310738
20897		15.609878	-1.696063	-89.822519
20898		15.803816	-1.673960	-90.331001
20899		15.975187	-1.650026	-90.835564
20900		16.126194	-1.613592	-91.332840
20901		16.269065	-1.571571	-91.829691
20902		16.416674	-1.526145	-92.319648
20903		16.581399	-1.488394	-92.807011
20904		16.757380	-1.452846	-93.289291
20905		16.943906	-1.413630	-93.772168
20906		17.146884	-1.367937	-94.252275
20907		17.363683	-1.318474	-94.736793
20908		17.585376	-1.273455	-95.218683
20909		17.805380	-1.230917	-95.698577
20910		18.004270	-1.178867	-96.167502
20911		18.183509	-1.114141	-96.630757
20912		18.338650	-1.037081	-97.080497
20913		18.486643	-0.954896	-97.526999
20914		18.636733	-0.884220	-97.971282
20915		18.766057	-0.808739	-98.412605
20916		18.851046	-0.712397	-98.846800
20917		18.875609	-0.600353	-99.280064
20918		18.817709	-0.477629	-99.709100
20919		18.677091	-0.350574	-100.128637
20920		18.463031	-0.206757	-100.521694
20921		18.207508	-0.041365	-100.894185
20922		17.952748	0.134780	-101.247240
20923		17.741405	0.303177	-101.592481
20924		17.596476	0.463041	-101.939677
20925		17.509492	0.596964	-102.287428
20926		17.472212	0.716537	-102.623629
20927		17.481986	0.832884	-102.951905
20928		17.508669	0.947476	-103.268759
20929		17.528158	1.054953	-103.582507
20930		17.535175	1.161290	-103.895319
20931		17.532560	1.260346	-104.209651
20932		17.519070	1.353506	-104.517538
20933		17.501737	1.444555	-104.815325
20934		17.484187	1.540011	-105.096060
20935		17.474930	1.632514	-105.362327
20936		17.461637	1.723529	-105.614983
20937		17.443029	1.819252	-105.847852
20938		17.417298	1.914129	-106.069716
20939		17.383619	1.997524	-106.296748
20940		17.345993	2.066147	-106.528958
20941		17.311816	2.135337	-106.760413
20942		17.283652	2.214544	-106.984851
20943		17.271814	2.298977	-107.199777
20944		17.274450	2.382581	-107.407628
20945		17.288852	2.465066	-107.613171
20946		17.315808	2.548423	-107.813949
20947		17.354250	2.628362	-108.008642
20948		17.390659	2.702661	-108.193712
20949		17.430023	2.769855	-108.367600
20950		17.482355	2.828012	-108.528579
20951		17.535561	2.882669	-108.681717
20952		17.578822	2.943871	-108.826483
20953		17.625340	3.012743	-108.961468
20954		17.664937	3.082928	-109.089507
20955		17.695781	3.144635	-109.209979
20956		17.734953	3.200888	-109.322392
20957		17.793152	3.260931	-109.428360
20958		17.857334	3.319408	-109.528240
20959		17.929454	3.371642	-109.620820
20960		18.004774	3.409365	-109.706772
20961		18.078305	3.440671	-109.786134
20962		18.145683	3.460276	-109.858987
20963		18.202769	3.479245	-109.927076
20964		18.243174	3.502470	-109.986970
20965		18.272950	3.528672	-110.046378
20966		18.300128	3.556720	-110.101524
20967		18.327657	3.577397	-110.154085
20968		18.361660	3.590226	-110.205434
20969		18.400224	3.599264	-110.256102
20970		18.439738	3.613407	-110.306390
20971		18.480085	3.628452	-110.357468
20972		18.518356	3.640259	-110.409197
20973		18.563940	3.641115	-110.465264
20974		18.611468	3.642245	-110.517163
20975		18.665330	3.646163	-110.560526
20976		18.716482	3.652628	-110.593221
20977		18.762249	3.653285	-110.624543
20978		18.808878	3.648804	-110.654029
20979		18.861840	3.642671	-110.684766
20980		18.921756	3.639488	-110.715517
20981		18.994405	3.632114	-110.755172
20982		19.078617	3.622954	-110.793898
20983		19.170149	3.608976	-110.833378
20984		19.266625	3.594123	-110.873311
20985		19.367440	3.585488	-110.910144
20986		19.454205	3.576989	-110.944937
20987		19.513425	3.570106	-110.975048
20988		19.558088	3.572292	-110.998525
20989		19.599041	3.578607	-111.020297
20990		19.628924	3.580219	-111.046901
20991		19.673481	3.583239	-111.074602
20992		19.728280	3.592247	-111.104207
20993		19.791172	3.602143	-111.138529
20994		19.867309	3.615261	-111.171204
20995		19.959613	3.638813	-111.202251
20996		20.061445	3.661749	-111.228210
20997		20.152000	3.683350	-111.241550
20998		20.215264	3.705932	-111.243804
20999		20.251255	3.741114	-111.231479
21000		20.255488	3.775114	-111.212473
21001		20.227654	3.816151	-111.185399
21002		20.186781	3.855977	-111.155046
21003		20.148695	3.891134	-111.123952
21004		20.116803	3.921720	-111.100165
21005		20.109733	3.947505	-111.083772
21006		20.123338	3.969553	-111.067242
21007		20.151210	3.987419	-111.058488
21008		20.184642	4.001755	-111.055724
21009		20.211996	4.020239	-111.052909
21010		20.226589	4.040852	-111.044817
21011		20.237372	4.058469	-111.035782
21012		20.248038	4.071498	-111.029574
21013		20.252190	4.079667	-111.027633
21014		20.255457	4.094000	-111.020060
21015		20.272022	4.108883	-111.007857
21016		20.296143	4.127697	-110.992645
21017		20.323757	4.143637	-110.981476
21018		20.338058	4.158725	-110.967703
21019		20.352411	4.178108	-110.945192
21020		20.371486	4.201077	-110.915935
21021		20.385760	4.215668	-110.889964
21022		20.386236	4.222689	-110.866402
21023		20.377177	4.235118	-110.838691
21024		20.373510	4.258851	-110.795489
21025		20.374249	4.277346	-110.749758
21026		20.366980	4.280835	-110.704229
21027		20.357155	4.278488	-110.656557
21028		20.354722	4.282033	-110.601650
21029		20.350804	4.286333	-110.542114
21030		20.328251	4.284638	-110.478775
21031		20.298718	4.287015	-110.414194
21032		20.256065	4.301458	-110.343871
21033		20.195974	4.319766	-110.274607
21034		20.116966	4.341028	-110.204263
21035		20.028938	4.359503	-110.129845
21036		19.938452	4.374630	-110.043400
21037		19.844485	4.383593	-109.945429
21038		19.748074	4.391522	-109.828587
21039		19.659139	4.392319	-109.702849
21040		19.580164	4.392043	-109.561556
21041		19.531891	4.382676	-109.410113
21042		19.513780	4.363070	-109.246022
21043		19.517688	4.331284	-109.069469
21044		19.535090	4.289888	-108.883098
21045		19.551440	4.249811	-108.687267
21046		19.547646	4.219152	-108.474467
21047		19.526619	4.192588	-108.243155
21048		19.485663	4.157860	-108.007290
21049		19.424825	4.108053	-107.766117
21050		19.359641	4.055402	-107.517615
21051		19.299781	4.004453	-107.256356
21052		19.246780	3.949248	-106.980897
21053		19.207164	3.880889	-106.697206
21054		19.192441	3.804675	-106.403159
21055		19.197085	3.722865	-106.096501
21056		19.217010	3.634918	-105.785340
21057		19.241963	3.541095	-105.464366
21058		19.275837	3.440447	-105.129609
21059		19.313759	3.336799	-104.781256
21060		19.350008	3.228724	-104.415884
21061		19.380673	3.118582	-104.037307
21062		19.408357	3.012210	-103.635415
21063		19.433832	2.905347	-103.220927
21064		19.458551	2.793596	-102.792397
21065		19.488594	2.672904	-102.349244
21066		19.523716	2.553203	-101.890333
21067		19.558831	2.438157	-101.413223
21068		19.589389	2.328895	-100.917490
21069		19.616601	2.226893	-100.402095
21070		19.647861	2.133373	-99.863095
21071		19.691602	2.036887	-99.311841
21072		19.764275	1.941505	-98.750464
21073		19.880587	1.848027	-98.177113
21074		20.024165	1.757372	-97.596632
21075		20.179019	1.669622	-96.999131
21076		20.320189	1.591294	-96.383526
21077		20.430726	1.525011	-95.742217
21078		20.520953	1.455319	-95.080266
21079		20.598198	1.370235	-94.397820
21080		20.664991	1.274766	-93.706337
21081		20.712768	1.175112	-93.002498
21082		20.738147	1.078011	-92.283152
21083		20.721733	0.983729	-91.551205
21084		20.659181	0.893301	-90.810973
21085		20.559912	0.809826	-90.056697
21086		20.421877	0.724031	-89.293874
21087		20.241185	0.643497	-88.517909
21088		20.026156	0.566826	-87.726606
21089		19.785881	0.496026	-86.917042
21090		19.536282	0.427107	-86.101078
21091		19.294191	0.361923	-85.275114
21092		19.081271	0.291912	-84.451492
21093		18.894047	0.213596	-83.628215
21094		18.731268	0.129448	-82.809799
21095		18.577562	0.045011	-81.989760
21096		18.419024	-0.036784	-81.158441
21097		18.247209	-0.116811	-80.316235
21098		18.069378	-0.201762	-79.464938
21099		17.894949	-0.282768	-78.605735
21100		17.753105	-0.350466	-77.751135
21101		17.669097	-0.420491	-76.910649
21102		17.660682	-0.501848	-76.090257
21103		17.721208	-0.577913	-75.280767
21104		17.816856	-0.657393	-74.475050
21105		17.905215	-0.744925	-73.651965
21106		17.983470	-0.838394	-72.808319
21107		18.042765	-0.930400	-71.944623
21108		18.089058	-1.018175	-71.075696
21109		18.138516	-1.102281	-70.213870
21110		18.215332	-1.193051	-69.365848
21111		18.315039	-1.299142	-68.535802
21112		18.438555	-1.406642	-67.727817
21113		18.563960	-1.518438	-66.928788
21114		18.660984	-1.631603	-66.122736
21115		18.693059	-1.735655	-65.304561
21116		18.657812	-1.836229	-64.478531
21117		18.573302	-1.938513	-63.641582
21118		18.469199	-2.035733	-62.797015
21119		18.370335	-2.127492	-61.952530
21120		18.297914	-2.229445	-61.129342
21121		18.254718	-2.342185	-60.319694
21122		18.243723	-2.459271	-59.520690
21123		18.250530	-2.574324	-58.725072
21124		18.254142	-2.684608	-57.928142
21125		18.225551	-2.790960	-57.133975
21126		18.152048	-2.890144	-56.347530
21127		18.026129	-2.978489	-55.559418
21128		17.866162	-3.048261	-54.773293
21129		17.685617	-3.111778	-53.984136
21130		17.510752	-3.180796	-53.202488
21131		17.359357	-3.257342	-52.431739
21132		17.240784	-3.339818	-51.674539
21133		17.144547	-3.413423	-50.926421
21134		17.067115	-3.474546	-50.182158
21135		16.988308	-3.533739	-49.442417
21136		16.888052	-3.588895	-48.704359
21137		16.767384	-3.637929	-47.969003
21138		16.623686	-3.678901	-47.242482
21139		16.442227	-3.709391	-46.519191
21140		16.235380	-3.725351	-45.797037
21141		16.015134	-3.737144	-45.082715
21142		15.811314	-3.747127	-44.378898
21143		15.637342	-3.759015	-43.688094
21144		15.481095	-3.766385	-43.012648
21145		15.337660	-3.765531	-42.349536
21146		15.209251	-3.757164	-41.694610
21147		15.087176	-3.745103	-41.047811
21148		14.967591	-3.720384	-40.399429
21149		14.846582	-3.680715	-39.751087
21150		14.744426	-3.631879	-39.112698
21151		14.671402	-3.570067	-38.486219
21152		14.650015	-3.501494	-37.883131
21153		14.683036	-3.438053	-37.314820
21154		14.750490	-3.393624	-36.779467
21155		14.799350	-3.355982	-36.263308
21156		14.792607	-3.306870	-35.761064
21157		14.728222	-3.243422	-35.271137
21158		14.617118	-3.169458	-34.798289
21159		14.488851	-3.092330	-34.343782
21160		14.367235	-3.009053	-33.906365
21161		14.269845	-2.920240	-33.490634
21162		14.212755	-2.834893	-33.082600
21163		14.176447	-2.767106	-32.676701
21164		14.148255	-2.703969	-32.266404
21165		14.125978	-2.641626	-31.856505
21166		14.115000	-2.578371	-31.443529
21167		14.102329	-2.511245	-31.038168
21168		14.103300	-2.436009	-30.649986
21169		14.126812	-2.364447	-30.275604
21170		14.159462	-2.307106	-29.905666
21171		14.186729	-2.257247	-29.533656
21172		14.211327	-2.195805	-29.162014
21173		14.216082	-2.136147	-28.785690
21174		14.174747	-2.086056	-28.408002
21175		14.109223	-2.030306	-28.031890
21176		14.052873	-1.960923	-27.663222
21177		14.006401	-1.890188	-27.298466
21178		13.961373	-1.825405	-26.932880
21179		13.925700	-1.770979	-26.567537
21180		13.881802	-1.721395	-26.197619
21181		13.821705	-1.669276	-25.826588
21182		13.743363	-1.611473	-25.453188
21183		13.643382	-1.548123	-25.079444
21184		13.533829	-1.484639	-24.708563
21185		13.420704	-1.413711	-24.338236
21186		13.323081	-1.333056	-23.969182
21187		13.239611	-1.258189	-23.610983
21188		13.158881	-1.205963	-23.264225
21189		13.076609	-1.174026	-22.925035
21190		13.007180	-1.136160	-22.597398
21191		12.966358	-1.081614	-22.285712
21192		12.933028	-1.018742	-21.994688
21193		12.890430	-0.944435	-21.721830
21194		12.848827	-0.861876	-21.461515
21195		12.793758	-0.788559	-21.210492
21196		12.724868	-0.711690	-20.965594
21197		12.656965	-0.625545	-20.729258
21198		12.585111	-0.539701	-20.494034
21199		12.521011	-0.461417	-20.262566
21200		12.483634	-0.387676	-20.033815
21201		12.489512	-0.312000	-19.819156
21202		12.513216	-0.243024	-19.614573
21203		12.536835	-0.170179	-19.424235
21204		12.569771	-0.093308	-19.244619
21205		12.594733	-0.032772	-19.076205
21206		12.591827	0.018008	-18.913927
21207		12.572931	0.076716	-18.761993
21208		12.541956	0.147661	-18.614214
21209		12.504173	0.218365	-18.474212
21210		12.476984	0.287784	-18.338651
21211		12.475272	0.360077	-18.211801
21212		12.492100	0.424938	-18.093312
21213		12.509523	0.480679	-17.987812
21214		12.514880	0.536608	-17.886652
21215		12.508259	0.597465	-17.791723
21216		12.498811	0.651291	-17.697916
21217		12.487536	0.696583	-17.611123
21218		12.482195	0.741104	-17.528990
21219		12.487756	0.781571	-17.454103
21220		12.504065	0.819698	-17.385636
21221		12.522411	0.846663	-17.319871
21222		12.531858	0.867382	-17.259664
21223		12.539914	0.885493	-17.205238
21224		12.543768	0.910807	-17.154560
21225		12.553271	0.936260	-17.113043
21226		12.569602	0.962784	-17.083829
21227		12.595375	0.986201	-17.065392
21228		12.616450	1.004764	-17.048803
21229		12.619419	1.014019	-17.034687
21230		12.597804	1.025615	-17.016089
21231		12.562474	1.044523	-16.998681
21232		12.516092	1.075052	-16.982831
21233		12.469340	1.105029	-16.975120
21234		12.427601	1.133948	-16.977640
21235		12.398153	1.164835	-16.989531
21236		12.377342	1.188914	-17.008211
21237		12.362663	1.201327	-17.031778
21238		12.351612	1.212964	-17.048415
21239		12.350122	1.222560	-17.059474
21240		12.353258	1.228178	-17.062866
21241		12.367459	1.227945	-17.066469
21242		12.400317	1.226975	-17.072410
21243		12.449449	1.222113	-17.083109
21244		12.505501	1.216380	-17.094363
21245		12.561294	1.207719	-17.101390
21246		12.593132	1.200125	-17.106485
21247		12.590387	1.197623	-17.109813
21248		12.559359	1.203474	-17.108961
21249		12.507947	1.207208	-17.110864
21250		12.448112	1.211863	-17.114930
21251		12.394458	1.215400	-17.121052
21252		12.357779	1.220346	-17.125135
21253		12.345836	1.220716	-17.128003
21254		12.348267	1.221130	-17.132187
21255		12.363618	1.216954	-17.135624
21256		12.386599	1.213946	-17.139753
21257		12.411056	1.210711	-17.148799
21258		12.424831	1.209340	-17.158399
21259		12.428656	1.212880	-17.170245
21260		12.423837	1.215057	-17.179473
21261		12.402006	1.221311	-17.187076
21262		12.366022	1.230792	-17.187794
21263		12.329198	1.236700	-17.191225
21264		12.296240	1.245083	-17.197381
21265		12.281695	1.250909	-17.210023
21266		12.294160	1.253093	-17.227545
21267		12.324110	1.251823	-17.249196
21268		12.362398	1.249914	-17.271126
21269		12.398951	1.246420	-17.295400
21270		12.426413	1.242696	-17.323046
21271		12.440807	1.236267	-17.359409
21272		12.434793	1.237585	-17.402447
21273		12.422097	1.237859	-17.452847
21274		12.405278	1.239148	-17.511868
21275		12.393653	1.240587	-17.576457
21276		12.390461	1.243485	-17.644610
21277		12.400197	1.240216	-17.718517
21278		12.413793	1.235224	-17.797291
21279		12.422911	1.227961	-17.879627
21280		12.429895	1.222894	-17.968047
21281		12.434228	1.215014	-18.067035
21282		12.435193	1.210822	-18.174881
21283		12.433003	1.207477	-18.292445
21284		12.419921	1.201305	-18.418600
21285		12.408686	1.191434	-18.549739
21286		12.399605	1.188083	-18.682773
21287		12.395265	1.178401	-18.816665
21288		12.383374	1.164983	-18.951929
21289		12.371842	1.145528	-19.099137
21290		12.361346	1.131027	-19.256190
21291		12.359082	1.116395	-19.424888
21292		12.353410	1.101232	-19.606240
21293		12.352865	1.084633	-19.799924
21294		12.354281	1.074359	-20.001411
21295		12.360911	1.070093	-20.214271
21296		12.363366	1.056672	-20.430008
21297		12.361615	1.037323	-20.651563
21298		12.354021	1.018217	-20.879049
21299		12.345645	0.992665	-21.121312
21300		12.332627	0.965480	-21.379758
21301		12.330223	0.939359	-21.660448
21302		12.338433	0.913005	-21.959844
21303		12.355738	0.884196	-22.280324
21304		12.373754	0.854236	-22.607538
21305		12.376846	0.819445	-22.941037
21306		12.362761	0.780212	-23.277827
21307		12.348458	0.742681	-23.629852
21308		12.347878	0.706582	-23.998846
21309		12.374513	0.666564	-24.393804
21310		12.422593	0.617592	-24.801570
21311		12.496625	0.565682	-25.224558
21312		12.583840	0.506218	-25.655469
21313		12.665677	0.441249	-26.092629
21314		12.724267	0.376023	-26.534394
21315		12.761808	0.309543	-26.984716
21316		12.767951	0.249342	-27.444008
21317		12.758501	0.189341	-27.922687
21318		12.748984	0.125244	-28.419236
21319		12.746244	0.060314	-28.932262
21320		12.750061	-0.015132	-29.455087
21321		12.756541	-0.093175	-29.982040
21322		12.752449	-0.173714	-30.511856
21323		12.746025	-0.257431	-31.047995
21324		12.733955	-0.343397	-31.593049
21325		12.725041	-0.431239	-32.151659
21326		12.715445	-0.516725	-32.724989
21327		12.724617	-0.600470	-33.319857
21328		12.743757	-0.690558	-33.927711
21329		12.765573	-0.784504	-34.549475
21330		12.771992	-0.876924	-35.177277
21331		12.765288	-0.965057	-35.814475
21332		12.743163	-1.054396	-36.460840
21333		12.720558	-1.148127	-37.124369
21334		12.700831	-1.238554	-37.802736
21335		12.710070	-1.330335	-38.503570
21336		12.743471	-1.428810	-39.218486
21337		12.791891	-1.535573	-39.946598
21338		12.840202	-1.646426	-40.676437
21339		12.891570	-1.757849	-41.414756
21340		12.936522	-1.869083	-42.159221
21341		12.988492	-1.980760	-42.918920
21342		13.047243	-2.080897	-43.693432
21343		13.126512	-2.178208	-44.487768
21344		13.219065	-2.276828	-45.293411
21345		13.325822	-2.375428	-46.107641
21346		13.431594	-2.473224	-46.920145
21347		13.533909	-2.571994	-47.736938
21348		13.612199	-2.666955	-48.556235
21349		13.677179	-2.753049	-49.385701
21350		13.739789	-2.841853	-50.215286
21351		13.825252	-2.932922	-51.050530
21352		13.920277	-3.022820	-51.883427
21353		14.044109	-3.114169	-52.720681
21354		14.193751	-3.215579	-53.553672
21355		14.359049	-3.316825	-54.390564
21356		14.524950	-3.416883	-55.217880
21357		14.698439	-3.510376	-56.050269
21358		14.868723	-3.606829	-56.873484
21359		15.045486	-3.704708	-57.701834
21360		15.221906	-3.804168	-58.525478
21361		15.398979	-3.900733	-59.353634
21362		15.558503	-3.988933	-60.174402
21363		15.704307	-4.071989	-60.995749
21364		15.819316	-4.147199	-61.804763
21365		15.894953	-4.213443	-62.611589
21366		15.923893	-4.266995	-63.410645
21367		15.935458	-4.319008	-64.212565
21368		15.949839	-4.367048	-65.016397
21369		15.986009	-4.409857	-65.823410
21370		16.052023	-4.451317	-66.633106
21371		16.163364	-4.491120	-67.455128
21372		16.328179	-4.522514	-68.281952
21373		16.571634	-4.544377	-69.107399
21374		16.878699	-4.572537	-69.922681
21375		17.232786	-4.614159	-70.732793
21376		17.617190	-4.665791	-71.532575
21377		18.036820	-4.718998	-72.315327
21378		18.483726	-4.771421	-73.083473
21379		18.954010	-4.820914	-73.844929
21380		19.438049	-4.868690	-74.588958
21381		19.925205	-4.907732	-75.324291
21382		20.409614	-4.944426	-76.048700
21383		20.890611	-4.978767	-76.765214
21384		21.352129	-5.005671	-77.460956
21385		21.781862	-5.025119	-78.146405
21386		22.161402	-5.039415	-78.818598
21387		22.481564	-5.034951	-79.481453
21388		22.747469	-5.007177	-80.125292
21389		22.972211	-4.971547	-80.751282
21390		23.150266	-4.933778	-81.359298
21391		23.291534	-4.890832	-81.955753
21392		23.415211	-4.837618	-82.543999
21393		23.543061	-4.773236	-83.134101
21394		23.690070	-4.702584	-83.726144
21395		23.877742	-4.633714	-84.329018
21396		24.092874	-4.565374	-84.938471
21397		24.332598	-4.499397	-85.553096
21398		24.565040	-4.438130	-86.173923
21399		24.775808	-4.373345	-86.809716
21400		24.956439	-4.300127	-87.442654
21401		25.106078	-4.219897	-88.074607
21402		25.206265	-4.134853	-88.700669
21403		25.256357	-4.045457	-89.313660
21404		25.263175	-3.959931	-89.913424
21405		25.235418	-3.875482	-90.510021
21406		25.174705	-3.792740	-91.101330
21407		25.086930	-3.706558	-91.687779
21408		24.975024	-3.610971	-92.258487
21409		24.855578	-3.519562	-92.818575
21410		24.734977	-3.442833	-93.364590
21411		24.626106	-3.371745	-93.899369
21412		24.538677	-3.303010	-94.423436
21413		24.480483	-3.229944	-94.948229
21414		24.456326	-3.149360	-95.470349
21415		24.478537	-3.071022	-95.991712
21416		24.521655	-2.999155	-96.508431
21417		24.570873	-2.921908	-97.009903
21418		24.623710	-2.849014	-97.496292
21419		24.679760	-2.778063	-97.972156
21420		24.753783	-2.707169	-98.437096
21421		24.862165	-2.641339	-98.898181
21422		24.996566	-2.578148	-99.349334
21423		25.145068	-2.515296	-99.786165
21424		25.276462	-2.448475	-100.207329
21425		25.384784	-2.374459	-100.602897
21426		25.481225	-2.302379	-100.975030
21427		25.573100	-2.240258	-101.331413
21428		25.643075	-2.180987	-101.672601
21429		25.699058	-2.113173	-102.001716
21430		25.754807	-2.049778	-102.322396
21431		25.817609	-1.986596	-102.641805
21432		25.894718	-1.921958	-102.951166
21433		25.989970	-1.855297	-103.252512
21434		26.097209	-1.782680	-103.542250
21435		26.218494	-1.705559	-103.822437
21436		26.357605	-1.633817	-104.094765
21437		26.505544	-1.571986	-104.365972
21438		26.628456	-1.516421	-104.630371
21439		26.722027	-1.458583	-104.877987
21440		26.796818	-1.404751	-105.115397
21441		26.863854	-1.352862	-105.347798
21442		26.925309	-1.301608	-105.576619
21443		26.990466	-1.244841	-105.802819
21444		27.078036	-1.187257	-106.026636
21445		27.186006	-1.132976	-106.253755
21446		27.296972	-1.074371	-106.480008
21447		27.402718	-1.017974	-106.700750
21448		27.497075	-0.969049	-106.911712
21449		27.570011	-0.919427	-107.116675
21450		27.622118	-0.871938	-107.310308
21451		27.659623	-0.826305	-107.494934
21452		27.683695	-0.779065	-107.669354
21453		27.700635	-0.721931	-107.839839
21454		27.729571	-0.653198	-108.002524
21455		27.784134	-0.565933	-108.158818
21456		27.864083	-0.482771	-108.308479
21457		27.960430	-0.415046	-108.444144
21458		28.072760	-0.358143	-108.563773
21459		28.186922	-0.307107	-108.666786
21460		28.272564	-0.262976	-108.758279
21461		28.310931	-0.217518	-108.838962
21462		28.312188	-0.172299	-108.916087
21463		28.294961	-0.118973	-108.985816
21464		28.272180	-0.063052	-109.054972
21465		28.253304	-0.003747	-109.124704
21466		28.259808	0.052813	-109.191671
21467		28.302597	0.104642	-109.257666
21468		28.374629	0.146894	-109.327191
21469		28.461505	0.174471	-109.409974
21470		28.545675	0.196590	-109.495109
21471		28.625212	0.224603	-109.580712
21472		28.696986	0.249243	-109.662665
21473		28.765512	0.268543	-109.744219
21474		28.841763	0.282067	-109.825989
21475		28.923015	0.289047	-109.911120
21476		28.999111	0.292670	-109.996131
21477		29.067024	0.294106	-110.079860
21478		29.130558	0.297144	-110.159679
21479		29.198749	0.300457	-110.236438
21480		29.262018	0.297418	-110.321504
21481		29.325705	0.292433	-110.416139
21482		29.387005	0.287295	-110.516130
21483		29.441503	0.289854	-110.615383
21484		29.490341	0.291846	-110.710198
21485		29.540276	0.301251	-110.796540
21486		29.595336	0.311813	-110.878458
21487		29.666817	0.321621	-110.962945
21488		29.749720	0.324837	-111.049714
21489		29.846120	0.321024	-111.135716
21490		29.962716	0.313973	-111.216965
21491		30.091804	0.303998	-111.291542
21492		30.212560	0.293738	-111.364125
21493		30.305080	0.282562	-111.430017
21494		30.376388	0.272331	-111.491543
21495		30.418610	0.271197	-111.544548
21496		30.433659	0.273861	-111.593883
21497		30.438022	0.286517	-111.637932
21498		30.440510	0.307792	-111.680244
21499		30.447716	0.331405	-111.723533
21500		30.454962	0.347304	-111.763758
21501		30.472650	0.358447	-111.803358
21502		30.497142	0.365903	-111.844687
21503		30.530466	0.370708	-111.886345
21504		30.559290	0.377079	-111.923979
21505		30.585168	0.384747	-111.955237
21506		30.597195	0.395040	-111.978114
21507		30.592821	0.408979	-111.994956
21508		30.580210	0.430258	-112.001487
21509		30.566992	0.455772	-111.997760
21510		30.546775	0.478504	-111.988942
21511		30.526920	0.498952	-111.979599
21512		30.508993	0.524601	-111.962681
21513		30.488589	0.552477	-111.934598
21514		30.472439	0.580423	-111.889297
21515		30.462127	0.609142	-111.833564
21516		30.453648	0.632299	-111.776571
21517		30.440867	0.650282	-111.728880
21518		30.419493	0.667729	-111.675141
21519		30.389285	0.689592	-111.610342
21520		30.354284	0.717655	-111.532082
21521		30.320025	0.744023	-111.448641
21522		30.288537	0.766186	-111.363841
21523		30.265686	0.790286	-111.281871
21524		30.258554	0.817832	-111.183142
21525		30.267744	0.846074	-111.075623
21526		30.285180	0.864173	-110.964450
21527		30.295996	0.877053	-110.854305
21528		30.302754	0.885489	-110.745844
21529		30.301228	0.891656	-110.637038
21530		30.294427	0.894594	-110.522727
21531		30.290547	0.894396	-110.405737
21532		30.294699	0.884280	-110.283900
21533		30.304606	0.867983	-110.157148
21534		30.324875	0.846203	-110.016886
21535		30.350263	0.823218	-109.870881
21536		30.377027	0.796158	-109.716428
21537		30.395538	0.772448	-109.555504
21538		30.397835	0.750891	-109.385132
21539		30.376833	0.733751	-109.203621
21540		30.333552	0.715522	-109.008628
21541		30.269769	0.694125	-108.802118
21542		30.198334	0.663459	-108.584905
21543		30.129458	0.632093	-108.353769
21544		30.076410	0.595529	-108.105504
21545		30.030491	0.554154	-107.842421
21546		29.986477	0.514506	-107.566624
21547		29.954481	0.475333	-107.271987
21548		29.927753	0.423595	-106.962974
21549		29.902602	0.364737	-106.641085
21550		29.880198	0.298931	-106.306893
21551		29.852961	0.223789	-105.959730
21552		29.812551	0.141111	-105.598503
21553		29.752514	0.057669	-105.221370
21554		29.675534	-0.030876	-104.826433
21555		29.581851	-0.121385	-104.416720
21556		29.474738	-0.219444	-103.991135
21557		29.365004	-0.321063	-103.553048
21558		29.261456	-0.428520	-103.103831
21559		29.159583	-0.541169	-102.644024
21560		29.068902	-0.651649	-102.171898
21561		28.991090	-0.767380	-101.690141
21562		28.924932	-0.888791	-101.202165
21563		28.862726	-1.009390	-100.699922
21564		28.803643	-1.130138	-100.184279
21565		28.733920	-1.252556	-99.647064
21566		28.644527	-1.375665	-99.084903
21567		28.510137	-1.500641	-98.500867
21568		28.331144	-1.623417	-97.904530
21569		28.119167	-1.742757	-97.295381
21570		27.894631	-1.861548	-96.679243
21571		27.658085	-1.979334	-96.047470
21572		27.418259	-2.095780	-95.401600
21573		27.169546	-2.204344	-94.736429
21574		26.904960	-2.304071	-94.054651
21575		26.626310	-2.395375	-93.362914
21576		26.345739	-2.488434	-92.668691
21577		26.069216	-2.580712	-91.974560
21578		25.808905	-2.680632	-91.277752
21579		25.555307	-2.794646	-90.582179
21580		25.292020	-2.904554	-89.889244
21581		25.012511	-3.005772	-89.195664
21582		24.717822	-3.095372	-88.504765
21583		24.409874	-3.180171	-87.814129
21584		24.096520	-3.266702	-87.116323
21585		23.779790	-3.355214	-86.411625
21586		23.480537	-3.447310	-85.695115
21587		23.222284	-3.543674	-84.977082
21588		23.008118	-3.649766	-84.261849
21589		22.815480	-3.755427	-83.551306
21590		22.647511	-3.855095	-82.848236
21591		22.487305	-3.949424	-82.139634
21592		22.312375	-4.034304	-81.426090
21593		22.104886	-4.117946	-80.702053
21594		21.857153	-4.196242	-79.972456
21595		21.564400	-4.266515	-79.232918
21596		21.248626	-4.336676	-78.490940
21597		20.937396	-4.407899	-77.747757
21598		20.647617	-4.480158	-77.005381
21599		20.384451	-4.554949	-76.260126
21600		20.152496	-4.629407	-75.512462
21601		19.952786	-4.702433	-74.758476
21602		19.789722	-4.769718	-74.011696
21603		19.673623	-4.838389	-73.268098
21604		19.603675	-4.911423	-72.532848
21605		19.563628	-4.983324	-71.802119
21606		19.542899	-5.056049	-71.073684
21607		19.520323	-5.125097	-70.347029
21608		19.482040	-5.191501	-69.624902
21609		19.421820	-5.250737	-68.906903
21610		19.336961	-5.295141	-68.194559
21611		19.227041	-5.332754	-67.489573
21612		19.098383	-5.370666	-66.786694
21613		18.940972	-5.404095	-66.083920
21614		18.767700	-5.429840	-65.375436
21615		18.587779	-5.454065	-64.660015
21616		18.409309	-5.478996	-63.952877
21617		18.251129	-5.502633	-63.250274
21618		18.127471	-5.530478	-62.550716
21619		18.014020	-5.554468	-61.844550
21620		17.917662	-5.577280	-61.128321
21621		17.842479	-5.606711	-60.415086
21622		17.784007	-5.642854	-59.709905
21623		17.749040	-5.679024	-59.004791
21624		17.706231	-5.705469	-58.291568
21625		17.643048	-5.732205	-57.571229
21626		17.570505	-5.760764	-56.837218
21627		17.493984	-5.781937	-56.089700
21628		17.423376	-5.799793	-55.343463
21629		17.369738	-5.828852	-54.620970
21630		17.318488	-5.853316	-53.914837
21631		17.267318	-5.867593	-53.210125
21632		17.184842	-5.879536	-52.505333
21633		17.052892	-5.889519	-51.794388
21634		16.892371	-5.890133	-51.083751
21635		16.725348	-5.884787	-50.386767
21636		16.561343	-5.870170	-49.716924
21637		16.405313	-5.839608	-49.076928
21638		16.248029	-5.806774	-48.466607
21639		16.049156	-5.774191	-47.876370
21640		15.782515	-5.735588	-47.302003
21641		15.448087	-5.689347	-46.724155
21642		15.049307	-5.634939	-46.138235
21643		14.604738	-5.565950	-45.548713
21644		14.158698	-5.496314	-44.959140
21645		13.747872	-5.428747	-44.377607
21646		13.392865	-5.369305	-43.804229
21647		13.101406	-5.321931	-43.248295
21648		12.864911	-5.282805	-42.703517
21649		12.670083	-5.240201	-42.168824
21650		12.502700	-5.195792	-41.635309
21651		12.340827	-5.152144	-41.100807
21652		12.163043	-5.102032	-40.561235
21653		11.969063	-5.055941	-40.010526
21654		11.759089	-5.009564	-39.452392
21655		11.549438	-4.956969	-38.888102
21656		11.360243	-4.914873	-38.322940
21657		11.182146	-4.880787	-37.758644
21658		11.023299	-4.849737	-37.193264
21659		10.897379	-4.822029	-36.628874
21660		10.799802	-4.798332	-36.067184
21661		10.727726	-4.772499	-35.513059
21662		10.691873	-4.755329	-34.969164
21663		10.683151	-4.736762	-34.444797
21664		10.696477	-4.708204	-33.940198
21665		10.716904	-4.673625	-33.447851
21666		10.708342	-4.622952	-32.957689
21667		10.665285	-4.545114	-32.469322
21668		10.587544	-4.459803	-31.987930
21669		10.470168	-4.369874	-31.509034
21670		10.314582	-4.266418	-31.045808
21671		10.115850	-4.165484	-30.607013
21672		9.852719	-4.061079	-30.191697
21673		9.544232	-3.948915	-29.800819
21674		9.211146	-3.833446	-29.427437
21675		8.872232	-3.734202	-29.070210
21676		8.548642	-3.654138	-28.724400
21677		8.265743	-3.590201	-28.395402
21678		8.051894	-3.543999	-28.076818
21679		7.924705	-3.508977	-27.777356
21680		7.891572	-3.477006	-27.492057
21681		7.935599	-3.447370	-27.221875
21682		8.026296	-3.420473	-26.953446
21683		8.133501	-3.399455	-26.689658
21684		8.246251	-3.384026	-26.435325
21685		8.359292	-3.375274	-26.187819
21686		8.442131	-3.373334	-25.939139
21687		8.474623	-3.371092	-25.687158
21688		8.468017	-3.358693	-25.434052
21689		8.445318	-3.339701	-25.182710
21690		8.431220	-3.322142	-24.935902
21691		8.435721	-3.305108	-24.697662
21692		8.463863	-3.292000	-24.465843
21693		8.504016	-3.284831	-24.232427
21694		8.537885	-3.273417	-23.992626
21695		8.571521	-3.256264	-23.742757
21696		8.609148	-3.237445	-23.489220
21697		8.657677	-3.216981	-23.238166
21698		8.717702	-3.204756	-22.988071
21699		8.775208	-3.196849	-22.741037
21700		8.833117	-3.191242	-22.493101
21701		8.889663	-3.192831	-22.243675
21702		8.932737	-3.194808	-21.991075
21703		8.956917	-3.185995	-21.734389
21704		8.962072	-3.175347	-21.471499
21705		8.951952	-3.164090	-21.209131
21706		8.936000	-3.152976	-20.943616
21707		8.920491	-3.151962	-20.676324
21708		8.910792	-3.160267	-20.409220
21709		8.898208	-3.167511	-20.143318
21710		8.882938	-3.159603	-19.881418
21711		8.865315	-3.149017	-19.625617
21712		8.852030	-3.141900	-19.366945
21713		8.839037	-3.139001	-19.110893
21714		8.817427	-3.128960	-18.856982
21715		8.774878	-3.105646	-18.602639
21716		8.703652	-3.077591	-18.352039
21717		8.604044	-3.043265	-18.106983
21718		8.479477	-2.991389	-17.864837
21719		8.335515	-2.938001	-17.625451
21720		8.185209	-2.885197	-17.391440
21721		8.044323	-2.831695	-17.166840
21722		7.919786	-2.776097	-16.948494
21723		7.814419	-2.718897	-16.736808
21724		7.721431	-2.657831	-16.531927
21725		7.645813	-2.599432	-16.331523
21726		7.589284	-2.543310	-16.138202
21727		7.554082	-2.500912	-15.952413
21728		7.539689	-2.463843	-15.773514
21729		7.540752	-2.431035	-15.602403
21730		7.542864	-2.390993	-15.439510
21731		7.557267	-2.348757	-15.289617
21732		7.578800	-2.312655	-15.155137
21733		7.584677	-2.287882	-15.038886
21734		7.578577	-2.261683	-14.927189
21735		7.568830	-2.232122	-14.822609
21736		7.553203	-2.197882	-14.721484
21737		7.529708	-2.166435	-14.622903
21738		7.497852	-2.139547	-14.531764
21739		7.468653	-2.107949	-14.455212
21740		7.453021	-2.072819	-14.393820
21741		7.459057	-2.042372	-14.351720
21742		7.484814	-2.013610	-14.323090
21743		7.523666	-1.983649	-14.299675
21744		7.570681	-1.947932	-14.280487
21745		7.619521	-1.902699	-14.271263
21746		7.663333	-1.858225	-14.275676
21747		7.696958	-1.814666	-14.295297
21748		7.723716	-1.777152	-14.317689
21749		7.733997	-1.742609	-14.333276
21750		7.703660	-1.706910	-14.330792
21751		7.641399	-1.663105	-14.318751
21752		7.550689	-1.620102	-14.302209
21753		7.446888	-1.589175	-14.304344
21754		7.354673	-1.563990	-14.332371
21755		7.307459	-1.541100	-14.381048
21756		7.289991	-1.526108	-14.435281
21757		7.285482	-1.516284	-14.489839
21758		7.293848	-1.511759	-14.537989
21759		7.327673	-1.513673	-14.582423
21760		7.372078	-1.525182	-14.627534
21761		7.427282	-1.544571	-14.681578
21762		7.495805	-1.566521	-14.743574
21763		7.574501	-1.593994	-14.807474
21764		7.643345	-1.617371	-14.865289
21765		7.694995	-1.634518	-14.922751
21766		7.717782	-1.645325	-14.974876
21767		7.700702	-1.656307	-15.025188
21768		7.643558	-1.661971	-15.078337
21769		7.561087	-1.670944	-15.132263
21770		7.473130	-1.680356	-15.193702
21771		7.408239	-1.689292	-15.263564
21772		7.373204	-1.700006	-15.343256
21773		7.359093	-1.716584	-15.431805
21774		7.360161	-1.733014	-15.528848
21775		7.377517	-1.749999	-15.626720
21776		7.393956	-1.762861	-15.734212
21777		7.408751	-1.775576	-15.848905
21778		7.421413	-1.785804	-15.961555
21779		7.440386	-1.799200	-16.080541
21780		7.456493	-1.816316	-16.206433
21781		7.476928	-1.831281	-16.337698
21782		7.507810	-1.848465	-16.472707
21783		7.548827	-1.867638	-16.612711
21784		7.595752	-1.891027	-16.759842
21785		7.657174	-1.915746	-16.914380
21786		7.728092	-1.936769	-17.074093
21787		7.804058	-1.956780	-17.235022
21788		7.866079	-1.976574	-17.400188
21789		7.920043	-1.990284	-17.570220
21790		7.984000	-2.005082	-17.745974
21791		8.061601	-2.021796	-17.930207
21792		8.137113	-2.043999	-18.120314
21793		8.214058	-2.069360	-18.308366
21794		8.286834	-2.093219	-18.491676
21795		8.343689	-2.106716	-18.674390
21796		8.375987	-2.106544	-18.857063
21797		8.400821	-2.107037	-19.044628
21798		8.431204	-2.114947	-19.247675
21799		8.482308	-2.116855	-19.471683
21800		8.540425	-2.121213	-19.706986
21801		8.587008	-2.133416	-19.952394
21802		8.607862	-2.148006	-20.202600
21803		8.604918	-2.151089	-20.460484
21804		8.571130	-2.146087	-20.722293
21805		8.514571	-2.138647	-20.992991
21806		8.447513	-2.130020	-21.278218
21807		8.405371	-2.126792	-21.586322
21808		8.392928	-2.139017	-21.908929
21809		8.407938	-2.160241	-22.244445
21810		8.445583	-2.186519	-22.585967
21811		8.508379	-2.212055	-22.940455
21812		8.587755	-2.231089	-23.304570
21813		8.691437	-2.243766	-23.685427
21814		8.806024	-2.248718	-24.085202
21815		8.942056	-2.244379	-24.508248
21816		9.090824	-2.235315	-24.946403
21817		9.250309	-2.225903	-25.399177
21818		9.404334	-2.217074	-25.855312
21819		9.541355	-2.209520	-26.308147
21820		9.633245	-2.206267	-26.754460
21821		9.670239	-2.198969	-27.198521
21822		9.669709	-2.184127	-27.648317
21823		9.659083	-2.168936	-28.117531
21824		9.654762	-2.153939	-28.596812
21825		9.682567	-2.144452	-29.090274
21826		9.751143	-2.142720	-29.586509
21827		9.869072	-2.144320	-30.094962
21828		10.025130	-2.144791	-30.614686
21829		10.211474	-2.151229	-31.148003
21830		10.404382	-2.167477	-31.693286
21831		10.592222	-2.190445	-32.251730
21832		10.759104	-2.211089	-32.808984
21833		10.910602	-2.235224	-33.369082
21834		11.037189	-2.265403	-33.922767
21835		11.147282	-2.295980	-34.475335
21836		11.254201	-2.329528	-35.024505
21837		11.375742	-2.369075	-35.584855
21838		11.512991	-2.427318	-36.160596
21839		11.674374	-2.485848	-36.760258
21840		11.878587	-2.541299	-37.375508
21841		12.149073	-2.593760	-38.003802
21842		12.445942	-2.644260	-38.627740
21843		12.745959	-2.705061	-39.247466
21844		13.014915	-2.776109	-39.859779
21845		13.231171	-2.836853	-40.472246
21846		13.398822	-2.892677	-41.090645
21847		13.527963	-2.957624	-41.717827
21848		13.612202	-3.013589	-42.345833
21849		13.662758	-3.063975	-42.972352
21850		13.680150	-3.111026	-43.588410
21851		13.685142	-3.156512	-44.204825
21852		13.677519	-3.191963	-44.825053
21853		13.681711	-3.219771	-45.457551
21854		13.700900	-3.241966	-46.102719
21855		13.737209	-3.266825	-46.764091
21856		13.779146	-3.293087	-47.430372
21857		13.824128	-3.315573	-48.102529
21858		13.855108	-3.329312	-48.772480
21859		13.883643	-3.339924	-49.448893
21860		13.926230	-3.348607	-50.128418
21861		13.991415	-3.357116	-50.815414
21862		14.088724	-3.373983	-51.500202
21863		14.210753	-3.396455	-52.192741
21864		14.361845	-3.416572	-52.887197
21865		14.556587	-3.437588	-53.598883
21866		14.760911	-3.449352	-54.324548
21867		14.980799	-3.447928	-55.068003
21868		15.203214	-3.439611	-55.816449
21869		15.427827	-3.421825	-56.571412
21870		15.632201	-3.399798	-57.322100
21871		15.813359	-3.368487	-58.079101
21872		15.972414	-3.339846	-58.830741
21873		16.108263	-3.315026	-59.583634
21874		16.213046	-3.282773	-60.336350
21875		16.309583	-3.242868	-61.091527
21876		16.390779	-3.198448	-61.849057
21877		16.461268	-3.143429	-62.621159
21878		16.540978	-3.077096	-63.401777
21879		16.662524	-3.004785	-64.191618
21880		16.820495	-2.937033	-64.989868
21881		17.012811	-2.873161	-65.790121
21882		17.210306	-2.813977	-66.593523
21883		17.391065	-2.744950	-67.407425
21884		17.550594	-2.677342	-68.221416
21885		17.673007	-2.615215	-69.038416
21886		17.731046	-2.547940	-69.847176
21887		17.757090	-2.479196	-70.646877
21888		17.748545	-2.404237	-71.429449
21889		17.731691	-2.328778	-72.206514
21890		17.721740	-2.257726	-72.976916
21891		17.726961	-2.190153	-73.753417
21892		17.742426	-2.118934	-74.536873
21893		17.787363	-2.044546	-75.327892
21894		17.860114	-1.981368	-76.118099
21895		17.945613	-1.920349	-76.902623
21896		18.033504	-1.859236	-77.669924
21897		18.126662	-1.792727	-78.429811
21898		18.229743	-1.720963	-79.181434
21899		18.373501	-1.659341	-79.931988
21900		18.548484	-1.613360	-80.668923
21901		18.718585	-1.564312	-81.399681
21902		18.875475	-1.502255	-82.114715
21903		19.032061	-1.446378	-82.827440
21904		19.170705	-1.390192	-83.527636
21905		19.303826	-1.328838	-84.220977
21906		19.443735	-1.267734	-84.907158
21907		19.611014	-1.214566	-85.584336
21908		19.802783	-1.169812	-86.247861
21909		20.010352	-1.129216	-86.901554
21910		20.218652	-1.089427	-87.546474
21911		20.427413	-1.047670	-88.179525
21912		20.628593	-1.024076	-88.814243
21913		20.828152	-1.011621	-89.446181
21914		21.030377	-0.997989	-90.058481
21915		21.242022	-0.987396	-90.662181
21916		21.443926	-0.973925	-91.260496
21917		21.643201	-0.951785	-91.851529
21918		21.862917	-0.932830	-92.442501
21919		22.108701	-0.929279	-93.035480
21920		22.372233	-0.938157	-93.622460
21921		22.643158	-0.957298	-94.200264
21922		22.884655	-0.973073	-94.769291
21923		23.071087	-0.973023	-95.328110
21924		23.209662	-0.963344	-95.876417
21925		23.320854	-0.949392	-96.413979
21926		23.419845	-0.941309	-96.936297
21927		23.525452	-0.941309	-97.447829
21928		23.646040	-0.941707	-97.943169
21929		23.783874	-0.940225	-98.425414
21930		23.910541	-0.935118	-98.892540
21931		24.013680	-0.925683	-99.348222
21932		24.078303	-0.919345	-99.788562
21933		24.110825	-0.915662	-100.214931
21934		24.115913	-0.917668	-100.624363
21935		24.102472	-0.918953	-101.019396
21936		24.098348	-0.918079	-101.399241
21937		24.131934	-0.922557	-101.768893
21938		24.223783	-0.939532	-102.132643
21939		24.382963	-0.969032	-102.497566
21940		24.580141	-0.999604	-102.861890
21941		24.798975	-1.024671	-103.220544
21942		25.022002	-1.051287	-103.573259
21943		25.233173	-1.080074	-103.927577
21944		25.414540	-1.106419	-104.272386
21945		25.573611	-1.134908	-104.609822
21946		25.722860	-1.163249	-104.940171
21947		25.870295	-1.190027	-105.265788
21948		26.032766	-1.215871	-105.590621
21949		26.212663	-1.242669	-105.920735
21950		26.383839	-1.258299	-106.247214
21951		26.539752	-1.268434	-106.568982
21952		26.664365	-1.275608	-106.882371
21953		26.754661	-1.279981	-107.190320
21954		26.821455	-1.281192	-107.491431
21955		26.881088	-1.281760	-107.790649
21956		26.937668	-1.276024	-108.083629
21957		26.986842	-1.263929	-108.365478
21958		27.041038	-1.249900	-108.637919
21959		27.113404	-1.232127	-108.904933
21960		27.210089	-1.215732	-109.163651
21961		27.318813	-1.190288	-109.413321
21962		27.440611	-1.160862	-109.650127
21963		27.569185	-1.126151	-109.876945
21964		27.696398	-1.085053	-110.091543
21965		27.805192	-1.037333	-110.287734
21966		27.888257	-0.985696	-110.469731
21967		27.936119	-0.929450	-110.635972
21968		27.965103	-0.869933	-110.786157
21969		27.989949	-0.806201	-110.919190
21970		28.023022	-0.748361	-111.040668
21971		28.056760	-0.697377	-111.156150
21972		28.093729	-0.644426	-111.259181
21973		28.142273	-0.589278	-111.347973
21974		28.189545	-0.536854	-111.426692
21975		28.227599	-0.485087	-111.495593
21976		28.255831	-0.444134	-111.559948
21977		28.278216	-0.403483	-111.620249
21978		28.295111	-0.361448	-111.674021
21979		28.304435	-0.319959	-111.722913
21980		28.312404	-0.282034	-111.768713
21981		28.320430	-0.244718	-111.811982
21982		28.334943	-0.207032	-111.852501
21983		28.350240	-0.169866	-111.892879
21984		28.370961	-0.142509	-111.931280
21985		28.390741	-0.118473	-111.970500
21986		28.410219	-0.091000	-112.007101
21987		28.434302	-0.061131	-112.039577
21988		28.464373	-0.033005	-112.069171
21989		28.496186	-0.005311	-112.097016
21990		28.525045	0.018682	-112.116935
21991		28.555454	0.036845	-112.124128
21992		28.581441	0.047366	-112.123644
21993		28.599904	0.051274	-112.119431
21994		28.611770	0.054718	-112.110140
21995		28.623636	0.069454	-112.095904
21996		28.632252	0.085523	-112.077557
21997		28.636234	0.105156	-112.056734
21998		28.645229	0.119376	-112.046731
21999		28.656394	0.131471	-112.047216
22000		28.668617	0.145503	-112.053846
22001		28.691495	0.156906	-112.069976
22002		28.730074	0.164043	-112.098839
22003		28.774308	0.165762	-112.134268
22004		28.813328	0.167191	-112.171543
22005		28.845755	0.166142	-112.211457
22006		28.872138	0.160078	-112.257817
22007		28.892296	0.152484	-112.311101
22008		28.908030	0.145532	-112.362627
22009		28.917271	0.137065	-112.417826
22010		28.930218	0.127247	-112.473880
22011		28.945309	0.119665	-112.526315
22012		28.967414	0.109484	-112.573465
22013		29.001711	0.100396	-112.610634
22014		29.044365	0.091707	-112.638211
22015		29.092699	0.088815	-112.646969
22016		29.145964	0.085907	-112.641311
22017		29.192006	0.085248	-112.622613
22018		29.226702	0.082974	-112.593244
22019		29.244616	0.088837	-112.552510
22020		29.245476	0.098913	-112.498891
22021		29.240024	0.113311	-112.436720
22022		29.241155	0.129137	-112.368811
22023		29.239267	0.153088	-112.293270
22024		29.229098	0.180405	-112.209684
22025		29.209608	0.208844	-112.113033
22026		29.183273	0.232739	-112.011259
22027		29.146378	0.253065	-111.906072
22028		29.113041	0.270859	-111.797638
22029		29.095066	0.289783	-111.688016
22030		29.089395	0.303872	-111.578236
22031		29.086936	0.323238	-111.461183
22032		29.080708	0.340814	-111.332629
22033		29.067477	0.359619	-111.197452
22034		29.049361	0.372073	-111.061343
22035		29.024642	0.378934	-110.925146
22036		28.996481	0.383293	-110.792075
22037		28.968464	0.386163	-110.656176
22038		28.938507	0.385784	-110.523057
22039		28.896036	0.382758	-110.382300
22040		28.845927	0.379329	-110.234930
22041		28.794643	0.368084	-110.082517
22042		28.748541	0.349023	-109.923086
22043		28.699375	0.326033	-109.753228
22044		28.650149	0.295111	-109.576399
22045		28.611667	0.257272	-109.395058
22046		28.578005	0.211522	-109.206383
22047		28.547766	0.157628	-109.010308
22048		28.509934	0.100306	-108.803306
22049		28.455065	0.049926	-108.578341
22050		28.391240	-0.001275	-108.339819
22051		28.336009	-0.054865	-108.089806
22052		28.292631	-0.112825	-107.821366
22053		28.257799	-0.178382	-107.533345
22054		28.225406	-0.258635	-107.231776
22055		28.185516	-0.347355	-106.908181
22056		28.138018	-0.434913	-106.571255
22057		28.078651	-0.519632	-106.219798
22058		28.018110	-0.605399	-105.867523
22059		27.960177	-0.691071	-105.512223
22060		27.912544	-0.777063	-105.147747
22061		27.863939	-0.861245	-104.771927
22062		27.811621	-0.943458	-104.380849
22063		27.756399	-1.024919	-103.973427
22064		27.710228	-1.108715	-103.551525
22065		27.667729	-1.195334	-103.112926
22066		27.639982	-1.291531	-102.659785
22067		27.619979	-1.394876	-102.192421
22068		27.601034	-1.497305	-101.706410
22069		27.579947	-1.597182	-101.203698
22070		27.563740	-1.700102	-100.691533
22071		27.545712	-1.803035	-100.160251
22072		27.531803	-1.906340	-99.619088
22073		27.518981	-2.008825	-99.062184
22074		27.512844	-2.113145	-98.493859
22075		27.509347	-2.224726	-97.920431
22076		27.487911	-2.345509	-97.350631
22077		27.421086	-2.455372	-96.772173
22078		27.302977	-2.552923	-96.192147
22079		27.114439	-2.645553	-95.605370
22080		26.856301	-2.734656	-95.003546
22081		26.527446	-2.818261	-94.387929
22082		26.155150	-2.909885	-93.769506
22083		25.749538	-3.008691	-93.152323
22084		25.344127	-3.112201	-92.542357
22085		24.958400	-3.214795	-91.933066
22086		24.603786	-3.323178	-91.327827
22087		24.279107	-3.433847	-90.722758
22088		23.997807	-3.549267	-90.116379
22089		23.758215	-3.661894	-89.513256
22090		23.559283	-3.778312	-88.920851
22091		23.392734	-3.896747	-88.330384
22092		23.256095	-4.007856	-87.739318
22093		23.129663	-4.111794	-87.130560
22094		23.008054	-4.211244	-86.511888
22095		22.885293	-4.313909	-85.883652
22096		22.774353	-4.414084	-85.244777
22097		22.666902	-4.514365	-84.597652
22098		22.557975	-4.612416	-83.945307
22099		22.453016	-4.704914	-83.286111
22100		22.355745	-4.792108	-82.623851
22101		22.275263	-4.874471	-81.951010
22102		22.204477	-4.955618	-81.270307
22103		22.135751	-5.031808	-80.569376
22104		22.073115	-5.104130	-79.860613
22105		22.014258	-5.171003	-79.147949
22106		21.977466	-5.237518	-78.438208
22107		21.959583	-5.300582	-77.727615
22108		21.950979	-5.355037	-77.010229
22109		21.932074	-5.400815	-76.280725
22110		21.901777	-5.437116	-75.538698
22111		21.877336	-5.466917	-74.793299
22112		21.868926	-5.500925	-74.058858
22113		21.871113	-5.532970	-73.329184
22114		21.881076	-5.556352	-72.606547
22115		21.876952	-5.584051	-71.886255
22116		21.816703	-5.611883	-71.166449
22117		21.672585	-5.633084	-70.438320
22118		21.423537	-5.642858	-69.705156
22119		21.075445	-5.638497	-68.960173
22120		20.664041	-5.626147	-68.215356
22121		20.263219	-5.612626	-67.472116
22122		19.940825	-5.610796	-66.736431
22123		19.716707	-5.628920	-66.006178
22124		19.577031	-5.665365	-65.282955
22125		19.483999	-5.694604	-64.559780
22126		19.427163	-5.715951	-63.829651
22127		19.370607	-5.744748	-63.102277
22128		19.297765	-5.766540	-62.375218
22129		19.213459	-5.777179	-61.648889
22130		19.128108	-5.781505	-60.926819
22131		19.052194	-5.786874	-60.207578
22132		18.982684	-5.790395	-59.493703
22133		18.941924	-5.786517	-58.776602
22134		18.963711	-5.769058	-58.058955
22135		19.063469	-5.755177	-57.351272
22136		19.231999	-5.744845	-56.655802
22137		19.447426	-5.718508	-55.969385
22138		19.700132	-5.689250	-55.304313
22139		19.937573	-5.639651	-54.653550
22140		20.151340	-5.575560	-54.013796
22141		20.312197	-5.510753	-53.373609
22142		20.400204	-5.440716	-52.721865
22143		20.417275	-5.392961	-52.060658
22144		20.352006	-5.351163	-51.391352
22145		20.201898	-5.295077	-50.717196
22146		19.993921	-5.220303	-50.051918
22147		19.754980	-5.141341	-49.401775
22148		19.495002	-5.057451	-48.766652
22149		19.223948	-4.968578	-48.135079
22150		18.980669	-4.894982	-47.509396
22151		18.789308	-4.840404	-46.887754
22152		18.658565	-4.797825	-46.273816
22153		18.584183	-4.767478	-45.662518
22154		18.543818	-4.745091	-45.055300
22155		18.516697	-4.726744	-44.455056
22156		18.494612	-4.715992	-43.855795
22157		18.457493	-4.708884	-43.255687
22158		18.413514	-4.695499	-42.654774
22159		18.371142	-4.693604	-42.049168
22160		18.302023	-4.683350	-41.440403
22161		18.206942	-4.660451	-40.828844
22162		18.103509	-4.631420	-40.221512
22163		17.983219	-4.599843	-39.617500
22164		17.855290	-4.574339	-39.020681
22165		17.729421	-4.550131	-38.426003
22166		17.624203	-4.525392	-37.830371
22167		17.526154	-4.498889	-37.225684
22168		17.426467	-4.470931	-36.622373
22169		17.319375	-4.445031	-36.022702
22170		17.214755	-4.419328	-35.429750
22171		17.118531	-4.394688	-34.841694
22172		17.032305	-4.378963	-34.256147
22173		16.943121	-4.359627	-33.678793
22174		16.870245	-4.338881	-33.112828
22175		16.844036	-4.320249	-32.560970
22176		16.869685	-4.317018	-32.014830
22177		16.931315	-4.328240	-31.470479
22178		17.011060	-4.348708	-30.922302
22179		17.078559	-4.373472	-30.378267
22180		17.105358	-4.385215	-29.847810
22181		17.105292	-4.388968	-29.341656
22182		17.069470	-4.385549	-28.845284
22183		16.988737	-4.376474	-28.354165
22184		16.851828	-4.352057	-27.862652
22185		16.700158	-4.316990	-27.364272
22186		16.570831	-4.290556	-26.873993
22187		16.441490	-4.269079	-26.396920
22188		16.320938	-4.255742	-25.931094
22189		16.201853	-4.249911	-25.477949
22190		16.071036	-4.234798	-25.039588
22191		15.938494	-4.211380	-24.607551
22192		15.820439	-4.188688	-24.192609
22193		15.717662	-4.155145	-23.792551
22194		15.650051	-4.125164	-23.403148
22195		15.608058	-4.107635	-23.026021
22196		15.561828	-4.089817	-22.659507
22197		15.504341	-4.074665	-22.300499
22198		15.428445	-4.055575	-21.951383
22199		15.331298	-4.024987	-21.605518
22200		15.207833	-3.983204	-21.262851
22201		15.075237	-3.944704	-20.929555
22202		14.961787	-3.918588	-20.604738
22203		14.866728	-3.890502	-20.279514
22204		14.772273	-3.859232	-19.955277
22205		14.673114	-3.836118	-19.645547
22206		14.563243	-3.812094	-19.351023
22207		14.457646	-3.776041	-19.068138
22208		14.359092	-3.739099	-18.796584
22209		14.264452	-3.704013	-18.532196
22210		14.189002	-3.674690	-18.272940
22211		14.151918	-3.657729	-18.025052
22212		14.137265	-3.646698	-17.786182
22213		14.135797	-3.632744	-17.557322
22214		14.132099	-3.617891	-17.343507
22215		14.107829	-3.602800	-17.142401
22216		14.056170	-3.577104	-16.953915
22217		13.980484	-3.552982	-16.775587
22218		13.867040	-3.535139	-16.601356
22219		13.701215	-3.507768	-16.433412
22220		13.505587	-3.475149	-16.270499
22221		13.308729	-3.435920	-16.125015
22222		13.130997	-3.396570	-15.991262
22223		13.006100	-3.381229	-15.869388
22224		12.937664	-3.398605	-15.753778
22225		12.891979	-3.427535	-15.644669
22226		12.875762	-3.454238	-15.543880
22227		12.903824	-3.485212	-15.466678
22228		12.954466	-3.522105	-15.417771
22229		13.021177	-3.566216	-15.385130
22230		13.089476	-3.620701	-15.361199
22231		13.123926	-3.663484	-15.337474
22232		13.115586	-3.697314	-15.306723
22233		13.064457	-3.723805	-15.282529
22234		12.975397	-3.741696	-15.265616
22235		12.881018	-3.750705	-15.256589
22236		12.798729	-3.762424	-15.253954
22237		12.739412	-3.770930	-15.259017
22238		12.699971	-3.779372	-15.277182
22239		12.687900	-3.797450	-15.308787
22240		12.683380	-3.825856	-15.352438
22241		12.676062	-3.852339	-15.404520
22242		12.669692	-3.869959	-15.459162
22243		12.683248	-3.879877	-15.520189
22244		12.730250	-3.895853	-15.592220
22245		12.798140	-3.908000	-15.674292
22246		12.884936	-3.921828	-15.756782
22247		12.967204	-3.939439	-15.842235
22248		13.027803	-3.950592	-15.926727
22249		13.079379	-3.959596	-16.010402
22250		13.119486	-3.961531	-16.091825
22251		13.158186	-3.957143	-16.170830
22252		13.203201	-3.948610	-16.250244
22253		13.257887	-3.941278	-16.335462
22254		13.305257	-3.925431	-16.424066
22255		13.344293	-3.905593	-16.519608
22256		13.364107	-3.881479	-16.611783
22257		13.365758	-3.860740	-16.703244
22258		13.351984	-3.836125	-16.791938
22259		13.341000	-3.814008	-16.878655
22260		13.319264	-3.787713	-16.963955
22261		13.294470	-3.760194	-17.051594
22262		13.271493	-3.733402	-17.143596
22263		13.254690	-3.709884	-17.239331
22264		13.244484	-3.682429	-17.339157
22265		13.245725	-3.660124	-17.442792
22266		13.237889	-3.638026	-17.546844
22267		13.232076	-3.612810	-17.648626
22268		13.221738	-3.595989	-17.747031
22269		13.184857	-3.581680	-17.837469
22270		13.133233	-3.567777	-17.923566
22271		13.101281	-3.555773	-18.013916
22272		13.090925	-3.548523	-18.109915
22273		13.112528	-3.544627	-18.214958
22274		13.156059	-3.542581	-18.329007
22275		13.201000	-3.543083	-18.450703
22276		13.228530	-3.538747	-18.570404
22277		13.245089	-3.536120	-18.685882
22278		13.237291	-3.538234	-18.790417
22279		13.208372	-3.541563	-18.896558
22280		13.169831	-3.541915	-19.006408
22281		13.142002	-3.540214	-19.128279
22282		13.126970	-3.537374	-19.262081
22283		13.128627	-3.536093	-19.406678
22284		13.140802	-3.538702	-19.554330
22285		13.160045	-3.537583	-19.704576
22286		13.174918	-3.533164	-19.853217
22287		13.183474	-3.534511	-20.006642
22288		13.165479	-3.543481	-20.165955
22289		13.144872	-3.548006	-20.340106
22290		13.122680	-3.551634	-20.527047
22291		13.101077	-3.558523	-20.729991
22292		13.080085	-3.564313	-20.946569
22293		13.083157	-3.563568	-21.177223
22294		13.100906	-3.566365	-21.412705
22295		13.113745	-3.574895	-21.652442
22296		13.117503	-3.587060	-21.894860
22297		13.129261	-3.594792	-22.147079
22298		13.146610	-3.608854	-22.415683
22299		13.177401	-3.627246	-22.706551
22300		13.217561	-3.644396	-23.010803
22301		13.267501	-3.667409	-23.329883
22302		13.307567	-3.692569	-23.652495
22303		13.338218	-3.718061	-23.983327
22304		13.348791	-3.742332	-24.320534
22305		13.339286	-3.763543	-24.668827
22306		13.314439	-3.777889	-25.028561
22307		13.297808	-3.789998	-25.405253
22308		13.287835	-3.811456	-25.801259
22309		13.298786	-3.835091	-26.221343
22310		13.339086	-3.858440	-26.658773
22311		13.413485	-3.890175	-27.112906
22312		13.495995	-3.929302	-27.578830
22313		13.581546	-3.975862	-28.052455
22314		13.657476	-4.018737	-28.530461
22315		13.724659	-4.052922	-29.018946
22316		13.772606	-4.082073	-29.517892
22317		13.813915	-4.110039	-30.031847
22318		13.832725	-4.131195	-30.549340
22319		13.863276	-4.151813	-31.078861
22320		13.913472	-4.179436	-31.623413
22321		13.993345	-4.206066	-32.180904
22322		14.101950	-4.229905	-32.750823
22323		14.229844	-4.260926	-33.338469
22324		14.359355	-4.288432	-33.932288
22325		14.507134	-4.313432	-34.533911
22326		14.658387	-4.341372	-35.143287
22327		14.816823	-4.364236	-35.756676
22328		14.973713	-4.390949	-36.370519
22329		15.119128	-4.422555	-36.987736
22330		15.240471	-4.456919	-37.602407
22331		15.341231	-4.481457	-38.217897
22332		15.430358	-4.495701	-38.837398
22333		15.522848	-4.507119	-39.469366
22334		15.605114	-4.519256	-40.102526
22335		15.685826	-4.529745	-40.742725
22336		15.756841	-4.531156	-41.379951
22337		15.826691	-4.530866	-42.021518
22338		15.887535	-4.531905	-42.662388
22339		15.933894	-4.523274	-43.312046
22340		15.970149	-4.508104	-43.963693
22341		16.000266	-4.490223	-44.623227
22342		16.024179	-4.469503	-45.282465
22343		16.043627	-4.437877	-45.949534
22344		16.055069	-4.394925	-46.617805
22345		16.079469	-4.343045	-47.292577
22346		16.108094	-4.286891	-47.967334
22347		16.146174	-4.224147	-48.647573
22348		16.192193	-4.164431	-49.312141
22349		16.231681	-4.099342	-49.967078
22350		16.259729	-4.029264	-50.606849
22351		16.297041	-3.947113	-51.252562
22352		16.365244	-3.862381	-51.909489
22353		16.481847	-3.777225	-52.584182
22354		16.618398	-3.688776	-53.262077
22355		16.764697	-3.608471	-53.931001
22356		16.893564	-3.522062	-54.576374
22357		17.002848	-3.427420	-55.207835
22358		17.108731	-3.334480	-55.829083
22359		17.228838	-3.251601	-56.464050
22360		17.350900	-3.171987	-57.109478
22361		17.485425	-3.090937	-57.762026
22362		17.616446	-3.010475	-58.407861
22363		17.725021	-2.923867	-59.053656
22364		17.820028	-2.835945	-59.692537
22365		17.918839	-2.750251	-60.338250
22366		18.021288	-2.671764	-60.985713
22367		18.149788	-2.592710	-61.642743
22368		18.301371	-2.518868	-62.303688
22369		18.478766	-2.457678	-62.972429
22370		18.655789	-2.403906	-63.634875
22371		18.825121	-2.359998	-64.283983
22372		18.963254	-2.319040	-64.914866
22373		19.064042	-2.271424	-65.536320
22374		19.152147	-2.223004	-66.150630
22375		19.247870	-2.179798	-66.768105
22376		19.345850	-2.136781	-67.386824
22377		19.464055	-2.091565	-68.007833
22378		19.594856	-2.055011	-68.621205
22379		19.697879	-2.023211	-69.230836
22380		19.752768	-1.991816	-69.828361
22381		19.762357	-1.956996	-70.412345
22382		19.721558	-1.926354	-70.985785
22383		19.652818	-1.899914	-71.552510
22384		19.564570	-1.874245	-72.115636
22385		19.491125	-1.851912	-72.678535
22386		19.450117	-1.837792	-73.236699
22387		19.421642	-1.822622	-73.797851
22388		19.415135	-1.805710	-74.358951
22389		19.451704	-1.795927	-74.925665
22390		19.509864	-1.801930	-75.492909
22391		19.573539	-1.803277	-76.060744
22392		19.646218	-1.805039	-76.617873
22393		19.722258	-1.807503	-77.170966
22394		19.786460	-1.809252	-77.719943
22395		19.850314	-1.803185	-78.262703
22396		19.914483	-1.798585	-78.797560
22397		19.962700	-1.802258	-79.320098
22398		19.979306	-1.798024	-79.829756
22399		19.974669	-1.779729	-80.330720
22400		19.960471	-1.766495	-80.817455
22401		19.926743	-1.756991	-81.295707
22402		19.881179	-1.745336	-81.763740
22403		19.836844	-1.722299	-82.219419
22404		19.809615	-1.696441	-82.657889
22405		19.812089	-1.672508	-83.089807
22406		19.843510	-1.643389	-83.508794
22407		19.929566	-1.615634	-83.927694
22408		20.057586	-1.597541	-84.349192
22409		20.215416	-1.575925	-84.767577
22410		20.392907	-1.551282	-85.173830
22411		20.583014	-1.523521	-85.571101
22412		20.768372	-1.492129	-85.959392
22413		20.948437	-1.451570	-86.345356
22414		21.128010	-1.409176	-86.728229
22415		21.296357	-1.364794	-87.103834
22416		21.439170	-1.317359	-87.466784
22417		21.539288	-1.257241	-87.817261
22418		21.614550	-1.187890	-88.162263
22419		21.690624	-1.118314	-88.516412
22420		21.783736	-1.054227	-88.886469
22421		21.904035	-0.994396	-89.268335
22422		22.058295	-0.931762	-89.661160
22423		22.244113	-0.867889	-90.052077
22424		22.434264	-0.813140	-90.439706
22425		22.589006	-0.756817	-90.819625
22426		22.714508	-0.697774	-91.186282
22427		22.810510	-0.637927	-91.544939
22428		22.880002	-0.581461	-91.900549
22429		22.925748	-0.515424	-92.258789
22430		22.952674	-0.438611	-92.617044
22431		22.978410	-0.356094	-92.966910
22432		23.009068	-0.277943	-93.296944
22433		23.053132	-0.204316	-93.604411
22434		23.114192	-0.138939	-93.892316
22435		23.190406	-0.076831	-94.165160
22436		23.274848	-0.021572	-94.425900
22437		23.369024	0.033264	-94.674969
22438		23.467651	0.085209	-94.909501
22439		23.573723	0.136492	-95.130090
22440		23.678141	0.183196	-95.336274
22441		23.782687	0.240010	-95.531338
22442		23.887578	0.306056	-95.718425
22443		24.001960	0.372057	-95.902028
22444		24.112148	0.431024	-96.076110
22445		24.203458	0.492383	-96.238166
22446		24.284309	0.552551	-96.391909
22447		24.352776	0.602947	-96.544190
22448		24.432409	0.653509	-96.692125
22449		24.539984	0.708149	-96.840320
22450		24.672607	0.762776	-96.991904
22451		24.827762	0.815909	-97.150069
22452		24.993909	0.864099	-97.308932
22453		25.171487	0.913827	-97.464318
22454		25.336594	0.957071	-97.620994
22455		25.447916	1.012976	-97.767754
22456		25.503974	1.079163	-97.904279
22457		25.522742	1.151095	-98.033534
22458		25.519982	1.221614	-98.161560
22459		25.505468	1.297016	-98.291735
22460		25.490768	1.374456	-98.422202
22461		25.490203	1.454089	-98.552744
22462		25.505762	1.537240	-98.686301
22463		25.538666	1.618466	-98.820878
22464		25.571877	1.694888	-98.956444
22465		25.591065	1.772034	-99.086002
22466		25.599685	1.851901	-99.210094
22467		25.600480	1.930413	-99.335798
22468		25.591605	2.007052	-99.461955
22469		25.584902	2.085770	-99.583754
22470		25.591171	2.159980	-99.701274
22471		25.602961	2.229269	-99.815610
22472		25.620385	2.300593	-99.925393
22473		25.633576	2.374212	-100.034176
22474		25.641659	2.446594	-100.143780
22475		25.647496	2.516793	-100.253024
22476		25.652560	2.581696	-100.360973
22477		25.647683	2.639423	-100.464434
22478		25.641471	2.690132	-100.562074
22479		25.643651	2.731516	-100.654271
22480		25.655379	2.775431	-100.734578
22481		25.670858	2.813485	-100.808739
22482		25.680844	2.846450	-100.869478
22483		25.685456	2.884497	-100.913420
22484		25.689151	2.919283	-100.950421
22485		25.683906	2.953481	-100.983269
22486		25.674722	2.978792	-101.008993
22487		25.662067	2.998855	-101.027662
22488		25.652521	3.014892	-101.036017
22489		25.642905	3.027578	-101.035430
22490		25.651561	3.031759	-101.027132
22491		25.672184	3.028637	-101.019315
22492		25.693288	3.018864	-101.007006
22493		25.713353	3.013768	-100.982735
22494		25.721318	3.006034	-100.953025
22495		25.708125	2.996332	-100.921505
22496		25.674655	2.982620	-100.885763
22497		25.627878	2.964300	-100.845045
22498		25.573527	2.939451	-100.797117
22499		25.516635	2.910153	-100.740525
22500		25.466381	2.875696	-100.678513
22501		25.432563	2.842684	-100.609044
22502		25.409342	2.805226	-100.536497
22503		25.402226	2.759743	-100.462842
22504		25.402134	2.713697	-100.382082
22505		25.404590	2.662408	-100.293671
22506		25.391944	2.616257	-100.194806
22507		25.359043	2.582041	-100.077178
22508		25.309848	2.541619	-99.942407
22509		25.249847	2.494068	-99.794943
22510		25.189464	2.442072	-99.639051
22511		25.131255	2.389246	-99.473639
22512		25.086773	2.330813	-99.301331
22513		25.052908	2.274477	-99.118840
22514		25.027868	2.215694	-98.927783
22515		25.004043	2.156184	-98.730723
22516		24.983641	2.097826	-98.528969
22517		24.974347	2.042822	-98.322276
22518		24.969417	1.989141	-98.113532
22519		24.972544	1.940159	-97.904078
22520		24.976600	1.888719	-97.693395
22521		24.979964	1.837944	-97.480276
22522		24.975549	1.792153	-97.260675
22523		24.953006	1.753018	-97.036793
22524		24.913918	1.714147	-96.812638
22525		24.857838	1.684913	-96.578985
22526		24.792035	1.655427	-96.336559
22527		24.707119	1.633024	-96.082665
22528		24.618844	1.607986	-95.816806
22529		24.531899	1.573826	-95.549559
22530		24.451486	1.527509	-95.279739
22531		24.372075	1.478717	-95.004602
22532		24.295680	1.429127	-94.720312
22533		24.216514	1.376064	-94.431467
22534		24.134770	1.320027	-94.124842
22535		24.044007	1.265774	-93.804431
22536		23.946178	1.204403	-93.471580
22537		23.851340	1.138279	-93.124620
22538		23.770248	1.059780	-92.765097
22539		23.690839	0.979267	-92.387269
22540		23.607150	0.896735	-91.989019
22541		23.518646	0.815948	-91.576858
22542		23.426770	0.734275	-91.153009
22543		23.325828	0.647524	-90.716344
22544		23.203518	0.556542	-90.264433
22545		23.053318	0.475304	-89.793058
22546		22.882967	0.402258	-89.309640
22547		22.695265	0.336190	-88.811844
22548		22.506592	0.273516	-88.303320
22549		22.330497	0.207605	-87.785078
22550		22.173680	0.131230	-87.266206
22551		22.044165	0.052142	-86.738006
22552		21.922618	-0.030670	-86.197351
22553		21.774534	-0.103223	-85.645620
22554		21.605349	-0.164950	-85.083257
22555		21.425660	-0.218650	-84.507353
22556		21.258831	-0.269138	-83.920357
22557		21.115207	-0.311823	-83.315560
22558		21.024209	-0.368971	-82.711178
22559		20.977090	-0.438727	-82.112244
22560		20.975485	-0.515078	-81.516209
22561		20.969992	-0.583892	-80.907927
22562		20.923421	-0.649069	-80.287337
22563		20.812329	-0.701801	-79.648023
22564		20.645862	-0.743907	-78.990507
22565		20.454516	-0.776279	-78.317898
22566		20.295514	-0.822949	-77.636324
22567		20.206207	-0.886527	-76.948358
22568		20.210643	-0.968424	-76.259206
22569		20.321657	-1.061654	-75.571771
22570		20.522019	-1.168071	-74.893296
22571		20.792528	-1.281501	-74.219473
22572		21.105185	-1.402777	-73.555791
22573		21.416100	-1.523861	-72.892030
22574		21.704810	-1.644484	-72.233020
22575		21.949779	-1.764177	-71.575243
22576		22.135655	-1.867009	-70.923101
22577		22.252261	-1.950931	-70.271804
22578		22.311620	-2.026088	-69.626717
22579		22.323881	-2.096363	-68.983596
22580		22.300525	-2.170202	-68.345259
22581		22.249634	-2.247468	-67.699774
22582		22.176438	-2.327259	-67.055615
22583		22.092441	-2.401741	-66.409169
22584		22.013513	-2.478336	-65.772042
22585		21.944491	-2.546530	-65.136261
22586		21.894484	-2.613650	-64.504159
22587		21.862343	-2.680443	-63.871100
22588		21.835796	-2.750504	-63.238301
22589		21.805896	-2.821943	-62.597942
22590		21.769598	-2.904452	-61.959107
22591		21.717721	-2.979880	-61.319979
22592		21.658421	-3.052217	-60.678432
22593		21.587311	-3.120211	-60.039528
22594		21.506480	-3.183972	-59.403904
22595		21.412702	-3.246472	-58.761450
22596		21.304796	-3.305122	-58.115285
22597		21.175275	-3.352829	-57.460548
22598		21.033013	-3.392831	-56.800961
22599		20.880982	-3.437707	-56.143078
22600		20.731416	-3.482349	-55.493247
22601		20.606575	-3.510639	-54.841012
22602		20.518377	-3.543810	-54.185776
22603		20.442844	-3.579352	-53.535540
22604		20.374329	-3.606847	-52.885853
22605		20.315990	-3.633535	-52.237967
22606		20.245878	-3.659976	-51.594149
22607		20.145556	-3.669649	-50.951005
22608		20.036118	-3.674093	-50.306203
22609		19.921743	-3.673351	-49.670125
22610		19.802688	-3.660139	-49.052601
22611		19.691491	-3.640627	-48.446048
22612		19.579992	-3.627304	-47.848101
22613		19.457393	-3.617934	-47.254970
22614		19.325231	-3.620481	-46.664182
22615		19.161736	-3.608989	-46.076706
22616		18.985350	-3.598081	-45.494445
22617		18.816599	-3.589803	-44.920325
22618		18.666792	-3.593268	-44.356263
22619		18.543005	-3.611068	-43.793775
22620		18.433427	-3.635992	-43.234770
22621		18.336162	-3.660687	-42.677961
22622		18.234430	-3.676057	-42.124553
22623		18.115085	-3.670266	-41.573135
22624		17.994576	-3.664834	-41.027999
22625		17.889516	-3.659377	-40.488144
22626		17.815930	-3.654744	-39.955417
22627		17.761200	-3.651993	-39.429153
22628		17.696581	-3.653046	-38.908470
22629		17.608515	-3.662338	-38.384737
22630		17.478909	-3.666717	-37.860620
22631		17.317090	-3.658958	-37.335046
22632		17.148884	-3.650039	-36.818480
22633		16.988680	-3.637190	-36.315951
22634		16.840730	-3.617446	-35.836676
22635		16.720363	-3.597880	-35.378504
22636		16.629449	-3.584113	-34.934899
22637		16.553697	-3.566982	-34.498357
22638		16.485757	-3.554903	-34.066108
22639		16.421422	-3.541603	-33.640399
22640		16.364123	-3.527483	-33.224041
22641		16.325676	-3.524334	-32.821300
22642		16.311567	-3.522214	-32.436356
22643		16.323909	-3.519519	-32.069563
22644		16.362563	-3.521860	-31.722626
22645		16.411844	-3.528761	-31.388082
22646		16.447559	-3.548112	-31.066532
22647		16.439782	-3.573808	-30.748773
22648		16.373779	-3.588771	-30.435553
22649		16.268508	-3.584253	-30.131784
22650		16.157831	-3.572782	-29.842840
22651		16.069536	-3.565678	-29.571033
22652		16.012987	-3.558593	-29.310442
22653		15.988846	-3.554961	-29.052662
22654		15.978967	-3.552241	-28.799513
22655		15.957886	-3.549724	-28.543133
22656		15.927512	-3.540999	-28.284879
22657		15.885089	-3.535683	-28.031379
22658		15.823325	-3.533483	-27.783180
22659		15.749431	-3.522554	-27.536883
22660		15.676153	-3.502639	-27.296951
22661		15.636269	-3.479795	-27.071013
22662		15.631177	-3.462504	-26.853989
22663		15.654861	-3.448209	-26.638444
22664		15.685345	-3.438772	-26.424261
22665		15.709701	-3.423223	-26.214180
22666		15.712454	-3.403304	-26.004212
22667		15.690482	-3.375067	-25.802680
22668		15.663406	-3.348223	-25.611011
22669		15.636021	-3.313859	-25.427543
22670		15.603757	-3.268389	-25.250536
22671		15.565377	-3.225417	-25.079638
22672		15.512431	-3.182507	-24.917487
22673		15.442632	-3.134129	-24.762411
22674		15.353876	-3.074776	-24.612125
22675		15.257692	-3.014313	-24.473422
22676		15.153573	-2.954943	-24.348300
22677		15.054803	-2.886714	-24.235712
22678		14.980882	-2.820694	-24.137812
22679		14.932575	-2.763395	-24.050820
22680		14.893565	-2.705878	-23.971678
22681		14.863128	-2.651627	-23.900431
22682		14.830994	-2.600935	-23.845093
22683		14.795501	-2.552586	-23.806781
22684		14.748864	-2.492898	-23.780785
22685		14.691327	-2.431865	-23.760364
22686		14.627852	-2.378774	-23.748154
22687		14.568252	-2.330592	-23.748541
22688		14.532773	-2.277801	-23.760186
22689		14.527958	-2.229859	-23.780679
22690		14.543951	-2.195514	-23.805979
22691		14.573219	-2.162958	-23.837591
22692		14.615098	-2.132359	-23.870482
22693		14.673063	-2.120135	-23.909349
22694		14.724121	-2.113916	-23.956624
22695		14.759913	-2.099724	-24.007289
22696		14.795081	-2.074965	-24.058344
22697		14.821462	-2.054494	-24.113752
22698		14.831983	-2.040653	-24.175306
22699		14.841839	-2.024572	-24.239413
22700		14.847195	-2.005316	-24.297969
22701		14.842029	-1.988096	-24.356477
22702		14.819636	-1.980156	-24.413722
22703		14.790689	-1.969378	-24.477383
22704		14.766554	-1.956554	-24.540176
22705		14.751338	-1.940523	-24.609856
22706		14.743963	-1.924259	-24.683675
22707		14.756728	-1.907883	-24.760835
22708		14.780014	-1.899079	-24.835723
22709		14.796603	-1.891561	-24.903185
22710		14.803161	-1.884393	-24.965981
22711		14.809433	-1.874796	-25.039290
22712		14.819129	-1.861698	-25.122920
22713		14.837883	-1.842487	-25.212633
22714		14.853640	-1.813859	-25.303149
22715		14.869052	-1.776061	-25.396230
22716		14.886398	-1.741078	-25.492873
22717		14.897813	-1.699908	-25.592427
22718		14.904135	-1.645082	-25.692285
22719		14.912873	-1.585495	-25.790525
22720		14.922159	-1.527476	-25.884330
22721		14.945807	-1.478735	-25.977688
22722		14.964981	-1.432905	-26.067414
22723		14.980767	-1.377754	-26.154764
22724		15.005618	-1.329311	-26.242101
22725		15.031585	-1.288723	-26.339907
22726		15.057103	-1.244388	-26.435575
22727		15.083634	-1.198951	-26.527852
22728		15.098387	-1.166177	-26.612312
22729		15.096813	-1.139952	-26.690469
22730		15.084858	-1.117111	-26.758177
22731		15.078905	-1.095723	-26.816452
22732		15.079088	-1.087034	-26.869357
22733		15.080748	-1.095138	-26.924608
22734		15.073434	-1.107295	-26.974847
22735		15.068236	-1.120090	-27.024031
22736		15.050861	-1.141112	-27.070013
22737		15.015072	-1.158829	-27.115789
22738		14.969044	-1.177884	-27.156821
22739		14.921820	-1.196722	-27.202539
22740		14.876857	-1.216266	-27.251735
22741		14.848407	-1.235105	-27.303309
22742		14.841800	-1.261210	-27.352957
22743		14.860522	-1.290869	-27.402198
22744		14.890476	-1.322328	-27.451055
22745		14.936074	-1.351820	-27.503365
22746		14.991966	-1.385142	-27.557750
22747		15.038718	-1.417338	-27.618101
22748		15.057095	-1.442087	-27.680243
22749		15.049902	-1.458438	-27.748202
22750		15.007974	-1.467401	-27.816207
22751		14.946263	-1.468996	-27.891734
22752		14.871322	-1.466098	-27.974120
22753		14.794565	-1.460704	-28.063130
22754		14.711067	-1.454080	-28.160188
22755		14.631570	-1.449854	-28.264129
22756		14.563279	-1.450790	-28.368516
22757		14.506704	-1.453858	-28.478376
22758		14.454685	-1.466992	-28.591863
22759		14.405780	-1.477492	-28.708718
22760		14.352518	-1.489709	-28.831661
22761		14.294451	-1.507514	-28.964221
22762		14.224078	-1.527452	-29.100502
22763		14.153634	-1.554235	-29.238503
22764		14.076307	-1.587063	-29.373690
22765		14.002383	-1.618798	-29.509557
22766		13.952893	-1.659134	-29.649628
22767		13.935012	-1.700221	-29.795474
22768		13.936593	-1.752056	-29.948548
22769		13.956957	-1.805000	-30.107244
22770		13.982521	-1.862721	-30.266715
22771		14.001129	-1.923847	-30.426792
22772		13.999747	-1.985168	-30.585696
22773		13.977160	-2.038677	-30.746419
22774		13.943992	-2.087721	-30.908796
22775		13.919974	-2.133941	-31.086406
22776		13.903031	-2.181127	-31.276495
22777		13.899221	-2.224635	-31.475561
22778		13.899366	-2.273511	-31.678437
22779		13.892404	-2.322855	-31.882982
22780		13.868142	-2.370127	-32.084215
22781		13.829665	-2.418027	-32.284493
22782		13.778210	-2.462440	-32.487212
22783		13.736894	-2.502998	-32.703097
22784		13.717523	-2.542920	-32.930568
22785		13.728881	-2.583190	-33.172070
22786		13.761636	-2.624295	-33.426034
22787		13.808415	-2.664053	-33.688872
22788		13.847919	-2.704089	-33.957765
22789		13.873018	-2.742586	-34.232788
22790		13.868690	-2.779525	-34.514177
22791		13.837486	-2.811102	-34.804978
22792		13.787410	-2.839233	-35.102466
22793		13.740533	-2.866898	-35.414668
22794		13.705252	-2.895848	-35.740955
22795		13.692315	-2.925679	-36.083200
22796		13.700139	-2.957903	-36.434798
22797		13.729489	-2.993950	-36.796632
22798		13.759953	-3.031748	-37.164013
22799		13.787955	-3.065914	-37.538141
22800		13.810559	-3.098577	-37.916037
22801		13.837410	-3.127569	-38.309676
22802		13.872578	-3.162918	-38.710653
22803		13.918425	-3.194509	-39.122677
22804		13.976556	-3.225479	-39.543533
22805		14.044276	-3.259933	-39.974451
22806		14.112337	-3.297292	-40.409245
22807		14.169235	-3.332305	-40.852675
22808		14.204055	-3.367988	-41.295933
22809		14.231784	-3.401023	-41.740022
22810		14.252720	-3.437090	-42.182396
22811		14.273635	-3.471876	-42.630970
22812		14.311389	-3.508034	-43.086940
22813		14.381919	-3.547206	-43.554776
22814		14.462271	-3.587743	-44.031942
22815		14.543552	-3.630413	-44.516162
22816		14.608909	-3.671460	-44.999951
22817		14.655164	-3.708640	-45.487880
22818		14.675494	-3.744120	-45.976259
22819		14.676299	-3.770974	-46.471507
22820		14.671687	-3.793820	-46.973918
22821		14.675669	-3.824618	-47.490553
22822		14.680035	-3.857718	-48.010017
22823		14.703468	-3.889338	-48.542226
22824		14.743566	-3.923294	-49.080879
22825		14.793300	-3.956994	-49.636275
22826		14.845432	-3.989816	-50.201652
22827		14.906438	-4.020581	-50.776681
22828		14.966315	-4.058117	-51.351969
22829		15.013427	-4.092719	-51.931991
22830		15.059753	-4.128737	-52.516699
22831		15.119090	-4.172620	-53.115909
22832		15.176937	-4.215193	-53.733248
22833		15.244764	-4.252352	-54.367518
22834		15.313713	-4.288990	-55.012401
22835		15.377930	-4.322729	-55.664195
22836		15.424825	-4.358742	-56.307837
22837		15.454574	-4.385717	-56.961378
22838		15.474683	-4.409347	-57.616673
22839		15.493851	-4.427042	-58.282261
22840		15.509200	-4.449088	-58.954810
22841		15.542194	-4.463091	-59.643506
22842		15.603629	-4.479519	-60.340363
22843		15.698297	-4.502282	-61.045504
22844		15.812761	-4.524679	-61.750146
22845		15.952919	-4.540670	-62.457721
22846		16.108230	-4.551798	-63.162311
22847		16.278958	-4.560197	-63.878437
22848		16.458266	-4.573655	-64.599953
22849		16.640466	-4.589222	-65.319029
22850		16.803328	-4.595728	-66.029480
22851		16.944199	-4.594200	-66.735696
22852		17.053532	-4.582637	-67.436062
22853		17.140365	-4.560485	-68.138249
22854		17.213300	-4.536184	-68.839168
22855		17.295298	-4.514144	-69.532084
22856		17.375534	-4.485784	-70.214147
22857		17.468423	-4.448176	-70.887580
22858		17.585992	-4.413177	-71.555476
22859		17.730187	-4.382141	-72.226030
22860		17.880602	-4.344166	-72.889038
22861		18.028780	-4.290182	-73.548058
22862		18.173838	-4.233615	-74.200339
22863		18.318117	-4.175789	-74.846046
22864		18.447260	-4.107543	-75.471279
22865		18.580346	-4.033937	-76.092149
22866		18.729620	-3.962569	-76.708157
22867		18.905130	-3.883944	-77.330471
22868		19.102185	-3.801921	-77.948816
22869		19.316189	-3.712693	-78.566644
22870		19.534085	-3.624482	-79.179462
22871		19.751205	-3.523112	-79.785600
22872		19.966795	-3.418245	-80.382573
22873		20.183896	-3.308995	-80.977896
22874		20.419651	-3.203881	-81.571480
22875		20.683283	-3.096813	-82.168456
22876		20.990734	-2.986944	-82.767431
22877		21.362084	-2.882160	-83.365132
22878		21.789310	-2.781610	-83.964799
22879		22.253351	-2.679462	-84.564354
22880		22.727508	-2.568190	-85.156624
22881		23.166196	-2.446230	-85.743211
22882		23.527851	-2.314729	-86.318422
22883		23.790541	-2.165169	-86.874883
22884		23.946026	-2.004904	-87.397587
22885		23.997986	-1.845039	-87.888898
22886		23.953167	-1.683735	-88.339975
22887		23.855182	-1.517415	-88.754212
22888		23.741068	-1.354084	-89.136338
22889		23.652150	-1.200501	-89.496638
22890		23.601142	-1.057715	-89.841363
22891		23.602259	-0.930483	-90.181323
22892		23.657204	-0.810473	-90.514727
22893		23.757111	-0.690794	-90.842546
22894		23.892432	-0.584747	-91.163106
22895		24.033822	-0.490157	-91.480021
22896		24.162943	-0.392846	-91.778813
22897		24.286981	-0.298906	-92.072167
22898		24.401362	-0.215702	-92.366797
22899		24.505674	-0.126214	-92.655892
22900		24.621725	-0.043546	-92.939970
22901		24.743844	0.026015	-93.226698
22902		24.870287	0.087562	-93.509335
22903		24.998255	0.146155	-93.793268
22904		25.117044	0.199838	-94.073137
22905		25.220360	0.248938	-94.346673
22906		25.289199	0.294020	-94.608125
22907		25.310831	0.340491	-94.856902
22908		25.297640	0.387889	-95.094371
22909		25.276212	0.431086	-95.330359
22910		25.259625	0.461322	-95.567739
22911		25.257576	0.489429	-95.804636
22912		25.275049	0.510137	-96.035216
22913		25.294021	0.531527	-96.264966
22914		25.321695	0.563182	-96.486727
22915		25.364557	0.590915	-96.710643
22916		25.414682	0.609115	-96.935662
22917		25.462701	0.624910	-97.157418
22918		25.509036	0.638443	-97.371836
22919		25.550690	0.652075	-97.585304
22920		25.603190	0.660931	-97.792580
22921		25.672932	0.669878	-97.999447
22922		25.756572	0.677584	-98.207399
22923		25.855191	0.691514	-98.413249
22924		25.964081	0.709319	-98.613658
22925		26.082068	0.724997	-98.813662
22926		26.194167	0.736023	-99.018481
22927		26.285051	0.758306	-99.214345
22928		26.353195	0.784879	-99.404966
22929		26.394274	0.812275	-99.591688
22930		26.402715	0.845765	-99.762778
22931		26.386476	0.884591	-99.917745
22932		26.353335	0.917964	-100.062816
22933		26.318101	0.943595	-100.198758
22934		26.270289	0.970043	-100.318297
22935		26.203833	1.003934	-100.416755
22936		26.124065	1.041761	-100.498138
22937		26.030506	1.082079	-100.565572
22938		25.931258	1.120238	-100.625660
22939		25.831947	1.157230	-100.674340
22940		25.727459	1.190630	-100.707932
22941		25.618834	1.221975	-100.728063
22942		25.510308	1.249484	-100.737075
22943		25.417206	1.276201	-100.740821
22944		25.362798	1.301256	-100.734656
22945		25.340844	1.321137	-100.723700
22946		25.357931	1.335813	-100.710366
22947		25.408980	1.351504	-100.695467
22948		25.480689	1.363097	-100.685283
22949		25.558975	1.373123	-100.678277
22950		25.629981	1.380865	-100.672145
22951		25.671415	1.388481	-100.659715
22952		25.682024	1.394960	-100.635409
22953		25.659585	1.402196	-100.601001
22954		25.615525	1.408752	-100.557582
22955		25.556301	1.419235	-100.512363
22956		25.502674	1.427478	-100.468840
22957		25.472763	1.426488	-100.435119
22958		25.463247	1.424790	-100.407514
22959		25.477111	1.420171	-100.387348
22960		25.504214	1.416961	-100.368409
22961		25.522827	1.417280	-100.353406
22962		25.530083	1.422630	-100.334315
22963		25.526241	1.425514	-100.315192
22964		25.515269	1.421311	-100.296336
22965		25.505809	1.422621	-100.276356
22966		25.508254	1.424572	-100.258738
22967		25.530502	1.425612	-100.244600
22968		25.561446	1.428492	-100.232281
22969		25.594137	1.439209	-100.213866
22970		25.620277	1.446262	-100.191928
22971		25.625945	1.451792	-100.166576
22972		25.613860	1.456806	-100.135219
22973		25.583288	1.465414	-100.096368
22974		25.536592	1.480079	-100.044549
22975		25.481156	1.498104	-99.983664
22976		25.425691	1.504668	-99.908952
22977		25.356408	1.511453	-99.814432
22978		25.274035	1.516477	-99.700195
22979		25.184410	1.518256	-99.567071
22980		25.094279	1.517320	-99.418064
22981		25.001836	1.512569	-99.258782
22982		24.911791	1.503026	-99.090827
22983		24.814027	1.497889	-98.904566
22984		24.711498	1.489820	-98.699740
22985		24.601988	1.482332	-98.478194
22986		24.497359	1.472867	-98.244789
22987		24.399152	1.457804	-98.000619
22988		24.303522	1.439095	-97.745414
22989		24.206929	1.419259	-97.478279
22990		24.112320	1.395890	-97.205097
22991		24.016786	1.368827	-96.921956
22992		23.922745	1.341695	-96.626311
22993		23.832267	1.316961	-96.316407
22994		23.748723	1.290060	-95.994593
22995		23.669636	1.262145	-95.662749
22996		23.597875	1.230335	-95.318501
22997		23.528441	1.200235	-94.965718
22998		23.460011	1.169010	-94.598628
22999		23.386832	1.136971	-94.222764
23000		23.310151	1.103528	-93.840007
23001		23.226150	1.073493	-93.441939
23002		23.146172	1.044448	-93.027317
23003		23.070109	1.009096	-92.599511
23004		22.991682	0.973105	-92.160808
23005		22.918176	0.939463	-91.709777
23006		22.843170	0.901140	-91.254166
23007		22.759218	0.868772	-90.788092
23008		22.662736	0.846391	-90.307407
23009		22.549970	0.820286	-89.814836
23010		22.420253	0.788911	-89.311203
23011		22.266647	0.762572	-88.792344
23012		22.099905	0.738034	-88.258820
23013		21.927595	0.714617	-87.716962
23014		21.762434	0.685622	-87.171102
23015		21.611603	0.654990	-86.626777
23016		21.472485	0.629394	-86.081651
23017		21.339247	0.608560	-85.531835
23018		21.206032	0.586622	-84.980192
23019		21.072892	0.566244	-84.421523
23020		20.944282	0.542596	-83.853259
23021		20.817459	0.513074	-83.276899
23022		20.701792	0.480737	-82.700649
23023		20.612330	0.444701	-82.121923
23024		20.556899	0.397326	-81.541127
23025		20.516706	0.347158	-80.948000
23026		20.477507	0.298682	-80.349004
23027		20.432213	0.260993	-79.738258
23028		20.383577	0.229946	-79.120414
23029		20.326723	0.203950	-78.496528
23030		20.273334	0.179052	-77.872370
23031		20.230636	0.140010	-77.252548
23032		20.196042	0.092679	-76.634646
23033		20.152087	0.057137	-76.000979
23034		20.087265	0.022762	-75.358431
23035		19.995954	-0.015079	-74.707299
23036		19.895704	-0.054540	-74.050008
23037		19.800836	-0.096196	-73.382506
23038		19.728718	-0.146477	-72.711612
23039		19.685716	-0.200534	-72.039353
23040		19.685085	-0.268843	-71.376517
23041		19.717158	-0.343703	-70.707289
23042		19.774692	-0.436942	-70.033757
23043		19.831496	-0.536847	-69.352534
23044		19.868579	-0.635154	-68.659761
23045		19.864361	-0.731040	-67.959602
23046		19.817819	-0.826824	-67.251592
23047		19.744523	-0.924541	-66.536347
23048		19.654507	-1.024826	-65.822115
23049		19.562848	-1.127701	-65.108509
23050		19.485990	-1.243366	-64.401354
23051		19.409688	-1.359741	-63.691625
23052		19.324855	-1.470730	-62.981115
23053		19.219015	-1.581800	-62.268967
23054		19.101371	-1.694735	-61.554949
23055		18.970826	-1.792973	-60.834872
23056		18.849570	-1.894439	-60.110592
23057		18.729650	-1.987172	-59.382037
23058		18.614704	-2.072976	-58.657361
23059		18.506164	-2.156628	-57.938000
23060		18.409015	-2.246179	-57.226565
23061		18.335798	-2.336249	-56.513746
23062		18.285547	-2.427321	-55.798400
23063		18.246784	-2.519430	-55.078566
23064		18.215625	-2.612229	-54.357331
23065		18.177519	-2.692360	-53.628575
23066		18.140284	-2.765721	-52.898439
23067		18.101534	-2.835703	-52.167709
23068		18.068232	-2.902092	-51.440210
23069		18.045115	-2.971621	-50.715547
23070		18.016438	-3.041074	-49.999876
23071		17.990652	-3.105453	-49.279634
23072		17.969691	-3.170377	-48.556311
23073		17.933260	-3.222880	-47.820564
23074		17.909443	-3.276042	-47.075346
23075		17.920280	-3.344806	-46.331470
23076		17.963890	-3.421623	-45.584862
23077		18.026150	-3.501160	-44.829833
23078		18.083158	-3.587338	-44.071318
23079		18.104647	-3.664610	-43.312242
23080		18.087826	-3.715566	-42.559111
23081		18.027600	-3.751061	-41.812720
23082		17.922955	-3.788803	-41.082303
23083		17.782161	-3.816369	-40.361231
23084		17.616416	-3.826772	-39.645385
23085		17.420732	-3.837371	-38.940160
23086		17.197057	-3.864551	-38.244329
23087		16.947850	-3.899871	-37.557657
23088		16.685440	-3.932073	-36.873847
23089		16.418550	-3.948791	-36.189462
23090		16.168894	-3.961796	-35.519228
23091		15.954959	-3.980591	-34.872950
23092		15.789988	-3.999532	-34.259520
23093		15.674306	-4.022846	-33.661102
23094		15.590504	-4.056771	-33.078458
23095		15.496130	-4.079824	-32.491264
23096		15.395190	-4.087972	-31.909202
23097		15.278285	-4.093368	-31.336838
23098		15.163012	-4.097133	-30.785459
23099		15.078439	-4.098176	-30.247935
23100		15.016037	-4.097785	-29.718209
23101		14.958241	-4.087491	-29.195304
23102		14.906098	-4.086079	-28.673753
23103		14.847077	-4.092929	-28.157836
23104		14.762529	-4.082614	-27.642475
23105		14.654647	-4.057656	-27.131572
23106		14.543316	-4.019176	-26.634932
23107		14.457159	-3.977894	-26.150306
23108		14.406476	-3.945308	-25.672013
23109		14.370792	-3.914428	-25.191507
23110		14.349466	-3.890476	-24.713273
23111		14.330706	-3.862388	-24.230321
23112		14.299333	-3.826756	-23.754327
23113		14.253125	-3.782608	-23.286351
23114		14.210782	-3.744480	-22.824131
23115		14.166590	-3.705131	-22.366292
23116		14.123999	-3.655862	-21.912997
23117		14.103667	-3.608107	-21.466606
23118		14.075020	-3.553157	-21.027622
23119		14.032897	-3.496598	-20.594092
23120		13.961670	-3.439119	-20.180634
23121		13.866078	-3.372427	-19.784543
23122		13.761331	-3.303601	-19.402171
23123		13.642431	-3.223897	-19.032091
23124		13.510925	-3.132852	-18.670057
23125		13.399593	-3.042636	-18.323270
23126		13.312256	-2.954058	-17.995804
23127		13.256729	-2.864424	-17.687307
23128		13.240056	-2.775732	-17.397508
23129		13.242333	-2.705072	-17.120482
23130		13.224074	-2.647472	-16.846715
23131		13.160199	-2.585495	-16.574482
23132		13.063134	-2.513977	-16.311639
23133		12.965888	-2.439970	-16.064519
23134		12.883369	-2.359190	-15.836323
23135		12.833218	-2.281812	-15.628385
23136		12.806761	-2.216594	-15.419245
23137		12.772546	-2.157232	-15.211723
23138		12.691508	-2.085647	-15.000568
23139		12.566219	-2.001493	-14.791073
23140		12.401064	-1.913967	-14.591493
23141		12.206927	-1.820953	-14.407736
23142		12.019105	-1.726911	-14.228351
23143		11.847029	-1.634474	-14.049314
23144		11.676744	-1.545194	-13.869444
23145		11.496093	-1.461804	-13.684862
23146		11.302864	-1.380945	-13.504814
23147		11.110161	-1.304898	-13.339474
23148		10.943797	-1.244046	-13.188687
23149		10.821576	-1.187532	-13.062041
23150		10.763851	-1.135231	-12.953598
23151		10.756843	-1.099458	-12.857237
23152		10.767209	-1.085037	-12.766061
23153		10.782358	-1.076089	-12.680129
23154		10.802391	-1.061074	-12.595144
23155		10.837370	-1.044168	-12.519993
23156		10.877508	-1.028637	-12.459176
23157		10.929687	-1.010401	-12.413087
23158		10.989828	-0.998611	-12.377017
23159		11.032968	-0.990805	-12.337302
23160		11.046422	-0.986653	-12.286287
23161		11.038740	-0.985347	-12.227489
23162		10.998072	-0.978797	-12.167393
23163		10.941513	-0.968014	-12.119476
23164		10.888055	-0.955824	-12.091728
23165		10.852749	-0.940152	-12.082235
23166		10.846046	-0.918564	-12.087978
23167		10.860648	-0.902814	-12.097233
23168		10.887843	-0.900359	-12.108116
23169		10.910109	-0.899187	-12.112137
23170		10.922137	-0.892993	-12.110293
23171		10.931082	-0.886548	-12.114991
23172		10.947509	-0.882449	-12.133870
23173		10.987759	-0.878496	-12.165541
23174		11.040462	-0.866991	-12.197807
23175		11.094857	-0.848324	-12.233641
23176		11.133464	-0.830093	-12.264572
23177		11.156642	-0.815926	-12.302057
23178		11.164663	-0.797305	-12.339591
23179		11.174894	-0.771881	-12.382097
23180		11.189050	-0.747185	-12.431155
23181		11.215995	-0.720543	-12.490019
23182		11.252463	-0.698485	-12.552187
23183		11.280695	-0.668670	-12.614429
23184		11.283643	-0.633189	-12.678744
23185		11.272042	-0.589056	-12.746659
23186		11.250142	-0.545110	-12.817054
23187		11.229299	-0.502300	-12.892615
23188		11.213604	-0.464174	-12.973425
23189		11.216258	-0.438733	-13.058659
23190		11.236519	-0.418920	-13.144771
23191		11.276418	-0.395114	-13.230522
23192		11.321184	-0.376462	-13.311181
23193		11.349174	-0.355683	-13.395401
23194		11.364390	-0.332269	-13.486430
23195		11.390088	-0.315122	-13.593173
23196		11.428860	-0.299818	-13.709674
23197		11.479703	-0.285018	-13.830860
23198		11.528415	-0.277864	-13.951491
23199		11.564693	-0.274783	-14.070864
23200		11.582292	-0.269053	-14.188274
23201		11.582365	-0.262040	-14.306368
23202		11.569194	-0.259014	-14.425938
23203		11.559773	-0.257971	-14.556199
23204		11.571834	-0.256317	-14.696617
23205		11.602776	-0.257637	-14.848709
23206		11.645225	-0.273524	-15.004171
23207		11.693990	-0.288151	-15.167136
23208		11.742583	-0.302395	-15.331283
23209		11.793666	-0.312450	-15.502693
23210		11.844497	-0.325096	-15.683208
23211		11.901670	-0.337350	-15.873813
23212		11.959467	-0.350018	-16.068079
23213		12.015104	-0.363024	-16.268522
23214		12.049370	-0.375809	-16.463884
23215		12.056919	-0.389432	-16.663058
23216		12.049554	-0.392834	-16.866147
23217		12.047027	-0.394022	-17.081515
23218		12.062252	-0.394752	-17.311112
23219		12.099412	-0.399655	-17.551921
23220		12.152879	-0.410733	-17.799196
23221		12.223946	-0.426439	-18.046322
23222		12.304468	-0.444487	-18.297930
23223		12.383485	-0.453235	-18.552472
23224		12.461861	-0.462372	-18.815892
23225		12.536800	-0.475141	-19.088994
23226		12.595626	-0.481269	-19.367229
23227		12.646141	-0.484608	-19.651595
23228		12.681778	-0.490321	-19.942089
23229		12.709202	-0.496654	-20.234417
23230		12.733814	-0.498877	-20.524894
23231		12.761661	-0.495298	-20.823848
23232		12.799692	-0.497054	-21.128254
23233		12.846684	-0.502013	-21.447208
23234		12.905448	-0.509952	-21.774178
23235		12.964568	-0.522547	-22.109786
23236		12.997808	-0.539063	-22.443780
23237		13.002444	-0.554435	-22.778783
23238		12.984326	-0.568518	-23.119323
23239		12.956508	-0.583011	-23.468351
23240		12.928486	-0.597809	-23.825270
23241		12.923803	-0.612792	-24.194759
23242		12.947417	-0.632536	-24.571604
23243		13.006044	-0.661809	-24.956866
23244		13.080105	-0.706545	-25.342067
23245		13.143533	-0.750712	-25.732641
23246		13.190547	-0.787356	-26.124332
23247		13.235357	-0.821520	-26.526028
23248		13.276357	-0.856964	-26.938197
23249		13.333113	-0.889412	-27.360158
23250		13.406569	-0.926634	-27.789528
23251		13.497188	-0.968925	-28.225980
23252		13.581925	-1.025139	-28.661387
23253		13.655880	-1.080002	-29.104188
23254		13.719175	-1.132329	-29.546735
23255		13.778259	-1.177370	-29.993386
23256		13.821659	-1.222430	-30.439830
23257		13.850738	-1.267937	-30.893855
23258		13.861826	-1.310205	-31.354909
23259		13.871690	-1.343762	-31.829895
23260		13.887089	-1.380636	-32.316610
23261		13.906611	-1.419297	-32.811492
23262		13.909636	-1.456946	-33.304831
23263		13.908764	-1.487683	-33.800189
23264		13.900575	-1.524618	-34.302974
23265		13.893415	-1.562566	-34.816491
23266		13.894572	-1.601624	-35.341083
23267		13.917291	-1.639829	-35.874103
23268		13.946296	-1.676758	-36.411751
23269		13.983056	-1.719174	-36.958832
23270		14.026453	-1.770000	-37.511624
23271		14.067388	-1.808038	-38.078392
23272		14.108676	-1.844540	-38.654842
23273		14.157633	-1.876955	-39.246391
23274		14.202647	-1.905016	-39.849130
23275		14.249664	-1.933611	-40.466978
23276		14.300160	-1.974074	-41.092605
23277		14.353540	-2.011266	-41.729631
23278		14.409250	-2.048572	-42.372486
23279		14.472910	-2.085462	-43.023535
23280		14.523211	-2.118830	-43.686313
23281		14.578373	-2.147694	-44.367959
23282		14.627114	-2.174947	-45.062383
23283		14.671409	-2.199071	-45.765782
23284		14.700554	-2.229259	-46.474298
23285		14.729261	-2.251661	-47.194904
23286		14.763704	-2.275161	-47.926753
23287		14.808930	-2.299973	-48.665668
23288		14.843691	-2.331034	-49.407620
23289		14.865233	-2.355963	-50.153509
23290		14.877671	-2.380099	-50.902322
23291		14.882276	-2.393458	-51.661550
23292		14.872367	-2.407736	-52.427264
23293		14.865495	-2.422562	-53.203511
23294		14.849905	-2.434941	-53.976446
23295		14.835226	-2.438976	-54.752710
23296		14.819754	-2.442784	-55.525903
23297		14.801640	-2.438135	-56.298950
23298		14.787383	-2.430911	-57.069977
23299		14.782164	-2.420193	-57.841365
23300		14.788000	-2.409145	-58.603545
23301		14.812579	-2.394022	-59.360181
23302		14.851481	-2.388830	-60.102596
23303		14.916616	-2.387790	-60.831240
23304		15.011155	-2.387756	-61.547591
23305		15.150392	-2.384450	-62.260608
23306		15.329101	-2.388281	-62.971377
23307		15.537321	-2.393078	-63.679779
