// General information: 
//  MT Manager version: 2022.2.0 
//  XDA version: 2022.2.0 build 7381 rev 124627 built on 2023-07-19
// Device information: 
//  DeviceId: 00B447FA
//  ProductCode: MTW2-3A7G6
//  Firmware Version: 4.3.5
//  Hardware Version: 2.0.0
// Device settings: 
//  Filter Profile: human(46.1)
//  Option Flags: Orientation Smoother Disabled, Position/Velocity Smoother Disabled, Continuous Zero Rotation Update Disabled, AHS Disabled, ICC Disabled
// Coordinate system: ENU
PacketCounter	SampleTimeFine	Roll	Pitch	Yaw
20147		10.541226	1.760804	-17.748978
20148		10.444827	1.747086	-17.669313
20149		10.336405	1.736188	-17.609829
20150		10.229437	1.733305	-17.562034
20151		10.131583	1.729323	-17.522833
20152		10.060816	1.733147	-17.496021
20153		10.011225	1.740219	-17.475650
20154		9.979256	1.761209	-17.459897
20155		9.948141	1.787608	-17.451553
20156		9.909701	1.822799	-17.446044
20157		9.855965	1.857395	-17.445890
20158		9.783994	1.901668	-17.440959
20159		9.693277	1.943386	-17.437946
20160		9.586388	1.989088	-17.434699
20161		9.468973	2.034275	-17.425583
20162		9.362604	2.081179	-17.417464
20163		9.269858	2.125393	-17.409260
20164		9.201229	2.174214	-17.404856
20165		9.153283	2.213688	-17.404244
20166		9.116690	2.248277	-17.401122
20167		9.093348	2.284432	-17.398251
20168		9.079304	2.318958	-17.394836
20169		9.071820	2.349355	-17.390686
20170		9.081485	2.380473	-17.386192
20171		9.099009	2.403222	-17.374560
20172		9.130846	2.424221	-17.361238
20173		9.163015	2.436645	-17.342601
20174		9.190710	2.442658	-17.321125
20175		9.206029	2.444099	-17.292622
20176		9.219630	2.440875	-17.262555
20177		9.234094	2.430320	-17.228761
20178		9.260875	2.415479	-17.191172
20179		9.296632	2.393898	-17.144015
20180		9.333604	2.369851	-17.090973
20181		9.356319	2.338904	-17.028040
20182		9.369826	2.305234	-16.958882
20183		9.368162	2.259829	-16.882168
20184		9.352256	2.207020	-16.802230
20185		9.332115	2.144647	-16.720731
20186		9.312920	2.076009	-16.640478
20187		9.310995	2.000060	-16.558255
20188		9.329283	1.926724	-16.473712
20189		9.366476	1.854182	-16.388573
20190		9.405654	1.782541	-16.306074
20191		9.447537	1.706529	-16.230810
20192		9.478420	1.629500	-16.160858
20193		9.504929	1.548328	-16.102583
20194		9.513059	1.482983	-16.056675
20195		9.486811	1.434599	-16.029051
20196		9.419076	1.397433	-16.032563
20197		9.301933	1.361581	-16.052948
20198		9.157315	1.340388	-16.088239
20199		9.007302	1.315057	-16.131385
20200		8.877965	1.291473	-16.182558
20201		8.796140	1.261578	-16.232998
20202		8.783905	1.229740	-16.278537
20203		8.837821	1.192325	-16.311204
20204		8.944979	1.155379	-16.328691
20205		9.091106	1.111378	-16.342524
20206		9.253148	1.066642	-16.342522
20207		9.413954	1.024038	-16.329008
20208		9.557977	0.994835	-16.305942
20209		9.676643	0.959730	-16.279280
20210		9.770120	0.927288	-16.250388
20211		9.842095	0.897866	-16.216916
20212		9.894371	0.879339	-16.179044
20213		9.924007	0.865660	-16.139183
20214		9.928932	0.868841	-16.106113
20215		9.915754	0.880496	-16.077916
20216		9.884174	0.898937	-16.054977
20217		9.855511	0.914008	-16.033736
20218		9.868547	0.929951	-16.012815
20219		9.959208	0.945362	-15.989579
20220		10.132337	0.964665	-15.964001
20221		10.359877	0.995523	-15.940000
20222		10.620204	1.048408	-15.917663
20223		10.863321	1.115388	-15.899382
20224		11.063384	1.184983	-15.892846
20225		11.208920	1.247473	-15.889167
20226		11.309500	1.308269	-15.886451
20227		11.365489	1.366397	-15.878395
20228		11.379590	1.422559	-15.867259
20229		11.362608	1.472138	-15.853034
20230		11.342970	1.523167	-15.830510
20231		11.335865	1.563506	-15.805406
20232		11.351001	1.597658	-15.783792
20233		11.399575	1.623718	-15.755615
20234		11.483164	1.652157	-15.726478
20235		11.594656	1.671639	-15.701715
20236		11.716073	1.687187	-15.682480
20237		11.817256	1.702320	-15.658333
20238		11.890097	1.721335	-15.640425
20239		11.917019	1.738303	-15.628162
20240		11.905669	1.760943	-15.619949
20241		11.864940	1.780659	-15.617922
20242		11.807699	1.796705	-15.619722
20243		11.745859	1.810679	-15.618828
20244		11.696881	1.817405	-15.621295
20245		11.668565	1.813971	-15.629528
20246		11.658231	1.815993	-15.639194
20247		11.650152	1.809416	-15.649965
20248		11.639454	1.800590	-15.666621
20249		11.616624	1.786273	-15.684332
20250		11.585206	1.769029	-15.706023
20251		11.542646	1.748738	-15.731540
20252		11.504852	1.725007	-15.767604
20253		11.476227	1.698217	-15.808834
20254		11.460481	1.668512	-15.858896
20255		11.452916	1.636489	-15.909508
20256		11.461900	1.604095	-15.964401
20257		11.491087	1.569147	-16.023816
20258		11.531399	1.536126	-16.091852
20259		11.572884	1.504212	-16.163482
20260		11.608289	1.479642	-16.240212
20261		11.627882	1.458890	-16.315930
20262		11.636789	1.448321	-16.395300
20263		11.636029	1.430957	-16.479091
20264		11.644604	1.415212	-16.562611
20265		11.656097	1.400694	-16.647573
20266		11.663196	1.389630	-16.738855
20267		11.653322	1.375323	-16.834413
20268		11.613482	1.366119	-16.938152
20269		11.538729	1.346741	-17.052432
20270		11.446326	1.330338	-17.177969
20271		11.351237	1.312392	-17.310365
20272		11.254108	1.296731	-17.454815
20273		11.164105	1.277207	-17.609503
20274		11.077294	1.262125	-17.777367
20275		10.988785	1.248582	-17.953044
20276		10.895656	1.235411	-18.142770
20277		10.789293	1.213094	-18.342041
20278		10.669861	1.189856	-18.554204
20279		10.531085	1.165178	-18.773794
20280		10.381742	1.139916	-19.010264
20281		10.219360	1.107368	-19.260403
20282		10.045705	1.073771	-19.526850
20283		9.870956	1.034386	-19.809537
20284		9.711210	0.993067	-20.104258
20285		9.568826	0.943384	-20.415212
20286		9.457846	0.892937	-20.741024
20287		9.380716	0.826747	-21.084103
20288		9.333292	0.759285	-21.439636
20289		9.310192	0.683080	-21.811855
20290		9.292045	0.605325	-22.196752
20291		9.261484	0.519325	-22.595532
20292		9.214882	0.437254	-23.008621
20293		9.146150	0.353046	-23.435326
20294		9.062484	0.267689	-23.876292
20295		8.970354	0.184353	-24.330046
20296		8.900223	0.103996	-24.804622
20297		8.828755	0.020783	-25.293979
20298		8.767171	-0.067428	-25.800536
20299		8.720212	-0.150019	-26.320882
20300		8.682412	-0.227685	-26.853798
20301		8.640397	-0.306030	-27.402840
20302		8.601907	-0.381705	-27.965551
20303		8.554325	-0.460254	-28.533414
20304		8.507217	-0.529791	-29.111597
20305		8.450163	-0.589476	-29.706681
20306		8.380842	-0.640130	-30.314947
20307		8.282849	-0.681639	-30.933193
20308		8.164073	-0.717555	-31.562158
20309		8.027546	-0.756864	-32.193522
20310		7.906563	-0.795587	-32.830169
20311		7.811764	-0.835610	-33.463425
20312		7.741276	-0.875840	-34.091674
20313		7.690971	-0.912205	-34.711462
20314		7.682940	-0.944269	-35.325157
20315		7.712841	-0.983681	-35.925331
20316		7.770217	-1.029423	-36.507202
20317		7.845693	-1.077581	-37.066977
20318		7.949926	-1.135492	-37.615945
20319		8.091548	-1.210051	-38.147708
20320		8.268758	-1.289132	-38.666106
20321		8.452349	-1.365017	-39.171333
20322		8.613282	-1.442369	-39.671655
20323		8.726116	-1.518329	-40.170364
20324		8.775160	-1.587122	-40.671138
20325		8.733911	-1.661681	-41.169063
20326		8.616169	-1.734435	-41.663267
20327		8.456996	-1.810913	-42.155529
20328		8.285489	-1.886376	-42.649099
20329		8.109843	-1.966516	-43.142881
20330		7.959971	-2.045609	-43.642310
20331		7.854040	-2.123297	-44.140301
20332		7.802207	-2.195411	-44.640511
20333		7.791866	-2.267818	-45.142288
20334		7.820396	-2.339328	-45.648703
20335		7.885199	-2.417169	-46.158212
20336		7.974140	-2.489079	-46.679299
20337		8.059850	-2.563652	-47.213150
20338		8.136335	-2.637468	-47.762700
20339		8.203979	-2.700202	-48.320128
20340		8.266810	-2.756244	-48.895790
20341		8.312359	-2.807271	-49.480513
20342		8.327508	-2.849406	-50.086053
20343		8.304524	-2.886084	-50.705213
20344		8.233985	-2.899678	-51.337546
20345		8.085543	-2.895654	-51.987926
20346		7.844259	-2.879791	-52.660577
20347		7.511392	-2.857592	-53.353471
20348		7.103804	-2.829466	-54.068692
20349		6.648852	-2.804847	-54.802889
20350		6.226424	-2.782709	-55.568290
20351		5.875781	-2.768931	-56.368425
20352		5.595373	-2.746987	-57.201375
20353		5.361640	-2.732390	-58.062930
20354		5.178165	-2.729497	-58.959281
20355		5.045922	-2.730079	-59.879516
20356		4.975627	-2.733272	-60.820313
20357		4.971677	-2.742250	-61.767452
20358		5.026428	-2.743334	-62.724980
20359		5.104393	-2.753584	-63.687874
20360		5.197437	-2.766905	-64.656158
20361		5.285547	-2.783968	-65.619011
20362		5.375195	-2.814945	-66.576246
20363		5.454117	-2.855803	-67.521871
20364		5.551535	-2.884809	-68.455629
20365		5.657240	-2.913368	-69.382805
20366		5.749483	-2.946118	-70.304839
20367		5.802587	-2.978548	-71.210180
20368		5.824500	-3.010305	-72.110481
20369		5.843530	-3.054070	-73.000745
20370		5.908378	-3.102925	-73.882070
20371		6.050367	-3.154410	-74.750516
20372		6.287125	-3.216709	-75.611831
20373		6.608675	-3.280361	-76.454457
20374		6.990462	-3.328883	-77.285709
20375		7.379040	-3.374165	-78.115469
20376		7.745275	-3.410026	-78.944517
20377		8.103601	-3.463239	-79.773536
20378		8.507061	-3.528148	-80.594569
20379		8.941189	-3.553877	-81.392927
20380		9.350721	-3.553829	-82.184528
20381		9.693713	-3.540548	-82.959175
20382		9.979763	-3.488809	-83.719371
20383		10.214293	-3.418755	-84.477393
20384		10.400670	-3.351277	-85.237030
20385		10.538823	-3.293803	-85.993151
20386		10.649913	-3.238000	-86.749282
20387		10.759893	-3.194260	-87.498713
20388		10.925849	-3.175182	-88.240736
20389		11.205898	-3.168251	-88.969332
20390		11.595689	-3.141872	-89.683492
20391		12.012540	-3.096933	-90.385010
20392		12.351127	-3.040171	-91.085802
20393		12.559654	-2.987947	-91.778951
20394		12.647716	-2.923914	-92.455226
20395		12.667928	-2.861979	-93.118574
20396		12.697671	-2.818020	-93.766477
20397		12.817745	-2.782557	-94.390537
20398		13.040243	-2.746296	-94.997062
20399		13.353772	-2.707991	-95.593432
20400		13.723694	-2.665718	-96.186864
20401		14.088853	-2.616444	-96.764647
20402		14.414924	-2.561025	-97.329785
20403		14.689078	-2.499854	-97.883560
20404		14.917276	-2.439344	-98.422668
20405		15.110859	-2.369154	-98.932758
20406		15.276498	-2.291082	-99.425642
20407		15.432581	-2.222230	-99.907813
20408		15.607435	-2.164511	-100.368810
20409		15.827130	-2.112459	-100.811460
20410		16.066414	-2.062233	-101.241512
20411		16.294141	-2.021585	-101.657304
20412		16.480184	-1.978188	-102.053245
20413		16.609059	-1.930905	-102.434912
20414		16.692089	-1.893344	-102.804715
20415		16.734835	-1.859044	-103.162175
20416		16.741056	-1.829538	-103.501712
20417		16.701674	-1.798213	-103.829663
20418		16.601625	-1.751840	-104.148412
20419		16.451785	-1.704216	-104.456301
20420		16.291762	-1.665820	-104.754212
20421		16.190215	-1.648965	-105.039545
20422		16.179537	-1.651990	-105.312593
20423		16.275409	-1.662879	-105.569931
20424		16.435492	-1.679765	-105.818869
20425		16.605651	-1.695152	-106.061351
20426		16.743907	-1.710023	-106.301711
20427		16.840511	-1.722784	-106.536678
20428		16.882733	-1.729957	-106.761400
20429		16.891805	-1.743342	-106.981436
20430		16.899187	-1.759879	-107.192737
20431		16.951115	-1.786299	-107.399896
20432		17.082287	-1.821993	-107.602985
20433		17.313648	-1.858067	-107.805814
20434		17.594458	-1.888169	-108.009517
20435		17.862635	-1.914928	-108.218507
20436		18.065304	-1.933841	-108.425031
20437		18.216919	-1.947640	-108.625567
20438		18.347598	-1.971237	-108.821872
20439		18.492345	-1.988033	-109.011109
20440		18.658596	-2.003665	-109.200235
20441		18.861510	-2.020240	-109.391531
20442		19.088436	-2.024419	-109.582145
20443		19.323802	-2.022762	-109.772021
20444		19.553799	-2.017396	-109.963182
20445		19.764356	-1.999914	-110.149348
20446		19.940394	-1.977906	-110.331904
20447		20.100702	-1.954153	-110.510031
20448		20.260038	-1.926926	-110.684344
20449		20.429611	-1.897314	-110.855000
20450		20.607549	-1.865527	-111.025251
20451		20.801673	-1.836620	-111.192572
20452		21.010007	-1.816560	-111.359161
20453		21.247166	-1.802328	-111.527860
20454		21.483690	-1.780287	-111.690320
20455		21.694049	-1.756585	-111.851947
20456		21.852794	-1.714178	-112.017739
20457		21.964553	-1.665144	-112.190456
20458		22.058102	-1.613261	-112.371227
20459		22.161946	-1.562036	-112.554935
20460		22.283424	-1.508599	-112.735849
20461		22.434940	-1.461641	-112.916962
20462		22.619786	-1.425043	-113.093541
20463		22.836844	-1.397703	-113.260047
20464		23.064587	-1.373209	-113.416304
20465		23.286593	-1.347787	-113.564314
20466		23.484574	-1.321153	-113.702293
20467		23.652819	-1.294877	-113.828021
20468		23.775574	-1.266304	-113.940047
20469		23.863855	-1.238260	-114.038429
20470		23.927696	-1.209788	-114.121120
20471		23.990760	-1.179822	-114.190240
20472		24.065082	-1.143440	-114.245080
20473		24.156576	-1.110681	-114.294336
20474		24.260483	-1.080384	-114.335859
20475		24.370061	-1.049893	-114.365281
20476		24.478621	-1.016110	-114.386511
20477		24.581899	-0.987063	-114.405821
20478		24.661359	-0.952829	-114.415094
20479		24.721900	-0.924730	-114.418045
20480		24.767698	-0.897036	-114.413303
20481		24.806676	-0.873560	-114.400790
20482		24.831289	-0.848540	-114.384119
20483		24.854740	-0.830485	-114.360191
20484		24.880163	-0.815742	-114.330578
20485		24.919044	-0.804966	-114.295902
20486		24.968370	-0.796176	-114.261796
20487		25.033312	-0.793087	-114.225479
20488		25.093442	-0.786245	-114.187346
20489		25.142230	-0.777384	-114.146675
20490		25.155683	-0.763887	-114.100545
20491		25.136499	-0.747641	-114.048979
20492		25.084153	-0.726650	-113.989480
20493		25.026599	-0.707901	-113.925693
20494		24.979519	-0.693802	-113.852828
20495		24.963444	-0.684466	-113.775120
20496		24.960275	-0.678037	-113.692502
20497		24.955020	-0.674128	-113.604983
20498		24.929023	-0.670312	-113.519459
20499		24.881900	-0.672740	-113.434589
20500		24.809248	-0.670683	-113.349045
20501		24.732629	-0.671122	-113.256674
20502		24.662382	-0.679423	-113.162116
20503		24.620938	-0.697873	-113.064735
20504		24.598734	-0.715523	-112.961907
20505		24.590580	-0.740503	-112.855028
20506		24.581913	-0.769581	-112.745293
20507		24.581269	-0.805205	-112.627518
20508		24.588098	-0.843443	-112.503545
20509		24.599143	-0.882647	-112.367416
20510		24.606374	-0.921169	-112.213708
20511		24.600775	-0.965900	-112.040968
20512		24.586844	-1.008273	-111.849099
20513		24.572271	-1.057649	-111.640337
20514		24.555627	-1.108942	-111.418296
20515		24.551737	-1.164724	-111.186044
20516		24.553107	-1.214108	-110.945584
20517		24.567366	-1.270545	-110.699774
20518		24.581316	-1.325141	-110.446483
20519		24.597407	-1.375006	-110.181416
20520		24.610286	-1.425160	-109.909839
20521		24.613604	-1.474051	-109.627595
20522		24.590157	-1.515763	-109.338088
20523		24.547360	-1.551870	-109.040930
20524		24.488240	-1.584020	-108.740324
20525		24.448373	-1.616463	-108.428922
20526		24.429918	-1.646233	-108.110147
20527		24.432305	-1.679893	-107.774844
20528		24.430344	-1.709706	-107.433698
20529		24.414512	-1.743317	-107.080838
20530		24.369721	-1.779461	-106.718621
20531		24.306811	-1.818669	-106.346474
20532		24.225552	-1.857957	-105.965318
20533		24.150669	-1.902493	-105.573488
20534		24.065966	-1.944005	-105.172849
20535		23.976951	-1.986409	-104.760189
20536		23.867651	-2.034729	-104.342604
20537		23.754074	-2.085807	-103.915829
20538		23.624716	-2.128847	-103.479487
20539		23.495365	-2.177944	-103.037653
20540		23.365171	-2.229392	-102.590395
20541		23.254312	-2.289822	-102.133107
20542		23.152065	-2.347959	-101.663405
20543		23.066945	-2.416624	-101.180742
20544		22.977798	-2.480646	-100.687141
20545		22.889645	-2.544644	-100.184022
20546		22.802372	-2.603242	-99.672363
20547		22.724367	-2.666502	-99.150647
20548		22.636872	-2.722940	-98.620774
20549		22.543143	-2.781072	-98.080454
20550		22.437730	-2.833714	-97.529617
20551		22.331254	-2.890789	-96.972458
20552		22.218214	-2.946535	-96.407879
20553		22.099543	-3.005097	-95.830562
20554		21.966981	-3.062707	-95.246399
20555		21.837044	-3.130148	-94.654793
20556		21.698758	-3.196771	-94.052555
20557		21.567266	-3.265739	-93.433339
20558		21.434227	-3.339111	-92.804488
20559		21.317243	-3.419425	-92.167188
20560		21.226029	-3.506733	-91.524327
20561		21.169000	-3.601688	-90.875510
20562		21.135657	-3.698641	-90.223545
20563		21.145059	-3.798750	-89.572533
20564		21.206400	-3.904050	-88.929953
20565		21.345968	-4.022561	-88.293357
20566		21.544753	-4.131248	-87.650218
20567		21.793148	-4.247662	-87.013681
20568		22.044070	-4.369121	-86.383077
20569		22.288259	-4.482401	-85.745746
20570		22.476773	-4.582651	-85.105567
20571		22.626989	-4.687218	-84.471464
20572		22.746225	-4.783188	-83.836887
20573		22.858386	-4.879584	-83.202832
20574		22.955407	-4.968812	-82.572201
20575		23.057879	-5.056750	-81.943095
20576		23.158161	-5.135082	-81.311360
20577		23.260243	-5.209859	-80.681435
20578		23.337096	-5.268468	-80.049186
20579		23.380230	-5.317199	-79.417275
20580		23.378306	-5.351735	-78.783992
20581		23.356492	-5.382411	-78.152578
20582		23.343939	-5.410262	-77.519984
20583		23.355222	-5.435250	-76.884829
20584		23.381403	-5.460467	-76.253840
20585		23.444619	-5.504413	-75.629358
20586		23.523012	-5.534251	-74.996209
20587		23.591159	-5.562738	-74.364483
20588		23.629013	-5.591400	-73.737695
20589		23.632559	-5.619410	-73.108862
20590		23.594631	-5.634491	-72.471280
20591		23.535556	-5.653555	-71.825905
20592		23.485025	-5.670528	-71.174023
20593		23.472414	-5.701461	-70.516275
20594		23.468173	-5.732009	-69.853323
20595		23.446649	-5.771910	-69.185637
20596		23.403417	-5.815785	-68.516125
20597		23.357755	-5.876351	-67.845175
20598		23.318159	-5.937577	-67.166344
20599		23.296808	-6.010587	-66.483782
20600		23.296820	-6.082856	-65.792120
20601		23.330197	-6.158623	-65.096631
20602		23.377198	-6.228110	-64.396451
20603		23.413311	-6.291373	-63.694357
20604		23.416342	-6.341321	-62.998383
20605		23.391205	-6.392898	-62.305720
20606		23.351839	-6.443979	-61.621820
20607		23.327205	-6.490211	-60.931980
20608		23.337366	-6.529933	-60.240133
20609		23.384617	-6.576349	-59.549727
20610		23.427325	-6.610061	-58.856485
20611		23.424254	-6.637394	-58.165319
20612		23.350960	-6.663917	-57.480733
20613		23.252356	-6.694556	-56.803225
20614		23.174547	-6.721733	-56.126847
20615		23.158601	-6.751500	-55.449490
20616		23.192584	-6.768076	-54.769343
20617		23.252855	-6.782046	-54.091492
20618		23.283841	-6.786148	-53.418351
20619		23.250098	-6.778592	-52.744867
20620		23.164174	-6.768693	-52.086547
20621		23.098277	-6.770901	-51.438554
20622		23.122873	-6.771396	-50.791088
20623		23.275832	-6.784600	-50.150467
20624		23.534726	-6.785389	-49.512070
20625		23.847197	-6.771577	-48.869388
20626		24.149972	-6.744011	-48.225100
20627		24.424312	-6.735479	-47.582331
20628		24.692787	-6.746989	-46.928232
20629		25.007439	-6.782198	-46.251378
20630		25.389068	-6.822695	-45.556364
20631		25.863717	-6.864791	-44.852576
20632		26.350023	-6.894908	-44.145765
20633		26.712528	-6.932602	-43.460179
20634		26.866373	-6.973206	-42.791372
20635		26.830798	-7.014801	-42.130553
20636		26.695088	-7.054796	-41.483229
20637		26.561889	-7.104329	-40.843716
20638		26.491999	-7.157695	-40.212654
20639		26.491080	-7.218300	-39.583733
20640		26.516620	-7.271087	-38.956095
20641		26.502410	-7.317135	-38.321641
20642		26.395287	-7.346334	-37.685379
20643		26.169067	-7.374167	-37.056528
20644		25.846822	-7.403833	-36.430550
20645		25.516171	-7.443115	-35.808536
20646		25.235301	-7.491399	-35.193396
20647		25.037020	-7.538960	-34.584291
20648		24.885280	-7.574829	-33.980302
20649		24.719104	-7.608386	-33.391018
20650		24.474758	-7.623835	-32.797824
20651		24.173449	-7.638284	-32.206774
20652		23.856381	-7.644043	-31.614854
20653		23.561139	-7.646035	-31.011388
20654		23.333165	-7.650226	-30.423904
20655		23.181404	-7.656518	-29.861408
20656		23.082950	-7.654597	-29.313756
20657		22.987032	-7.626618	-28.771817
20658		22.828072	-7.584810	-28.244731
20659		22.579584	-7.533167	-27.728942
20660		22.278358	-7.473619	-27.210243
20661		21.986587	-7.417927	-26.694366
20662		21.750722	-7.350983	-26.186283
20663		21.585581	-7.288372	-25.695548
20664		21.472354	-7.211162	-25.228001
20665		21.358437	-7.117290	-24.764919
20666		21.187128	-7.004601	-24.292288
20667		20.917065	-6.894185	-23.811001
20668		20.551652	-6.785861	-23.323765
20669		20.166630	-6.705979	-22.837132
20670		19.832046	-6.647757	-22.362204
20671		19.566290	-6.596186	-21.894166
20672		19.347887	-6.546233	-21.437250
20673		19.123769	-6.510631	-20.999797
20674		18.873329	-6.479777	-20.575801
20675		18.625478	-6.456470	-20.171281
20676		18.413455	-6.448964	-19.786487
20677		18.263707	-6.453018	-19.414937
20678		18.220588	-6.448640	-19.051654
20679		18.282156	-6.437403	-18.702580
20680		18.395176	-6.409108	-18.359983
20681		18.493125	-6.372189	-18.034304
20682		18.523108	-6.338670	-17.728676
20683		18.462951	-6.300635	-17.434899
20684		18.331713	-6.249916	-17.148693
20685		18.184796	-6.200061	-16.888282
20686		18.074126	-6.145893	-16.647486
20687		17.993158	-6.086774	-16.417697
20688		17.907344	-6.026044	-16.208818
20689		17.794661	-5.959634	-16.010549
20690		17.660097	-5.890408	-15.821679
20691		17.511128	-5.828468	-15.634252
20692		17.387021	-5.765105	-15.448582
20693		17.313727	-5.709063	-15.268990
20694		17.287666	-5.645667	-15.094442
20695		17.260065	-5.565767	-14.918212
20696		17.175221	-5.481456	-14.753866
20697		17.000344	-5.402051	-14.588593
20698		16.797533	-5.320789	-14.426162
20699		16.655532	-5.249135	-14.267581
20700		16.605246	-5.181701	-14.113932
20701		16.605575	-5.114749	-13.955649
20702		16.591204	-5.036673	-13.804814
20703		16.522467	-4.952983	-13.654517
20704		16.385044	-4.861338	-13.506589
20705		16.195642	-4.762544	-13.347018
20706		15.995936	-4.662556	-13.188417
20707		15.817049	-4.580168	-13.033135
20708		15.683488	-4.508947	-12.889084
20709		15.606715	-4.458600	-12.754905
20710		15.592788	-4.419067	-12.633275
20711		15.612148	-4.388288	-12.516309
20712		15.654353	-4.357390	-12.407087
20713		15.676531	-4.326547	-12.301052
20714		15.657206	-4.298201	-12.202405
20715		15.577669	-4.273291	-12.106574
20716		15.466392	-4.253046	-12.019971
20717		15.339350	-4.238519	-11.949371
20718		15.235730	-4.226177	-11.892368
20719		15.153631	-4.215757	-11.848770
20720		15.108081	-4.195315	-11.827694
20721		15.079294	-4.171379	-11.820264
20722		15.045529	-4.136473	-11.822717
20723		14.986453	-4.094957	-11.829321
20724		14.904013	-4.049411	-11.848779
20725		14.804101	-4.010525	-11.870349
20726		14.708930	-3.968513	-11.895556
20727		14.619206	-3.925944	-11.920446
20728		14.558512	-3.891507	-11.953194
20729		14.524582	-3.859015	-11.986679
20730		14.497593	-3.831239	-12.018059
20731		14.449834	-3.810283	-12.044407
20732		14.388762	-3.787315	-12.072356
20733		14.308539	-3.770128	-12.094356
20734		14.221748	-3.760295	-12.111028
20735		14.121382	-3.745781	-12.117246
20736		14.031727	-3.730648	-12.129112
20737		13.956128	-3.721968	-12.141856
20738		13.906369	-3.715257	-12.153619
20739		13.886262	-3.715262	-12.163692
20740		13.908750	-3.717450	-12.174175
20741		13.970640	-3.719904	-12.183926
20742		14.059008	-3.718381	-12.192578
20743		14.125812	-3.714801	-12.196214
20744		14.140313	-3.701178	-12.197323
20745		14.086687	-3.686032	-12.194138
20746		13.990009	-3.675015	-12.189504
20747		13.883420	-3.668286	-12.180850
20748		13.804565	-3.664992	-12.174208
20749		13.762603	-3.675219	-12.164664
20750		13.762213	-3.682747	-12.156301
20751		13.786650	-3.700256	-12.159567
20752		13.810285	-3.713459	-12.177294
20753		13.787484	-3.728151	-12.203782
20754		13.702906	-3.732973	-12.240457
20755		13.564073	-3.733300	-12.293491
20756		13.419294	-3.727178	-12.366861
20757		13.271061	-3.711541	-12.458939
20758		13.120950	-3.689401	-12.577570
20759		12.956977	-3.664564	-12.717784
20760		12.798750	-3.635323	-12.875937
20761		12.652384	-3.604347	-13.049183
20762		12.553621	-3.575307	-13.240407
20763		12.492457	-3.554791	-13.437115
20764		12.456626	-3.534278	-13.635430
20765		12.402027	-3.514657	-13.835902
20766		12.326244	-3.497711	-14.041336
20767		12.223936	-3.485168	-14.249230
20768		12.125423	-3.483597	-14.463006
20769		12.033723	-3.490252	-14.679719
20770		11.966921	-3.504488	-14.908382
20771		11.914017	-3.525861	-15.145902
20772		11.865518	-3.542293	-15.394133
20773		11.796422	-3.564843	-15.645720
20774		11.722752	-3.585776	-15.905992
20775		11.642648	-3.610095	-16.165663
20776		11.578214	-3.643096	-16.432123
20777		11.537660	-3.677360	-16.710648
20778		11.522602	-3.712380	-17.002675
20779		11.515024	-3.754427	-17.308876
20780		11.537874	-3.794983	-17.632234
20781		11.581035	-3.834970	-17.967508
20782		11.653021	-3.869493	-18.317625
20783		11.721387	-3.896422	-18.671267
20784		11.767653	-3.913632	-19.025729
20785		11.782534	-3.925581	-19.380989
20786		11.787761	-3.936450	-19.741833
20787		11.787967	-3.953911	-20.105206
20788		11.824352	-3.974904	-20.478984
20789		11.893638	-4.000892	-20.861932
20790		11.987091	-4.010973	-21.261194
20791		12.065472	-4.027989	-21.671479
20792		12.134043	-4.039242	-22.095554
20793		12.170375	-4.047680	-22.522197
20794		12.185972	-4.048897	-22.954709
20795		12.178056	-4.039645	-23.391586
20796		12.144884	-4.020012	-23.833708
20797		12.065410	-4.002090	-24.282548
20798		11.969768	-3.982810	-24.738338
20799		11.871383	-3.961313	-25.202531
20800		11.805409	-3.950252	-25.678176
20801		11.776442	-3.947810	-26.158923
20802		11.785772	-3.938774	-26.650152
20803		11.793169	-3.936733	-27.151659
20804		11.777150	-3.929092	-27.660930
20805		11.709689	-3.913003	-28.169182
20806		11.588996	-3.889505	-28.679713
20807		11.406218	-3.863448	-29.188801
20808		11.187722	-3.830712	-29.696381
20809		10.925422	-3.793528	-30.197322
20810		10.637717	-3.759364	-30.706301
20811		10.338290	-3.726397	-31.225296
20812		10.018454	-3.679868	-31.756365
20813		9.634298	-3.632189	-32.300341
20814		9.197457	-3.588022	-32.865255
20815		8.743593	-3.549077	-33.447288
20816		8.347652	-3.511290	-34.046738
20817		8.041187	-3.482605	-34.655521
20818		7.833558	-3.435801	-35.285866
20819		7.681967	-3.381836	-35.942458
20820		7.548029	-3.327798	-36.623340
20821		7.398545	-3.276591	-37.312627
20822		7.277113	-3.226377	-38.008953
20823		7.207807	-3.179559	-38.703739
20824		7.214767	-3.135480	-39.397475
20825		7.255398	-3.089815	-40.082611
20826		7.295077	-3.049648	-40.770507
20827		7.301652	-3.006462	-41.452242
20828		7.275892	-2.960156	-42.132341
20829		7.231431	-2.944978	-42.808757
20830		7.230063	-2.941691	-43.475296
20831		7.280311	-2.931714	-44.130012
20832		7.389613	-2.941626	-44.790670
20833		7.536510	-2.960466	-45.448359
20834		7.703228	-2.979406	-46.101298
20835		7.852577	-2.998125	-46.746248
20836		7.978099	-3.015008	-47.395792
20837		8.089140	-3.037994	-48.050036
20838		8.217632	-3.054895	-48.702472
20839		8.359862	-3.072978	-49.352289
20840		8.535936	-3.092715	-50.003100
20841		8.746775	-3.125960	-50.651999
20842		8.997642	-3.152820	-51.296504
20843		9.249105	-3.173757	-51.931618
20844		9.470209	-3.184388	-52.561090
20845		9.602851	-3.176782	-53.187847
20846		9.634983	-3.153698	-53.813732
20847		9.575890	-3.127000	-54.436576
20848		9.511314	-3.101896	-55.059034
20849		9.514157	-3.088715	-55.677777
20850		9.614160	-3.047451	-56.296149
20851		9.704281	-2.964198	-56.919213
20852		9.701858	-2.871204	-57.556136
20853		9.613002	-2.783366	-58.191593
20854		9.461920	-2.688479	-58.823965
20855		9.307819	-2.619992	-59.453882
20856		9.234207	-2.566065	-60.079394
20857		9.249919	-2.508413	-60.697258
20858		9.314865	-2.445595	-61.322466
20859		9.384199	-2.397960	-61.960265
20860		9.437890	-2.340852	-62.599168
20861		9.475663	-2.275709	-63.228822
20862		9.520231	-2.215414	-63.864695
20863		9.598690	-2.156015	-64.492915
20864		9.695442	-2.091099	-65.120372
20865		9.780505	-2.027563	-65.750173
20866		9.836781	-1.956554	-66.386033
20867		9.869478	-1.901970	-67.023179
20868		9.926800	-1.858578	-67.658328
20869		10.025796	-1.816687	-68.290163
20870		10.169646	-1.776135	-68.929104
20871		10.324641	-1.749201	-69.566836
20872		10.471566	-1.717883	-70.202325
20873		10.616385	-1.686878	-70.835081
20874		10.791900	-1.672331	-71.467086
20875		11.018103	-1.668790	-72.087704
20876		11.268942	-1.649589	-72.703178
20877		11.499868	-1.641558	-73.321016
20878		11.694272	-1.630769	-73.936720
20879		11.851324	-1.604382	-74.537777
20880		11.993463	-1.585641	-75.142442
20881		12.156814	-1.583927	-75.747057
20882		12.401177	-1.587347	-76.344284
20883		12.729141	-1.598540	-76.941712
20884		13.110563	-1.604896	-77.540074
20885		13.462991	-1.590996	-78.133923
20886		13.750007	-1.578032	-78.727162
20887		13.951244	-1.551475	-79.306813
20888		14.074101	-1.516000	-79.882068
20889		14.180636	-1.504126	-80.451829
20890		14.333973	-1.504468	-81.013743
20891		14.557244	-1.511336	-81.566216
20892		14.851044	-1.519096	-82.117975
20893		15.186851	-1.528788	-82.667588
20894		15.527014	-1.530381	-83.211914
20895		15.833330	-1.520502	-83.750729
20896		16.094592	-1.499405	-84.284093
20897		16.291156	-1.473040	-84.806195
20898		16.415065	-1.433107	-85.316828
20899		16.482453	-1.400898	-85.821958
20900		16.544943	-1.382988	-86.326892
20901		16.665970	-1.384877	-86.831341
20902		16.901411	-1.391763	-87.330533
20903		17.238983	-1.390562	-87.825191
20904		17.619235	-1.390508	-88.328033
20905		17.986643	-1.390040	-88.831906
20906		18.304923	-1.376557	-89.330151
20907		18.580279	-1.365510	-89.824035
20908		18.830411	-1.346430	-90.308538
20909		19.053143	-1.311063	-90.787216
20910		19.251293	-1.267219	-91.267472
20911		19.443840	-1.225691	-91.752368
20912		19.650890	-1.177550	-92.238069
20913		19.887485	-1.126310	-92.715189
20914		20.131709	-1.047743	-93.181463
20915		20.318150	-0.946339	-93.642597
20916		20.387410	-0.822944	-94.089021
20917		20.317132	-0.666982	-94.506446
20918		20.108669	-0.480298	-94.903898
20919		19.827274	-0.290506	-95.287851
20920		19.553427	-0.101892	-95.656808
20921		19.341078	0.067556	-96.023259
20922		19.210668	0.224838	-96.392019
20923		19.162842	0.369547	-96.755284
20924		19.172866	0.510410	-97.109967
20925		19.229987	0.636389	-97.461478
20926		19.300459	0.760011	-97.801282
20927		19.343403	0.883102	-98.133223
20928		19.332953	1.008464	-98.464582
20929		19.281758	1.122866	-98.793314
20930		19.212870	1.234322	-99.114041
20931		19.149061	1.336635	-99.426421
20932		19.111039	1.429274	-99.734724
20933		19.130106	1.507195	-100.037941
20934		19.208156	1.569526	-100.341994
20935		19.330373	1.631525	-100.643112
20936		19.455594	1.693576	-100.945192
20937		19.564100	1.744402	-101.245961
20938		19.630735	1.798672	-101.535508
20939		19.658205	1.850294	-101.814064
20940		19.657385	1.896603	-102.085401
20941		19.664388	1.933768	-102.343202
20942		19.691124	1.964135	-102.596797
20943		19.761649	1.989036	-102.843114
20944		19.859785	2.016891	-103.087993
20945		19.976961	2.052066	-103.326752
20946		20.084839	2.093042	-103.563968
20947		20.178051	2.139166	-103.789716
20948		20.257310	2.194361	-104.010611
20949		20.332195	2.255032	-104.224387
20950		20.386436	2.329334	-104.422430
20951		20.423420	2.413994	-104.607206
20952		20.450344	2.489056	-104.786692
20953		20.489633	2.566594	-104.950883
20954		20.526049	2.649081	-105.103115
20955		20.588845	2.706917	-105.244454
20956		20.688335	2.757031	-105.374870
20957		20.817276	2.795735	-105.495040
20958		20.955801	2.825865	-105.610484
20959		21.095717	2.856729	-105.717757
20960		21.200776	2.895186	-105.822850
20961		21.269685	2.929961	-105.923267
20962		21.302604	2.968690	-106.015775
20963		21.317972	2.999591	-106.101766
20964		21.319972	3.029392	-106.179753
20965		21.332984	3.047651	-106.254346
20966		21.360957	3.067035	-106.325165
20967		21.419963	3.071229	-106.399375
20968		21.490048	3.075765	-106.467657
20969		21.564910	3.079650	-106.535277
20970		21.627659	3.084425	-106.602764
20971		21.686847	3.085237	-106.664249
20972		21.742056	3.083618	-106.720494
20973		21.807370	3.082560	-106.770533
20974		21.870823	3.089111	-106.816982
20975		21.939381	3.086833	-106.867640
20976		21.996282	3.089389	-106.914440
20977		22.040773	3.095468	-106.960412
20978		22.077140	3.096971	-107.008017
20979		22.131983	3.086873	-107.053089
20980		22.213090	3.070934	-107.097876
20981		22.336233	3.042266	-107.145857
20982		22.473512	3.018467	-107.188466
20983		22.614063	2.995530	-107.234134
20984		22.732708	2.970697	-107.279476
20985		22.832212	2.954637	-107.316028
20986		22.905482	2.949441	-107.349330
20987		22.958974	2.943857	-107.381457
20988		22.986296	2.943452	-107.410494
20989		23.009004	2.945144	-107.435172
20990		23.044737	2.943197	-107.465843
20991		23.101516	2.938448	-107.491363
20992		23.172195	2.937601	-107.517295
20993		23.282190	2.932896	-107.544768
20994		23.429600	2.932943	-107.569897
20995		23.595063	2.940571	-107.585989
20996		23.754442	2.971388	-107.596271
20997		23.864343	3.019426	-107.599856
20998		23.891375	3.080724	-107.597301
20999		23.853767	3.144727	-107.584949
21000		23.783312	3.213010	-107.562528
21001		23.713936	3.270065	-107.539376
21002		23.649251	3.315256	-107.513334
21003		23.606984	3.344594	-107.487764
21004		23.583553	3.366604	-107.465267
21005		23.589471	3.376891	-107.450333
21006		23.623975	3.383040	-107.436720
21007		23.676113	3.381431	-107.423823
21008		23.724833	3.387583	-107.411841
21009		23.774185	3.392393	-107.406356
21010		23.805737	3.406509	-107.398035
21011		23.806253	3.420801	-107.390368
21012		23.783272	3.441010	-107.383939
21013		23.767203	3.462350	-107.373728
21014		23.762476	3.485174	-107.361315
21015		23.778827	3.499023	-107.347001
21016		23.801955	3.517195	-107.329066
21017		23.827651	3.537268	-107.308752
21018		23.846984	3.558783	-107.291804
21019		23.865151	3.575240	-107.272513
21020		23.871712	3.595300	-107.251544
21021		23.876906	3.611485	-107.228066
21022		23.882517	3.632552	-107.202571
21023		23.885437	3.652637	-107.170412
21024		23.874721	3.671775	-107.133631
21025		23.860009	3.692836	-107.086047
21026		23.843192	3.717473	-107.030493
21027		23.817353	3.737503	-106.968019
21028		23.767742	3.756921	-106.896526
21029		23.711021	3.773928	-106.813895
21030		23.653279	3.791895	-106.728704
21031		23.598143	3.804298	-106.634734
21032		23.530334	3.815267	-106.534300
21033		23.464875	3.821580	-106.426885
21034		23.391937	3.835806	-106.314418
21035		23.317745	3.852036	-106.200582
21036		23.228575	3.882003	-106.085196
21037		23.125444	3.924164	-105.960974
21038		22.990640	3.977552	-105.829957
21039		22.850703	4.030240	-105.687699
21040		22.724530	4.076584	-105.535404
21041		22.650623	4.102144	-105.367864
21042		22.605677	4.116862	-105.188365
21043		22.568366	4.111245	-104.999285
21044		22.514836	4.098691	-104.799792
21045		22.450689	4.074864	-104.592107
21046		22.388659	4.042384	-104.377877
21047		22.344139	3.997664	-104.148419
21048		22.301933	3.955271	-103.905201
21049		22.263147	3.908408	-103.653080
21050		22.215991	3.864312	-103.390471
21051		22.168084	3.816679	-103.116040
21052		22.120982	3.770348	-102.833762
21053		22.095245	3.715961	-102.542402
21054		22.082295	3.663203	-102.244738
21055		22.081596	3.601340	-101.935719
21056		22.069366	3.545627	-101.614718
21057		22.052177	3.478718	-101.281484
21058		22.019915	3.405701	-100.935025
21059		21.990248	3.325345	-100.570272
21060		21.964055	3.242531	-100.189751
21061		21.956927	3.148568	-99.797795
21062		21.965618	3.056057	-99.387993
21063		21.994868	2.954812	-98.958880
21064		22.031753	2.858841	-98.515170
21065		22.085957	2.751918	-98.059061
21066		22.138682	2.645922	-97.590822
21067		22.181577	2.540908	-97.113153
21068		22.209281	2.438457	-96.627170
21069		22.248252	2.329894	-96.132481
21070		22.287257	2.231671	-95.623489
21071		22.334252	2.127849	-95.103543
21072		22.415158	2.016790	-94.575429
21073		22.552108	1.903774	-94.032338
21074		22.717287	1.806559	-93.472886
21075		22.886718	1.716408	-92.897299
21076		23.001092	1.643866	-92.304431
21077		23.052755	1.569851	-91.697703
21078		23.039032	1.495029	-91.068691
21079		23.014163	1.410441	-90.418320
21080		22.991936	1.326792	-89.747441
21081		22.992567	1.237159	-89.062373
21082		22.990242	1.150377	-88.358567
21083		22.969411	1.063113	-87.635203
21084		22.892987	0.979083	-86.899910
21085		22.755710	0.894090	-86.151960
21086		22.547455	0.824660	-85.383348
21087		22.302900	0.743641	-84.611818
21088		22.040057	0.665106	-83.828079
21089		21.791373	0.587969	-83.030380
21090		21.570559	0.511976	-82.228355
21091		21.404969	0.427479	-81.420528
21092		21.276784	0.352493	-80.598312
21093		21.162202	0.273718	-79.772053
21094		21.009235	0.202176	-78.939627
21095		20.804972	0.124611	-78.103170
21096		20.548219	0.043277	-77.272082
21097		20.284855	-0.051618	-76.443767
21098		20.052321	-0.150378	-75.616861
21099		19.903312	-0.277851	-74.801934
21100		19.843124	-0.411643	-73.983627
21101		19.886153	-0.548480	-73.154969
21102		20.028135	-0.687158	-72.324307
21103		20.251829	-0.826595	-71.485260
21104		20.484895	-0.948797	-70.642339
21105		20.698428	-1.077327	-69.812732
21106		20.866770	-1.197964	-69.000590
21107		21.009622	-1.324531	-68.206018
21108		21.165001	-1.450472	-67.425510
21109		21.409332	-1.596670	-66.653284
21110		21.718468	-1.729492	-65.870762
21111		22.055723	-1.864395	-65.082232
21112		22.316325	-1.981535	-64.275803
21113		22.454928	-2.096225	-63.464246
21114		22.443647	-2.204807	-62.644682
21115		22.302882	-2.309752	-61.820390
21116		22.098285	-2.416452	-61.002205
21117		21.929786	-2.542564	-60.202169
21118		21.853405	-2.674050	-59.409161
21119		21.887347	-2.810451	-58.611734
21120		21.993705	-2.933924	-57.807335
21121		22.136984	-3.060577	-57.005618
21122		22.241784	-3.177316	-56.195635
21123		22.261756	-3.288979	-55.380774
21124		22.186769	-3.393995	-54.565367
21125		22.054615	-3.499927	-53.752062
21126		21.893545	-3.594732	-52.946466
21127		21.746953	-3.698430	-52.160774
21128		21.628508	-3.796420	-51.387135
21129		21.526909	-3.893272	-50.621781
21130		21.450200	-3.984482	-49.861618
21131		21.410311	-4.077894	-49.104620
21132		21.382676	-4.156908	-48.341028
21133		21.335137	-4.241718	-47.579717
21134		21.226265	-4.307800	-46.816232
21135		21.056283	-4.365054	-46.051431
21136		20.837373	-4.418254	-45.294202
21137		20.604307	-4.472145	-44.540984
21138		20.368872	-4.514946	-43.797464
21139		20.162565	-4.569178	-43.075969
21140		19.986791	-4.621940	-42.361333
21141		19.856690	-4.673081	-41.655795
21142		19.774782	-4.720735	-40.955224
21143		19.714088	-4.752963	-40.253733
21144		19.622072	-4.768776	-39.558969
21145		19.455585	-4.786429	-38.871522
21146		19.226292	-4.791969	-38.186648
21147		19.002275	-4.803214	-37.513104
21148		18.838372	-4.819073	-36.857055
21149		18.756271	-4.849480	-36.225359
21150		18.797491	-4.887324	-35.622380
21151		18.976844	-4.931066	-35.047576
21152		19.253721	-4.966261	-34.489334
21153		19.556288	-4.982633	-33.941405
21154		19.785936	-4.958952	-33.411023
21155		19.870781	-4.916970	-32.899373
21156		19.768431	-4.859362	-32.409386
21157		19.516634	-4.801677	-31.934200
21158		19.237329	-4.739537	-31.472045
21159		19.042652	-4.691886	-31.028829
21160		18.992112	-4.643457	-30.601897
21161		19.056562	-4.597823	-30.188436
21162		19.182315	-4.539971	-29.785319
21163		19.282618	-4.474533	-29.388148
21164		19.296231	-4.405068	-28.987449
21165		19.228081	-4.331700	-28.583118
21166		19.117543	-4.254879	-28.173830
21167		19.002370	-4.184580	-27.764658
21168		18.917877	-4.124466	-27.362646
21169		18.883308	-4.070006	-26.967179
21170		18.884388	-4.009213	-26.580582
21171		18.899750	-3.957303	-26.209745
21172		18.908185	-3.906337	-25.847116
21173		18.893494	-3.843524	-25.475107
21174		18.847082	-3.772431	-25.104626
21175		18.757630	-3.710865	-24.732144
21176		18.640725	-3.642417	-24.350584
21177		18.514598	-3.572481	-23.958742
21178		18.407783	-3.502676	-23.570423
21179		18.316193	-3.434329	-23.184245
21180		18.212550	-3.366396	-22.807784
21181		18.088838	-3.316853	-22.436199
21182		17.975035	-3.262873	-22.062248
21183		17.887478	-3.213939	-21.683391
21184		17.836395	-3.159859	-21.303124
21185		17.797237	-3.118286	-20.929321
21186		17.750274	-3.084902	-20.563670
21187		17.695034	-3.047183	-20.210624
21188		17.630422	-3.002243	-19.864798
21189		17.572456	-2.951890	-19.530836
21190		17.514429	-2.904038	-19.221808
21191		17.435106	-2.855870	-18.921827
21192		17.352992	-2.794239	-18.628555
21193		17.280097	-2.738552	-18.354271
21194		17.241125	-2.672848	-18.082969
21195		17.221324	-2.597786	-17.816144
21196		17.186284	-2.527685	-17.561203
21197		17.115972	-2.460070	-17.316332
21198		17.041527	-2.387583	-17.071255
21199		17.009202	-2.317255	-16.839197
21200		17.018466	-2.255943	-16.613750
21201		17.038112	-2.194996	-16.386203
21202		17.063270	-2.120552	-16.171102
21203		17.076199	-2.055828	-15.974524
21204		17.064874	-1.987631	-15.782654
21205		17.020573	-1.908546	-15.589596
21206		16.961782	-1.826907	-15.413473
21207		16.886453	-1.754322	-15.248048
21208		16.803997	-1.676712	-15.087077
21209		16.752068	-1.605434	-14.936588
21210		16.762660	-1.540808	-14.798127
21211		16.812047	-1.479051	-14.671251
21212		16.858292	-1.406884	-14.550574
21213		16.848210	-1.321420	-14.434694
21214		16.771736	-1.233385	-14.328525
21215		16.641398	-1.147215	-14.217317
21216		16.511582	-1.066578	-14.105450
21217		16.420315	-0.997458	-13.999981
21218		16.380700	-0.939874	-13.903299
21219		16.372260	-0.890761	-13.816126
21220		16.379681	-0.844121	-13.734919
21221		16.375097	-0.800474	-13.661414
21222		16.351537	-0.759389	-13.588901
21223		16.308785	-0.718423	-13.514762
21224		16.271873	-0.684188	-13.440947
21225		16.259283	-0.651383	-13.367057
21226		16.290560	-0.617635	-13.298640
21227		16.354698	-0.580921	-13.235107
21228		16.450128	-0.537213	-13.185474
21229		16.501589	-0.477266	-13.149435
21230		16.460848	-0.409725	-13.128592
21231		16.326643	-0.337613	-13.128427
21232		16.152840	-0.262135	-13.131195
21233		16.019344	-0.196554	-13.139008
21234		15.981470	-0.144301	-13.149779
21235		16.012312	-0.104526	-13.159502
21236		16.051299	-0.069492	-13.163730
21237		16.046177	-0.033507	-13.167228
21238		15.982173	0.001045	-13.172509
21239		15.874538	0.027503	-13.173378
21240		15.792633	0.044938	-13.166540
21241		15.775746	0.046827	-13.167046
21242		15.828172	0.041476	-13.165862
21243		15.899843	0.032160	-13.163564
21244		15.954200	0.030959	-13.167470
21245		15.967909	0.036713	-13.169299
21246		15.931751	0.046403	-13.168449
21247		15.834834	0.053520	-13.166925
21248		15.718819	0.065932	-13.163204
21249		15.618467	0.074887	-13.158084
21250		15.560575	0.081703	-13.154621
21251		15.544765	0.082753	-13.153461
21252		15.557485	0.081561	-13.158974
21253		15.580680	0.080035	-13.161379
21254		15.605006	0.079346	-13.168486
21255		15.622248	0.075394	-13.172515
21256		15.645600	0.072906	-13.171146
21257		15.645511	0.074219	-13.163211
21258		15.619361	0.084738	-13.158644
21259		15.559632	0.098516	-13.157526
21260		15.479677	0.121556	-13.154263
21261		15.399085	0.135884	-13.159018
21262		15.350658	0.144368	-13.172331
21263		15.335061	0.153363	-13.181979
21264		15.344881	0.159266	-13.193969
21265		15.367574	0.158381	-13.205851
21266		15.404569	0.162906	-13.215059
21267		15.444379	0.160594	-13.227035
21268		15.481398	0.160582	-13.244162
21269		15.498137	0.156578	-13.263132
21270		15.504085	0.159387	-13.283514
21271		15.484122	0.162507	-13.306391
21272		15.451719	0.162107	-13.338203
21273		15.414312	0.157682	-13.373732
21274		15.386721	0.157643	-13.413483
21275		15.371340	0.152188	-13.461725
21276		15.383037	0.145179	-13.522239
21277		15.417331	0.138037	-13.587344
21278		15.462446	0.130952	-13.663703
21279		15.485260	0.124431	-13.746619
21280		15.467137	0.129884	-13.832522
21281		15.406617	0.138372	-13.918201
21282		15.335939	0.144766	-14.012457
21283		15.271617	0.145962	-14.107208
21284		15.241761	0.140246	-14.213340
21285		15.256603	0.119517	-14.338474
21286		15.313574	0.095863	-14.477012
21287		15.376072	0.071896	-14.622896
21288		15.407739	0.058584	-14.775100
21289		15.388523	0.049617	-14.931018
21290		15.325928	0.046289	-15.090330
21291		15.230801	0.037739	-15.244906
21292		15.148108	0.028021	-15.401121
21293		15.101911	0.007076	-15.562313
21294		15.116712	-0.023996	-15.736156
21295		15.164430	-0.055446	-15.921312
21296		15.221768	-0.080334	-16.123798
21297		15.260584	-0.102417	-16.344699
21298		15.271865	-0.122494	-16.580783
21299		15.254775	-0.140955	-16.821048
21300		15.243586	-0.160304	-17.073767
21301		15.238074	-0.183259	-17.339308
21302		15.233487	-0.204243	-17.614009
21303		15.231197	-0.229193	-17.912424
21304		15.226559	-0.255431	-18.234084
21305		15.208634	-0.280960	-18.573375
21306		15.194325	-0.308242	-18.931217
21307		15.190877	-0.341037	-19.303548
21308		15.218052	-0.368360	-19.687806
21309		15.256737	-0.392514	-20.078520
21310		15.299599	-0.419116	-20.480807
21311		15.333345	-0.452521	-20.890648
21312		15.352549	-0.483296	-21.312667
21313		15.340414	-0.517392	-21.749854
21314		15.302009	-0.555603	-22.202862
21315		15.248162	-0.597676	-22.668799
21316		15.200792	-0.646191	-23.145033
21317		15.172838	-0.701248	-23.621832
21318		15.185127	-0.763719	-24.107264
21319		15.217814	-0.830942	-24.598957
21320		15.245734	-0.894378	-25.101303
21321		15.223741	-0.958621	-25.614742
21322		15.153843	-1.024814	-26.140009
21323		15.065052	-1.091223	-26.676802
21324		14.999986	-1.159513	-27.224454
21325		14.968686	-1.238597	-27.783726
21326		14.982061	-1.325631	-28.355428
21327		15.013282	-1.416097	-28.935903
21328		15.045444	-1.500036	-29.531697
21329		15.030830	-1.581746	-30.136238
21330		14.956242	-1.656824	-30.753581
21331		14.845278	-1.731816	-31.383143
21332		14.746645	-1.806746	-32.023639
21333		14.701836	-1.895305	-32.673865
21334		14.731819	-1.995167	-33.344843
21335		14.808075	-2.100248	-34.028245
21336		14.898018	-2.201427	-34.732402
21337		14.929763	-2.295515	-35.451989
21338		14.899918	-2.380733	-36.188416
21339		14.818079	-2.464446	-36.932324
21340		14.738587	-2.542092	-37.681399
21341		14.704915	-2.626951	-38.441011
21342		14.745952	-2.721999	-39.211774
21343		14.831707	-2.813352	-39.990288
21344		14.922433	-2.898587	-40.780908
21345		14.976491	-2.979552	-41.582592
21346		14.996755	-3.056679	-42.397438
21347		14.987006	-3.129697	-43.211015
21348		14.965222	-3.196801	-44.030995
21349		14.949639	-3.274099	-44.855943
21350		14.992679	-3.351054	-45.689402
21351		15.108947	-3.430109	-46.523286
21352		15.270398	-3.507174	-47.363623
21353		15.451045	-3.585398	-48.209298
21354		15.651264	-3.664542	-49.055678
21355		15.835007	-3.739650	-49.894720
21356		16.005403	-3.813350	-50.728342
21357		16.152893	-3.896781	-51.552622
21358		16.311256	-3.984925	-52.370199
21359		16.479541	-4.079788	-53.178239
21360		16.656950	-4.171377	-53.980207
21361		16.829963	-4.257893	-54.781090
21362		16.996998	-4.337567	-55.590456
21363		17.125340	-4.407924	-56.398150
21364		17.216582	-4.460100	-57.204440
21365		17.264747	-4.514020	-58.006016
21366		17.263155	-4.563994	-58.810880
21367		17.246245	-4.618325	-59.608116
21368		17.261591	-4.672162	-60.405587
21369		17.326026	-4.725441	-61.198523
21370		17.453166	-4.778813	-61.997267
21371		17.649491	-4.835582	-62.792894
21372		17.928493	-4.887483	-63.589967
21373		18.295194	-4.945353	-64.384121
21374		18.761413	-5.004169	-65.177672
21375		19.300399	-5.064822	-65.960986
21376		19.878977	-5.122018	-66.747690
21377		20.470256	-5.184908	-67.529549
21378		21.050388	-5.239685	-68.303297
21379		21.590431	-5.289898	-69.074309
21380		22.106604	-5.341627	-69.839507
21381		22.608218	-5.393042	-70.591044
21382		23.132072	-5.445648	-71.331771
21383		23.696947	-5.503827	-72.064625
21384		24.298376	-5.553458	-72.783591
21385		24.887582	-5.583022	-73.475663
21386		25.394347	-5.582840	-74.139196
21387		25.773747	-5.565448	-74.780893
21388		26.050816	-5.537828	-75.409909
21389		26.258318	-5.499852	-76.018153
21390		26.429345	-5.452264	-76.618352
21391		26.598427	-5.407244	-77.217486
21392		26.807725	-5.360541	-77.819948
21393		27.072338	-5.319878	-78.421205
21394		27.406278	-5.278558	-79.031023
21395		27.790271	-5.238740	-79.644437
21396		28.175597	-5.198439	-80.264807
21397		28.509771	-5.149445	-80.882314
21398		28.743239	-5.078407	-81.495952
21399		28.874838	-5.008186	-82.109387
21400		28.924059	-4.925721	-82.718958
21401		28.898637	-4.824876	-83.314989
21402		28.839532	-4.720560	-83.915320
21403		28.777303	-4.620298	-84.519046
21404		28.748526	-4.517596	-85.115909
21405		28.728373	-4.404954	-85.699660
21406		28.696523	-4.294921	-86.277095
21407		28.639851	-4.187064	-86.839705
21408		28.569126	-4.089045	-87.390542
21409		28.491922	-4.005466	-87.933915
21410		28.439545	-3.932495	-88.473992
21411		28.409392	-3.861725	-89.014419
21412		28.398668	-3.789571	-89.548841
21413		28.397483	-3.725482	-90.081003
21414		28.410130	-3.659242	-90.609805
21415		28.418617	-3.587645	-91.121750
21416		28.404255	-3.509921	-91.621639
21417		28.384858	-3.440813	-92.115753
21418		28.380352	-3.367952	-92.597825
21419		28.421791	-3.304620	-93.074682
21420		28.531205	-3.248077	-93.547524
21421		28.711363	-3.192835	-94.006910
21422		28.931474	-3.136305	-94.453108
21423		29.145657	-3.065849	-94.881043
21424		29.302967	-2.985188	-95.294787
21425		29.399208	-2.914631	-95.699431
21426		29.478024	-2.844390	-96.088345
21427		29.565318	-2.763250	-96.454470
21428		29.655931	-2.681078	-96.806768
21429		29.736466	-2.606405	-97.150525
21430		29.813805	-2.534987	-97.478405
21431		29.916657	-2.476992	-97.796312
21432		30.059540	-2.430264	-98.109042
21433		30.253086	-2.390591	-98.409508
21434		30.481795	-2.347158	-98.703085
21435		30.732342	-2.304264	-98.993848
21436		30.978404	-2.251935	-99.272320
21437		31.182623	-2.179612	-99.529255
21438		31.307570	-2.096591	-99.780280
21439		31.369669	-2.018716	-100.029733
21440		31.415889	-1.947438	-100.274591
21441		31.490172	-1.882670	-100.515776
21442		31.605576	-1.822147	-100.756480
21443		31.769980	-1.778633	-101.006691
21444		31.978291	-1.739016	-101.253772
21445		32.200825	-1.692883	-101.491000
21446		32.395194	-1.643219	-101.723080
21447		32.541184	-1.595023	-101.943270
21448		32.635222	-1.537536	-102.150050
21449		32.694386	-1.482579	-102.354253
21450		32.745134	-1.430710	-102.555231
21451		32.810164	-1.387293	-102.751179
21452		32.913111	-1.347914	-102.943540
21453		33.073380	-1.320058	-103.135762
21454		33.306765	-1.295626	-103.324241
21455		33.616013	-1.279065	-103.500218
21456		33.970492	-1.261384	-103.661659
21457		34.326853	-1.232787	-103.809466
21458		34.631297	-1.189160	-103.953691
21459		34.863762	-1.128859	-104.091080
21460		34.996311	-1.048131	-104.215216
21461		35.039788	-0.962277	-104.334175
21462		35.032275	-0.882978	-104.449741
21463		35.019236	-0.811874	-104.559943
21464		35.038141	-0.752769	-104.665601
21465		35.117636	-0.709721	-104.769886
21466		35.250426	-0.677191	-104.872913
21467		35.413343	-0.649216	-104.972753
21468		35.571471	-0.623738	-105.072212
21469		35.717996	-0.608628	-105.171090
21470		35.844522	-0.598686	-105.262483
21471		35.953600	-0.599031	-105.348321
21472		36.054679	-0.604697	-105.437964
21473		36.170741	-0.616151	-105.527413
21474		36.291540	-0.623336	-105.618876
21475		36.413055	-0.627823	-105.712244
21476		36.522533	-0.626660	-105.809171
21477		36.624428	-0.629846	-105.911543
21478		36.732495	-0.636052	-106.016645
21479		36.847724	-0.643184	-106.120493
21480		36.958230	-0.657027	-106.227896
21481		37.054728	-0.672211	-106.339485
21482		37.134863	-0.689468	-106.451103
21483		37.211569	-0.712353	-106.565793
21484		37.287667	-0.733318	-106.682092
21485		37.381156	-0.752747	-106.796769
21486		37.491529	-0.765714	-106.912514
21487		37.617672	-0.770183	-107.017484
21488		37.744951	-0.768636	-107.111692
21489		37.874933	-0.765951	-107.194349
21490		37.997545	-0.758397	-107.268095
21491		38.113088	-0.748813	-107.333545
21492		38.210471	-0.738030	-107.396044
21493		38.289135	-0.729344	-107.451117
21494		38.343427	-0.717450	-107.505427
21495		38.386562	-0.705594	-107.561302
21496		38.419021	-0.695832	-107.618237
21497		38.446568	-0.688499	-107.671341
21498		38.458407	-0.682803	-107.721574
21499		38.469011	-0.678223	-107.770102
21500		38.485131	-0.670404	-107.815643
21501		38.514987	-0.665839	-107.857702
21502		38.548775	-0.659844	-107.896054
21503		38.586168	-0.650461	-107.929225
21504		38.618130	-0.632411	-107.956128
21505		38.641059	-0.615192	-107.976843
21506		38.641386	-0.590723	-107.991556
21507		38.626558	-0.565392	-107.999113
21508		38.596504	-0.535878	-108.000729
21509		38.563221	-0.506903	-107.991335
21510		38.524430	-0.474310	-107.973919
21511		38.495550	-0.444110	-107.950263
21512		38.476564	-0.414396	-107.920637
21513		38.478569	-0.388771	-107.884901
21514		38.477593	-0.362637	-107.841973
21515		38.465964	-0.337089	-107.795543
21516		38.433062	-0.303193	-107.736266
21517		38.396051	-0.264474	-107.665142
21518		38.352730	-0.223980	-107.583988
21519		38.301118	-0.185577	-107.497169
21520		38.233177	-0.143624	-107.406110
21521		38.161467	-0.106292	-107.313307
21522		38.095350	-0.068423	-107.217688
21523		38.077542	-0.038691	-107.118048
21524		38.089401	-0.007754	-107.017651
21525		38.107186	0.023448	-106.919502
21526		38.102452	0.054879	-106.816357
21527		38.071752	0.080953	-106.703996
21528		38.014289	0.107951	-106.575548
21529		37.956143	0.129683	-106.443479
21530		37.904191	0.147877	-106.305104
21531		37.870184	0.159706	-106.165233
21532		37.834258	0.179340	-106.020672
21533		37.792921	0.203070	-105.876510
21534		37.744225	0.228733	-105.735521
21535		37.706960	0.246307	-105.587238
21536		37.673451	0.266885	-105.429535
21537		37.627719	0.286476	-105.263599
21538		37.543647	0.306387	-105.089087
21539		37.424196	0.320405	-104.907682
21540		37.270557	0.332898	-104.720792
21541		37.122739	0.335848	-104.519633
21542		36.988660	0.338047	-104.305827
21543		36.889801	0.329374	-104.083094
21544		36.817379	0.308036	-103.848950
21545		36.758763	0.269415	-103.596969
21546		36.676725	0.223136	-103.327574
21547		36.569718	0.164432	-103.040467
21548		36.445833	0.096432	-102.733456
21549		36.338252	0.010675	-102.406754
21550		36.243144	-0.083059	-102.063987
21551		36.156853	-0.180935	-101.701501
21552		36.060025	-0.284119	-101.326044
21553		35.953226	-0.393459	-100.942854
21554		35.830438	-0.499735	-100.547951
21555		35.706730	-0.608582	-100.145871
21556		35.576286	-0.718114	-99.736422
21557		35.451056	-0.828016	-99.315060
21558		35.314792	-0.931799	-98.881542
21559		35.173036	-1.042501	-98.437848
21560		35.004396	-1.152575	-97.983644
21561		34.831032	-1.263677	-97.515216
21562		34.662100	-1.376335	-97.027341
21563		34.514485	-1.494243	-96.520430
21564		34.372677	-1.610788	-95.997709
21565		34.228879	-1.729168	-95.464157
21566		34.061142	-1.845876	-94.909978
21567		33.859091	-1.960942	-94.333898
21568		33.597066	-2.069588	-93.733705
21569		33.294132	-2.181607	-93.112286
21570		32.956317	-2.286910	-92.462747
21571		32.617589	-2.391867	-91.793572
21572		32.296504	-2.492266	-91.112141
21573		32.019208	-2.592622	-90.423774
21574		31.776116	-2.687463	-89.734539
21575		31.545057	-2.782210	-89.040784
21576		31.282599	-2.867799	-88.342383
21577		30.993327	-2.960472	-87.646673
21578		30.673094	-3.050234	-86.941257
21579		30.354851	-3.144293	-86.230444
21580		30.021328	-3.238499	-85.512580
21581		29.668810	-3.340919	-84.795815
21582		29.295852	-3.444940	-84.080047
21583		28.924207	-3.554707	-83.366601
21584		28.554602	-3.661176	-82.647737
21585		28.217791	-3.774210	-81.932954
21586		27.932227	-3.897001	-81.221136
21587		27.710011	-4.017939	-80.499568
21588		27.519179	-4.125593	-79.767956
21589		27.320219	-4.231068	-79.028756
21590		27.082802	-4.328585	-78.286931
21591		26.806624	-4.431558	-77.540844
21592		26.476454	-4.527545	-76.784357
21593		26.128743	-4.622765	-76.026896
21594		25.773078	-4.719341	-75.266661
21595		25.441475	-4.820801	-74.508515
21596		25.149296	-4.918759	-73.748613
21597		24.912266	-5.023070	-72.992001
21598		24.696946	-5.113780	-72.227632
21599		24.497072	-5.210532	-71.471630
21600		24.303786	-5.309810	-70.714185
21601		24.126304	-5.410765	-69.955485
21602		23.970432	-5.512107	-69.193935
21603		23.856009	-5.615030	-68.433799
21604		23.759695	-5.705987	-67.668829
21605		23.684817	-5.791058	-66.917178
21606		23.597150	-5.867131	-66.169584
21607		23.486711	-5.940610	-65.423956
21608		23.342212	-6.004302	-64.672216
21609		23.163500	-6.068218	-63.923542
21610		22.948202	-6.121099	-63.173946
21611		22.704483	-6.170654	-62.428596
21612		22.437565	-6.207095	-61.681290
21613		22.175444	-6.239070	-60.947555
21614		21.939892	-6.271029	-60.226701
21615		21.742339	-6.305266	-59.506801
21616		21.578034	-6.331839	-58.786331
21617		21.437739	-6.369118	-58.080742
21618		21.304720	-6.396978	-57.370372
21619		21.179781	-6.433832	-56.664691
21620		21.070168	-6.473588	-55.952670
21621		20.970982	-6.503904	-55.228539
21622		20.881424	-6.535627	-54.508050
21623		20.793573	-6.570155	-53.790665
21624		20.666202	-6.598850	-53.066032
21625		20.531327	-6.636437	-52.347519
21626		20.432067	-6.680206	-51.627037
21627		20.398521	-6.730698	-50.902546
21628		20.404032	-6.772114	-50.156780
21629		20.400892	-6.791343	-49.398954
21630		20.351930	-6.818776	-48.658210
21631		20.230418	-6.848790	-47.919001
21632		20.050296	-6.867055	-47.174016
21633		19.887674	-6.902757	-46.447476
21634		19.791510	-6.946199	-45.737161
21635		19.779984	-6.989657	-45.035306
21636		19.829126	-7.027680	-44.341498
21637		19.888037	-7.055395	-43.657056
21638		19.856969	-7.044194	-42.969618
21639		19.669013	-6.999895	-42.281800
21640		19.307774	-6.937457	-41.601721
21641		18.804448	-6.872450	-40.939586
21642		18.224303	-6.814738	-40.294336
21643		17.660175	-6.770687	-39.672826
21644		17.172050	-6.722385	-39.069973
21645		16.790399	-6.666477	-38.482613
21646		16.486654	-6.587220	-37.904001
21647		16.232675	-6.498941	-37.330338
21648		15.981827	-6.400901	-36.749383
21649		15.692386	-6.306745	-36.152299
21650		15.329741	-6.212966	-35.531972
21651		14.916203	-6.137183	-34.907761
21652		14.475669	-6.076852	-34.279819
21653		14.037405	-6.021861	-33.651921
21654		13.647872	-5.982829	-33.029107
21655		13.361161	-5.957873	-32.424894
21656		13.155878	-5.931450	-31.826246
21657		13.006238	-5.908827	-31.236639
21658		12.897273	-5.894144	-30.661848
21659		12.810656	-5.880028	-30.091498
21660		12.728409	-5.863649	-29.521202
21661		12.646752	-5.856886	-28.957253
21662		12.579645	-5.848681	-28.393376
21663		12.539139	-5.851976	-27.841061
21664		12.541416	-5.870848	-27.298531
21665		12.580047	-5.879311	-26.773483
21666		12.635224	-5.887109	-26.268881
21667		12.666557	-5.886331	-25.770211
21668		12.666289	-5.857713	-25.277200
21669		12.646394	-5.828911	-24.812904
21670		12.577441	-5.790304	-24.363197
21671		12.436456	-5.719682	-23.927237
21672		12.205366	-5.648247	-23.513954
21673		11.883797	-5.566510	-23.119374
21674		11.500986	-5.462164	-22.752400
21675		11.092044	-5.356172	-22.419000
21676		10.677771	-5.243738	-22.118274
21677		10.276875	-5.137381	-21.839208
21678		9.926053	-5.029367	-21.583204
21679		9.664823	-4.937849	-21.342522
21680		9.525230	-4.856146	-21.113881
21681		9.523970	-4.788421	-20.891568
21682		9.629732	-4.728446	-20.670469
21683		9.796682	-4.680634	-20.446365
21684		9.967005	-4.639332	-20.215537
21685		10.094378	-4.594663	-19.976503
21686		10.160606	-4.548470	-19.742111
21687		10.158616	-4.519589	-19.508528
21688		10.118098	-4.498873	-19.270015
21689		10.074153	-4.481095	-19.026970
21690		10.056270	-4.460679	-18.782390
21691		10.073473	-4.454178	-18.538648
21692		10.136329	-4.451070	-18.288474
21693		10.241040	-4.440048	-18.036929
21694		10.378154	-4.428612	-17.787624
21695		10.518632	-4.417961	-17.534618
21696		10.655192	-4.404112	-17.279975
21697		10.787427	-4.395560	-17.025717
21698		10.915924	-4.376384	-16.768760
21699		11.030726	-4.361239	-16.513817
21700		11.110634	-4.344669	-16.258970
21701		11.149911	-4.321246	-15.997725
21702		11.145637	-4.301957	-15.732459
21703		11.117998	-4.294228	-15.469733
21704		11.104166	-4.291425	-15.202670
21705		11.129732	-4.296786	-14.933776
21706		11.185461	-4.303213	-14.664751
21707		11.226493	-4.312270	-14.393390
21708		11.234862	-4.315512	-14.126177
21709		11.189958	-4.330659	-13.864777
21710		11.125555	-4.351351	-13.598673
21711		11.093005	-4.380439	-13.335128
21712		11.119117	-4.408881	-13.076954
21713		11.163636	-4.430257	-12.823568
21714		11.167958	-4.439119	-12.579444
21715		11.093397	-4.434755	-12.341109
21716		10.958740	-4.413719	-12.100743
21717		10.813561	-4.384782	-11.864656
21718		10.696396	-4.360893	-11.630838
21719		10.599877	-4.323132	-11.396050
21720		10.509022	-4.286222	-11.167381
21721		10.410163	-4.249713	-10.945422
21722		10.318426	-4.208956	-10.728342
21723		10.255947	-4.176227	-10.518264
21724		10.247239	-4.148862	-10.311669
21725		10.280590	-4.111727	-10.110785
21726		10.335422	-4.080560	-9.920812
21727		10.390497	-4.049205	-9.743257
21728		10.401874	-4.010444	-9.569031
21729		10.365707	-3.969197	-9.402873
21730		10.315276	-3.941962	-9.248701
21731		10.277062	-3.916324	-9.092329
21732		10.269494	-3.881412	-8.934755
21733		10.285972	-3.844683	-8.790944
21734		10.291840	-3.809207	-8.666360
21735		10.257600	-3.774719	-8.549807
21736		10.186221	-3.735810	-8.445780
21737		10.112748	-3.698879	-8.353588
21738		10.060318	-3.661145	-8.273372
21739		10.027331	-3.634051	-8.201595
21740		10.014515	-3.608530	-8.136916
21741		10.018975	-3.589615	-8.077145
21742		10.035619	-3.567303	-8.020790
21743		10.051247	-3.545723	-7.969000
21744		10.069399	-3.526492	-7.921857
21745		10.091469	-3.508699	-7.873931
21746		10.124356	-3.483070	-7.828325
21747		10.160996	-3.448925	-7.796375
21748		10.189917	-3.399373	-7.779491
21749		10.165507	-3.332308	-7.788675
21750		10.059460	-3.255022	-7.825064
21751		9.878013	-3.168747	-7.881713
21752		9.665276	-3.071352	-7.952836
21753		9.437017	-2.984579	-8.033778
21754		9.235677	-2.910598	-8.125852
21755		9.052425	-2.850887	-8.217081
21756		8.892790	-2.794259	-8.306133
21757		8.775870	-2.763680	-8.395962
21758		8.719102	-2.748126	-8.473839
21759		8.729430	-2.741496	-8.539823
21760		8.803092	-2.755421	-8.596363
21761		8.918151	-2.792658	-8.645201
21762		9.034904	-2.831093	-8.680546
21763		9.131006	-2.869447	-8.706931
21764		9.201238	-2.902117	-8.735711
21765		9.227273	-2.929029	-8.762978
21766		9.209305	-2.940838	-8.796654
21767		9.153018	-2.954523	-8.841224
21768		9.077724	-2.965280	-8.895242
21769		9.005529	-2.981323	-8.955281
21770		8.978073	-3.003871	-9.026243
21771		9.012715	-3.030835	-9.102841
21772		9.090298	-3.055978	-9.183290
21773		9.169968	-3.084413	-9.262788
21774		9.233122	-3.114862	-9.352707
21775		9.245535	-3.140104	-9.437566
21776		9.241912	-3.158887	-9.524771
21777		9.239759	-3.183214	-9.618030
21778		9.266895	-3.205084	-9.715601
21779		9.316244	-3.224217	-9.818786
21780		9.384655	-3.246604	-9.940184
21781		9.458084	-3.274295	-10.075103
21782		9.539131	-3.297372	-10.218758
21783		9.624106	-3.319076	-10.367762
21784		9.730295	-3.335738	-10.532134
21785		9.840829	-3.356111	-10.706015
21786		9.947715	-3.375249	-10.882994
21787		10.024817	-3.379659	-11.061386
21788		10.055821	-3.374308	-11.247481
21789		10.059368	-3.373767	-11.444332
21790		10.083863	-3.368955	-11.637510
21791		10.145844	-3.358367	-11.826678
21792		10.245239	-3.351206	-12.024089
21793		10.339998	-3.344747	-12.226325
21794		10.393232	-3.339890	-12.428829
21795		10.395805	-3.341206	-12.634809
21796		10.379143	-3.342402	-12.836015
21797		10.383803	-3.346522	-13.034818
21798		10.455300	-3.361245	-13.233872
21799		10.593892	-3.387998	-13.430842
21800		10.749150	-3.402779	-13.630428
21801		10.849941	-3.417485	-13.841149
21802		10.871573	-3.426637	-14.068103
21803		10.826910	-3.440300	-14.313228
21804		10.771280	-3.454345	-14.572802
21805		10.744397	-3.472995	-14.846433
21806		10.788378	-3.502482	-15.138129
21807		10.899454	-3.526436	-15.446656
21808		11.021877	-3.527531	-15.771667
21809		11.077988	-3.520088	-16.114860
21810		11.070726	-3.499880	-16.475788
21811		11.024250	-3.474912	-16.843556
21812		10.994018	-3.448572	-17.220505
21813		11.006895	-3.429093	-17.605258
21814		11.078609	-3.424853	-18.000788
21815		11.190978	-3.423958	-18.397540
21816		11.324830	-3.413149	-18.803169
21817		11.447318	-3.400956	-19.224136
21818		11.562942	-3.379522	-19.661064
21819		11.651252	-3.346738	-20.112184
21820		11.696266	-3.297400	-20.580862
21821		11.686038	-3.245069	-21.067524
21822		11.664798	-3.193139	-21.570520
21823		11.679279	-3.142655	-22.086184
21824		11.758101	-3.091719	-22.617529
21825		11.896690	-3.044536	-23.159193
21826		12.087905	-3.000266	-23.713488
21827		12.295567	-2.972748	-24.267211
21828		12.499963	-2.951614	-24.821880
21829		12.676017	-2.938879	-25.363160
21830		12.824261	-2.926794	-25.899168
21831		12.929188	-2.921063	-26.432500
21832		12.992517	-2.932030	-26.963477
21833		13.038611	-2.951839	-27.497706
21834		13.113292	-2.981886	-28.043564
21835		13.225014	-3.022846	-28.600892
21836		13.401855	-3.065445	-29.175863
21837		13.637295	-3.110291	-29.762617
21838		13.897562	-3.147993	-30.354322
21839		14.130129	-3.192787	-30.944504
21840		14.334514	-3.245581	-31.528621
21841		14.513105	-3.298440	-32.099407
21842		14.678014	-3.361845	-32.664231
21843		14.835453	-3.424096	-33.228567
21844		15.009923	-3.488209	-33.796208
21845		15.227824	-3.588125	-34.362906
21846		15.484314	-3.683860	-34.933496
21847		15.728856	-3.777670	-35.513856
21848		15.899719	-3.859740	-36.108134
21849		15.961441	-3.930929	-36.709310
21850		15.944842	-3.992898	-37.316280
21851		15.885415	-4.048124	-37.928865
21852		15.858135	-4.104950	-38.548404
21853		15.895708	-4.157223	-39.169725
21854		15.979696	-4.187691	-39.792174
21855		16.049931	-4.206944	-40.425072
21856		16.079884	-4.219249	-41.070959
21857		16.061195	-4.230958	-41.723458
21858		16.016516	-4.246193	-42.386862
21859		15.997673	-4.268962	-43.061470
21860		16.063623	-4.287141	-43.759721
21861		16.232338	-4.309381	-44.471310
21862		16.462958	-4.307573	-45.191466
21863		16.674259	-4.300188	-45.927229
21864		16.839315	-4.286504	-46.676063
21865		16.946979	-4.257336	-47.419279
21866		17.029190	-4.227070	-48.162373
21867		17.120546	-4.206922	-48.904841
21868		17.254431	-4.189319	-49.648551
21869		17.412367	-4.166345	-50.395448
21870		17.587765	-4.132903	-51.155333
21871		17.753364	-4.095482	-51.928257
21872		17.906649	-4.037857	-52.708602
21873		18.021909	-3.962244	-53.494092
21874		18.092019	-3.886733	-54.289997
21875		18.122425	-3.809975	-55.081178
21876		18.129219	-3.725398	-55.864611
21877		18.123249	-3.651878	-56.646090
21878		18.170522	-3.593550	-57.439441
21879		18.332446	-3.546736	-58.229056
21880		18.631370	-3.494783	-59.026545
21881		19.005553	-3.430979	-59.826313
21882		19.338243	-3.345099	-60.631299
21883		19.537256	-3.254337	-61.444371
21884		19.606351	-3.152893	-62.255484
21885		19.528399	-3.028822	-63.053287
21886		19.351548	-2.900207	-63.853003
21887		19.162335	-2.784112	-64.659980
21888		19.052613	-2.691656	-65.476870
21889		19.029183	-2.596263	-66.292690
21890		19.072642	-2.491709	-67.114415
21891		19.118142	-2.383736	-67.934902
21892		19.134631	-2.281380	-68.752285
21893		19.107079	-2.188137	-69.554983
21894		19.065762	-2.097692	-70.340239
21895		19.020204	-2.013728	-71.108010
21896		19.003659	-1.937155	-71.864467
21897		19.039467	-1.873773	-72.616026
21898		19.174983	-1.825035	-73.369172
21899		19.435775	-1.778662	-74.117202
21900		19.751188	-1.709915	-74.856728
21901		20.020071	-1.640165	-75.593696
21902		20.191638	-1.568980	-76.321857
21903		20.296337	-1.494835	-77.025130
21904		20.350567	-1.421532	-77.721192
21905		20.443768	-1.378517	-78.409013
21906		20.630685	-1.349709	-79.084288
21907		20.919207	-1.319982	-79.741688
21908		21.270626	-1.291941	-80.393627
21909		21.615904	-1.267595	-81.045977
21910		21.906654	-1.249698	-81.691310
21911		22.144098	-1.232498	-82.322875
21912		22.370840	-1.211083	-82.947067
21913		22.625132	-1.208789	-83.567478
21914		22.918308	-1.217838	-84.180850
21915		23.220123	-1.213078	-84.778139
21916		23.513332	-1.214901	-85.379511
21917		23.813210	-1.234967	-85.990515
21918		24.127557	-1.251335	-86.591280
21919		24.468237	-1.276501	-87.191150
21920		24.837342	-1.306576	-87.792285
21921		25.190313	-1.312493	-88.376459
21922		25.455912	-1.300101	-88.951189
21923		25.609135	-1.283865	-89.521422
21924		25.680711	-1.275428	-90.085417
21925		25.734733	-1.280411	-90.637550
21926		25.824542	-1.288678	-91.174207
21927		25.999561	-1.305731	-91.701109
21928		26.252523	-1.315965	-92.211720
21929		26.513669	-1.310986	-92.700404
21930		26.701638	-1.292514	-93.177260
21931		26.782986	-1.268950	-93.645050
21932		26.789568	-1.246876	-94.097657
21933		26.772531	-1.231664	-94.527115
21934		26.774958	-1.219319	-94.937082
21935		26.830202	-1.223433	-95.339522
21936		26.961500	-1.243592	-95.738021
21937		27.188794	-1.280624	-96.134839
21938		27.494564	-1.323163	-96.526171
21939		27.823181	-1.360579	-96.908105
21940		28.125109	-1.398846	-97.284788
21941		28.386216	-1.444545	-97.655775
21942		28.597684	-1.485586	-98.004007
21943		28.756732	-1.519330	-98.337712
21944		28.881331	-1.558972	-98.670308
21945		29.017611	-1.605086	-98.997079
21946		29.200599	-1.662398	-99.326155
21947		29.452161	-1.730949	-99.664598
21948		29.767476	-1.800361	-100.004466
21949		30.104235	-1.851725	-100.341618
21950		30.416703	-1.893171	-100.679560
21951		30.678901	-1.922859	-101.014288
21952		30.881749	-1.938785	-101.343018
21953		31.023980	-1.950930	-101.667946
21954		31.120148	-1.957304	-101.986074
21955		31.207495	-1.960219	-102.298220
21956		31.310642	-1.958449	-102.604895
21957		31.447016	-1.957592	-102.910493
21958		31.630593	-1.955322	-103.209540
21959		31.861604	-1.948206	-103.496398
21960		32.128118	-1.933193	-103.772086
21961		32.393089	-1.911907	-104.037530
21962		32.642337	-1.890538	-104.290793
21963		32.843071	-1.857217	-104.529102
21964		32.982967	-1.809092	-104.752525
21965		33.075668	-1.745840	-104.957881
21966		33.133067	-1.672707	-105.144641
21967		33.184645	-1.595647	-105.313092
21968		33.242514	-1.524803	-105.469802
21969		33.331547	-1.461904	-105.614304
21970		33.438521	-1.396584	-105.740224
21971		33.552778	-1.337542	-105.856836
21972		33.658294	-1.287285	-105.968416
21973		33.751103	-1.238231	-106.066652
21974		33.820207	-1.186746	-106.149955
21975		33.864977	-1.136231	-106.223803
21976		33.884391	-1.084897	-106.283226
21977		33.889484	-1.038505	-106.333022
21978		33.887117	-0.998176	-106.380256
21979		33.891371	-0.961638	-106.425492
21980		33.902592	-0.925037	-106.469621
21981		33.936134	-0.894607	-106.517303
21982		33.985868	-0.865537	-106.563033
21983		34.046454	-0.840822	-106.608596
21984		34.093252	-0.816514	-106.653126
21985		34.129629	-0.798809	-106.696752
21986		34.153837	-0.783801	-106.741822
21987		34.185016	-0.773672	-106.783178
21988		34.223472	-0.765472	-106.820015
21989		34.286061	-0.767125	-106.854727
21990		34.367037	-0.767455	-106.885380
21991		34.461248	-0.773900	-106.912299
21992		34.552857	-0.778464	-106.934981
21993		34.653617	-0.787862	-106.959760
21994		34.758436	-0.801699	-106.985541
21995		34.866027	-0.814698	-107.012953
21996		34.949579	-0.822210	-107.042991
21997		35.015997	-0.827984	-107.077517
21998		35.065020	-0.831330	-107.112448
21999		35.115840	-0.833720	-107.150290
22000		35.168621	-0.846639	-107.197511
22001		35.245993	-0.866775	-107.249231
22002		35.335580	-0.880051	-107.300453
22003		35.425790	-0.890970	-107.362826
22004		35.492753	-0.902190	-107.432660
22005		35.534672	-0.912902	-107.501753
22006		35.547418	-0.921618	-107.565464
22007		35.549437	-0.927650	-107.629607
22008		35.546135	-0.932317	-107.687849
22009		35.548487	-0.937293	-107.741155
22010		35.555618	-0.937749	-107.789105
22011		35.566628	-0.935557	-107.830075
22012		35.578055	-0.928126	-107.859805
22013		35.599850	-0.916896	-107.876601
22014		35.630015	-0.901121	-107.879918
22015		35.666209	-0.883385	-107.872357
22016		35.692105	-0.861604	-107.853143
22017		35.710260	-0.841498	-107.824178
22018		35.717302	-0.818568	-107.781970
22019		35.726546	-0.793371	-107.729034
22020		35.727452	-0.768496	-107.665557
22021		35.728934	-0.750176	-107.591942
22022		35.729191	-0.732917	-107.510878
22023		35.728197	-0.714058	-107.424770
22024		35.709037	-0.698977	-107.337579
22025		35.674706	-0.681716	-107.244719
22026		35.633486	-0.658881	-107.146244
22027		35.598949	-0.634143	-107.042228
22028		35.573875	-0.610584	-106.930196
22029		35.561483	-0.585580	-106.811054
22030		35.556857	-0.562663	-106.686858
22031		35.546185	-0.537991	-106.557917
22032		35.508370	-0.513218	-106.428819
22033		35.461348	-0.489341	-106.297273
22034		35.410313	-0.463947	-106.161141
22035		35.368718	-0.439491	-106.019424
22036		35.323456	-0.419077	-105.873959
22037		35.265559	-0.398247	-105.721373
22038		35.180656	-0.379264	-105.562111
22039		35.078132	-0.363202	-105.399011
22040		34.959472	-0.352455	-105.236065
22041		34.858165	-0.346299	-105.071934
22042		34.759250	-0.341192	-104.904219
22043		34.656325	-0.342638	-104.732692
22044		34.548535	-0.356403	-104.559738
22045		34.456926	-0.380122	-104.376535
22046		34.380098	-0.410394	-104.178483
22047		34.318553	-0.450708	-103.973514
22048		34.263314	-0.492022	-103.751518
22049		34.196529	-0.536384	-103.509729
22050		34.119698	-0.580456	-103.249824
22051		34.050011	-0.627437	-102.971430
22052		33.973704	-0.680364	-102.682795
22053		33.893581	-0.738806	-102.383692
22054		33.799221	-0.801527	-102.072523
22055		33.713836	-0.868007	-101.758650
22056		33.634529	-0.937560	-101.435411
22057		33.568977	-1.012576	-101.102422
22058		33.507290	-1.091925	-100.756617
22059		33.449370	-1.173352	-100.395826
22060		33.378616	-1.256566	-100.019582
22061		33.298766	-1.341488	-99.629953
22062		33.204103	-1.428701	-99.227731
22063		33.107894	-1.520403	-98.816193
22064		33.004363	-1.608435	-98.391966
22065		32.914291	-1.703197	-97.958544
22066		32.848459	-1.797914	-97.510867
22067		32.821838	-1.893065	-97.048624
22068		32.815805	-1.985979	-96.572472
22069		32.822796	-2.074433	-96.084555
22070		32.818010	-2.160501	-95.585144
22071		32.798987	-2.247930	-95.076880
22072		32.759565	-2.338100	-94.553824
22073		32.726450	-2.435872	-94.025081
22074		32.705675	-2.535787	-93.482007
22075		32.701835	-2.624049	-92.910639
22076		32.669469	-2.702041	-92.323900
22077		32.581460	-2.790242	-91.726854
22078		32.369821	-2.864559	-91.104028
22079		32.040910	-2.937313	-90.471677
22080		31.619483	-3.022137	-89.845536
22081		31.177119	-3.119036	-89.219434
22082		30.759758	-3.221259	-88.589369
22083		30.411754	-3.338536	-87.971183
22084		30.119759	-3.472284	-87.370087
22085		29.847523	-3.605982	-86.770022
22086		29.543330	-3.734957	-86.175771
22087		29.237137	-3.873072	-85.591182
22088		28.940901	-4.007990	-84.996397
22089		28.673463	-4.142637	-84.391568
22090		28.430824	-4.272087	-83.771762
22091		28.219017	-4.397186	-83.144228
22092		28.007390	-4.509056	-82.508700
22093		27.810629	-4.622052	-81.880525
22094		27.628507	-4.728762	-81.246316
22095		27.497600	-4.845278	-80.623656
22096		27.408203	-4.959494	-79.995896
22097		27.332978	-5.059047	-79.360144
22098		27.251028	-5.157984	-78.724172
22099		27.177250	-5.260691	-78.074899
22100		27.105229	-5.357107	-77.408403
22101		27.053317	-5.456257	-76.735688
22102		27.002411	-5.550044	-76.052867
22103		26.962326	-5.640991	-75.366235
22104		26.935775	-5.727760	-74.668550
22105		26.957041	-5.818028	-73.971282
22106		27.014182	-5.900236	-73.265444
22107		27.081843	-5.977490	-72.558565
22108		27.105899	-6.034876	-71.844137
22109		27.082133	-6.085917	-71.129692
22110		27.048712	-6.136887	-70.406573
22111		27.051180	-6.176928	-69.664657
22112		27.090723	-6.201933	-68.910133
22113		27.137472	-6.228666	-68.161546
22114		27.124589	-6.244245	-67.412089
22115		27.009810	-6.238850	-66.654804
22116		26.758338	-6.213311	-65.903021
22117		26.383044	-6.182477	-65.162746
22118		25.900793	-6.150998	-64.422193
22119		25.399012	-6.140802	-63.685821
22120		24.958639	-6.147454	-62.944696
22121		24.665512	-6.180249	-62.205156
22122		24.538957	-6.211630	-61.459600
22123		24.529644	-6.237024	-60.705746
22124		24.528464	-6.253081	-59.958053
22125		24.458022	-6.284274	-59.230799
22126		24.286977	-6.319712	-58.496039
22127		24.078423	-6.353940	-57.755512
22128		23.906916	-6.387322	-57.019223
22129		23.811816	-6.430823	-56.288344
22130		23.782336	-6.475341	-55.562165
22131		23.800947	-6.511476	-54.837621
22132		23.827905	-6.540247	-54.117472
22133		23.868161	-6.581196	-53.414183
22134		23.962829	-6.621290	-52.707868
22135		24.161059	-6.656644	-51.990825
22136		24.477412	-6.680782	-51.273811
22137		24.858551	-6.686239	-50.552484
22138		25.246832	-6.662116	-49.804056
22139		25.573836	-6.621635	-49.055424
22140		25.827569	-6.577746	-48.299958
22141		26.060305	-6.539686	-47.545767
22142		26.305753	-6.540074	-46.813477
22143		26.551246	-6.525359	-46.100653
22144		26.737455	-6.487736	-45.407061
22145		26.757384	-6.445069	-44.746434
22146		26.578019	-6.377834	-44.087348
22147		26.243019	-6.289971	-43.426756
22148		25.817488	-6.204239	-42.769687
22149		25.409798	-6.146331	-42.120208
22150		25.114282	-6.107209	-41.471117
22151		24.980820	-6.088762	-40.832106
22152		25.000615	-6.085277	-40.206424
22153		25.128387	-6.079890	-39.582945
22154		25.296744	-6.077818	-38.960183
22155		25.418469	-6.071642	-38.339682
22156		25.427991	-6.051438	-37.708973
22157		25.297906	-6.038006	-37.089031
22158		25.089062	-6.034679	-36.477297
22159		24.889548	-6.033116	-35.854936
22160		24.723800	-6.025848	-35.227510
22161		24.599467	-6.025112	-34.615742
22162		24.499255	-6.009103	-34.007997
22163		24.404700	-5.981439	-33.402287
22164		24.307647	-5.950020	-32.794750
22165		24.215442	-5.921684	-32.188894
22166		24.133754	-5.896355	-31.588202
22167		24.072848	-5.872870	-30.990267
22168		24.022475	-5.848934	-30.395887
22169		23.965012	-5.823825	-29.800958
22170		23.872867	-5.790954	-29.206602
22171		23.771258	-5.765640	-28.618204
22172		23.671045	-5.737155	-28.033970
22173		23.575624	-5.732734	-27.461480
22174		23.519187	-5.738357	-26.896082
22175		23.542532	-5.745529	-26.335799
22176		23.659640	-5.747926	-25.780149
22177		23.850697	-5.749562	-25.245846
22178		24.033134	-5.747247	-24.727345
22179		24.130705	-5.742287	-24.206113
22180		24.092843	-5.731980	-23.679464
22181		23.933536	-5.722468	-23.153444
22182		23.702804	-5.710036	-22.623799
22183		23.459218	-5.708516	-22.088831
22184		23.266022	-5.730066	-21.565561
22185		23.182947	-5.775268	-21.059062
22186		23.205172	-5.804202	-20.551714
22187		23.274140	-5.813832	-20.064701
22188		23.304163	-5.811163	-19.607499
22189		23.229907	-5.787396	-19.163792
22190		23.022452	-5.755339	-18.728383
22191		22.731040	-5.722293	-18.295654
22192		22.452418	-5.691427	-17.870430
22193		22.267954	-5.680291	-17.460986
22194		22.214611	-5.677550	-17.066188
22195		22.254704	-5.663775	-16.684663
22196		22.284916	-5.639749	-16.319170
22197		22.221237	-5.595490	-15.964541
22198		22.021134	-5.538853	-15.616444
22199		21.726948	-5.486647	-15.265210
22200		21.402517	-5.435966	-14.898599
22201		21.130249	-5.405873	-14.530856
22202		20.983633	-5.384093	-14.173146
22203		20.943878	-5.375999	-13.837034
22204		20.929274	-5.369082	-13.512061
22205		20.870447	-5.349015	-13.197753
22206		20.743599	-5.325016	-12.897473
22207		20.568131	-5.302716	-12.610870
22208		20.385551	-5.273284	-12.320868
22209		20.240777	-5.259982	-12.041324
22210		20.162828	-5.257992	-11.773561
22211		20.123597	-5.246241	-11.503300
22212		20.088516	-5.226490	-11.249108
22213		20.021182	-5.203857	-11.016175
22214		19.896502	-5.165775	-10.786926
22215		19.727020	-5.121330	-10.566263
22216		19.537565	-5.076507	-10.357115
22217		19.327858	-5.018592	-10.144924
22218		19.069766	-4.948227	-9.935774
22219		18.748283	-4.890367	-9.731986
22220		18.409079	-4.843247	-9.536421
22221		18.125852	-4.820117	-9.351921
22222		17.986197	-4.828440	-9.188644
22223		18.026276	-4.856853	-9.035946
22224		18.242783	-4.893766	-8.898305
22225		18.535796	-4.957397	-8.781815
22226		18.817902	-5.049954	-8.676361
22227		19.033896	-5.145507	-8.570349
22228		19.187307	-5.236905	-8.473176
22229		19.261097	-5.320381	-8.390757
22230		19.266459	-5.377075	-8.318114
22231		19.180391	-5.434366	-8.265713
22232		19.028440	-5.477976	-8.227622
22233		18.850202	-5.499385	-8.203119
22234		18.702606	-5.520593	-8.201908
22235		18.619111	-5.537607	-8.214028
22236		18.614383	-5.543358	-8.238785
22237		18.671611	-5.551077	-8.280224
22238		18.747581	-5.559377	-8.329668
22239		18.800685	-5.556695	-8.379137
22240		18.806251	-5.545632	-8.434561
22241		18.755655	-5.546117	-8.495174
22242		18.678313	-5.551590	-8.558808
22243		18.623257	-5.566594	-8.621824
22244		18.635536	-5.575736	-8.686446
22245		18.689749	-5.578341	-8.759863
22246		18.748331	-5.572261	-8.839144
22247		18.769568	-5.561630	-8.923507
22248		18.757980	-5.548285	-9.012176
22249		18.747893	-5.539720	-9.106705
22250		18.782225	-5.535793	-9.204359
22251		18.863656	-5.539365	-9.299091
22252		18.979628	-5.528765	-9.390368
22253		19.072685	-5.501323	-9.481628
22254		19.100733	-5.467086	-9.576878
22255		19.055222	-5.428865	-9.668831
22256		18.963552	-5.389079	-9.753864
22257		18.886199	-5.354509	-9.836486
22258		18.850442	-5.326212	-9.921681
22259		18.829483	-5.290297	-10.005562
22260		18.804559	-5.253607	-10.096230
22261		18.751644	-5.222110	-10.189570
22262		18.704027	-5.187729	-10.278900
22263		18.695376	-5.159881	-10.370518
22264		18.732507	-5.141822	-10.461534
22265		18.786675	-5.117664	-10.550776
22266		18.804262	-5.092300	-10.645671
22267		18.765284	-5.072449	-10.745448
22268		18.675349	-5.036495	-10.838775
22269		18.552738	-5.014218	-10.931431
22270		18.455880	-5.003448	-11.025716
22271		18.413819	-5.002867	-11.110369
22272		18.460809	-5.010790	-11.203996
22273		18.573279	-5.032462	-11.306371
22274		18.715191	-5.052503	-11.407094
22275		18.817600	-5.069557	-11.512490
22276		18.856202	-5.086206	-11.626291
22277		18.829176	-5.097205	-11.741290
22278		18.769901	-5.100245	-11.853661
22279		18.708320	-5.107770	-11.968573
22280		18.678690	-5.117628	-12.088268
22281		18.695323	-5.132257	-12.209065
22282		18.762053	-5.146974	-12.337306
22283		18.853396	-5.161666	-12.471613
22284		18.951841	-5.174442	-12.614699
22285		19.044782	-5.190421	-12.768409
22286		19.127528	-5.202349	-12.931339
22287		19.178890	-5.198825	-13.095463
22288		19.167018	-5.192163	-13.273307
22289		19.107248	-5.192078	-13.460612
22290		19.020372	-5.184142	-13.649810
22291		18.925093	-5.184285	-13.845170
22292		18.833694	-5.185718	-14.054923
22293		18.776170	-5.191710	-14.277957
22294		18.772596	-5.196192	-14.512273
22295		18.815638	-5.204035	-14.765418
22296		18.887207	-5.220361	-15.032784
22297		18.957901	-5.226374	-15.299785
22298		19.024304	-5.223917	-15.575716
22299		19.069585	-5.227379	-15.863105
22300		19.092615	-5.226816	-16.152284
22301		19.082595	-5.233114	-16.450888
22302		19.049214	-5.241637	-16.767894
22303		18.985180	-5.257091	-17.102741
22304		18.903065	-5.274200	-17.451995
22305		18.797054	-5.285816	-17.823115
22306		18.703321	-5.301817	-18.214278
22307		18.639626	-5.311092	-18.615972
22308		18.631013	-5.321436	-19.031359
22309		18.676883	-5.338414	-19.455591
22310		18.779496	-5.357686	-19.890318
22311		18.892778	-5.375462	-20.328420
22312		18.987472	-5.397876	-20.779244
22313		19.034074	-5.427870	-21.247050
22314		19.029842	-5.453709	-21.730048
22315		18.984802	-5.483390	-22.222093
22316		18.954560	-5.508575	-22.726862
22317		18.953179	-5.530482	-23.242785
22318		18.971284	-5.551949	-23.774316
22319		18.991365	-5.569992	-24.311240
22320		19.008951	-5.577467	-24.850921
22321		19.023687	-5.594888	-25.401631
22322		19.056047	-5.606903	-25.953678
22323		19.110432	-5.622856	-26.512419
22324		19.199610	-5.654804	-27.087424
22325		19.302383	-5.686271	-27.666623
22326		19.390209	-5.712569	-28.251737
22327		19.435885	-5.743155	-28.843781
22328		19.471625	-5.765369	-29.444438
22329		19.517674	-5.787024	-30.049544
22330		19.587661	-5.803166	-30.657187
22331		19.658488	-5.820797	-31.267765
22332		19.731248	-5.836654	-31.881841
22333		19.802788	-5.847018	-32.495464
22334		19.884958	-5.854956	-33.119731
22335		19.960231	-5.863777	-33.751347
22336		20.030013	-5.874094	-34.390246
22337		20.095996	-5.877381	-35.034400
22338		20.152324	-5.869143	-35.685199
22339		20.180475	-5.856101	-36.341673
22340		20.194895	-5.829804	-36.996879
22341		20.186485	-5.787407	-37.651087
22342		20.164663	-5.737122	-38.307509
22343		20.140973	-5.680760	-38.965972
22344		20.133478	-5.626461	-39.632632
22345		20.153100	-5.570395	-40.306511
22346		20.197451	-5.505295	-40.983524
22347		20.238385	-5.426214	-41.662305
22348		20.278501	-5.322726	-42.352060
22349		20.296905	-5.217855	-43.048442
22350		20.310831	-5.110560	-43.743081
22351		20.343615	-5.011498	-44.425586
22352		20.433884	-4.916978	-45.100630
22353		20.579112	-4.813782	-45.760618
22354		20.733269	-4.703781	-46.421495
22355		20.856333	-4.589998	-47.081679
22356		20.932626	-4.472161	-47.737819
22357		20.985629	-4.364108	-48.397358
22358		21.058349	-4.256290	-49.061434
22359		21.190229	-4.149934	-49.721218
22360		21.359406	-4.041679	-50.378917
22361		21.526054	-3.931624	-51.035163
22362		21.641837	-3.815637	-51.682754
22363		21.679048	-3.706759	-52.327934
22364		21.686476	-3.611408	-52.973837
22365		21.724490	-3.531033	-53.620172
22366		21.858115	-3.464702	-54.269548
22367		22.087259	-3.405024	-54.922039
22368		22.380061	-3.345761	-55.580787
22369		22.662481	-3.279098	-56.245583
22370		22.882577	-3.202209	-56.917576
22371		23.013045	-3.116235	-57.591692
22372		23.051593	-3.018895	-58.253799
22373		23.035067	-2.928028	-58.913741
22374		23.038700	-2.855441	-59.569753
22375		23.076516	-2.781638	-60.202134
22376		23.151870	-2.719997	-60.826353
22377		23.265014	-2.678045	-61.445003
22378		23.399344	-2.635100	-62.047542
22379		23.490892	-2.583010	-62.635469
22380		23.504422	-2.534203	-63.224219
22381		23.426960	-2.484462	-63.805490
22382		23.301837	-2.441042	-64.388688
22383		23.186679	-2.410287	-64.971798
22384		23.085525	-2.380310	-65.558438
22385		23.022064	-2.360781	-66.153134
22386		22.974801	-2.329274	-66.743897
22387		22.918783	-2.303622	-67.337188
22388		22.853117	-2.284510	-67.930303
22389		22.794585	-2.264538	-68.508480
22390		22.740755	-2.234031	-69.069216
22391		22.691101	-2.217887	-69.631301
22392		22.641370	-2.207251	-70.184841
22393		22.582467	-2.192586	-70.724246
22394		22.546014	-2.183697	-71.269893
22395		22.562016	-2.191428	-71.821794
22396		22.639396	-2.187945	-72.360249
22397		22.725795	-2.169112	-72.891821
22398		22.760156	-2.141639	-73.421296
22399		22.722604	-2.109217	-73.939899
22400		22.626186	-2.069092	-74.443947
22401		22.483927	-2.029901	-74.930084
22402		22.308884	-1.991309	-75.406771
22403		22.148967	-1.972499	-75.879623
22404		22.064016	-1.955314	-76.337376
22405		22.085056	-1.938394	-76.780552
22406		22.214027	-1.939114	-77.224215
22407		22.424921	-1.939425	-77.648407
22408		22.667337	-1.928637	-78.059287
22409		22.890252	-1.918134	-78.467603
22410		23.076242	-1.901785	-78.864924
22411		23.242680	-1.879069	-79.253117
22412		23.406720	-1.856369	-79.641734
22413		23.597131	-1.835953	-80.026722
22414		23.809407	-1.800761	-80.405071
22415		24.021622	-1.751991	-80.777691
22416		24.179480	-1.679834	-81.138570
22417		24.261493	-1.601776	-81.496095
22418		24.304276	-1.535324	-81.842483
22419		24.360310	-1.480561	-82.172524
22420		24.471092	-1.441626	-82.502277
22421		24.676407	-1.421286	-82.834980
22422		24.969146	-1.407655	-83.181102
22423		25.318737	-1.384947	-83.544200
22424		25.640704	-1.329637	-83.920896
22425		25.858441	-1.253743	-84.321337
22426		25.960916	-1.163300	-84.731965
22427		25.964376	-1.056375	-85.138425
22428		25.898013	-0.940289	-85.535683
22429		25.803664	-0.830329	-85.912301
22430		25.714866	-0.725804	-86.269428
22431		25.684190	-0.639497	-86.612135
22432		25.727968	-0.562973	-86.939141
22433		25.842024	-0.502603	-87.256746
22434		26.007199	-0.451613	-87.562868
22435		26.179198	-0.396853	-87.858793
22436		26.318471	-0.335425	-88.139237
22437		26.429466	-0.277984	-88.399510
22438		26.527597	-0.222265	-88.641831
22439		26.636840	-0.168531	-88.864303
22440		26.773729	-0.116812	-89.071182
22441		26.932855	-0.071815	-89.269069
22442		27.099339	-0.025402	-89.453986
22443		27.246423	0.030143	-89.624834
22444		27.354826	0.093652	-89.792497
22445		27.436809	0.146930	-89.956924
22446		27.523858	0.192533	-90.113444
22447		27.641008	0.223946	-90.272890
22448		27.800512	0.246944	-90.435020
22449		28.016410	0.261334	-90.600814
22450		28.283780	0.271641	-90.768086
22451		28.582071	0.286874	-90.936688
22452		28.866907	0.309448	-91.105386
22453		29.085100	0.349359	-91.266315
22454		29.212718	0.418293	-91.415503
22455		29.242782	0.495415	-91.560698
22456		29.194133	0.573502	-91.701524
22457		29.130584	0.646871	-91.837415
22458		29.105333	0.713930	-91.971736
22459		29.131558	0.775001	-92.114323
22460		29.215810	0.829048	-92.261110
22461		29.345929	0.886449	-92.415583
22462		29.482547	0.948964	-92.567084
22463		29.589167	1.022299	-92.718104
22464		29.632855	1.111543	-92.857148
22465		29.618330	1.201224	-92.995279
22466		29.569752	1.287486	-93.130668
22467		29.537748	1.369486	-93.254903
22468		29.532126	1.446616	-93.379418
22469		29.555082	1.517498	-93.511955
22470		29.602091	1.590850	-93.643520
22471		29.663345	1.657904	-93.778612
22472		29.718467	1.728751	-93.912735
22473		29.755851	1.795639	-94.042122
22474		29.777309	1.858555	-94.167768
22475		29.793602	1.914215	-94.287031
22476		29.802416	1.972317	-94.397498
22477		29.810695	2.030475	-94.500066
22478		29.801520	2.092508	-94.598130
22479		29.794188	2.152796	-94.687712
22480		29.792477	2.211312	-94.773319
22481		29.807609	2.267687	-94.847770
22482		29.811414	2.325097	-94.912337
22483		29.790204	2.371272	-94.969700
22484		29.743683	2.411937	-95.014141
22485		29.695515	2.445133	-95.050544
22486		29.655496	2.474293	-95.070240
22487		29.633346	2.498126	-95.078674
22488		29.624761	2.518690	-95.079043
22489		29.640255	2.530480	-95.075003
22490		29.667851	2.541867	-95.065057
22491		29.699304	2.550058	-95.048589
22492		29.713755	2.558586	-95.028297
22493		29.703568	2.561942	-95.002787
22494		29.658862	2.565635	-94.967000
22495		29.598743	2.562200	-94.922550
22496		29.525667	2.561128	-94.868157
22497		29.453781	2.552151	-94.811211
22498		29.378303	2.540789	-94.751625
22499		29.322560	2.520611	-94.694026
22500		29.285395	2.497499	-94.634515
22501		29.258155	2.472015	-94.568765
22502		29.225385	2.446633	-94.495000
22503		29.192288	2.418213	-94.409585
22504		29.150826	2.387920	-94.314397
22505		29.100459	2.356912	-94.205789
22506		29.045838	2.324098	-94.090627
22507		28.990735	2.287835	-93.974186
22508		28.923079	2.254174	-93.846376
22509		28.843604	2.222100	-93.711560
22510		28.763778	2.190052	-93.562847
22511		28.702916	2.148586	-93.402348
22512		28.668414	2.098395	-93.230905
22513		28.660193	2.043256	-93.050229
22514		28.654416	1.988354	-92.858367
22515		28.647996	1.928844	-92.660480
22516		28.642227	1.864019	-92.456557
22517		28.653891	1.793209	-92.244951
22518		28.670978	1.721404	-92.023851
22519		28.686086	1.657112	-91.794610
22520		28.682276	1.601425	-91.560015
22521		28.667333	1.551358	-91.322165
22522		28.634123	1.507453	-91.081250
22523		28.583096	1.473482	-90.835954
22524		28.509657	1.448596	-90.590208
22525		28.431035	1.426354	-90.344193
22526		28.340407	1.411457	-90.098535
22527		28.243827	1.391580	-89.852926
22528		28.139255	1.375347	-89.602099
22529		28.043708	1.356187	-89.344325
22530		27.946600	1.336734	-89.080504
22531		27.849156	1.308864	-88.808933
22532		27.740573	1.275148	-88.529258
22533		27.635412	1.238514	-88.238367
22534		27.527909	1.196417	-87.939885
22535		27.423159	1.148192	-87.630242
22536		27.309983	1.094043	-87.305035
22537		27.211512	1.028788	-86.963994
22538		27.122441	0.963795	-86.598547
22539		27.027363	0.897239	-86.214848
22540		26.895809	0.830369	-85.811019
22541		26.743712	0.758076	-85.390556
22542		26.586398	0.674907	-84.954697
22543		26.447775	0.584039	-84.504444
22544		26.319583	0.486378	-84.043239
22545		26.207156	0.379633	-83.577158
22546		26.092459	0.280067	-83.100210
22547		25.980655	0.181254	-82.612366
22548		25.860708	0.087313	-82.107279
22549		25.717068	0.005939	-81.580751
22550		25.549049	-0.071042	-81.043859
22551		25.374482	-0.145607	-80.494800
22552		25.186333	-0.209297	-79.931588
22553		24.992730	-0.277731	-79.373735
22554		24.804158	-0.346738	-78.820149
22555		24.667182	-0.421534	-78.264254
22556		24.601302	-0.499737	-77.704461
22557		24.603440	-0.584489	-77.133610
22558		24.623623	-0.653183	-76.536710
22559		24.625621	-0.715484	-75.927623
22560		24.553556	-0.766394	-75.299126
22561		24.392836	-0.808061	-74.657239
22562		24.144131	-0.840663	-74.008619
22563		23.888309	-0.887582	-73.368212
22564		23.683825	-0.941174	-72.724997
22565		23.598543	-1.016824	-72.088280
22566		23.654770	-1.105232	-71.452196
22567		23.851882	-1.212068	-70.818722
22568		24.123428	-1.315799	-70.185075
22569		24.421737	-1.426039	-69.540462
22570		24.688400	-1.530588	-68.888949
22571		24.925558	-1.640884	-68.226507
22572		25.139819	-1.745597	-67.546790
22573		25.343961	-1.860118	-66.863856
22574		25.521749	-1.979594	-66.186471
22575		25.692906	-2.112900	-65.526922
22576		25.855942	-2.243029	-64.879319
22577		26.022273	-2.376420	-64.241546
22578		26.160358	-2.495619	-63.605141
22579		26.266053	-2.599193	-62.974986
22580		26.320143	-2.686156	-62.340426
22581		26.294686	-2.759469	-61.709287
22582		26.182168	-2.821266	-61.086993
22583		26.012312	-2.874323	-60.466829
22584		25.829008	-2.925610	-59.843707
22585		25.676593	-2.982355	-59.227143
22586		25.562766	-3.035939	-58.613648
22587		25.479879	-3.095943	-58.003488
22588		25.402159	-3.165234	-57.393283
22589		25.316025	-3.234101	-56.779247
22590		25.199197	-3.296839	-56.158451
22591		25.065689	-3.368792	-55.535482
22592		24.911505	-3.438937	-54.901976
22593		24.772441	-3.517432	-54.262444
22594		24.651694	-3.597024	-53.616933
22595		24.550067	-3.679258	-52.966004
22596		24.425332	-3.750400	-52.311556
22597		24.277761	-3.830653	-51.663973
22598		24.089996	-3.898029	-51.006108
22599		23.900936	-3.961944	-50.339412
22600		23.768852	-4.024442	-49.671453
22601		23.727275	-4.097640	-49.010002
22602		23.731753	-4.150749	-48.340150
22603		23.731250	-4.194189	-47.675266
22604		23.689504	-4.235626	-47.025703
22605		23.600834	-4.266459	-46.371123
22606		23.473588	-4.283730	-45.716742
22607		23.342496	-4.310788	-45.074854
22608		23.223004	-4.332666	-44.432661
22609		23.145626	-4.349922	-43.785968
22610		23.098433	-4.358614	-43.149200
22611		23.052148	-4.360295	-42.527609
22612		22.954959	-4.349111	-41.915355
22613		22.797369	-4.342016	-41.314881
22614		22.600123	-4.327759	-40.714465
22615		22.386172	-4.324767	-40.127364
22616		22.184097	-4.328258	-39.549711
22617		22.038003	-4.338747	-38.973342
22618		21.947476	-4.352267	-38.399227
22619		21.882100	-4.368504	-37.831693
22620		21.786725	-4.388831	-37.270112
22621		21.659146	-4.412781	-36.712135
22622		21.508517	-4.437800	-36.154726
22623		21.364763	-4.472793	-35.596807
22624		21.251767	-4.507175	-35.035402
22625		21.185976	-4.549159	-34.481855
22626		21.148159	-4.583635	-33.926476
22627		21.114224	-4.604180	-33.373541
22628		21.044617	-4.613425	-32.829826
22629		20.919408	-4.609352	-32.294241
22630		20.721390	-4.601991	-31.772983
22631		20.503432	-4.598891	-31.259443
22632		20.323872	-4.592377	-30.754699
22633		20.209009	-4.587649	-30.259178
22634		20.123973	-4.583708	-29.774171
22635		20.065697	-4.585119	-29.302550
22636		20.013724	-4.578367	-28.842558
22637		19.949268	-4.575564	-28.393984
22638		19.864738	-4.568680	-27.954593
22639		19.779897	-4.562355	-27.526729
22640		19.717412	-4.559924	-27.109767
22641		19.712500	-4.561071	-26.706826
22642		19.764172	-4.569715	-26.322066
22643		19.879258	-4.596928	-25.960315
22644		20.036249	-4.619661	-25.617873
22645		20.174062	-4.640737	-25.288630
22646		20.233141	-4.645088	-24.973542
22647		20.169191	-4.640130	-24.667976
22648		20.006625	-4.638207	-24.376716
22649		19.819894	-4.649239	-24.096124
22650		19.677513	-4.664003	-23.814882
22651		19.626860	-4.678443	-23.539064
22652		19.648262	-4.688534	-23.271856
22653		19.688301	-4.699287	-23.014497
22654		19.708388	-4.693267	-22.762042
22655		19.673266	-4.685104	-22.517582
22656		19.569170	-4.665359	-22.271305
22657		19.426686	-4.639402	-22.021535
22658		19.281310	-4.610867	-21.770956
22659		19.154877	-4.589898	-21.524378
22660		19.060180	-4.579048	-21.281891
22661		19.024515	-4.574305	-21.039463
22662		19.063965	-4.567737	-20.810681
22663		19.131339	-4.560472	-20.588715
22664		19.186995	-4.550593	-20.373443
22665		19.203426	-4.537401	-20.162694
22666		19.172860	-4.511487	-19.954749
22667		19.100148	-4.484565	-19.746036
22668		19.031923	-4.452492	-19.534108
22669		18.993045	-4.420365	-19.330227
22670		18.962260	-4.386443	-19.132769
22671		18.908368	-4.342662	-18.939420
22672		18.815350	-4.288963	-18.755834
22673		18.686645	-4.236983	-18.589432
22674		18.542843	-4.187378	-18.434350
22675		18.411821	-4.135644	-18.279952
22676		18.318936	-4.083552	-18.140234
22677		18.253522	-4.044593	-18.015188
22678		18.200790	-4.003693	-17.897615
22679		18.173314	-3.953859	-17.793333
22680		18.151954	-3.895787	-17.711945
22681		18.100724	-3.831045	-17.643131
22682		18.007930	-3.756731	-17.581425
22683		17.876005	-3.679567	-17.536097
22684		17.706456	-3.601561	-17.505172
22685		17.513863	-3.529063	-17.475709
22686		17.344542	-3.462463	-17.450428
22687		17.239687	-3.406488	-17.442683
22688		17.201726	-3.358627	-17.446900
22689		17.193106	-3.314408	-17.456481
22690		17.187912	-3.262828	-17.471248
22691		17.171351	-3.221061	-17.498344
22692		17.147185	-3.183565	-17.531532
22693		17.112933	-3.138530	-17.548568
22694		17.063647	-3.089708	-17.569607
22695		16.979946	-3.058038	-17.607603
22696		16.889383	-3.034103	-17.645569
22697		16.824989	-3.019884	-17.678083
22698		16.835908	-3.012977	-17.719535
22699		16.906901	-3.009020	-17.773940
22700		16.985686	-3.004605	-17.841420
22701		17.014516	-2.998669	-17.907717
22702		16.984945	-2.980652	-17.972824
22703		16.937759	-2.968095	-18.043321
22704		16.906211	-2.951894	-18.108671
22705		16.884601	-2.936440	-18.166535
22706		16.880029	-2.928988	-18.228221
22707		16.894098	-2.928106	-18.297567
22708		16.922603	-2.924142	-18.370780
22709		16.937321	-2.925756	-18.452334
22710		16.934453	-2.916320	-18.537109
22711		16.923775	-2.900812	-18.624346
22712		16.927680	-2.877928	-18.718430
22713		16.928648	-2.850402	-18.812582
22714		16.909468	-2.815529	-18.902232
22715		16.866748	-2.769843	-18.984166
22716		16.821312	-2.708988	-19.063796
22717		16.802300	-2.650465	-19.151211
22718		16.815039	-2.593807	-19.241264
22719		16.838901	-2.539210	-19.331580
22720		16.874664	-2.487890	-19.425113
22721		16.901792	-2.424299	-19.514094
22722		16.899778	-2.350511	-19.605369
22723		16.868837	-2.285380	-19.700510
22724		16.829349	-2.209004	-19.775313
22725		16.800839	-2.126688	-19.842683
22726		16.775885	-2.054448	-19.918972
22727		16.734543	-2.001746	-19.993093
22728		16.690996	-1.955052	-20.054778
22729		16.658248	-1.922457	-20.113042
22730		16.661966	-1.903456	-20.176151
22731		16.702847	-1.901955	-20.236644
22732		16.763943	-1.906775	-20.288471
22733		16.804044	-1.911195	-20.335175
22734		16.811631	-1.920904	-20.387447
22735		16.784430	-1.942604	-20.429739
22736		16.746525	-1.962564	-20.462750
22737		16.714893	-1.992519	-20.494816
22738		16.714096	-2.026214	-20.527829
22739		16.751431	-2.069110	-20.561252
22740		16.829960	-2.116467	-20.598796
22741		16.926806	-2.163926	-20.641353
22742		17.029913	-2.208342	-20.686723
22743		17.119645	-2.249397	-20.730026
22744		17.186648	-2.283460	-20.769302
22745		17.232778	-2.322199	-20.809939
22746		17.260693	-2.345115	-20.842957
22747		17.255804	-2.360400	-20.873982
22748		17.220905	-2.378336	-20.917308
22749		17.176930	-2.396845	-20.963451
22750		17.146286	-2.413555	-21.013907
22751		17.140933	-2.428414	-21.072395
22752		17.153732	-2.434022	-21.144592
22753		17.169849	-2.429865	-21.226083
22754		17.165727	-2.420267	-21.311717
22755		17.131308	-2.410318	-21.404727
22756		17.079633	-2.400957	-21.504105
22757		17.018744	-2.394386	-21.608311
22758		16.965998	-2.390256	-21.719184
22759		16.931607	-2.401852	-21.840317
22760		16.897610	-2.416574	-21.964499
22761		16.835165	-2.431514	-22.089087
22762		16.738694	-2.448757	-22.219420
22763		16.623956	-2.473304	-22.349506
22764		16.519888	-2.508111	-22.477654
22765		16.450730	-2.553241	-22.605868
22766		16.432349	-2.602284	-22.738763
22767		16.454363	-2.661459	-22.873691
22768		16.493765	-2.717704	-23.015271
22769		16.520659	-2.778368	-23.165617
22770		16.524832	-2.831770	-23.319845
22771		16.500700	-2.874295	-23.483038
22772		16.453298	-2.915147	-23.651435
22773		16.394460	-2.955654	-23.819788
22774		16.357395	-3.002613	-23.998028
22775		16.358542	-3.055267	-24.177348
22776		16.381376	-3.106337	-24.357565
22777		16.408146	-3.158501	-24.538564
22778		16.418646	-3.202790	-24.722259
22779		16.402123	-3.252738	-24.911255
22780		16.372143	-3.301266	-25.111504
22781		16.326792	-3.353845	-25.314265
22782		16.284701	-3.404520	-25.523233
22783		16.272290	-3.455956	-25.741898
22784		16.309985	-3.504958	-25.968773
22785		16.381416	-3.547334	-26.196998
22786		16.466450	-3.583301	-26.433401
22787		16.528837	-3.613853	-26.677766
22788		16.546465	-3.634406	-26.937398
22789		16.518019	-3.660050	-27.210750
22790		16.460359	-3.681751	-27.497217
22791		16.397364	-3.705104	-27.791836
22792		16.352859	-3.728086	-28.102663
22793		16.338873	-3.757192	-28.419668
22794		16.363932	-3.784907	-28.744617
22795		16.411310	-3.815674	-29.079883
22796		16.459520	-3.845932	-29.429438
22797		16.482643	-3.871093	-29.783199
22798		16.478799	-3.892149	-30.152343
22799		16.461876	-3.913807	-30.534597
22800		16.446018	-3.930694	-30.926160
22801		16.448499	-3.952699	-31.326916
22802		16.478379	-3.965531	-31.738891
22803		16.505937	-3.978311	-32.152314
22804		16.525107	-3.989492	-32.571645
22805		16.539340	-4.002304	-32.992786
22806		16.551640	-4.016986	-33.422199
22807		16.536742	-4.029484	-33.854231
22808		16.508834	-4.047549	-34.299021
22809		16.486640	-4.071012	-34.752691
22810		16.486447	-4.093442	-35.212760
22811		16.520573	-4.129019	-35.676417
22812		16.606170	-4.163850	-36.140479
22813		16.722682	-4.196763	-36.605246
22814		16.831297	-4.224479	-37.075187
22815		16.877980	-4.251693	-37.543588
22816		16.865078	-4.271901	-38.015089
22817		16.811842	-4.298023	-38.493745
22818		16.773915	-4.324243	-38.979882
22819		16.791274	-4.358986	-39.478472
22820		16.873756	-4.396453	-39.990917
22821		16.983123	-4.423054	-40.513211
22822		17.057472	-4.445625	-41.051433
22823		17.079620	-4.467660	-41.592917
22824		17.076617	-4.481493	-42.135269
22825		17.071646	-4.497362	-42.677877
22826		17.085688	-4.516202	-43.227346
22827		17.120950	-4.539057	-43.788917
22828		17.165732	-4.559698	-44.365312
22829		17.201746	-4.589366	-44.958885
22830		17.252065	-4.625409	-45.563538
22831		17.330404	-4.661373	-46.175035
22832		17.421717	-4.697493	-46.796305
22833		17.508433	-4.738697	-47.419465
22834		17.571548	-4.773470	-48.043918
22835		17.581965	-4.798966	-48.679588
22836		17.547967	-4.813228	-49.325820
22837		17.498815	-4.826156	-49.985002
22838		17.491687	-4.835819	-50.655934
22839		17.527644	-4.841395	-51.338972
22840		17.578701	-4.845871	-52.028022
22841		17.630766	-4.857930	-52.725939
22842		17.716178	-4.870798	-53.426697
22843		17.837160	-4.884553	-54.128532
22844		17.978433	-4.897705	-54.843582
22845		18.130763	-4.911099	-55.561280
22846		18.271515	-4.914255	-56.283977
22847		18.404661	-4.914147	-57.005346
22848		18.538955	-4.902139	-57.723246
22849		18.647904	-4.879061	-58.436723
22850		18.712271	-4.849261	-59.148244
22851		18.739348	-4.819527	-59.857082
22852		18.766883	-4.789523	-60.561833
22853		18.814045	-4.762692	-61.265193
22854		18.909531	-4.740631	-61.970965
22855		19.041692	-4.715022	-62.672000
22856		19.189350	-4.683933	-63.373627
22857		19.325845	-4.654765	-64.070020
22858		19.460249	-4.617236	-64.751951
22859		19.588436	-4.565622	-65.420414
22860		19.698770	-4.508095	-66.081195
22861		19.777085	-4.446818	-66.729188
22862		19.855769	-4.380129	-67.372695
22863		19.967718	-4.314173	-68.013898
22864		20.112747	-4.240237	-68.650836
22865		20.285588	-4.168315	-69.288300
22866		20.497843	-4.093927	-69.923585
22867		20.750162	-4.012659	-70.551113
22868		21.021974	-3.929033	-71.175358
22869		21.267410	-3.832331	-71.787196
22870		21.467215	-3.724025	-72.392448
22871		21.637250	-3.619043	-72.999699
22872		21.830640	-3.511761	-73.599172
22873		22.080104	-3.407691	-74.197361
22874		22.390665	-3.302033	-74.802688
22875		22.773938	-3.209797	-75.422133
22876		23.257526	-3.124882	-76.053159
22877		23.830875	-3.038098	-76.685201
22878		24.470881	-2.943139	-77.321507
22879		25.093859	-2.824620	-77.949366
22880		25.619802	-2.675206	-78.561198
22881		25.979262	-2.494575	-79.143807
22882		26.136394	-2.287977	-79.695044
22883		26.113431	-2.075150	-80.221239
22884		25.981093	-1.867639	-80.719085
22885		25.816096	-1.655746	-81.183934
22886		25.679721	-1.460757	-81.626691
22887		25.606357	-1.282915	-82.059872
22888		25.623945	-1.128740	-82.483772
22889		25.742985	-0.995225	-82.889298
22890		25.936705	-0.870787	-83.270738
22891		26.158276	-0.747857	-83.629868
22892		26.355879	-0.628446	-83.967752
22893		26.492272	-0.513848	-84.287090
22894		26.559342	-0.389112	-84.588075
22895		26.602106	-0.275901	-84.879509
22896		26.648063	-0.171203	-85.170569
22897		26.730580	-0.065807	-85.449948
22898		26.852980	0.033090	-85.733534
22899		27.011608	0.106214	-86.025485
22900		27.178906	0.174127	-86.307968
22901		27.350327	0.232447	-86.585245
22902		27.527659	0.276952	-86.859597
22903		27.682925	0.322469	-87.123420
22904		27.808117	0.362638	-87.387245
22905		27.892536	0.405349	-87.643879
22906		27.913893	0.459564	-87.891667
22907		27.869632	0.513575	-88.138658
22908		27.792309	0.559869	-88.384589
22909		27.739449	0.604017	-88.622778
22910		27.741048	0.634964	-88.859057
22911		27.809667	0.650154	-89.092997
22912		27.899034	0.673683	-89.316784
22913		27.970417	0.690647	-89.547560
22914		28.010419	0.697553	-89.777453
22915		28.033827	0.705273	-89.993504
22916		28.049552	0.709352	-90.205522
22917		28.067419	0.709780	-90.409278
22918		28.087515	0.712839	-90.608745
22919		28.141178	0.710203	-90.814648
22920		28.240371	0.701825	-91.019453
22921		28.363390	0.706798	-91.220891
22922		28.489277	0.715103	-91.425553
22923		28.616286	0.722553	-91.634507
22924		28.746104	0.730401	-91.841505
22925		28.875893	0.742943	-92.042860
22926		28.977585	0.763452	-92.240983
22927		29.034708	0.786617	-92.436871
22928		29.053431	0.817392	-92.618230
22929		29.044829	0.855423	-92.787888
22930		29.010664	0.895826	-92.950430
22931		28.963450	0.938425	-93.102041
22932		28.922973	0.975334	-93.240588
22933		28.904397	1.013058	-93.370128
22934		28.863778	1.062109	-93.486933
22935		28.777313	1.105873	-93.600789
22936		28.654110	1.147948	-93.700498
22937		28.514712	1.192459	-93.775678
22938		28.358551	1.238971	-93.832875
22939		28.200112	1.287214	-93.870033
22940		28.044953	1.338078	-93.888529
22941		27.899060	1.386973	-93.891085
22942		27.766746	1.430203	-93.889085
22943		27.685404	1.460626	-93.887081
22944		27.663375	1.483223	-93.885010
22945		27.702518	1.494436	-93.885375
22946		27.785817	1.498747	-93.889173
22947		27.888011	1.503692	-93.885736
22948		27.969731	1.512052	-93.872283
22949		28.020373	1.524078	-93.845535
22950		28.030163	1.540536	-93.810562
22951		28.010287	1.553371	-93.769961
22952		27.972393	1.566804	-93.728521
22953		27.934164	1.576702	-93.690855
22954		27.893226	1.587345	-93.653705
22955		27.861115	1.594776	-93.621332
22956		27.844614	1.594720	-93.591959
22957		27.856720	1.590311	-93.559198
22958		27.888693	1.581129	-93.526930
22959		27.923003	1.567912	-93.494195
22960		27.939907	1.566352	-93.460325
22961		27.925294	1.565177	-93.432550
22962		27.886003	1.565659	-93.410647
22963		27.846362	1.564773	-93.387539
22964		27.823729	1.561281	-93.371411
22965		27.842870	1.551686	-93.359033
22966		27.892276	1.545000	-93.345271
22967		27.965492	1.543006	-93.332229
22968		28.026833	1.552115	-93.320511
22969		28.050414	1.565093	-93.311331
22970		28.020688	1.589542	-93.295401
22971		27.953676	1.616923	-93.273821
22972		27.862139	1.648332	-93.243609
22973		27.764783	1.677722	-93.206841
22974		27.673283	1.702606	-93.162618
22975		27.602133	1.722554	-93.112566
22976		27.541655	1.749289	-93.046282
22977		27.472029	1.777115	-92.965716
22978		27.381728	1.804571	-92.865905
22979		27.282405	1.828819	-92.742434
22980		27.169093	1.845120	-92.590453
22981		27.031224	1.852699	-92.420473
22982		26.878569	1.847045	-92.236547
22983		26.748141	1.824991	-92.038405
22984		26.664977	1.798779	-91.826831
22985		26.634435	1.764574	-91.607728
22986		26.626326	1.734116	-91.379823
22987		26.598847	1.712714	-91.142660
22988		26.510578	1.698057	-90.896256
22989		26.365499	1.683584	-90.634014
22990		26.189840	1.677281	-90.354092
22991		26.028406	1.662348	-90.058777
22992		25.896693	1.642359	-89.753697
22993		25.812520	1.615460	-89.443697
22994		25.765632	1.582738	-89.128355
22995		25.752170	1.544622	-88.804451
22996		25.734808	1.509427	-88.469939
22997		25.709780	1.470550	-88.127327
22998		25.658332	1.430951	-87.769058
22999		25.580889	1.397762	-87.392176
23000		25.475894	1.369631	-87.000200
23001		25.367216	1.335952	-86.597385
23002		25.268359	1.304986	-86.184158
23003		25.209627	1.274320	-85.761045
23004		25.182184	1.235890	-85.332978
23005		25.176020	1.196813	-84.891441
23006		25.139565	1.162831	-84.441595
23007		25.055127	1.124283	-83.980344
23008		24.912997	1.093493	-83.500058
23009		24.741400	1.064945	-83.002991
23010		24.549652	1.038835	-82.490687
23011		24.346916	1.013545	-81.969488
23012		24.144746	0.988624	-81.442323
23013		23.980697	0.958987	-80.904652
23014		23.869153	0.932412	-80.364455
23015		23.807794	0.897296	-79.823978
23016		23.741559	0.862352	-79.276991
23017		23.642950	0.832753	-78.725546
23018		23.505919	0.802855	-78.173767
23019		23.365685	0.764134	-77.619938
23020		23.233326	0.724584	-77.057979
23021		23.127383	0.686404	-76.489100
23022		23.034769	0.644724	-75.913862
23023		22.973356	0.599681	-75.334525
23024		22.935660	0.551981	-74.746070
23025		22.901747	0.507330	-74.146308
23026		22.834339	0.465597	-73.549073
23027		22.757034	0.411655	-72.955028
23028		22.684316	0.363761	-72.346570
23029		22.634004	0.316828	-71.733761
23030		22.600213	0.273643	-71.110223
23031		22.590556	0.237211	-70.472456
23032		22.570827	0.207284	-69.828507
23033		22.501971	0.175854	-69.188057
23034		22.384369	0.149064	-68.550119
23035		22.280624	0.106663	-67.919452
23036		22.226529	0.054533	-67.294614
23037		22.228256	-0.003072	-66.666045
23038		22.261048	-0.066810	-66.029772
23039		22.312993	-0.139769	-65.382970
23040		22.360728	-0.203917	-64.717536
23041		22.385499	-0.276627	-64.037271
23042		22.378366	-0.345940	-63.343353
23043		22.332622	-0.426638	-62.647295
23044		22.230778	-0.517651	-61.954145
23045		22.090770	-0.624661	-61.267320
23046		21.931679	-0.743559	-60.583237
23047		21.812873	-0.879796	-59.900171
23048		21.747088	-1.019580	-59.210491
23049		21.736311	-1.163551	-58.514068
23050		21.755004	-1.298630	-57.807385
23051		21.751705	-1.430825	-57.101295
23052		21.656312	-1.557799	-56.392315
23053		21.483906	-1.684469	-55.678672
23054		21.249256	-1.809690	-54.968693
23055		21.006635	-1.940657	-54.265958
23056		20.810298	-2.066880	-53.562030
23057		20.700816	-2.200660	-52.866967
23058		20.673536	-2.334127	-52.170630
23059		20.700017	-2.453706	-51.472523
23060		20.724024	-2.562429	-50.775103
23061		20.724891	-2.668094	-50.074321
23062		20.674303	-2.757435	-49.359896
23063		20.578491	-2.841090	-48.636692
23064		20.460197	-2.918932	-47.911374
23065		20.345247	-3.004686	-47.190725
23066		20.248759	-3.086797	-46.467818
23067		20.196205	-3.174609	-45.751971
23068		20.190391	-3.262884	-45.041550
23069		20.222303	-3.341334	-44.323487
23070		20.224018	-3.410579	-43.603874
23071		20.195138	-3.481553	-42.880760
23072		20.127554	-3.539812	-42.150771
23073		20.058943	-3.609660	-41.419501
23074		20.028258	-3.681571	-40.678551
23075		20.097543	-3.750249	-39.934778
23076		20.244692	-3.822284	-39.204946
23077		20.391691	-3.897742	-38.473815
23078		20.430365	-3.954705	-37.746898
23079		20.356229	-4.039446	-37.026451
23080		20.191493	-4.124864	-36.282141
23081		19.994326	-4.204188	-35.509104
23082		19.829110	-4.281204	-34.735438
23083		19.736270	-4.375421	-33.979615
23084		19.671365	-4.478610	-33.237274
23085		19.565416	-4.566541	-32.515273
23086		19.409423	-4.643674	-31.814060
23087		19.218727	-4.706891	-31.123991
23088		19.011113	-4.759194	-30.446935
23089		18.803696	-4.817623	-29.785272
23090		18.606901	-4.866166	-29.133356
23091		18.424709	-4.916046	-28.493723
23092		18.252831	-4.958497	-27.863529
23093		18.097177	-5.001604	-27.243375
23094		17.932121	-5.017668	-26.627052
23095		17.736250	-5.050192	-26.038033
23096		17.527184	-5.083150	-25.452375
23097		17.340924	-5.112740	-24.858153
23098		17.208358	-5.140637	-24.282729
23099		17.141876	-5.167231	-23.726124
23100		17.113919	-5.191387	-23.175142
23101		17.076319	-5.208401	-22.635232
23102		16.990052	-5.197000	-22.096016
23103		16.858485	-5.178096	-21.579353
23104		16.690337	-5.172357	-21.071165
23105		16.513150	-5.160386	-20.557501
23106		16.384156	-5.141280	-20.051458
23107		16.343623	-5.120807	-19.554570
23108		16.374665	-5.081933	-19.062105
23109		16.407744	-5.047433	-18.579131
23110		16.393509	-5.009320	-18.104908
23111		16.311032	-4.968577	-17.635642
23112		16.174599	-4.930575	-17.167280
23113		16.044866	-4.896090	-16.701107
23114		15.972548	-4.860237	-16.227941
23115		15.963770	-4.824181	-15.755788
23116		15.993046	-4.789991	-15.291766
23117		16.029646	-4.749115	-14.841466
23118		16.038186	-4.703198	-14.410457
23119		15.982131	-4.654871	-13.980841
23120		15.861379	-4.587953	-13.545559
23121		15.705846	-4.518672	-13.118951
23122		15.540191	-4.434917	-12.699746
23123		15.356814	-4.357809	-12.299005
23124		15.166944	-4.295433	-11.921024
23125		15.024469	-4.233063	-11.558408
23126		14.951859	-4.170293	-11.215864
23127		14.928978	-4.107497	-10.891388
23128		14.920639	-4.033052	-10.578669
23129		14.880969	-3.930711	-10.277871
23130		14.757018	-3.812865	-9.988082
23131		14.524984	-3.706070	-9.705459
23132		14.250984	-3.613799	-9.438618
23133		14.029537	-3.542158	-9.183755
23134		13.912341	-3.483904	-8.939009
23135		13.900765	-3.431621	-8.709250
23136		13.931464	-3.362400	-8.485783
23137		13.886815	-3.281101	-8.271338
23138		13.698422	-3.202639	-8.064113
23139		13.379430	-3.114388	-7.849896
23140		12.988120	-3.010229	-7.629315
23141		12.629208	-2.924456	-7.409708
23142		12.377984	-2.834355	-7.195610
23143		12.208013	-2.741244	-6.980702
23144		12.014918	-2.635205	-6.787489
23145		11.748159	-2.535682	-6.617875
23146		11.422331	-2.438823	-6.458432
23147		11.115590	-2.353160	-6.309522
23148		10.907460	-2.282651	-6.167125
23149		10.826938	-2.227501	-6.044908
23150		10.843114	-2.182072	-5.932866
23151		10.853316	-2.128107	-5.828992
23152		10.809257	-2.070672	-5.741710
23153		10.694351	-2.025034	-5.663399
23154		10.540676	-1.992229	-5.583591
23155		10.425699	-1.975836	-5.500748
23156		10.408772	-1.978325	-5.418246
23157		10.499354	-1.996090	-5.335247
23158		10.624447	-1.998374	-5.253549
23159		10.705717	-1.994695	-5.184883
23160		10.705411	-1.981317	-5.132562
23161		10.622407	-1.963685	-5.086190
23162		10.493542	-1.944524	-5.048605
23163		10.373404	-1.930373	-5.016305
23164		10.318490	-1.917604	-4.991836
23165		10.336691	-1.913937	-4.974588
23166		10.408216	-1.909859	-4.956643
23167		10.484678	-1.903135	-4.939274
23168		10.540957	-1.882574	-4.930795
23169		10.537979	-1.870330	-4.935659
23170		10.481383	-1.860036	-4.940299
23171		10.425786	-1.853677	-4.947012
23172		10.436338	-1.857850	-4.961061
23173		10.532115	-1.863656	-4.981565
23174		10.688074	-1.869493	-5.004658
23175		10.836826	-1.870211	-5.030627
23176		10.928927	-1.851214	-5.057333
23177		10.960408	-1.820786	-5.095381
23178		10.961974	-1.797443	-5.143318
23179		10.952306	-1.773499	-5.189790
23180		10.961960	-1.748719	-5.233977
23181		11.005047	-1.722190	-5.289515
23182		11.048731	-1.679893	-5.346450
23183		11.043756	-1.628303	-5.416198
23184		10.987675	-1.575791	-5.482945
23185		10.872684	-1.521367	-5.545735
23186		10.770293	-1.472753	-5.612957
23187		10.750331	-1.435483	-5.683738
23188		10.828670	-1.404888	-5.753447
23189		10.936131	-1.363063	-5.825951
23190		11.006706	-1.319850	-5.913041
23191		11.023986	-1.281271	-6.012249
23192		10.997443	-1.237893	-6.116246
23193		10.956661	-1.211440	-6.219670
23194		10.944759	-1.187757	-6.321561
23195		10.995276	-1.178901	-6.418360
23196		11.103947	-1.174243	-6.514723
23197		11.232306	-1.167096	-6.609041
23198		11.308443	-1.148436	-6.708282
23199		11.299945	-1.134118	-6.819796
23200		11.238556	-1.121931	-6.935007
23201		11.166472	-1.114070	-7.051917
23202		11.132815	-1.109474	-7.176899
23203		11.167072	-1.119600	-7.309404
23204		11.266061	-1.131004	-7.449643
23205		11.385089	-1.141186	-7.601324
23206		11.485243	-1.149892	-7.761174
23207		11.529027	-1.155092	-7.926945
23208		11.531799	-1.157823	-8.095450
23209		11.529915	-1.166549	-8.263350
23210		11.570608	-1.176636	-8.429384
23211		11.649967	-1.189766	-8.597978
23212		11.726687	-1.194481	-8.775352
23213		11.756665	-1.192171	-8.966980
23214		11.733277	-1.185178	-9.166381
23215		11.676828	-1.182495	-9.372385
23216		11.645364	-1.183594	-9.587279
23217		11.679842	-1.193891	-9.807619
23218		11.782318	-1.209188	-10.031965
23219		11.904208	-1.218882	-10.264583
23220		11.995829	-1.221962	-10.505813
23221		12.026032	-1.219619	-10.752425
23222		12.043784	-1.214791	-11.010544
23223		12.075480	-1.217444	-11.266884
23224		12.135753	-1.210027	-11.519675
23225		12.203377	-1.202899	-11.783829
23226		12.252754	-1.203682	-12.060399
23227		12.253453	-1.194784	-12.331932
23228		12.230798	-1.183130	-12.610388
23229		12.238174	-1.178190	-12.901698
23230		12.289344	-1.178928	-13.198348
23231		12.362622	-1.181739	-13.499243
23232		12.450448	-1.175935	-13.805015
23233		12.531874	-1.175250	-14.117414
23234		12.595342	-1.170495	-14.437130
23235		12.622150	-1.166470	-14.760312
23236		12.602133	-1.156062	-15.089478
23237		12.538622	-1.148812	-15.421861
23238		12.466116	-1.141665	-15.761630
23239		12.420771	-1.146720	-16.102121
23240		12.429294	-1.159694	-16.455790
23241		12.491435	-1.180101	-16.814620
23242		12.590601	-1.202709	-17.188148
23243		12.687198	-1.223276	-17.574207
23244		12.750909	-1.230489	-17.975441
23245		12.763798	-1.246370	-18.377027
23246		12.722849	-1.263034	-18.789035
23247		12.706748	-1.296304	-19.197263
23248		12.743709	-1.335356	-19.599967
23249		12.830123	-1.382915	-20.002476
23250		12.963452	-1.419483	-20.410449
23251		13.155577	-1.452829	-20.819780
23252		13.384206	-1.480407	-21.246077
23253		13.561559	-1.518119	-21.681203
23254		13.662099	-1.561476	-22.118391
23255		13.668768	-1.598774	-22.566926
23256		13.645054	-1.639715	-23.018969
23257		13.638481	-1.670968	-23.472966
23258		13.670217	-1.707425	-23.935744
23259		13.713094	-1.746188	-24.402407
23260		13.745153	-1.778795	-24.877595
23261		13.758583	-1.812013	-25.361166
23262		13.756304	-1.843349	-25.853249
23263		13.759740	-1.873133	-26.351688
23264		13.784003	-1.902233	-26.859010
23265		13.821700	-1.942072	-27.376813
23266		13.886921	-1.981596	-27.904218
23267		13.966817	-2.024114	-28.439990
23268		14.044366	-2.060012	-28.986558
23269		14.108401	-2.095214	-29.540789
23270		14.162653	-2.118646	-30.101149
23271		14.183397	-2.143506	-30.668077
23272		14.191578	-2.165659	-31.248154
23273		14.214654	-2.193499	-31.837491
23274		14.274885	-2.224454	-32.437635
23275		14.351440	-2.258766	-33.044679
23276		14.428751	-2.287754	-33.676553
23277		14.504295	-2.324763	-34.319885
23278		14.575500	-2.353605	-34.973344
23279		14.642188	-2.372610	-35.634303
23280		14.685569	-2.390126	-36.308774
23281		14.705046	-2.401904	-36.991528
23282		14.728463	-2.413879	-37.684487
23283		14.755969	-2.426856	-38.382203
23284		14.770708	-2.432924	-39.088007
23285		14.780361	-2.452776	-39.809468
23286		14.828413	-2.472592	-40.541881
23287		14.912618	-2.486342	-41.278905
23288		14.983237	-2.490472	-42.030055
23289		14.984033	-2.491328	-42.791080
23290		14.922792	-2.488120	-43.557997
23291		14.824392	-2.487783	-44.322685
23292		14.751079	-2.494217	-45.088781
23293		14.738067	-2.503141	-45.853002
23294		14.755909	-2.507287	-46.615045
23295		14.741888	-2.500526	-47.377303
23296		14.674676	-2.484437	-48.145063
23297		14.565455	-2.465595	-48.912376
23298		14.448172	-2.438025	-49.676147
23299		14.363816	-2.416391	-50.438220
23300		14.359743	-2.393898	-51.200117
23301		14.401167	-2.369178	-51.954153
23302		14.450901	-2.334426	-52.703636
23303		14.495599	-2.301804	-53.454037
23304		14.561788	-2.275355	-54.190605
23305		14.679547	-2.261912	-54.909105
