// General information: 
//  MT Manager version: 2022.2.0 
//  XDA version: 2022.2.0 build 7381 rev 124627 built on 2023-07-19
// Device information: 
//  DeviceId: 00B447FD
//  ProductCode: MTW2-3A7G6
//  Firmware Version: 4.3.5
//  Hardware Version: 2.0.0
// Device settings: 
//  Filter Profile: human(46.1)
//  Option Flags: Orientation Smoother Disabled, Position/Velocity Smoother Disabled, Continuous Zero Rotation Update Disabled, AHS Disabled, ICC Disabled
// Coordinate system: ENU
PacketCounter	SampleTimeFine	Roll	Pitch	Yaw
20147		-9.789843	6.819892	-84.512505
20148		-9.878516	6.769515	-84.453706
20149		-9.984337	6.744200	-84.407626
20150		-10.096830	6.729962	-84.372361
20151		-10.201507	6.730807	-84.352947
20152		-10.291085	6.740002	-84.348946
20153		-10.350431	6.750745	-84.353218
20154		-10.393086	6.764017	-84.361750
20155		-10.429182	6.788914	-84.373274
20156		-10.472912	6.819925	-84.386352
20157		-10.539046	6.853292	-84.403981
20158		-10.631334	6.885921	-84.426266
20159		-10.748734	6.927722	-84.450221
20160		-10.884473	6.976177	-84.480128
20161		-11.026725	7.024094	-84.508520
20162		-11.162417	7.065423	-84.526684
20163		-11.285916	7.085890	-84.532556
20164		-11.399828	7.086782	-84.529044
20165		-11.495645	7.072541	-84.520774
20166		-11.559613	7.052394	-84.520779
20167		-11.606782	7.040450	-84.528843
20168		-11.634928	7.042662	-84.540563
20169		-11.647927	7.065487	-84.551997
20170		-11.659503	7.103180	-84.560322
20171		-11.671822	7.145377	-84.562983
20172		-11.690577	7.184461	-84.560428
20173		-11.712366	7.205706	-84.558757
20174		-11.727827	7.204937	-84.553068
20175		-11.734422	7.185979	-84.550849
20176		-11.735361	7.150477	-84.549067
20177		-11.725599	7.098923	-84.536707
20178		-11.690975	7.037023	-84.509920
20179		-11.645105	6.971117	-84.468075
20180		-11.599668	6.908299	-84.411748
20181		-11.560918	6.856679	-84.340787
20182		-11.539420	6.825244	-84.266320
20183		-11.532711	6.810082	-84.188022
20184		-11.534548	6.800815	-84.111756
20185		-11.532301	6.784392	-84.035276
20186		-11.504043	6.745640	-83.956247
20187		-11.447692	6.693052	-83.869379
20188		-11.359785	6.636374	-83.776225
20189		-11.243389	6.586386	-83.671551
20190		-11.123607	6.558837	-83.565691
20191		-11.007796	6.539135	-83.455301
20192		-10.895805	6.506852	-83.350970
20193		-10.788614	6.447750	-83.253187
20194		-10.690057	6.358758	-83.170107
20195		-10.618390	6.262906	-83.101915
20196		-10.596404	6.162950	-83.066630
20197		-10.626119	6.077996	-83.065579
20198		-10.723548	6.020414	-83.108476
20199		-10.859163	5.988533	-83.189893
20200		-10.998950	5.977275	-83.293516
20201		-11.097760	5.976564	-83.396432
20202		-11.134836	5.973512	-83.488488
20203		-11.093017	5.962423	-83.555461
20204		-10.984430	5.955028	-83.589133
20205		-10.831364	5.940859	-83.595578
20206		-10.648154	5.920109	-83.581941
20207		-10.437863	5.899176	-83.557506
20208		-10.214528	5.885901	-83.520487
20209		-10.011912	5.888662	-83.476388
20210		-9.836260	5.891458	-83.429645
20211		-9.690885	5.882853	-83.386659
20212		-9.576104	5.859280	-83.346098
20213		-9.490127	5.832314	-83.302238
20214		-9.433172	5.808229	-83.262660
20215		-9.398647	5.789110	-83.235021
20216		-9.359150	5.785135	-83.221847
20217		-9.283884	5.801792	-83.212965
20218		-9.159481	5.845646	-83.197573
20219		-8.986192	5.912905	-83.187170
20220		-8.753665	5.997274	-83.180919
20221		-8.459263	6.109129	-83.171439
20222		-8.124472	6.251575	-83.157865
20223		-7.800509	6.409244	-83.144159
20224		-7.515320	6.580679	-83.125270
20225		-7.299027	6.736210	-83.107901
20226		-7.161702	6.852775	-83.095860
20227		-7.091825	6.926470	-83.092894
20228		-7.064699	6.964192	-83.089343
20229		-7.029704	6.987028	-83.077578
20230		-6.965200	6.999130	-83.054103
20231		-6.872249	7.012721	-83.019345
20232		-6.755505	7.033003	-82.978124
20233		-6.607748	7.058025	-82.934151
20234		-6.443066	7.086949	-82.889038
20235		-6.284102	7.118797	-82.852134
20236		-6.132111	7.145945	-82.823654
20237		-5.990508	7.170678	-82.803379
20238		-5.887706	7.195771	-82.792392
20239		-5.813068	7.213141	-82.788386
20240		-5.755889	7.216590	-82.787662
20241		-5.711420	7.205972	-82.787511
20242		-5.679271	7.190491	-82.791238
20243		-5.655109	7.178687	-82.794553
20244		-5.642826	7.179139	-82.803618
20245		-5.624198	7.177844	-82.814842
20246		-5.588951	7.168388	-82.830676
20247		-5.539887	7.148917	-82.843428
20248		-5.492451	7.133002	-82.860608
20249		-5.447071	7.111049	-82.879889
20250		-5.409024	7.086864	-82.906601
20251		-5.381646	7.053664	-82.941603
20252		-5.353067	7.012661	-82.980441
20253		-5.322880	6.964715	-83.027670
20254		-5.285430	6.918883	-83.085482
20255		-5.237342	6.886344	-83.155424
20256		-5.183821	6.865509	-83.232194
20257		-5.134908	6.854324	-83.318907
20258		-5.092656	6.849864	-83.412390
20259		-5.050576	6.848002	-83.512158
20260		-5.009557	6.846890	-83.613599
20261		-4.966371	6.846828	-83.714286
20262		-4.945255	6.851364	-83.811011
20263		-4.932464	6.868957	-83.902093
20264		-4.925029	6.880807	-83.995175
20265		-4.925126	6.881330	-84.095297
20266		-4.940074	6.864297	-84.204720
20267		-4.981769	6.834255	-84.325500
20268		-5.062614	6.794613	-84.457931
20269		-5.180271	6.740101	-84.593220
20270		-5.327814	6.674405	-84.733622
20271		-5.472503	6.601221	-84.874327
20272		-5.612991	6.526275	-85.021522
20273		-5.740734	6.456960	-85.174325
20274		-5.855705	6.392608	-85.336217
20275		-5.971323	6.332293	-85.513931
20276		-6.108949	6.276772	-85.707139
20277		-6.277112	6.218181	-85.922567
20278		-6.471134	6.145384	-86.150693
20279		-6.665184	6.058431	-86.393293
20280		-6.868902	5.963781	-86.640728
20281		-7.076504	5.866214	-86.899751
20282		-7.286596	5.762090	-87.168943
20283		-7.479981	5.662151	-87.452945
20284		-7.643084	5.568104	-87.747652
20285		-7.775977	5.482845	-88.061445
20286		-7.885093	5.397758	-88.392830
20287		-7.958708	5.312362	-88.745797
20288		-8.009883	5.219602	-89.110986
20289		-8.036846	5.120255	-89.494458
20290		-8.056990	5.020002	-89.895587
20291		-8.082791	4.925036	-90.319081
20292		-8.137028	4.824977	-90.761400
20293		-8.210299	4.720669	-91.226124
20294		-8.295053	4.623556	-91.696994
20295		-8.362011	4.528023	-92.172289
20296		-8.412987	4.426958	-92.655611
20297		-8.444797	4.336042	-93.157485
20298		-8.454265	4.245532	-93.669852
20299		-8.458961	4.151240	-94.206361
20300		-8.474448	4.053008	-94.754503
20301		-8.510977	3.958586	-95.320493
20302		-8.560386	3.870558	-95.893158
20303		-8.606814	3.785088	-96.481424
20304		-8.665347	3.691688	-97.081586
20305		-8.723347	3.596904	-97.695854
20306		-8.792650	3.500595	-98.324521
20307		-8.886993	3.411215	-98.973892
20308		-9.016818	3.338178	-99.631413
20309		-9.172429	3.284690	-100.305035
20310		-9.339374	3.237175	-100.982888
20311		-9.505568	3.202633	-101.672919
20312		-9.649530	3.177801	-102.369618
20313		-9.741325	3.174993	-103.066763
20314		-9.765431	3.195533	-103.753247
20315		-9.742811	3.250769	-104.442169
20316		-9.691866	3.327297	-105.125482
20317		-9.635841	3.429700	-105.806417
20318		-9.564378	3.556743	-106.462859
20319		-9.448708	3.680477	-107.093508
20320		-9.302323	3.792286	-107.699537
20321		-9.128826	3.873418	-108.275049
20322		-8.960804	3.918361	-108.813863
20323		-8.832712	3.918073	-109.332137
20324		-8.774340	3.866493	-109.833314
20325		-8.805734	3.776005	-110.335308
20326		-8.901459	3.671985	-110.834689
20327		-9.026407	3.566280	-111.330337
20328		-9.181170	3.450715	-111.829180
20329		-9.352048	3.330076	-112.334364
20330		-9.495893	3.198061	-112.833481
20331		-9.599280	3.056607	-113.330578
20332		-9.656671	2.926678	-113.821806
20333		-9.640889	2.818658	-114.304133
20334		-9.576051	2.736289	-114.780316
20335		-9.465398	2.672276	-115.255903
20336		-9.365023	2.612006	-115.738539
20337		-9.268351	2.549899	-116.241393
20338		-9.172785	2.480363	-116.759270
20339		-9.069090	2.398721	-117.291575
20340		-8.982271	2.307306	-117.831347
20341		-8.917290	2.215100	-118.389586
20342		-8.891094	2.119316	-118.952489
20343		-8.914083	2.011935	-119.537585
20344		-8.989614	1.882375	-120.136650
20345		-9.134426	1.742226	-120.752617
20346		-9.396771	1.598182	-121.387460
20347		-9.760978	1.455098	-122.050718
20348		-10.201175	1.313361	-122.732635
20349		-10.636621	1.170033	-123.427695
20350		-11.026938	1.038421	-124.126137
20351		-11.335572	0.904102	-124.860245
20352		-11.577191	0.751556	-125.638467
20353		-11.773578	0.605904	-126.486435
20354		-11.928857	0.486524	-127.383044
20355		-12.025873	0.391587	-128.328307
20356		-12.085000	0.316808	-129.300868
20357		-12.088363	0.256525	-130.293081
20358		-12.057598	0.233329	-131.304184
20359		-12.007231	0.225472	-132.326552
20360		-11.966253	0.234256	-133.353795
20361		-11.948312	0.240648	-134.385515
20362		-11.959525	0.250357	-135.410295
20363		-11.971000	0.250565	-136.423871
20364		-11.961048	0.219744	-137.414665
20365		-11.955153	0.182550	-138.401695
20366		-11.959875	0.121580	-139.370862
20367		-11.973597	0.040859	-140.329439
20368		-12.030831	-0.054961	-141.265360
20369		-12.073531	-0.154675	-142.172905
20370		-12.061073	-0.238286	-143.043636
20371		-11.949642	-0.297500	-143.895447
20372		-11.730701	-0.327208	-144.724689
20373		-11.397133	-0.349159	-145.539742
20374		-11.019106	-0.354337	-146.342980
20375		-10.633515	-0.347933	-147.141336
20376		-10.280318	-0.298055	-147.933034
20377		-9.944957	-0.202652	-148.717537
20378		-9.572831	-0.101229	-149.491267
20379		-9.180166	0.000869	-150.270245
20380		-8.804159	0.105860	-151.045226
20381		-8.442769	0.237227	-151.809179
20382		-8.127455	0.426888	-152.551595
20383		-7.851521	0.664812	-153.282549
20384		-7.635332	0.948341	-153.997258
20385		-7.477813	1.271285	-154.703273
20386		-7.391825	1.610229	-155.400821
20387		-7.296104	1.955801	-156.077432
20388		-7.114690	2.314826	-156.714880
20389		-6.783487	2.644760	-157.316981
20390		-6.344070	2.894485	-157.905887
20391		-5.922532	3.078759	-158.521656
20392		-5.634810	3.211570	-159.188603
20393		-5.520707	3.339020	-159.902400
20394		-5.553986	3.468885	-160.641334
20395		-5.617192	3.616737	-161.372302
20396		-5.639263	3.804280	-162.067354
20397		-5.541985	4.001188	-162.720968
20398		-5.337087	4.184058	-163.336876
20399		-5.028938	4.354829	-163.921016
20400		-4.676016	4.500773	-164.484264
20401		-4.353468	4.635322	-165.040740
20402		-4.097494	4.779509	-165.593977
20403		-3.902220	4.930198	-166.142708
20404		-3.750990	5.094395	-166.685045
20405		-3.622385	5.270550	-167.222322
20406		-3.496863	5.459130	-167.747946
20407		-3.350793	5.664278	-168.250669
20408		-3.171448	5.865574	-168.726221
20409		-2.963530	6.028875	-169.178543
20410		-2.782331	6.142361	-169.613897
20411		-2.649592	6.218704	-170.040869
20412		-2.582396	6.257050	-170.464377
20413		-2.554734	6.280131	-170.877376
20414		-2.554942	6.306526	-171.273877
20415		-2.578752	6.324548	-171.657046
20416		-2.664779	6.330810	-172.031509
20417		-2.860039	6.303912	-172.406776
20418		-3.170031	6.234491	-172.787859
20419		-3.530767	6.150128	-173.156916
20420		-3.858725	6.079158	-173.502184
20421		-4.081165	6.036202	-173.806882
20422		-4.165097	6.018793	-174.076600
20423		-4.116906	5.989552	-174.320820
20424		-4.015513	5.932962	-174.558220
20425		-3.931465	5.861420	-174.801091
20426		-3.875213	5.782241	-175.051954
20427		-3.869022	5.718650	-175.308348
20428		-3.917428	5.672361	-175.571214
20429		-3.963217	5.647762	-175.828070
20430		-3.979792	5.658531	-176.065420
20431		-3.915547	5.696639	-176.274996
20432		-3.743742	5.759741	-176.466839
20433		-3.477327	5.814364	-176.650274
20434		-3.204705	5.847802	-176.848767
20435		-2.995013	5.868778	-177.068359
20436		-2.840696	5.884196	-177.301724
20437		-2.722011	5.917162	-177.527682
20438		-2.598369	5.981859	-177.737816
20439		-2.434248	6.055959	-177.925325
20440		-2.233327	6.142212	-178.095714
20441		-2.003577	6.234431	-178.260013
20442		-1.765971	6.332600	-178.431148
20443		-1.528989	6.439974	-178.610108
20444		-1.313974	6.558632	-178.798027
20445		-1.149827	6.676236	-178.995285
20446		-1.021532	6.794194	-179.196694
20447		-0.899474	6.930098	-179.385574
20448		-0.755139	7.079305	-179.558899
20449		-0.593292	7.238406	-179.721528
20450		-0.409127	7.408932	-179.876549
20451		-0.214131	7.575691	179.971112
20452		-0.007391	7.735944	179.828392
20453		0.218076	7.867984	179.696746
20454		0.429129	7.960391	179.564448
20455		0.612245	8.024537	179.432333
20456		0.761426	8.084485	179.295191
20457		0.887784	8.158018	179.152609
20458		0.996909	8.262583	178.993727
20459		1.096889	8.394318	178.812103
20460		1.206935	8.546673	178.617000
20461		1.333636	8.714611	178.415704
20462		1.471459	8.897650	178.211034
20463		1.642315	9.084443	178.013424
20464		1.829498	9.259199	177.822581
20465		2.020573	9.403446	177.646234
20466		2.190251	9.524797	177.488394
20467		2.321548	9.629803	177.349399
20468		2.422021	9.714756	177.225101
20469		2.496447	9.788254	177.121217
20470		2.560461	9.859270	177.036118
20471		2.624219	9.921736	176.966680
20472		2.696936	9.990713	176.916324
20473		2.775904	10.066671	176.878658
20474		2.854093	10.152342	176.846679
20475		2.930964	10.240432	176.821744
20476		3.005487	10.328738	176.800250
20477		3.061559	10.417051	176.783846
20478		3.114284	10.488757	176.770902
20479		3.153722	10.549352	176.766016
20480		3.183222	10.593890	176.770949
20481		3.206850	10.625608	176.782863
20482		3.220105	10.655746	176.803511
20483		3.234148	10.693062	176.833096
20484		3.257735	10.741320	176.871241
20485		3.294021	10.789579	176.914318
20486		3.339051	10.825643	176.961081
20487		3.378210	10.852519	177.006734
20488		3.412808	10.864965	177.045815
20489		3.433004	10.871095	177.082963
20490		3.437836	10.876054	177.116055
20491		3.409070	10.880947	177.147465
20492		3.357760	10.892517	177.188048
20493		3.306265	10.912335	177.245810
20494		3.272439	10.934012	177.317233
20495		3.249428	10.947986	177.398579
20496		3.230345	10.950936	177.480027
20497		3.204502	10.942273	177.560135
20498		3.168402	10.932219	177.639002
20499		3.108777	10.917279	177.710431
20500		3.038686	10.899276	177.776900
20501		2.982274	10.880159	177.842687
20502		2.943322	10.867428	177.919676
20503		2.911606	10.852296	178.005951
20504		2.881370	10.827587	178.096120
20505		2.859095	10.792202	178.191464
20506		2.851846	10.750294	178.287221
20507		2.865642	10.717867	178.389241
20508		2.896749	10.685468	178.494762
20509		2.917688	10.647546	178.603836
20510		2.936900	10.601615	178.729669
20511		2.934760	10.554477	178.885011
20512		2.925920	10.498731	179.073621
20513		2.917837	10.443457	179.298358
20514		2.922632	10.387420	179.544913
20515		2.950025	10.323632	179.803294
20516		2.996318	10.254775	-179.936089
20517		3.044791	10.183231	-179.677135
20518		3.087205	10.112148	-179.417480
20519		3.112393	10.043356	-179.148961
20520		3.136453	9.978287	-178.868496
20521		3.132562	9.920342	-178.579638
20522		3.107356	9.870144	-178.291322
20523		3.071898	9.824520	-178.006749
20524		3.041410	9.790531	-177.719853
20525		3.029315	9.760234	-177.423021
20526		3.025925	9.739413	-177.112014
20527		3.022044	9.717388	-176.787470
20528		2.999713	9.686291	-176.449699
20529		2.962831	9.637194	-176.101979
20530		2.921126	9.573499	-175.746061
20531		2.872899	9.498646	-175.384360
20532		2.832894	9.415360	-175.012350
20533		2.777511	9.326307	-174.634932
20534		2.693148	9.234095	-174.253944
20535		2.579154	9.144570	-173.867532
20536		2.436746	9.056907	-173.472341
20537		2.253658	8.954036	-173.078948
20538		2.061279	8.832813	-172.691226
20539		1.865373	8.708499	-172.296275
20540		1.679657	8.595463	-171.893582
20541		1.519348	8.488827	-171.477916
20542		1.388932	8.390242	-171.047488
20543		1.268288	8.291831	-170.603511
20544		1.163171	8.184846	-170.142879
20545		1.064826	8.063849	-169.660478
20546		0.984268	7.934111	-169.157916
20547		0.885140	7.808509	-168.642815
20548		0.775437	7.690112	-168.126241
20549		0.660737	7.575887	-167.605234
20550		0.552826	7.466405	-167.080617
20551		0.441947	7.358381	-166.543999
20552		0.319371	7.245357	-166.001265
20553		0.184821	7.118682	-165.452802
20554		0.043534	6.990939	-164.894019
20555		-0.111702	6.858114	-164.323183
20556		-0.263917	6.724529	-163.748051
20557		-0.397099	6.588010	-163.157095
20558		-0.492413	6.455535	-162.549021
20559		-0.586398	6.331904	-161.916740
20560		-0.650638	6.210741	-161.270782
20561		-0.705006	6.075584	-160.614490
20562		-0.725533	5.926357	-159.957264
20563		-0.706849	5.782745	-159.288328
20564		-0.631288	5.653688	-158.614824
20565		-0.498531	5.550988	-157.940330
20566		-0.304868	5.446296	-157.260276
20567		-0.105970	5.368359	-156.576090
20568		0.083811	5.314222	-155.892384
20569		0.269326	5.263558	-155.214007
20570		0.440124	5.231374	-154.539179
20571		0.594756	5.201320	-153.859728
20572		0.724130	5.176447	-153.189332
20573		0.837282	5.146701	-152.527394
20574		0.956925	5.110769	-151.878202
20575		1.089940	5.065871	-151.230439
20576		1.228144	5.010065	-150.591517
20577		1.331058	4.950209	-149.955500
20578		1.412165	4.891968	-149.324198
20579		1.448388	4.845398	-148.694993
20580		1.467748	4.817944	-148.069529
20581		1.478384	4.807503	-147.442384
20582		1.489063	4.821066	-146.816327
20583		1.509307	4.839053	-146.190454
20584		1.539509	4.849395	-145.565623
20585		1.589304	4.860313	-144.929206
20586		1.654193	4.837353	-144.307759
20587		1.706618	4.803654	-143.681312
20588		1.731427	4.764052	-143.066464
20589		1.723106	4.725016	-142.461404
20590		1.685559	4.692574	-141.865925
20591		1.644436	4.679000	-141.253619
20592		1.620119	4.686217	-140.620055
20593		1.598064	4.705255	-139.966855
20594		1.558528	4.724018	-139.321020
20595		1.517640	4.730118	-138.672455
20596		1.477632	4.720956	-138.028408
20597		1.433556	4.688864	-137.383472
20598		1.412176	4.629359	-136.736833
20599		1.425901	4.544648	-136.067490
20600		1.484133	4.451139	-135.378123
20601		1.564287	4.359863	-134.659778
20602		1.640850	4.280283	-133.938195
20603		1.688406	4.220121	-133.219166
20604		1.712220	4.170569	-132.521568
20605		1.699227	4.133034	-131.838267
20606		1.685263	4.101202	-131.168509
20607		1.709235	4.069066	-130.490606
20608		1.777899	4.037402	-129.799802
20609		1.839193	4.010402	-129.089099
20610		1.867111	3.976727	-128.390004
20611		1.821647	3.942040	-127.704717
20612		1.734066	3.913775	-127.037555
20613		1.653816	3.890988	-126.371088
20614		1.629145	3.875005	-125.711283
20615		1.676098	3.866541	-125.037057
20616		1.759292	3.857142	-124.354550
20617		1.795219	3.858356	-123.664954
20618		1.759058	3.862790	-122.995806
20619		1.659142	3.866708	-122.340759
20620		1.558755	3.889831	-121.695716
20621		1.526405	3.930918	-121.046630
20622		1.628660	3.994417	-120.394450
20623		1.838632	4.075826	-119.729875
20624		2.096875	4.157448	-119.074149
20625		2.349713	4.256346	-118.421992
20626		2.577830	4.414671	-117.779934
20627		2.782694	4.642175	-117.141479
20628		3.023928	4.940384	-116.504877
20629		3.373253	5.264645	-115.850519
20630		3.845538	5.576572	-115.148551
20631		4.390766	5.865523	-114.382171
20632		4.869132	6.110719	-113.587656
20633		5.132884	6.299097	-112.800621
20634		5.159163	6.430278	-112.053916
20635		5.036659	6.502649	-111.342123
20636		4.904979	6.540369	-110.657925
20637		4.840343	6.550784	-109.985545
20638		4.871691	6.544699	-109.344047
20639		4.950607	6.527963	-108.725345
20640		5.009063	6.488301	-108.131921
20641		4.967986	6.423822	-107.547874
20642		4.780057	6.344920	-106.968493
20643		4.471134	6.261241	-106.382635
20644		4.141425	6.175737	-105.790258
20645		3.876839	6.099426	-105.180861
20646		3.714898	6.018721	-104.572324
20647		3.629093	5.916919	-103.978575
20648		3.544573	5.801750	-103.415478
20649		3.343389	5.664394	-102.894865
20650		3.055513	5.522356	-102.389368
20651		2.741749	5.397336	-101.864955
20652		2.459716	5.287984	-101.318132
20653		2.276336	5.214793	-100.730755
20654		2.173457	5.176984	-100.115140
20655		2.098721	5.146322	-99.505176
20656		2.035694	5.097758	-98.927698
20657		1.920916	5.001379	-98.400650
20658		1.689597	4.922597	-97.925295
20659		1.388166	4.869049	-97.472894
20660		1.116889	4.848313	-97.013597
20661		0.885787	4.866941	-96.536123
20662		0.743878	4.910924	-96.033340
20663		0.667276	4.969466	-95.518218
20664		0.573068	5.007448	-95.039132
20665		0.454029	5.026984	-94.614829
20666		0.305566	5.064624	-94.242940
20667		0.096839	5.145859	-93.895901
20668		-0.150940	5.263875	-93.537868
20669		-0.394275	5.400728	-93.130202
20670		-0.617176	5.498301	-92.675641
20671		-0.824499	5.506364	-92.195013
20672		-1.027459	5.456231	-91.712767
20673		-1.274330	5.368814	-91.256288
20674		-1.516363	5.263482	-90.832612
20675		-1.731391	5.162974	-90.432130
20676		-1.891100	5.071628	-90.052665
20677		-1.929605	4.980499	-89.659992
20678		-1.841950	4.895037	-89.249850
20679		-1.660272	4.816122	-88.830006
20680		-1.467267	4.761614	-88.419225
20681		-1.376001	4.752747	-88.039565
20682		-1.405520	4.779749	-87.708826
20683		-1.518625	4.815942	-87.426756
20684		-1.662354	4.854901	-87.170170
20685		-1.771216	4.888972	-86.919624
20686		-1.836253	4.913161	-86.678140
20687		-1.925004	4.920142	-86.471145
20688		-2.049192	4.916008	-86.296739
20689		-2.203885	4.921647	-86.151229
20690		-2.379885	4.948069	-86.025417
20691		-2.538471	4.986946	-85.901117
20692		-2.648315	5.042119	-85.752807
20693		-2.716425	5.086045	-85.585249
20694		-2.772094	5.103082	-85.413345
20695		-2.870170	5.107462	-85.259199
20696		-3.045919	5.135405	-85.133656
20697		-3.260302	5.201823	-85.026812
20698		-3.428621	5.295467	-84.905029
20699		-3.513372	5.389727	-84.766610
20700		-3.558783	5.464146	-84.623190
20701		-3.607871	5.499691	-84.486322
20702		-3.699060	5.503514	-84.353768
20703		-3.847058	5.502814	-84.227701
20704		-4.033013	5.515490	-84.104127
20705		-4.213600	5.562287	-83.976498
20706		-4.384098	5.642666	-83.842203
20707		-4.538549	5.746754	-83.705443
20708		-4.666328	5.843415	-83.567288
20709		-4.752589	5.907745	-83.438063
20710		-4.793316	5.927959	-83.316448
20711		-4.773471	5.910785	-83.193609
20712		-4.734988	5.884928	-83.070792
20713		-4.735487	5.864956	-82.958188
20714		-4.786248	5.866276	-82.849827
20715		-4.869905	5.875511	-82.746886
20716		-4.969170	5.875271	-82.651254
20717		-5.053910	5.854493	-82.565074
20718		-5.103681	5.808018	-82.487390
20719		-5.114686	5.746170	-82.425170
20720		-5.114080	5.678663	-82.373120
20721		-5.119413	5.624417	-82.351971
20722		-5.145556	5.605422	-82.358881
20723		-5.197721	5.622075	-82.394358
20724		-5.298159	5.672752	-82.447681
20725		-5.413824	5.739220	-82.518310
20726		-5.527787	5.808463	-82.588897
20727		-5.629461	5.879729	-82.658700
20728		-5.696396	5.941033	-82.713987
20729		-5.743172	5.977865	-82.772649
20730		-5.803481	5.991266	-82.832208
20731		-5.880456	5.988238	-82.889601
20732		-5.976837	5.971113	-82.934341
20733		-6.069014	5.950938	-82.977469
20734		-6.152571	5.933650	-83.008416
20735		-6.229945	5.911294	-83.035380
20736		-6.312157	5.892972	-83.048566
20737		-6.381607	5.876161	-83.065508
20738		-6.426224	5.867751	-83.080408
20739		-6.432827	5.873258	-83.092091
20740		-6.400301	5.888198	-83.095427
20741		-6.335133	5.902536	-83.096196
20742		-6.272398	5.914688	-83.096373
20743		-6.243191	5.914219	-83.102928
20744		-6.274628	5.907197	-83.110834
20745		-6.354524	5.904570	-83.118059
20746		-6.444675	5.905343	-83.115555
20747		-6.502325	5.907318	-83.104515
20748		-6.520166	5.908082	-83.083982
20749		-6.498244	5.901840	-83.056454
20750		-6.458252	5.882347	-83.014017
20751		-6.430808	5.849687	-82.971438
20752		-6.439847	5.798225	-82.940513
20753		-6.481243	5.728577	-82.936156
20754		-6.541451	5.648148	-82.949208
20755		-6.600263	5.568742	-82.973877
20756		-6.653216	5.495601	-83.009969
20757		-6.729629	5.430339	-83.078777
20758		-6.850563	5.386371	-83.185027
20759		-7.001446	5.372776	-83.338598
20760		-7.167521	5.384036	-83.531765
20761		-7.312534	5.408954	-83.753218
20762		-7.429855	5.436144	-83.985973
20763		-7.505169	5.450743	-84.232337
20764		-7.573871	5.448872	-84.473201
20765		-7.640621	5.446391	-84.711357
20766		-7.715344	5.439644	-84.935813
20767		-7.798098	5.438000	-85.156546
20768		-7.876489	5.427781	-85.374988
20769		-7.936207	5.399907	-85.602360
20770		-7.977711	5.354879	-85.829593
20771		-8.002684	5.284196	-86.070053
20772		-8.038123	5.199471	-86.318247
20773		-8.080491	5.117442	-86.576826
20774		-8.129760	5.049041	-86.832247
20775		-8.165946	4.997906	-87.088237
20776		-8.193393	4.958985	-87.341186
20777		-8.202884	4.911172	-87.604296
20778		-8.197422	4.852249	-87.876505
20779		-8.164517	4.797103	-88.169945
20780		-8.100247	4.746647	-88.479050
20781		-8.002428	4.700737	-88.807927
20782		-7.918188	4.668277	-89.148245
20783		-7.861856	4.637416	-89.512957
20784		-7.844265	4.628616	-89.879362
20785		-7.844423	4.639461	-90.246736
20786		-7.841802	4.660029	-90.602344
20787		-7.801516	4.686576	-90.957430
20788		-7.720303	4.700949	-91.308746
20789		-7.610267	4.696547	-91.676168
20790		-7.500935	4.677884	-92.059223
20791		-7.407391	4.666521	-92.462623
20792		-7.353487	4.664698	-92.881435
20793		-7.312530	4.668271	-93.315256
20794		-7.303046	4.680346	-93.749695
20795		-7.312138	4.686629	-94.201227
20796		-7.348285	4.695437	-94.657764
20797		-7.412610	4.715806	-95.128339
20798		-7.501548	4.735470	-95.599262
20799		-7.582471	4.751395	-96.078243
20800		-7.641433	4.761777	-96.554911
20801		-7.657525	4.760186	-97.043898
20802		-7.659752	4.745466	-97.535708
20803		-7.665270	4.724840	-98.051705
20804		-7.705472	4.705354	-98.575127
20805		-7.776313	4.684892	-99.112027
20806		-7.906931	4.666251	-99.651708
20807		-8.076313	4.649192	-100.193460
20808		-8.278031	4.620264	-100.726397
20809		-8.490939	4.575478	-101.257666
20810		-8.720521	4.516872	-101.775358
20811		-8.944494	4.436264	-102.307223
20812		-9.192939	4.319540	-102.864101
20813		-9.498464	4.197814	-103.460631
20814		-9.864206	4.078089	-104.069188
20815		-10.222298	3.965190	-104.684040
20816		-10.517760	3.867416	-105.290299
20817		-10.728996	3.781351	-105.909915
20818		-10.905098	3.703698	-106.542037
20819		-11.054979	3.649190	-107.209826
20820		-11.229176	3.631987	-107.908231
20821		-11.394646	3.656590	-108.640027
20822		-11.517358	3.711891	-109.373460
20823		-11.568654	3.778529	-110.105258
20824		-11.581496	3.836928	-110.822014
20825		-11.581409	3.879295	-111.531738
20826		-11.609731	3.913141	-112.225635
20827		-11.647647	3.925430	-112.922875
20828		-11.696488	3.957040	-113.607772
20829		-11.704803	4.006225	-114.292041
20830		-11.665931	4.052981	-114.964036
20831		-11.586641	4.084097	-115.632760
20832		-11.495623	4.101748	-116.275123
20833		-11.376416	4.116204	-116.910758
20834		-11.234877	4.129281	-117.535256
20835		-11.091715	4.138337	-118.171349
20836		-10.967656	4.153033	-118.799124
20837		-10.849767	4.180744	-119.438322
20838		-10.724012	4.206585	-120.074163
20839		-10.557974	4.240167	-120.714779
20840		-10.370234	4.293441	-121.344745
20841		-10.155053	4.361717	-121.971150
20842		-9.920532	4.415470	-122.586240
20843		-9.680791	4.454224	-123.205922
20844		-9.511416	4.477414	-123.818981
20845		-9.451487	4.489738	-124.448198
20846		-9.486123	4.505364	-125.076255
20847		-9.545470	4.544762	-125.701657
20848		-9.562227	4.613112	-126.296426
20849		-9.456548	4.688104	-126.885652
20850		-9.319671	4.720907	-127.480758
20851		-9.276354	4.721773	-128.106738
20852		-9.340849	4.720654	-128.731580
20853		-9.428990	4.758781	-129.350592
20854		-9.577328	4.809192	-129.963272
20855		-9.662432	4.879715	-130.575785
20856		-9.632196	4.930386	-131.170722
20857		-9.559161	4.950679	-131.779515
20858		-9.494046	4.948729	-132.380486
20859		-9.467499	4.958375	-132.994027
20860		-9.472188	4.982403	-133.615565
20861		-9.457957	5.028191	-134.248800
20862		-9.411268	5.100197	-134.873359
20863		-9.350004	5.190208	-135.497866
20864		-9.302172	5.280138	-136.119498
20865		-9.268916	5.365182	-136.748920
20866		-9.259581	5.448693	-137.375565
20867		-9.234396	5.538622	-138.010098
20868		-9.170438	5.625350	-138.633928
20869		-9.061144	5.704296	-139.263422
20870		-8.943718	5.777781	-139.885171
20871		-8.829169	5.848611	-140.510257
20872		-8.724083	5.921577	-141.132258
20873		-8.594840	6.010061	-141.749478
20874		-8.413448	6.114904	-142.349577
20875		-8.187884	6.214220	-142.953144
20876		-7.997979	6.293594	-143.557821
20877		-7.839910	6.352839	-144.162082
20878		-7.729328	6.397485	-144.758589
20879		-7.626001	6.454279	-145.355616
20880		-7.502769	6.538373	-145.936060
20881		-7.301375	6.646841	-146.508453
20882		-7.030131	6.757621	-147.067512
20883		-6.706290	6.860242	-147.628515
20884		-6.382543	6.938963	-148.193404
20885		-6.102832	7.004057	-148.771357
20886		-5.918786	7.072371	-149.356407
20887		-5.816140	7.150272	-149.955859
20888		-5.750372	7.246096	-150.544544
20889		-5.654645	7.381468	-151.114911
20890		-5.500463	7.521721	-151.664187
20891		-5.268504	7.642475	-152.201486
20892		-4.982773	7.739602	-152.721897
20893		-4.678375	7.820127	-153.241395
20894		-4.396166	7.887714	-153.759579
20895		-4.153640	7.947962	-154.284557
20896		-3.979225	8.013138	-154.812823
20897		-3.875279	8.083067	-155.349205
20898		-3.840219	8.160830	-155.878495
20899		-3.820502	8.258836	-156.392355
20900		-3.797299	8.368776	-156.878120
20901		-3.671904	8.489681	-157.346231
20902		-3.404234	8.594522	-157.804893
20903		-3.052489	8.677378	-158.265124
20904		-2.713989	8.756733	-158.724176
20905		-2.439881	8.841332	-159.192664
20906		-2.219709	8.928952	-159.658854
20907		-2.012069	9.026875	-160.123586
20908		-1.812186	9.131296	-160.580854
20909		-1.615327	9.237434	-161.042251
20910		-1.437392	9.353825	-161.498784
20911		-1.259046	9.491232	-161.954542
20912		-1.062781	9.641818	-162.403271
20913		-0.843069	9.786289	-162.862675
20914		-0.672366	9.920991	-163.330623
20915		-0.590783	10.034567	-163.815175
20916		-0.644311	10.128973	-164.303626
20917		-0.806269	10.197561	-164.777227
20918		-1.030926	10.241015	-165.193158
20919		-1.234036	10.296893	-165.540057
20920		-1.354579	10.355697	-165.815030
20921		-1.373146	10.413322	-166.032762
20922		-1.340934	10.459827	-166.212613
20923		-1.252265	10.476791	-166.378051
20924		-1.178467	10.468281	-166.551597
20925		-1.127251	10.441212	-166.754913
20926		-1.115869	10.404255	-166.998783
20927		-1.122855	10.364392	-167.282759
20928		-1.150695	10.339330	-167.592818
20929		-1.194982	10.352796	-167.914921
20930		-1.264502	10.407839	-168.243771
20931		-1.335523	10.505728	-168.574303
20932		-1.382088	10.637184	-168.896706
20933		-1.374719	10.793483	-169.208935
20934		-1.315741	10.943237	-169.521620
20935		-1.229213	11.072778	-169.841687
20936		-1.153881	11.172228	-170.165575
20937		-1.118461	11.257623	-170.498007
20938		-1.122936	11.334757	-170.833380
20939		-1.149296	11.422746	-171.163034
20940		-1.171455	11.536440	-171.477408
20941		-1.164678	11.678010	-171.775982
20942		-1.105427	11.784259	-172.056462
20943		-1.039925	11.882092	-172.322612
20944		-0.964641	11.953557	-172.579730
20945		-0.885088	11.999802	-172.824225
20946		-0.832200	12.047272	-173.063393
20947		-0.788791	12.119512	-173.301702
20948		-0.736813	12.218178	-173.537159
20949		-0.686445	12.336092	-173.776607
20950		-0.655443	12.466254	-174.015053
20951		-0.645104	12.607961	-174.243033
20952		-0.670618	12.759928	-174.449917
20953		-0.690852	12.895239	-174.633473
20954		-0.678679	13.013630	-174.786287
20955		-0.571439	13.124282	-174.894177
20956		-0.385538	13.169388	-174.978407
20957		-0.230775	13.207166	-175.053148
20958		-0.069513	13.234908	-175.124297
20959		0.046502	13.255422	-175.205018
20960		0.111879	13.291981	-175.300604
20961		0.147261	13.343978	-175.404321
20962		0.154408	13.423710	-175.503207
20963		0.137080	13.501703	-175.598050
20964		0.109722	13.575394	-175.686771
20965		0.106848	13.641043	-175.764242
20966		0.135022	13.686590	-175.835554
20967		0.194653	13.721195	-175.897404
20968		0.258957	13.747092	-175.964254
20969		0.308199	13.762885	-176.031058
20970		0.345929	13.772125	-176.096634
20971		0.387885	13.782964	-176.156369
20972		0.438269	13.801553	-176.209867
20973		0.510433	13.826608	-176.258647
20974		0.584904	13.856660	-176.300519
20975		0.650794	13.898307	-176.345564
20976		0.676599	13.941591	-176.398071
20977		0.676157	13.990589	-176.455546
20978		0.677102	14.043773	-176.513701
20979		0.707655	14.104809	-176.565850
20980		0.781065	14.159017	-176.614375
20981		0.899149	14.192185	-176.658122
20982		1.027733	14.203313	-176.701003
20983		1.147792	14.197858	-176.738571
20984		1.247359	14.201204	-176.770573
20985		1.325272	14.208950	-176.805689
20986		1.390228	14.228728	-176.838532
20987		1.420528	14.263904	-176.873234
20988		1.429561	14.304268	-176.913853
20989		1.448817	14.351774	-176.944308
20990		1.479495	14.401534	-176.973300
20991		1.514039	14.442856	-177.004556
20992		1.577679	14.471413	-177.033868
20993		1.685282	14.493866	-177.048006
20994		1.839587	14.515016	-177.053173
20995		2.018263	14.537377	-177.050650
20996		2.165071	14.574387	-177.052786
20997		2.229587	14.632951	-177.065423
20998		2.195929	14.731454	-177.082491
20999		2.102357	14.854196	-177.094387
21000		1.986559	14.983350	-177.099425
21001		1.880395	15.107848	-177.100803
21002		1.794427	15.218456	-177.103511
21003		1.731922	15.300436	-177.103630
21004		1.692758	15.341223	-177.101160
21005		1.687366	15.345053	-177.088675
21006		1.702819	15.326606	-177.076026
21007		1.726668	15.302046	-177.063432
21008		1.762889	15.279466	-177.050198
21009		1.803025	15.267569	-177.037898
21010		1.815875	15.272462	-177.041359
21011		1.792544	15.294908	-177.054441
21012		1.759394	15.330172	-177.066018
21013		1.726870	15.371691	-177.071580
21014		1.698422	15.416605	-177.074805
21015		1.680214	15.457711	-177.077010
21016		1.668844	15.488686	-177.075871
21017		1.673384	15.501517	-177.066984
21018		1.685577	15.512242	-177.049465
21019		1.684643	15.527585	-177.035951
21020		1.673555	15.551248	-177.028790
21021		1.661750	15.579662	-177.023223
21022		1.655854	15.603700	-177.013946
21023		1.626639	15.631619	-177.008257
21024		1.580551	15.661691	-176.999442
21025		1.537023	15.691977	-176.983950
21026		1.491703	15.720229	-176.958458
21027		1.418604	15.752786	-176.928248
21028		1.326924	15.779943	-176.893765
21029		1.239019	15.793402	-176.841246
21030		1.167145	15.792620	-176.777939
21031		1.099041	15.771639	-176.703457
21032		1.033505	15.733022	-176.620927
21033		0.965399	15.686942	-176.526491
21034		0.892731	15.625223	-176.433568
21035		0.821621	15.566573	-176.335237
21036		0.739681	15.516942	-176.241740
21037		0.614778	15.494067	-176.163682
21038		0.467495	15.514789	-176.090643
21039		0.314407	15.582088	-176.004094
21040		0.171597	15.680336	-175.896954
21041		0.050676	15.780695	-175.769591
21042		-0.069929	15.846206	-175.636460
21043		-0.189001	15.873933	-175.490933
21044		-0.290141	15.850957	-175.325701
21045		-0.374641	15.782080	-175.137279
21046		-0.426147	15.688027	-174.927960
21047		-0.458898	15.571512	-174.707018
21048		-0.477194	15.462585	-174.473468
21049		-0.498659	15.372699	-174.222927
21050		-0.528507	15.305669	-173.965611
21051		-0.561620	15.252073	-173.699791
21052		-0.581048	15.208111	-173.426131
21053		-0.583253	15.165558	-173.138350
21054		-0.583019	15.115836	-172.845350
21055		-0.603879	15.055751	-172.542779
21056		-0.626930	14.981148	-172.227900
21057		-0.663198	14.893930	-171.891938
21058		-0.706902	14.792282	-171.542367
21059		-0.747354	14.677825	-171.177182
21060		-0.754096	14.550711	-170.794088
21061		-0.739150	14.419744	-170.391557
21062		-0.698229	14.290421	-169.966028
21063		-0.638653	14.169873	-169.516260
21064		-0.567580	14.058468	-169.047644
21065		-0.508686	13.965452	-168.561811
21066		-0.456359	13.880436	-168.078518
21067		-0.419315	13.796947	-167.595241
21068		-0.390437	13.712174	-167.114962
21069		-0.355384	13.632252	-166.627366
21070		-0.342142	13.542460	-166.134872
21071		-0.348372	13.463453	-165.618685
21072		-0.332786	13.409183	-165.078496
21073		-0.281939	13.362149	-164.525160
21074		-0.193287	13.316111	-163.971451
21075		-0.109402	13.274795	-163.413135
21076		-0.077544	13.241612	-162.851634
21077		-0.135162	13.214043	-162.278812
21078		-0.241969	13.194908	-161.689990
21079		-0.349834	13.173613	-161.069663
21080		-0.409847	13.131210	-160.422374
21081		-0.446262	13.065996	-159.746246
21082		-0.464456	12.965583	-159.053478
21083		-0.524437	12.834715	-158.342030
21084		-0.651030	12.689186	-157.623326
21085		-0.826170	12.519685	-156.889910
21086		-1.038598	12.332127	-156.150428
21087		-1.275913	12.145972	-155.395798
21088		-1.500238	11.959618	-154.639084
21089		-1.695338	11.786233	-153.867765
21090		-1.843501	11.631186	-153.085108
21091		-1.965717	11.488626	-152.282990
21092		-2.061560	11.356397	-151.472434
21093		-2.195939	11.224062	-150.652577
21094		-2.363128	11.089907	-149.834678
21095		-2.592498	10.955297	-149.013435
21096		-2.840098	10.818089	-148.200113
21097		-3.067640	10.667992	-147.384292
21098		-3.234303	10.508627	-146.574629
21099		-3.344154	10.356181	-145.761293
21100		-3.353678	10.199583	-144.944115
21101		-3.246112	10.033611	-144.088980
21102		-3.043510	9.902525	-143.195010
21103		-2.785415	9.799756	-142.277366
21104		-2.500081	9.732675	-141.358835
21105		-2.243423	9.686498	-140.449114
21106		-2.054944	9.660764	-139.580941
21107		-1.891415	9.648482	-138.743608
21108		-1.664678	9.654040	-137.928482
21109		-1.354847	9.649037	-137.116016
21110		-1.030496	9.625559	-136.313845
21111		-0.737457	9.591938	-135.501539
21112		-0.518881	9.525435	-134.681894
21113		-0.450910	9.455286	-133.841018
21114		-0.515815	9.370172	-133.011882
21115		-0.638419	9.264104	-132.187828
21116		-0.735174	9.139101	-131.372745
21117		-0.806252	8.992508	-130.560488
21118		-0.785238	8.844387	-129.767628
21119		-0.675837	8.681438	-128.969025
21120		-0.521418	8.539018	-128.158975
21121		-0.395552	8.425985	-127.328619
21122		-0.333038	8.330315	-126.504197
21123		-0.335891	8.232597	-125.681123
21124		-0.367051	8.129808	-124.868110
21125		-0.408800	8.007815	-124.051060
21126		-0.460254	7.871267	-123.250793
21127		-0.527093	7.729580	-122.455410
21128		-0.597576	7.587206	-121.692369
21129		-0.663468	7.454084	-120.949737
21130		-0.680072	7.337026	-120.213944
21131		-0.679977	7.233837	-119.470478
21132		-0.687137	7.137682	-118.729454
21133		-0.765517	7.051102	-117.981642
21134		-0.896332	6.946568	-117.247389
21135		-1.050490	6.835677	-116.501263
21136		-1.224388	6.730751	-115.763986
21137		-1.399251	6.617176	-115.033044
21138		-1.571320	6.506309	-114.315363
21139		-1.737560	6.389682	-113.608431
21140		-1.863783	6.280110	-112.920872
21141		-1.942564	6.176622	-112.233310
21142		-1.959157	6.089093	-111.551308
21143		-1.990646	6.007128	-110.867560
21144		-2.101709	5.942582	-110.196126
21145		-2.300581	5.891422	-109.525187
21146		-2.501297	5.843117	-108.853866
21147		-2.648689	5.796834	-108.173988
21148		-2.731425	5.753392	-107.504073
21149		-2.722906	5.722153	-106.829415
21150		-2.588789	5.713224	-106.162762
21151		-2.348597	5.711441	-105.513912
21152		-2.038468	5.713433	-104.900271
21153		-1.768298	5.713288	-104.315113
21154		-1.655312	5.733421	-103.773781
21155		-1.695070	5.796704	-103.270389
21156		-1.905199	5.878400	-102.820079
21157		-2.161912	5.969183	-102.392181
21158		-2.347718	6.047271	-101.979904
21159		-2.445777	6.108151	-101.563817
21160		-2.432248	6.154179	-101.143506
21161		-2.362380	6.179458	-100.724207
21162		-2.323175	6.196314	-100.329906
21163		-2.369235	6.236835	-99.960572
21164		-2.472566	6.317858	-99.602431
21165		-2.596856	6.422623	-99.241443
21166		-2.709455	6.534491	-98.867575
21167		-2.797270	6.636973	-98.476772
21168		-2.856621	6.714128	-98.073561
21169		-2.881197	6.745111	-97.672066
21170		-2.888750	6.753992	-97.285732
21171		-2.912845	6.773026	-96.920660
21172		-2.953192	6.805195	-96.582886
21173		-3.010707	6.853767	-96.258113
21174		-3.113912	6.928039	-95.935181
21175		-3.254659	7.013304	-95.602040
21176		-3.392408	7.090915	-95.255761
21177		-3.510467	7.151567	-94.886717
21178		-3.604892	7.206366	-94.506051
21179		-3.703440	7.258394	-94.131540
21180		-3.845022	7.305971	-93.778468
21181		-3.990301	7.348693	-93.438671
21182		-4.108299	7.370976	-93.097370
21183		-4.163549	7.381076	-92.738991
21184		-4.179588	7.401857	-92.357581
21185		-4.210783	7.443868	-91.969277
21186		-4.255084	7.494490	-91.585627
21187		-4.303005	7.526261	-91.214043
21188		-4.335130	7.544185	-90.852607
21189		-4.382409	7.572499	-90.504577
21190		-4.466617	7.609770	-90.186219
21191		-4.566388	7.633015	-89.900195
21192		-4.667004	7.657755	-89.627832
21193		-4.739705	7.683062	-89.355033
21194		-4.768608	7.709778	-89.081416
21195		-4.808948	7.755737	-88.820970
21196		-4.896100	7.822377	-88.582340
21197		-5.000636	7.892820	-88.356957
21198		-5.060073	7.963826	-88.125020
21199		-5.079285	8.026670	-87.887535
21200		-5.065643	8.087661	-87.655225
21201		-5.034085	8.133057	-87.422435
21202		-5.018815	8.182473	-87.185946
21203		-5.039075	8.237785	-86.969498
21204		-5.078150	8.290703	-86.780295
21205		-5.123158	8.349328	-86.607685
21206		-5.197259	8.418573	-86.448565
21207		-5.292082	8.491466	-86.302049
21208		-5.367564	8.563902	-86.152600
21209		-5.388693	8.635622	-85.997454
21210		-5.370428	8.702671	-85.847884
21211		-5.351598	8.763949	-85.724478
21212		-5.364547	8.813991	-85.622841
21213		-5.449014	8.865390	-85.543875
21214		-5.585944	8.932923	-85.465045
21215		-5.738462	9.014110	-85.384989
21216		-5.853373	9.104856	-85.291396
21217		-5.923271	9.184634	-85.195652
21218		-5.958704	9.253030	-85.104540
21219		-5.968262	9.298983	-85.026318
21220		-5.986376	9.321562	-84.959594
21221		-6.030850	9.329434	-84.901778
21222		-6.087739	9.338280	-84.839394
21223		-6.144442	9.354464	-84.770681
21224		-6.168113	9.378634	-84.688543
21225		-6.134813	9.407142	-84.597420
21226		-6.044509	9.445078	-84.499726
21227		-5.904060	9.498026	-84.403709
21228		-5.778640	9.555551	-84.326020
21229		-5.748721	9.613448	-84.287565
21230		-5.852832	9.671492	-84.291271
21231		-6.059944	9.715789	-84.324831
21232		-6.247213	9.753851	-84.359808
21233		-6.336515	9.791404	-84.373489
21234		-6.324761	9.822800	-84.377322
21235		-6.263026	9.821206	-84.382945
21236		-6.264859	9.811990	-84.391719
21237		-6.326020	9.792857	-84.403226
21238		-6.418049	9.772604	-84.414447
21239		-6.496992	9.753180	-84.421761
21240		-6.510061	9.745295	-84.410420
21241		-6.453720	9.729100	-84.374434
21242		-6.381495	9.700806	-84.339815
21243		-6.302366	9.659864	-84.317828
21244		-6.259737	9.599606	-84.307640
21245		-6.273956	9.539347	-84.314735
21246		-6.348614	9.499447	-84.334145
21247		-6.465492	9.488661	-84.364020
21248		-6.579335	9.505583	-84.384047
21249		-6.644600	9.537409	-84.398457
21250		-6.673488	9.569986	-84.401910
21251		-6.677738	9.594615	-84.407502
21252		-6.673825	9.601103	-84.413862
21253		-6.670954	9.595403	-84.419619
21254		-6.672719	9.588062	-84.427530
21255		-6.660636	9.587832	-84.427721
21256		-6.643485	9.590587	-84.422423
21257		-6.635590	9.589008	-84.417542
21258		-6.654715	9.590320	-84.414761
21259		-6.674890	9.590092	-84.426458
21260		-6.699175	9.596122	-84.456261
21261		-6.714459	9.621428	-84.493529
21262		-6.717718	9.651469	-84.529843
21263		-6.720382	9.677344	-84.569460
21264		-6.717001	9.704492	-84.598411
21265		-6.679772	9.720093	-84.620538
21266		-6.626422	9.731168	-84.632561
21267		-6.575828	9.744458	-84.649872
21268		-6.541855	9.755875	-84.667863
21269		-6.522073	9.760821	-84.695092
21270		-6.515783	9.760134	-84.715321
21271		-6.538017	9.759402	-84.740195
21272		-6.583873	9.758752	-84.757479
21273		-6.627351	9.749031	-84.781458
21274		-6.656156	9.725460	-84.806893
21275		-6.657861	9.695512	-84.839006
21276		-6.627853	9.664596	-84.873460
21277		-6.583560	9.640010	-84.920886
21278		-6.556377	9.618861	-84.981804
21279		-6.572463	9.598875	-85.068389
21280		-6.620786	9.575094	-85.161406
21281		-6.684935	9.567525	-85.256495
21282		-6.743236	9.571316	-85.345926
21283		-6.772213	9.578630	-85.434511
21284		-6.768453	9.582563	-85.522928
21285		-6.725111	9.571046	-85.625350
21286		-6.670740	9.536008	-85.751735
21287		-6.616218	9.482426	-85.902448
21288		-6.607911	9.429210	-86.070239
21289		-6.655722	9.390964	-86.242863
21290		-6.749097	9.372190	-86.411446
21291		-6.836485	9.363537	-86.575916
21292		-6.880491	9.361663	-86.720468
21293		-6.867362	9.360159	-86.859849
21294		-6.813545	9.344153	-87.001483
21295		-6.738795	9.297290	-87.164126
21296		-6.679261	9.234060	-87.346309
21297		-6.654659	9.185572	-87.553333
21298		-6.648157	9.154226	-87.774793
21299		-6.634786	9.144653	-88.010041
21300		-6.616867	9.145995	-88.247754
21301		-6.589441	9.138160	-88.498698
21302		-6.566293	9.112085	-88.752558
21303		-6.558113	9.068482	-89.027637
21304		-6.555958	9.015874	-89.328165
21305		-6.552189	8.969908	-89.666040
21306		-6.551337	8.940464	-90.029692
21307		-6.523805	8.921078	-90.414304
21308		-6.491879	8.906147	-90.798536
21309		-6.461790	8.894642	-91.191534
21310		-6.438301	8.893385	-91.579385
21311		-6.410070	8.891532	-91.982831
21312		-6.407660	8.874475	-92.407180
21313		-6.424320	8.836619	-92.861971
21314		-6.461309	8.781570	-93.328479
21315		-6.509666	8.725678	-93.811743
21316		-6.550372	8.671096	-94.295550
21317		-6.538585	8.616858	-94.777374
21318		-6.495562	8.559061	-95.249515
21319		-6.440298	8.486839	-95.729762
21320		-6.420821	8.402106	-96.219475
21321		-6.448546	8.316938	-96.739702
21322		-6.501865	8.234698	-97.272115
21323		-6.533187	8.156740	-97.820548
21324		-6.541395	8.079305	-98.366250
21325		-6.519223	8.016518	-98.922752
21326		-6.480118	7.955466	-99.479032
21327		-6.431442	7.876561	-100.055956
21328		-6.416376	7.774813	-100.643948
21329		-6.437928	7.657895	-101.259595
21330		-6.515234	7.546310	-101.883128
21331		-6.585385	7.454467	-102.520418
21332		-6.600180	7.377487	-103.152039
21333		-6.544505	7.314531	-103.792060
21334		-6.448232	7.249996	-104.438009
21335		-6.331616	7.154203	-105.108432
21336		-6.272905	7.024065	-105.797465
21337		-6.275698	6.881140	-106.521613
21338		-6.327933	6.760642	-107.263908
21339		-6.364091	6.676871	-108.031219
21340		-6.362673	6.622024	-108.791436
21341		-6.311338	6.589396	-109.553239
21342		-6.236054	6.542559	-110.311480
21343		-6.151111	6.478155	-111.081975
21344		-6.097249	6.394302	-111.865044
21345		-6.067713	6.303432	-112.671735
21346		-6.060417	6.217556	-113.484808
21347		-6.041971	6.145811	-114.317172
21348		-6.037163	6.098506	-115.148027
21349		-5.999600	6.079226	-115.978755
21350		-5.916892	6.072458	-116.797446
21351		-5.787078	6.081332	-117.628005
21352		-5.634186	6.089449	-118.450065
21353		-5.475511	6.098021	-119.273868
21354		-5.357594	6.105736	-120.087505
21355		-5.240553	6.115724	-120.914240
21356		-5.084479	6.144582	-121.723837
21357		-4.947861	6.168413	-122.536855
21358		-4.795725	6.197741	-123.333286
21359		-4.633075	6.242867	-124.129364
21360		-4.470858	6.255043	-124.911557
21361		-4.297363	6.228464	-125.691683
21362		-4.170456	6.186498	-126.463684
21363		-4.037440	6.120106	-127.248609
21364		-3.931053	6.047565	-128.028637
21365		-3.866618	5.989105	-128.828116
21366		-3.847707	5.928850	-129.619791
21367		-3.841668	5.889539	-130.417257
21368		-3.809744	5.849097	-131.194352
21369		-3.711447	5.814023	-131.971192
21370		-3.556514	5.788740	-132.729559
21371		-3.330244	5.787076	-133.491112
21372		-3.014293	5.823824	-134.234064
21373		-2.569746	5.897760	-134.967447
21374		-2.053189	6.000759	-135.678915
21375		-1.473079	6.127577	-136.392170
21376		-0.875724	6.280827	-137.090977
21377		-0.294863	6.457102	-137.794751
21378		0.233611	6.619072	-138.498310
21379		0.710577	6.776960	-139.208997
21380		1.166452	6.938948	-139.904120
21381		1.648286	7.100121	-140.589686
21382		2.160762	7.272111	-141.241514
21383		2.725487	7.461655	-141.873854
21384		3.317363	7.635117	-142.485137
21385		3.872254	7.792129	-143.108359
21386		4.339443	7.940277	-143.715252
21387		4.695003	8.101530	-144.299186
21388		4.926921	8.278915	-144.844908
21389		5.089780	8.455744	-145.380892
21390		5.220976	8.630613	-145.889562
21391		5.400201	8.792179	-146.389239
21392		5.628275	8.942794	-146.874424
21393		5.917157	9.083520	-147.360860
21394		6.269345	9.189540	-147.845347
21395		6.635418	9.277110	-148.344987
21396		6.960327	9.343345	-148.866113
21397		7.210939	9.399869	-149.420352
21398		7.369026	9.457191	-149.989924
21399		7.443775	9.522884	-150.575589
21400		7.435569	9.609381	-151.171349
21401		7.376935	9.712602	-151.785160
21402		7.307697	9.838115	-152.398191
21403		7.242076	9.983131	-153.019426
21404		7.184671	10.139297	-153.646439
21405		7.136359	10.290528	-154.290351
21406		7.067165	10.436254	-154.938373
21407		6.981167	10.583329	-155.588631
21408		6.912069	10.738993	-156.225072
21409		6.866482	10.901446	-156.846862
21410		6.841754	11.065660	-157.442181
21411		6.821600	11.201900	-158.031717
21412		6.796515	11.298968	-158.608040
21413		6.769265	11.350080	-159.175404
21414		6.728147	11.365738	-159.727505
21415		6.675853	11.364409	-160.276218
21416		6.612221	11.386658	-160.810017
21417		6.578294	11.434709	-161.332067
21418		6.570560	11.518271	-161.833020
21419		6.624307	11.635658	-162.309540
21420		6.740017	11.757612	-162.766581
21421		6.910296	11.875855	-163.209302
21422		7.096187	11.992266	-163.639739
21423		7.259143	12.094253	-164.076273
21424		7.353201	12.188512	-164.501882
21425		7.393648	12.301504	-164.909613
21426		7.436894	12.426294	-165.294770
21427		7.503008	12.562065	-165.663246
21428		7.575149	12.704925	-166.011900
21429		7.621491	12.846030	-166.348516
21430		7.654013	12.977240	-166.663272
21431		7.717891	13.090154	-166.955360
21432		7.845809	13.177697	-167.225680
21433		8.049900	13.253522	-167.480580
21434		8.303772	13.315616	-167.722115
21435		8.564888	13.373483	-167.958640
21436		8.780161	13.438061	-168.200685
21437		8.930304	13.518103	-168.446886
21438		9.005609	13.621013	-168.690297
21439		9.034501	13.759598	-168.921401
21440		9.069845	13.917928	-169.136690
21441		9.143198	14.076939	-169.352095
21442		9.264123	14.223049	-169.563086
21443		9.433180	14.357043	-169.770445
21444		9.618533	14.462375	-169.983343
21445		9.789064	14.537250	-170.210767
21446		9.917339	14.594127	-170.445937
21447		10.003150	14.654493	-170.684242
21448		10.049013	14.731414	-170.918979
21449		10.084079	14.826518	-171.142888
21450		10.120999	14.934128	-171.368041
21451		10.166781	15.057756	-171.595681
21452		10.269085	15.194182	-171.823686
21453		10.422185	15.349485	-172.051426
21454		10.648550	15.516547	-172.279904
21455		10.943300	15.692135	-172.500107
21456		11.290161	15.862064	-172.719102
21457		11.630820	16.047638	-172.917179
21458		11.910657	16.245608	-173.101436
21459		12.072557	16.462126	-173.280232
21460		12.094890	16.687156	-173.467979
21461		12.032833	16.927716	-173.648312
21462		11.935614	17.184975	-173.819701
21463		11.864930	17.445738	-173.973671
21464		11.859955	17.691753	-174.106808
21465		11.921402	17.903392	-174.224278
21466		12.014534	18.058639	-174.337055
21467		12.126097	18.135915	-174.445724
21468		12.239444	18.142706	-174.547007
21469		12.333435	18.102931	-174.635550
21470		12.424972	18.044483	-174.719014
21471		12.523665	17.985589	-174.792725
21472		12.646351	17.944292	-174.856672
21473		12.802476	17.917278	-174.914990
21474		12.951797	17.907928	-174.974938
21475		13.081104	17.912274	-175.039266
21476		13.173564	17.933141	-175.106364
21477		13.250159	17.973383	-175.172535
21478		13.347933	18.029852	-175.236672
21479		13.455884	18.085688	-175.308820
21480		13.560978	18.137042	-175.389127
21481		13.641699	18.168365	-175.478177
21482		13.705650	18.176999	-175.575778
21483		13.766049	18.172665	-175.674885
21484		13.837746	18.171894	-175.773535
21485		13.941185	18.183482	-175.866920
21486		14.067009	18.206468	-175.958034
21487		14.196895	18.245833	-176.039144
21488		14.323827	18.311712	-176.101280
21489		14.436720	18.415537	-176.140241
21490		14.532866	18.545805	-176.167195
21491		14.604125	18.690424	-176.193080
21492		14.652422	18.837474	-176.228841
21493		14.677075	18.985401	-176.273015
21494		14.694118	19.111089	-176.321228
21495		14.724281	19.200776	-176.367353
21496		14.751640	19.252115	-176.410002
21497		14.760067	19.267336	-176.459947
21498		14.756483	19.252417	-176.515324
21499		14.766417	19.223377	-176.564901
21500		14.801472	19.189942	-176.610323
21501		14.839395	19.169500	-176.648287
21502		14.879135	19.168148	-176.682634
21503		14.910433	19.182419	-176.713069
21504		14.925880	19.206295	-176.743874
21505		14.923139	19.239361	-176.772265
21506		14.903486	19.271731	-176.797677
21507		14.870093	19.302175	-176.815859
21508		14.835014	19.329378	-176.829929
21509		14.794905	19.348563	-176.837972
21510		14.751438	19.364387	-176.835521
21511		14.711848	19.373227	-176.816240
21512		14.690811	19.375369	-176.786615
21513		14.686073	19.379788	-176.747188
21514		14.673792	19.388388	-176.713350
21515		14.648101	19.400458	-176.681353
21516		14.611834	19.409968	-176.643473
21517		14.573690	19.428055	-176.588824
21518		14.514760	19.462972	-176.514976
21519		14.437924	19.503811	-176.435285
21520		14.358443	19.536116	-176.357734
21521		14.276627	19.555454	-176.279315
21522		14.249376	19.575177	-176.186060
21523		14.274301	19.608829	-176.071368
21524		14.296147	19.643208	-175.957850
21525		14.282866	19.660739	-175.850851
21526		14.221541	19.663217	-175.753675
21527		14.139926	19.649592	-175.656341
21528		14.082016	19.642169	-175.540828
21529		14.049993	19.646981	-175.394707
21530		14.053475	19.662160	-175.223369
21531		14.068605	19.680672	-175.032461
21532		14.078761	19.690750	-174.837330
21533		14.066031	19.689260	-174.642213
21534		14.046832	19.688121	-174.450816
21535		14.008978	19.678524	-174.275484
21536		13.959738	19.665788	-174.119638
21537		13.886481	19.646056	-173.977268
21538		13.773299	19.620841	-173.842976
21539		13.603593	19.583158	-173.713558
21540		13.392479	19.533118	-173.589883
21541		13.207535	19.482208	-173.458757
21542		13.050670	19.438155	-173.319573
21543		12.893234	19.404135	-173.181410
21544		12.725753	19.368544	-173.058671
21545		12.510583	19.311791	-172.958015
21546		12.254820	19.222417	-172.876562
21547		11.996732	19.102097	-172.782663
21548		11.769948	18.969188	-172.643248
21549		11.572437	18.830862	-172.441499
21550		11.393837	18.690572	-172.190880
21551		11.230068	18.542042	-171.902968
21552		11.070905	18.384728	-171.600767
21553		10.900102	18.223602	-171.292600
21554		10.745188	18.060313	-170.984284
21555		10.598343	17.893234	-170.674530
21556		10.458468	17.741154	-170.365280
21557		10.301578	17.592955	-170.054648
21558		10.124895	17.454930	-169.738154
21559		9.928894	17.323536	-169.401625
21560		9.731714	17.197843	-169.040057
21561		9.536312	17.068688	-168.644573
21562		9.365539	16.932676	-168.218918
21563		9.206446	16.787713	-167.760471
21564		9.057144	16.626717	-167.282806
21565		8.901760	16.445485	-166.794463
21566		8.741601	16.247062	-166.302574
21567		8.555651	16.031056	-165.793956
21568		8.322420	15.796927	-165.273307
21569		8.038494	15.552501	-164.723573
21570		7.749854	15.299972	-164.149805
21571		7.477257	15.051080	-163.534825
21572		7.261137	14.823772	-162.887205
21573		7.082850	14.610791	-162.219658
21574		6.921718	14.413959	-161.562183
21575		6.730288	14.216256	-160.921255
21576		6.499487	14.013772	-160.298202
21577		6.219487	13.816969	-159.675141
21578		5.948292	13.618176	-159.046337
21579		5.688195	13.426357	-158.399552
21580		5.417568	13.238167	-157.756338
21581		5.130690	13.036415	-157.112852
21582		4.825521	12.813264	-156.475629
21583		4.505786	12.569662	-155.834478
21584		4.219981	12.314537	-155.193928
21585		3.982440	12.062922	-154.528803
21586		3.803457	11.827938	-153.852037
21587		3.669259	11.582764	-153.164558
21588		3.544132	11.351609	-152.476802
21589		3.377617	11.129119	-151.773273
21590		3.165444	10.914600	-151.071015
21591		2.896092	10.709439	-150.359262
21592		2.632448	10.492045	-149.658622
21593		2.371527	10.268525	-148.949187
21594		2.127668	10.047810	-148.236397
21595		1.916208	9.824007	-147.508094
21596		1.751551	9.606557	-146.773260
21597		1.607635	9.397918	-146.023626
21598		1.477716	9.202764	-145.283431
21599		1.338288	9.026999	-144.536534
21600		1.204885	8.865786	-143.798999
21601		1.085676	8.715274	-143.058314
21602		1.022643	8.566676	-142.315663
21603		0.971873	8.415067	-141.558819
21604		0.947300	8.269093	-140.790390
21605		0.919855	8.119149	-140.007374
21606		0.854177	7.981470	-139.235209
21607		0.762436	7.841541	-138.475884
21608		0.643116	7.716815	-137.743696
21609		0.488674	7.604134	-137.022539
21610		0.315646	7.482494	-136.316431
21611		0.099664	7.350977	-135.605987
21612		-0.115804	7.209490	-134.896442
21613		-0.305449	7.071649	-134.158229
21614		-0.456046	6.950011	-133.425680
21615		-0.571386	6.827740	-132.698450
21616		-0.692636	6.727802	-131.995165
21617		-0.838146	6.631278	-131.308478
21618		-0.980832	6.542597	-130.639066
21619		-1.112196	6.464320	-129.964429
21620		-1.187838	6.387690	-129.282763
21621		-1.239084	6.303178	-128.573114
21622		-1.302382	6.222710	-127.854586
21623		-1.409571	6.145337	-127.137929
21624		-1.516700	6.061724	-126.440071
21625		-1.616760	5.984503	-125.734706
21626		-1.665666	5.919286	-125.032344
21627		-1.649039	5.861887	-124.317438
21628		-1.573827	5.797680	-123.587551
21629		-1.564052	5.725552	-122.821561
21630		-1.676751	5.683600	-122.052102
21631		-1.821525	5.631630	-121.288520
21632		-1.914397	5.574490	-120.536717
21633		-1.941980	5.523352	-119.769463
21634		-1.858931	5.464693	-119.004243
21635		-1.723532	5.392293	-118.232778
21636		-1.584005	5.313001	-117.477593
21637		-1.475237	5.207214	-116.738047
21638		-1.470724	5.078595	-116.033393
21639		-1.584048	4.945588	-115.346398
21640		-1.843935	4.832502	-114.680550
21641		-2.245845	4.733737	-114.039174
21642		-2.684013	4.663473	-113.426087
21643		-3.103196	4.594874	-112.834509
21644		-3.439504	4.510140	-112.277926
21645		-3.689106	4.405303	-111.744917
21646		-3.889220	4.301546	-111.227895
21647		-4.103454	4.218164	-110.705836
21648		-4.371597	4.174137	-110.189433
21649		-4.697676	4.157824	-109.666745
21650		-5.044028	4.153398	-109.132039
21651		-5.402553	4.148560	-108.566658
21652		-5.763896	4.112843	-107.987080
21653		-6.120425	4.043289	-107.384287
21654		-6.403478	3.979971	-106.761650
21655		-6.623828	3.899201	-106.135574
21656		-6.787982	3.812348	-105.527167
21657		-6.925242	3.729367	-104.929037
21658		-7.041447	3.659974	-104.349729
21659		-7.134163	3.605873	-103.778015
21660		-7.206715	3.580658	-103.210901
21661		-7.262754	3.572732	-102.639740
21662		-7.291720	3.584186	-102.059880
21663		-7.303436	3.616498	-101.468723
21664		-7.296670	3.641456	-100.893350
21665		-7.281030	3.643738	-100.331046
21666		-7.238812	3.629418	-99.796118
21667		-7.167682	3.609048	-99.278389
21668		-7.114095	3.613755	-98.764919
21669		-7.143675	3.645362	-98.259751
21670		-7.252154	3.668319	-97.787319
21671		-7.437269	3.683532	-97.343633
21672		-7.691063	3.696409	-96.931840
21673		-8.022322	3.699274	-96.548107
21674		-8.402501	3.698906	-96.191744
21675		-8.818931	3.677882	-95.867697
21676		-9.253815	3.650269	-95.586864
21677		-9.672238	3.617841	-95.350082
21678		-10.032524	3.598512	-95.143657
21679		-10.309306	3.606154	-94.950636
21680		-10.475344	3.656120	-94.759206
21681		-10.527263	3.735868	-94.563269
21682		-10.478415	3.835003	-94.360641
21683		-10.375273	3.942737	-94.148163
21684		-10.272229	4.050359	-93.929962
21685		-10.210883	4.145322	-93.712786
21686		-10.191028	4.229980	-93.494045
21687		-10.190314	4.299435	-93.277244
21688		-10.192076	4.354486	-93.058510
21689		-10.180188	4.383081	-92.833014
21690		-10.147260	4.393904	-92.589713
21691		-10.093467	4.406122	-92.327661
21692		-10.018330	4.423165	-92.053026
21693		-9.922590	4.447098	-91.780464
21694		-9.769309	4.494309	-91.511806
21695		-9.593491	4.557121	-91.250394
21696		-9.405786	4.647080	-90.981165
21697		-9.214710	4.733176	-90.706632
21698		-9.054465	4.816852	-90.426726
21699		-8.938874	4.888054	-90.147943
21700		-8.865576	4.938781	-89.877214
21701		-8.829432	4.981975	-89.615434
21702		-8.826721	5.033587	-89.355389
21703		-8.832093	5.089077	-89.092460
21704		-8.804867	5.140947	-88.824634
21705		-8.746649	5.172410	-88.548675
21706		-8.674770	5.177603	-88.271172
21707		-8.624720	5.170962	-87.991747
21708		-8.641798	5.168399	-87.719917
21709		-8.701575	5.168591	-87.461505
21710		-8.743566	5.178454	-87.196446
21711		-8.730499	5.170598	-86.923073
21712		-8.678055	5.134331	-86.648151
21713		-8.639586	5.073844	-86.388213
21714		-8.679972	5.008543	-86.149057
21715		-8.787849	4.951774	-85.928931
21716		-8.901821	4.930303	-85.708408
21717		-9.013196	4.943626	-85.486746
21718		-9.106574	4.966484	-85.268122
21719		-9.205271	4.985127	-85.053866
21720		-9.311984	5.002075	-84.843757
21721		-9.411835	5.019989	-84.633172
21722		-9.473511	5.050360	-84.419956
21723		-9.473108	5.099850	-84.206025
21724		-9.433946	5.154543	-83.992662
21725		-9.393722	5.198668	-83.785258
21726		-9.357774	5.236636	-83.575762
21727		-9.357681	5.264793	-83.382019
21728		-9.391187	5.290315	-83.210138
21729		-9.432047	5.335885	-83.051448
21730		-9.463010	5.396096	-82.901632
21731		-9.451347	5.446179	-82.755211
21732		-9.414191	5.479077	-82.596262
21733		-9.423218	5.495717	-82.439369
21734		-9.486237	5.498443	-82.302180
21735		-9.568015	5.497989	-82.191867
21736		-9.623846	5.504907	-82.097223
21737		-9.648187	5.522545	-82.017177
21738		-9.665074	5.556435	-81.945897
21739		-9.700632	5.589224	-81.883428
21740		-9.748935	5.613146	-81.825141
21741		-9.779732	5.620688	-81.769069
21742		-9.795153	5.615883	-81.715456
21743		-9.790902	5.614322	-81.661038
21744		-9.781631	5.623027	-81.606459
21745		-9.750987	5.635736	-81.549941
21746		-9.710036	5.643579	-81.486461
21747		-9.681268	5.627982	-81.426703
21748		-9.694188	5.575279	-81.379274
21749		-9.777601	5.480593	-81.366522
21750		-9.935226	5.373477	-81.390740
21751		-10.130859	5.258702	-81.452335
21752		-10.376820	5.200720	-81.556520
21753		-10.586533	5.174960	-81.656283
21754		-10.908335	5.120401	-81.784664
21755		-11.266852	5.076289	-81.922073
21756		-11.532195	4.980281	-82.045943
21757		-11.719966	4.907027	-82.150293
21758		-11.795238	4.852515	-82.237309
21759		-11.758102	4.820871	-82.307144
21760		-11.656916	4.825835	-82.364231
21761		-11.540272	4.844300	-82.414109
21762		-11.456250	4.853779	-82.454430
21763		-11.401607	4.843882	-82.480961
21764		-11.367190	4.816109	-82.493100
21765		-11.347239	4.776662	-82.500787
21766		-11.341848	4.735978	-82.518474
21767		-11.361999	4.708049	-82.556807
21768		-11.403357	4.698059	-82.612543
21769		-11.430548	4.710068	-82.680269
21770		-11.415482	4.735239	-82.750266
21771		-11.352692	4.751415	-82.827752
21772		-11.273644	4.751841	-82.907367
21773		-11.211540	4.740278	-82.987025
21774		-11.199052	4.719830	-83.067934
21775		-11.190693	4.697288	-83.151107
21776		-11.166907	4.689538	-83.221993
21777		-11.102630	4.691322	-83.294519
21778		-11.008386	4.694899	-83.367719
21779		-10.911185	4.704520	-83.456173
21780		-10.841381	4.723540	-83.559185
21781		-10.780307	4.738716	-83.686007
21782		-10.701915	4.745568	-83.824721
21783		-10.602147	4.746057	-83.969965
21784		-10.506320	4.748063	-84.116079
21785		-10.403843	4.759202	-84.271497
21786		-10.308718	4.774887	-84.442032
21787		-10.247073	4.777634	-84.635097
21788		-10.230655	4.791905	-84.831164
21789		-10.220284	4.818041	-85.025594
21790		-10.175835	4.853918	-85.211271
21791		-10.090278	4.895853	-85.389013
21792		-10.006709	4.929376	-85.569257
21793		-9.958874	4.950555	-85.768790
21794		-9.957879	4.966896	-85.983323
21795		-9.981386	4.977418	-86.207732
21796		-9.980267	4.985444	-86.415248
21797		-9.907023	5.001804	-86.600573
21798		-9.762865	5.034113	-86.754195
21799		-9.590518	5.060340	-86.911947
21800		-9.451899	5.071853	-87.077662
21801		-9.391164	5.064180	-87.269598
21802		-9.417736	5.041836	-87.483679
21803		-9.466404	5.014151	-87.721139
21804		-9.472739	4.980143	-87.968281
21805		-9.400509	4.962851	-88.224112
21806		-9.260385	4.957973	-88.481232
21807		-9.100791	4.941814	-88.759605
21808		-9.005955	4.916788	-89.067781
21809		-8.998121	4.903552	-89.411355
21810		-9.045596	4.914440	-89.776415
21811		-9.100434	4.952765	-90.165343
21812		-9.123408	5.012929	-90.558396
21813		-9.094341	5.084093	-90.957818
21814		-9.022629	5.148412	-91.348869
21815		-8.918151	5.187037	-91.741057
21816		-8.819120	5.192508	-92.123673
21817		-8.720579	5.180311	-92.506120
21818		-8.631586	5.157056	-92.899863
21819		-8.555828	5.136556	-93.327745
21820		-8.530686	5.134126	-93.786707
21821		-8.538905	5.179937	-94.276203
21822		-8.557240	5.275379	-94.780171
21823		-8.530545	5.404315	-95.299869
21824		-8.446368	5.531092	-95.826926
21825		-8.314326	5.633081	-96.367245
21826		-8.166789	5.704243	-96.906113
21827		-8.040436	5.802775	-97.472305
21828		-7.896004	5.868422	-98.016311
21829		-7.762509	5.921513	-98.558697
21830		-7.662737	5.949464	-99.093669
21831		-7.583550	5.971340	-99.624703
21832		-7.532758	5.994353	-100.141533
21833		-7.467901	6.018067	-100.659617
21834		-7.357903	6.050951	-101.174719
21835		-7.193245	6.085909	-101.711068
21836		-6.985631	6.127015	-102.256543
21837		-6.747702	6.167011	-102.825671
21838		-6.544346	6.209504	-103.412075
21839		-6.376294	6.269985	-104.011816
21840		-6.236899	6.342234	-104.609586
21841		-6.103418	6.423617	-105.213567
21842		-5.957199	6.500376	-105.802299
21843		-5.793293	6.567337	-106.376178
21844		-5.615651	6.638717	-106.927088
21845		-5.304197	6.731082	-107.456166
21846		-5.013231	6.771289	-107.991407
21847		-4.775862	6.778619	-108.555348
21848		-4.640662	6.718803	-109.137580
21849		-4.632258	6.635016	-109.750992
21850		-4.715983	6.562020	-110.371797
21851		-4.761052	6.528144	-110.993289
21852		-4.713272	6.537414	-111.602892
21853		-4.596807	6.548344	-112.219009
21854		-4.515434	6.539333	-112.841630
21855		-4.468276	6.519850	-113.468782
21856		-4.481145	6.499867	-114.090618
21857		-4.518033	6.482965	-114.736419
21858		-4.552331	6.478825	-115.391883
21859		-4.505980	6.486625	-116.053201
21860		-4.378208	6.500427	-116.712472
21861		-4.151772	6.518273	-117.388626
21862		-3.933831	6.541764	-118.084418
21863		-3.764490	6.590867	-118.805462
21864		-3.690778	6.642554	-119.545144
21865		-3.681198	6.710756	-120.293855
21866		-3.664779	6.781849	-121.026235
21867		-3.599964	6.855440	-121.748782
21868		-3.491518	6.914758	-122.455529
21869		-3.349601	6.955142	-123.172423
21870		-3.182488	6.999748	-123.888777
21871		-3.021515	7.048811	-124.629602
21872		-2.920263	7.107748	-125.389080
21873		-2.881960	7.186378	-126.184061
21874		-2.926341	7.283214	-126.990237
21875		-3.001807	7.393336	-127.807919
21876		-3.079262	7.510185	-128.607507
21877		-3.119518	7.644735	-129.390319
21878		-3.057435	7.799057	-130.133000
21879		-2.821788	7.967756	-130.861784
21880		-2.451999	8.125675	-131.580724
21881		-2.083268	8.260597	-132.332156
21882		-1.846598	8.387719	-133.104981
21883		-1.762850	8.518834	-133.905445
21884		-1.841661	8.656945	-134.719095
21885		-2.050903	8.795952	-135.565188
21886		-2.282725	8.935108	-136.398954
21887		-2.465720	9.095171	-137.231813
21888		-2.586562	9.248419	-138.059741
21889		-2.635373	9.362668	-138.907457
21890		-2.660786	9.423486	-139.758105
21891		-2.740218	9.461158	-140.615504
21892		-2.901743	9.492944	-141.457638
21893		-3.073712	9.537946	-142.282413
21894		-3.223740	9.597084	-143.083303
21895		-3.305034	9.670119	-143.869956
21896		-3.311533	9.748231	-144.623485
21897		-3.233572	9.853896	-145.344280
21898		-3.047400	9.963462	-146.026076
21899		-2.785471	10.049657	-146.698287
21900		-2.560944	10.098464	-147.370498
21901		-2.433902	10.109071	-148.053578
21902		-2.384569	10.063712	-148.715615
21903		-2.370628	9.999856	-149.350668
21904		-2.335788	9.897908	-149.911192
21905		-2.173597	9.810090	-150.389314
21906		-1.862452	9.690805	-150.797695
21907		-1.420682	9.497880	-151.165520
21908		-0.970058	9.263417	-151.533249
21909		-0.564299	9.041989	-151.911304
21910		-0.222253	8.822369	-152.295172
21911		0.060671	8.627324	-152.677329
21912		0.368643	8.432582	-153.042140
21913		0.705650	8.276990	-153.418527
21914		1.077832	8.142482	-153.815103
21915		1.474982	8.028393	-154.240574
21916		1.848939	7.959594	-154.697100
21917		2.180108	7.925698	-155.200817
21918		2.492736	7.912353	-155.727827
21919		2.834032	7.956632	-156.269809
21920		3.190310	8.034672	-156.826458
21921		3.495930	8.124318	-157.414341
21922		3.710568	8.218333	-158.019112
21923		3.834447	8.314758	-158.629275
21924		3.864351	8.426425	-159.224271
21925		3.877278	8.559754	-159.798607
21926		3.971745	8.695622	-160.340461
21927		4.195188	8.820794	-160.853282
21928		4.458568	8.914257	-161.356048
21929		4.676883	8.981024	-161.863320
21930		4.774870	9.029717	-162.370266
21931		4.767856	9.082943	-162.863518
21932		4.732532	9.156408	-163.325144
21933		4.719259	9.248044	-163.762627
21934		4.769811	9.364009	-164.177064
21935		4.900947	9.508404	-164.566666
21936		5.094938	9.674062	-164.932341
21937		5.339795	9.840519	-165.289456
21938		5.607619	9.979876	-165.655708
21939		5.868392	10.069195	-166.029924
21940		6.108069	10.117601	-166.397922
21941		6.319400	10.150232	-166.745984
21942		6.505614	10.174948	-167.079294
21943		6.674521	10.202338	-167.389245
21944		6.838041	10.252908	-167.676374
21945		7.032823	10.319779	-167.951780
21946		7.273050	10.401183	-168.226595
21947		7.565489	10.482266	-168.509350
21948		7.885745	10.550579	-168.806885
21949		8.195785	10.603078	-169.123324
21950		8.486147	10.641358	-169.443615
21951		8.737611	10.691432	-169.760444
21952		8.930023	10.750924	-170.072161
21953		9.066780	10.823182	-170.386546
21954		9.168590	10.907304	-170.705601
21955		9.263186	11.003663	-171.025135
21956		9.374994	11.119793	-171.343884
21957		9.525748	11.252951	-171.656965
21958		9.726797	11.410430	-171.954918
21959		9.953864	11.578093	-172.250964
21960		10.202083	11.745156	-172.532680
21961		10.448069	11.909535	-172.799190
21962		10.671295	12.054231	-173.047871
21963		10.820918	12.156723	-173.287385
21964		10.914081	12.208807	-173.515599
21965		10.972942	12.215441	-173.717926
21966		11.007529	12.196736	-173.884887
21967		11.056906	12.176278	-174.010781
21968		11.130473	12.183271	-174.098038
21969		11.241187	12.207690	-174.168286
21970		11.358932	12.232812	-174.241076
21971		11.470987	12.256602	-174.315935
21972		11.537888	12.279992	-174.399698
21973		11.572686	12.300573	-174.489731
21974		11.599065	12.321928	-174.579432
21975		11.613597	12.338876	-174.660565
21976		11.623035	12.363693	-174.729695
21977		11.616850	12.409432	-174.781237
21978		11.602255	12.473955	-174.826610
21979		11.593542	12.543861	-174.870285
21980		11.605037	12.604227	-174.919920
21981		11.632379	12.650198	-174.968896
21982		11.665579	12.685371	-175.020948
21983		11.698783	12.715633	-175.070459
21984		11.714850	12.750938	-175.125159
21985		11.733226	12.796211	-175.175537
21986		11.752990	12.852289	-175.226358
21987		11.775362	12.910212	-175.276154
21988		11.813869	12.965760	-175.324208
21989		11.882535	13.027067	-175.356845
21990		11.958422	13.095303	-175.387409
21991		12.044143	13.159030	-175.412869
21992		12.148180	13.218492	-175.432951
21993		12.265631	13.291722	-175.437733
21994		12.389186	13.376881	-175.440372
21995		12.488629	13.468197	-175.448074
21996		12.551789	13.555833	-175.472126
21997		12.586199	13.631895	-175.504972
21998		12.607103	13.696111	-175.544157
21999		12.637020	13.750336	-175.585957
22000		12.681671	13.811253	-175.628039
22001		12.760373	13.871602	-175.676055
22002		12.855085	13.931031	-175.734992
22003		12.919361	13.987662	-175.809897
22004		12.939878	14.039098	-175.902119
22005		12.917615	14.083007	-176.010233
22006		12.877231	14.123539	-176.123380
22007		12.851877	14.152554	-176.232588
22008		12.848544	14.174285	-176.328041
22009		12.858299	14.186375	-176.404229
22010		12.867069	14.186363	-176.469017
22011		12.866192	14.185566	-176.524696
22012		12.870017	14.192509	-176.570593
22013		12.891127	14.219181	-176.597088
22014		12.919866	14.268642	-176.606082
22015		12.938222	14.333360	-176.598197
22016		12.938879	14.409874	-176.581233
22017		12.924077	14.487054	-176.553287
22018		12.911875	14.558598	-176.513602
22019		12.907282	14.618711	-176.457989
22020		12.917931	14.659750	-176.386730
22021		12.919169	14.682363	-176.300024
22022		12.910539	14.681011	-176.211687
22023		12.892905	14.663547	-176.122513
22024		12.863650	14.642307	-176.041264
22025		12.824183	14.624134	-175.961214
22026		12.783138	14.616023	-175.881077
22027		12.745227	14.627116	-175.790590
22028		12.728513	14.660040	-175.683032
22029		12.707892	14.707083	-175.558000
22030		12.677215	14.759012	-175.428762
22031		12.620594	14.800283	-175.309116
22032		12.553604	14.832054	-175.197570
22033		12.488624	14.856207	-175.082672
22034		12.440495	14.873458	-174.965922
22035		12.394981	14.883568	-174.843749
22036		12.337928	14.898120	-174.715769
22037		12.250234	14.911921	-174.587234
22038		12.146120	14.926003	-174.459722
22039		12.024488	14.943358	-174.328068
22040		11.906436	14.956061	-174.192210
22041		11.789551	14.967348	-174.055573
22042		11.669106	14.976583	-173.928015
22043		11.543119	14.984830	-173.801023
22044		11.430499	14.997273	-173.668457
22045		11.322104	14.999212	-173.528935
22046		11.236002	14.990962	-173.381172
22047		11.187341	14.957796	-173.210503
22048		11.153928	14.908697	-173.026550
22049		11.129049	14.841658	-172.814533
22050		11.116959	14.767860	-172.567847
22051		11.089002	14.693320	-172.290369
22052		11.018485	14.618365	-172.004546
22053		10.934321	14.549380	-171.715918
22054		10.867434	14.472741	-171.428807
22055		10.812259	14.394568	-171.133656
22056		10.780848	14.320220	-170.827039
22057		10.751869	14.233751	-170.508182
22058		10.709994	14.139656	-170.178725
22059		10.664350	14.035302	-169.832844
22060		10.638782	13.926085	-169.470828
22061		10.610657	13.809165	-169.097524
22062		10.578100	13.693207	-168.714364
22063		10.514346	13.568259	-168.322566
22064		10.430184	13.434979	-167.925546
22065		10.357851	13.298196	-167.507255
22066		10.330433	13.174001	-167.068564
22067		10.325819	13.067792	-166.605743
22068		10.330623	12.983802	-166.132912
22069		10.330867	12.897310	-165.649263
22070		10.313988	12.815284	-165.153937
22071		10.258006	12.729919	-164.648147
22072		10.199909	12.640830	-164.133835
22073		10.151991	12.551354	-163.603024
22074		10.149442	12.459811	-163.064718
22075		10.188145	12.352377	-162.510054
22076		10.181355	12.262185	-161.938695
22077		10.055083	12.188113	-161.355399
22078		9.793156	12.095318	-160.788942
22079		9.428337	11.984120	-160.220370
22080		9.041890	11.848581	-159.654016
22081		8.676744	11.689560	-159.076599
22082		8.385311	11.505570	-158.495561
22083		8.153575	11.304407	-157.904277
22084		7.947151	11.079068	-157.336191
22085		7.704997	10.811146	-156.805467
22086		7.427728	10.525340	-156.299562
22087		7.148443	10.237590	-155.786226
22088		6.890864	9.966426	-155.261966
22089		6.672269	9.708737	-154.712746
22090		6.523896	9.473980	-154.138958
22091		6.392343	9.267584	-153.539936
22092		6.258859	9.068101	-152.944598
22093		6.126591	8.888765	-152.343204
22094		6.020468	8.728261	-151.744642
22095		5.926938	8.587245	-151.140925
22096		5.839487	8.473728	-150.550654
22097		5.770179	8.345579	-149.963570
22098		5.705955	8.234774	-149.367863
22099		5.645793	8.127468	-148.746721
22100		5.602660	8.021443	-148.108163
22101		5.540812	7.922876	-147.452171
22102		5.501085	7.808604	-146.789496
22103		5.478625	7.698036	-146.112680
22104		5.520210	7.599592	-145.416091
22105		5.615295	7.507505	-144.692745
22106		5.710345	7.418842	-143.974095
22107		5.750736	7.341937	-143.258543
22108		5.740808	7.267532	-142.564215
22109		5.699994	7.217529	-141.860021
22110		5.710768	7.190791	-141.143215
22111		5.789877	7.166740	-140.392228
22112		5.895981	7.145141	-139.618356
22113		5.913068	7.133433	-138.833880
22114		5.849048	7.107431	-138.084769
22115		5.688950	7.055213	-137.369363
22116		5.423761	6.983972	-136.700844
22117		5.036041	6.908598	-136.056411
22118		4.590367	6.834624	-135.433347
22119		4.152026	6.769954	-134.792212
22120		3.828768	6.722484	-134.122294
22121		3.681065	6.673707	-133.399590
22122		3.682323	6.602599	-132.654036
22123		3.738948	6.491131	-131.901916
22124		3.690317	6.384915	-131.174481
22125		3.501727	6.295254	-130.470320
22126		3.299940	6.216669	-129.787686
22127		3.157057	6.140463	-129.085719
22128		3.101924	6.064836	-128.370076
22129		3.115521	5.987995	-127.627518
22130		3.166907	5.917753	-126.885438
22131		3.189968	5.856272	-126.147358
22132		3.191736	5.825227	-125.434635
22133		3.212925	5.834390	-124.721642
22134		3.359944	5.857458	-124.004028
22135		3.656428	5.878294	-123.245578
22136		4.008363	5.915603	-122.460917
22137		4.390521	5.980808	-121.665074
22138		4.833000	6.108290	-120.863550
22139		5.224024	6.317519	-120.056149
22140		5.641295	6.599012	-119.245395
22141		6.047331	6.946482	-118.410322
22142		6.450044	7.306225	-117.582985
22143		6.737720	7.600840	-116.797952
22144		6.822458	7.810940	-116.092223
22145		6.721397	7.909496	-115.462109
22146		6.483778	7.915404	-114.897696
22147		6.120131	7.873009	-114.356116
22148		5.743241	7.846693	-113.804922
22149		5.438227	7.861150	-113.205743
22150		5.271672	7.909793	-112.578253
22151		5.236863	7.975263	-111.928734
22152		5.317664	8.024221	-111.297439
22153		5.505782	8.071180	-110.673296
22154		5.703981	8.108207	-110.064158
22155		5.791305	8.134184	-109.466861
22156		5.729856	8.136379	-108.887381
22157		5.502514	8.131198	-108.301437
22158		5.263524	8.104771	-107.706606
22159		5.119093	8.048751	-107.107400
22160		5.048109	7.984024	-106.513941
22161		5.013276	7.910153	-105.918019
22162		4.959421	7.827611	-105.318215
22163		4.862932	7.722848	-104.708077
22164		4.749137	7.619270	-104.077047
22165		4.660608	7.530476	-103.423320
22166		4.600926	7.443377	-102.756729
22167		4.560937	7.340946	-102.074748
22168		4.546872	7.210597	-101.395090
22169		4.528423	7.048935	-100.723875
22170		4.533046	6.886117	-100.051498
22171		4.510977	6.739138	-99.382409
22172		4.456185	6.619043	-98.744221
22173		4.385807	6.546775	-98.123422
22174		4.379516	6.504414	-97.518436
22175		4.491284	6.477987	-96.907142
22176		4.696094	6.483420	-96.294502
22177		4.887134	6.516186	-95.703092
22178		5.007666	6.566761	-95.164552
22179		5.007317	6.624582	-94.669614
22180		4.874093	6.666006	-94.199514
22181		4.642723	6.672424	-93.724627
22182		4.396732	6.627939	-93.236289
22183		4.194937	6.554936	-92.712146
22184		4.125943	6.490246	-92.155502
22185		4.219556	6.422000	-91.585267
22186		4.407255	6.357499	-91.028589
22187		4.524012	6.303793	-90.507217
22188		4.490390	6.253454	-90.045129
22189		4.284119	6.215828	-89.641614
22190		3.966633	6.194743	-89.281008
22191		3.669870	6.200539	-88.913998
22192		3.486394	6.252913	-88.521177
22193		3.426529	6.330251	-88.106678
22194		3.472214	6.405324	-87.695867
22195		3.523886	6.455329	-87.321153
22196		3.459937	6.462693	-87.008802
22197		3.230398	6.451430	-86.744992
22198		2.895017	6.445303	-86.501429
22199		2.530843	6.465264	-86.254642
22200		2.226464	6.527676	-85.980179
22201		2.080710	6.625912	-85.648886
22202		2.041663	6.744386	-85.286985
22203		2.017728	6.835970	-84.947841
22204		1.961271	6.868909	-84.653282
22205		1.844072	6.848712	-84.393832
22206		1.659775	6.810693	-84.145379
22207		1.457354	6.765418	-83.898654
22208		1.287550	6.747647	-83.639228
22209		1.171924	6.765114	-83.369354
22210		1.138048	6.795560	-83.103593
22211		1.146394	6.822189	-82.855591
22212		1.115819	6.845908	-82.627724
22213		1.014452	6.851228	-82.430073
22214		0.846183	6.846771	-82.254115
22215		0.629835	6.846290	-82.085114
22216		0.397463	6.843376	-81.927628
22217		0.145404	6.831849	-81.792339
22218		-0.143092	6.826664	-81.680320
22219		-0.445488	6.842884	-81.576854
22220		-0.711815	6.886329	-81.459640
22221		-0.874433	6.954439	-81.321169
22222		-0.883302	7.026442	-81.156615
22223		-0.674976	7.081577	-80.978750
22224		-0.342734	7.098192	-80.804554
22225		-0.032277	7.113984	-80.663394
22226		0.268963	7.114248	-80.520969
22227		0.510525	7.069298	-80.385024
22228		0.666391	7.000119	-80.258414
22229		0.780273	6.882966	-80.155730
22230		0.802807	6.749773	-80.081893
22231		0.745072	6.617901	-80.037837
22232		0.646212	6.509409	-80.020012
22233		0.542229	6.441234	-80.018294
22234		0.476981	6.413114	-80.026938
22235		0.465032	6.408054	-80.050796
22236		0.485551	6.417919	-80.085376
22237		0.514615	6.434282	-80.134075
22238		0.530154	6.442988	-80.197190
22239		0.515805	6.445586	-80.262599
22240		0.460090	6.451326	-80.333112
22241		0.383789	6.463518	-80.414883
22242		0.333149	6.490616	-80.494793
22243		0.357901	6.514663	-80.569103
22244		0.436190	6.528609	-80.639317
22245		0.503524	6.524208	-80.718997
22246		0.510328	6.508055	-80.814571
22247		0.445755	6.509842	-80.922760
22248		0.355283	6.540901	-81.032020
22249		0.320817	6.605164	-81.138336
22250		0.355003	6.683176	-81.240520
22251		0.461915	6.751605	-81.349312
22252		0.589824	6.796389	-81.456305
22253		0.653458	6.817717	-81.566186
22254		0.599836	6.842231	-81.681593
22255		0.476270	6.873332	-81.799260
22256		0.352240	6.919423	-81.908626
22257		0.275943	6.976457	-82.010808
22258		0.234439	7.011969	-82.110072
22259		0.186561	7.030277	-82.221934
22260		0.123995	7.038942	-82.334868
22261		0.066803	7.049469	-82.443663
22262		0.047079	7.079033	-82.535835
22263		0.066964	7.129017	-82.622779
22264		0.099205	7.184524	-82.711891
22265		0.100236	7.220208	-82.819663
22266		0.028476	7.247105	-82.937205
22267		-0.072065	7.258468	-83.066226
22268		-0.193043	7.270417	-83.204063
22269		-0.298622	7.307763	-83.336838
22270		-0.351843	7.366759	-83.466026
22271		-0.327372	7.438200	-83.582602
22272		-0.240523	7.499986	-83.679335
22273		-0.119935	7.532283	-83.766384
22274		-0.028374	7.518210	-83.854373
22275		-0.015616	7.466776	-83.955869
22276		-0.064386	7.403652	-84.069266
22277		-0.110729	7.346004	-84.192586
22278		-0.131191	7.314431	-84.317485
22279		-0.118955	7.319378	-84.437189
22280		-0.075597	7.346405	-84.544973
22281		-0.010562	7.376877	-84.647794
22282		0.060406	7.386241	-84.753114
22283		0.127916	7.383537	-84.867799
22284		0.185803	7.384709	-84.987236
22285		0.250072	7.391976	-85.119147
22286		0.330416	7.389879	-85.260447
22287		0.379427	7.379602	-85.426781
22288		0.359631	7.382226	-85.606504
22289		0.295774	7.386601	-85.799564
22290		0.218567	7.387853	-86.000875
22291		0.135983	7.373396	-86.209500
22292		-0.001257	7.341054	-86.426624
22293		-0.067154	7.308617	-86.645861
22294		-0.080953	7.260289	-86.869156
22295		-0.051203	7.239638	-87.105207
22296		0.027694	7.232375	-87.358184
22297		0.104390	7.245514	-87.631095
22298		0.167111	7.268238	-87.902729
22299		0.198113	7.291905	-88.177882
22300		0.190645	7.306953	-88.457091
22301		0.162531	7.307253	-88.751180
22302		0.101744	7.285001	-89.057323
22303		0.031658	7.240546	-89.399887
22304		-0.069873	7.168117	-89.761360
22305		-0.197902	7.090151	-90.155244
22306		-0.299953	7.016560	-90.557802
22307		-0.369995	6.969004	-90.974117
22308		-0.384438	6.956276	-91.387702
22309		-0.333041	6.974001	-91.802670
22310		-0.230263	7.000412	-92.217969
22311		-0.123963	7.013903	-92.650039
22312		-0.061263	7.008255	-93.088367
22313		-0.063327	6.985880	-93.553421
22314		-0.124286	6.949574	-94.040380
22315		-0.157595	6.905278	-94.544081
22316		-0.152700	6.852974	-95.048347
22317		-0.143081	6.812319	-95.571319
22318		-0.145523	6.787491	-96.101987
22319		-0.154958	6.778159	-96.658601
22320		-0.181294	6.794335	-97.221041
22321		-0.199217	6.828883	-97.791098
22322		-0.193991	6.861464	-98.355037
22323		-0.159115	6.891550	-98.917967
22324		-0.105268	6.906098	-99.476792
22325		-0.039006	6.893280	-100.059241
22326		0.010417	6.863184	-100.652079
22327		0.040197	6.827196	-101.259261
22328		0.072610	6.798818	-101.852854
22329		0.121934	6.784990	-102.453413
22330		0.174231	6.787605	-103.057574
22331		0.241984	6.814471	-103.667442
22332		0.308707	6.841446	-104.271955
22333		0.374555	6.869796	-104.881540
22334		0.431393	6.886657	-105.485508
22335		0.494457	6.902205	-106.103112
22336		0.565485	6.912707	-106.725340
22337		0.627209	6.903777	-107.366981
22338		0.657265	6.887917	-108.015124
22339		0.670875	6.876565	-108.676141
22340		0.662967	6.876721	-109.335439
22341		0.650792	6.887750	-110.006098
22342		0.626281	6.917514	-110.667736
22343		0.600390	6.976157	-111.331827
22344		0.571324	7.041415	-111.987334
22345		0.566994	7.101134	-112.654304
22346		0.592727	7.137160	-113.329833
22347		0.610261	7.160223	-114.024409
22348		0.575009	7.202913	-114.721506
22349		0.539189	7.274480	-115.437968
22350		0.497475	7.383625	-116.154428
22351		0.502794	7.536306	-116.857825
22352		0.563621	7.690544	-117.525619
22353		0.641683	7.828691	-118.179385
22354		0.695427	7.927590	-118.815887
22355		0.713298	8.026852	-119.459174
22356		0.722065	8.148143	-120.106162
22357		0.748860	8.293973	-120.756574
22358		0.798673	8.448795	-121.407749
22359		0.906383	8.596502	-122.053636
22360		0.974260	8.729531	-122.697688
22361		0.990490	8.860247	-123.353449
22362		0.970511	8.982593	-124.007271
22363		0.910224	9.106010	-124.665477
22364		0.870349	9.239142	-125.302679
22365		0.931651	9.369251	-125.918599
22366		1.095548	9.493401	-126.509617
22367		1.357572	9.589546	-127.103051
22368		1.616307	9.658802	-127.698798
22369		1.812659	9.708155	-128.320652
22370		1.907227	9.752776	-128.971018
22371		1.906120	9.826729	-129.666611
22372		1.856667	9.942773	-130.379073
22373		1.820026	10.105258	-131.078234
22374		1.775883	10.272735	-131.756684
22375		1.741629	10.415429	-132.420583
22376		1.750999	10.521954	-133.046443
22377		1.800621	10.594238	-133.644425
22378		1.869864	10.621071	-134.228769
22379		1.906414	10.612937	-134.821760
22380		1.857461	10.609725	-135.417290
22381		1.751997	10.618325	-136.017485
22382		1.647857	10.644291	-136.603728
22383		1.545637	10.669852	-137.192789
22384		1.435132	10.673217	-137.789555
22385		1.337571	10.658515	-138.396164
22386		1.199520	10.630263	-139.016681
22387		1.058726	10.606998	-139.642852
22388		0.918832	10.590504	-140.258424
22389		0.808239	10.575407	-140.865915
22390		0.716974	10.552379	-141.451396
22391		0.619558	10.534228	-142.023185
22392		0.526207	10.511659	-142.576292
22393		0.454053	10.487249	-143.120132
22394		0.423470	10.469982	-143.643101
22395		0.462440	10.453671	-144.163154
22396		0.539572	10.419273	-144.694073
22397		0.579678	10.390442	-145.249901
22398		0.548036	10.373189	-145.810077
22399		0.451372	10.364423	-146.368811
22400		0.285967	10.373330	-146.909076
22401		0.093183	10.372537	-147.443869
22402		-0.131719	10.373007	-147.957612
22403		-0.291706	10.380045	-148.443245
22404		-0.352171	10.377693	-148.903438
22405		-0.315400	10.388177	-149.339669
22406		-0.171299	10.408555	-149.751801
22407		0.021646	10.432128	-150.142846
22408		0.206409	10.457927	-150.512350
22409		0.366977	10.484671	-150.874150
22410		0.513203	10.520171	-151.226409
22411		0.665931	10.568870	-151.568391
22412		0.839478	10.632593	-151.899200
22413		1.051245	10.708908	-152.223605
22414		1.257490	10.793440	-152.553016
22415		1.417392	10.871897	-152.910298
22416		1.482977	10.953969	-153.280151
22417		1.496428	11.052116	-153.643529
22418		1.509563	11.185651	-153.972316
22419		1.564531	11.323196	-154.259888
22420		1.692505	11.466128	-154.508053
22421		1.955384	11.601638	-154.730051
22422		2.309618	11.703934	-154.949061
22423		2.670913	11.773767	-155.206450
22424		2.949769	11.816824	-155.525949
22425		3.113637	11.878105	-155.908929
22426		3.148598	11.985379	-156.337806
22427		3.054216	12.141366	-156.805109
22428		2.877735	12.319086	-157.286898
22429		2.684039	12.496710	-157.760464
22430		2.530421	12.658385	-158.187066
22431		2.460842	12.793413	-158.560503
22432		2.484383	12.909358	-158.888165
22433		2.586413	13.007883	-159.190205
22434		2.715728	13.083370	-159.485692
22435		2.812171	13.139369	-159.784830
22436		2.867655	13.189329	-160.078476
22437		2.908377	13.262581	-160.350343
22438		2.965971	13.360071	-160.587155
22439		3.079695	13.481266	-160.786747
22440		3.222687	13.609748	-160.956149
22441		3.370093	13.731278	-161.112942
22442		3.499732	13.829415	-161.271597
22443		3.578440	13.915015	-161.429612
22444		3.625631	14.000553	-161.580167
22445		3.674583	14.095157	-161.711027
22446		3.753176	14.194756	-161.830243
22447		3.854078	14.289701	-161.942605
22448		4.010796	14.384292	-162.056595
22449		4.248468	14.463612	-162.163273
22450		4.534105	14.532750	-162.265097
22451		4.804281	14.597634	-162.374136
22452		5.018977	14.663511	-162.498634
22453		5.156674	14.723873	-162.644969
22454		5.217490	14.799882	-162.800109
22455		5.198196	14.892469	-162.955319
22456		5.133630	15.029734	-163.097506
22457		5.077466	15.163438	-163.236327
22458		5.042311	15.292090	-163.377330
22459		5.077204	15.408846	-163.513576
22460		5.165958	15.508326	-163.643937
22461		5.240333	15.583241	-163.784248
22462		5.318306	15.643215	-163.937050
22463		5.349004	15.709970	-164.098787
22464		5.330557	15.791516	-164.264648
22465		5.267775	15.905334	-164.421527
22466		5.200252	16.044928	-164.568275
22467		5.168820	16.182693	-164.706546
22468		5.148362	16.320679	-164.838757
22469		5.143310	16.441140	-164.973137
22470		5.151440	16.534661	-165.115467
22471		5.151177	16.622652	-165.261550
22472		5.137046	16.701733	-165.417455
22473		5.113905	16.780985	-165.570386
22474		5.089654	16.858816	-165.714426
22475		5.058408	16.935748	-165.849659
22476		5.035494	17.002731	-165.977733
22477		5.012247	17.067083	-166.097762
22478		4.986676	17.135492	-166.212106
22479		4.955001	17.213138	-166.318870
22480		4.924410	17.300244	-166.422785
22481		4.877427	17.381847	-166.528126
22482		4.795459	17.457983	-166.637725
22483		4.699079	17.519746	-166.738291
22484		4.603652	17.560127	-166.819571
22485		4.512187	17.572830	-166.880664
22486		4.462970	17.572661	-166.919014
22487		4.449565	17.572114	-166.932376
22488		4.467474	17.586125	-166.927406
22489		4.497070	17.609735	-166.914242
22490		4.518016	17.633834	-166.902590
22491		4.520062	17.652192	-166.889374
22492		4.494823	17.661331	-166.876766
22493		4.450659	17.654365	-166.868091
22494		4.402798	17.635171	-166.845073
22495		4.348299	17.610739	-166.809583
22496		4.296467	17.584049	-166.761633
22497		4.239944	17.554343	-166.707496
22498		4.188308	17.524799	-166.657961
22499		4.153912	17.491243	-166.610521
22500		4.125560	17.450779	-166.570689
22501		4.086963	17.399068	-166.529210
22502		4.054330	17.341916	-166.472695
22503		4.005575	17.291628	-166.395461
22504		3.962460	17.243787	-166.305937
22505		3.932181	17.199943	-166.206743
22506		3.915423	17.157455	-166.103741
22507		3.872917	17.102396	-166.004061
22508		3.801254	17.039625	-165.908849
22509		3.709366	16.973209	-165.801320
22510		3.643830	16.918015	-165.671093
22511		3.613598	16.874193	-165.512704
22512		3.610843	16.835383	-165.336525
22513		3.620402	16.778442	-165.155728
22514		3.635946	16.697350	-164.971918
22515		3.658471	16.603567	-164.767215
22516		3.684577	16.512145	-164.544910
22517		3.723307	16.423785	-164.308688
22518		3.778168	16.333668	-164.070505
22519		3.830680	16.235728	-163.828781
22520		3.880901	16.138867	-163.576064
22521		3.904829	16.067480	-163.312033
22522		3.900161	16.017165	-163.059070
22523		3.864905	15.976993	-162.820019
22524		3.810781	15.939622	-162.594260
22525		3.735409	15.898678	-162.374091
22526		3.653126	15.857041	-162.155132
22527		3.557878	15.810059	-161.935575
22528		3.462929	15.759224	-161.717337
22529		3.363371	15.713714	-161.491284
22530		3.258724	15.676455	-161.260062
22531		3.137744	15.647108	-161.022183
22532		3.024533	15.610588	-160.780707
22533		2.922820	15.556377	-160.527953
22534		2.830921	15.484174	-160.270167
22535		2.735290	15.400146	-159.997886
22536		2.645589	15.307589	-159.710363
22537		2.559160	15.215195	-159.396969
22538		2.477283	15.114955	-159.067404
22539		2.380563	15.004019	-158.719084
22540		2.273089	14.883882	-158.349697
22541		2.153109	14.755703	-157.941202
22542		2.033398	14.628140	-157.513402
22543		1.937273	14.487480	-157.071525
22544		1.866908	14.341435	-156.627984
22545		1.805743	14.183172	-156.182312
22546		1.744491	14.011754	-155.733835
22547		1.669661	13.837206	-155.264682
22548		1.581395	13.660482	-154.779396
22549		1.474653	13.483262	-154.262317
22550		1.350336	13.326560	-153.725293
22551		1.206519	13.189834	-153.176723
22552		1.068981	13.075710	-152.641492
22553		0.917259	12.974376	-152.111392
22554		0.785522	12.879254	-151.592005
22555		0.696822	12.780192	-151.067342
22556		0.682434	12.678210	-150.536860
22557		0.721112	12.568877	-149.982276
22558		0.765310	12.450238	-149.393453
22559		0.731801	12.338198	-148.775859
22560		0.594982	12.249715	-148.154424
22561		0.396483	12.169798	-147.536866
22562		0.193067	12.099573	-146.929560
22563		0.023081	12.026921	-146.316312
22564		-0.069188	11.953615	-145.699282
22565		-0.045428	11.881724	-145.054794
22566		0.107752	11.820738	-144.392781
22567		0.318576	11.754372	-143.708555
22568		0.518018	11.694583	-143.034336
22569		0.728691	11.655332	-142.344692
22570		0.909008	11.633896	-141.647421
22571		1.113436	11.634843	-140.920977
22572		1.359134	11.636989	-140.182445
22573		1.579291	11.650072	-139.428411
22574		1.780729	11.650464	-138.684957
22575		1.938744	11.642406	-137.959222
22576		2.087962	11.586061	-137.280111
22577		2.221423	11.486558	-136.644011
22578		2.345428	11.347363	-136.043047
22579		2.461028	11.187729	-135.441213
22580		2.506740	11.061509	-134.853439
22581		2.450618	10.981962	-134.265036
22582		2.319200	10.933091	-133.680503
22583		2.144614	10.890938	-133.099407
22584		1.978920	10.841637	-132.520741
22585		1.831790	10.781790	-131.933742
22586		1.729613	10.707031	-131.347705
22587		1.632268	10.631064	-130.754170
22588		1.531985	10.552099	-130.170507
22589		1.413474	10.454599	-129.586541
22590		1.281617	10.349107	-129.011147
22591		1.140582	10.237764	-128.417206
22592		1.010889	10.130462	-127.815971
22593		0.905805	10.016495	-127.193329
22594		0.832792	9.892168	-126.568339
22595		0.766870	9.756123	-125.936077
22596		0.676988	9.617688	-125.314542
22597		0.535328	9.479357	-124.696606
22598		0.365878	9.337134	-124.083341
22599		0.242989	9.213157	-123.435654
22600		0.209176	9.121918	-122.753864
22601		0.237230	9.045522	-122.059283
22602		0.288445	8.968949	-121.384896
22603		0.298475	8.906393	-120.715877
22604		0.245146	8.851412	-120.068679
22605		0.145795	8.792294	-119.427974
22606		0.029871	8.739641	-118.800896
22607		-0.077397	8.692617	-118.168618
22608		-0.130372	8.649878	-117.535266
22609		-0.123602	8.612369	-116.882363
22610		-0.119618	8.580924	-116.234139
22611		-0.182460	8.547667	-115.604403
22612		-0.312351	8.518787	-115.008646
22613		-0.481976	8.488028	-114.440007
22614		-0.669455	8.469740	-113.895555
22615		-0.850512	8.453123	-113.355292
22616		-0.985135	8.425259	-112.813976
22617		-1.057690	8.385434	-112.250058
22618		-1.094746	8.335651	-111.684521
22619		-1.170951	8.285550	-111.130613
22620		-1.283255	8.233192	-110.597562
22621		-1.428703	8.174054	-110.069222
22622		-1.560642	8.096897	-109.550865
22623		-1.654861	7.997541	-109.014607
22624		-1.696978	7.891411	-108.455170
22625		-1.717813	7.781890	-107.876970
22626		-1.702479	7.685139	-107.298799
22627		-1.706676	7.601965	-106.725268
22628		-1.770572	7.537395	-106.180444
22629		-1.936931	7.496205	-105.662159
22630		-2.158820	7.479807	-105.178098
22631		-2.334879	7.483149	-104.692760
22632		-2.431503	7.484054	-104.204709
22633		-2.487925	7.471314	-103.715067
22634		-2.531895	7.447346	-103.228363
22635		-2.587194	7.414097	-102.746755
22636		-2.660796	7.370285	-102.287444
22637		-2.738382	7.326032	-101.848926
22638		-2.801100	7.297037	-101.421807
22639		-2.852508	7.291617	-101.001121
22640		-2.855626	7.312894	-100.575708
22641		-2.811224	7.361311	-100.147990
22642		-2.712840	7.431087	-99.724544
22643		-2.576182	7.509067	-99.305785
22644		-2.448854	7.568503	-98.918060
22645		-2.385377	7.597114	-98.577062
22646		-2.410751	7.612760	-98.287789
22647		-2.532578	7.632926	-98.036008
22648		-2.702519	7.664018	-97.799151
22649		-2.853573	7.685742	-97.563432
22650		-2.935000	7.679153	-97.321317
22651		-2.929106	7.643950	-97.059655
22652		-2.888351	7.596632	-96.791900
22653		-2.860309	7.550784	-96.532832
22654		-2.899631	7.510839	-96.294433
22655		-3.001753	7.485035	-96.078565
22656		-3.137794	7.470805	-95.880027
22657		-3.263919	7.475731	-95.674974
22658		-3.373303	7.496977	-95.460182
22659		-3.466070	7.528536	-95.235599
22660		-3.509675	7.554358	-94.998606
22661		-3.495354	7.567229	-94.747561
22662		-3.455205	7.560028	-94.506462
22663		-3.421401	7.535384	-94.280095
22664		-3.414037	7.516419	-94.067924
22665		-3.459223	7.499886	-93.868573
22666		-3.532487	7.495290	-93.677638
22667		-3.585405	7.508674	-93.476759
22668		-3.594734	7.544252	-93.261513
22669		-3.597950	7.584680	-93.051110
22670		-3.629720	7.607393	-92.857489
22671		-3.704753	7.614908	-92.678923
22672		-3.831676	7.616163	-92.516726
22673		-3.998888	7.621600	-92.366598
22674		-4.140883	7.625415	-92.225893
22675		-4.231062	7.626587	-92.087231
22676		-4.297585	7.634787	-91.949057
22677		-4.356425	7.642715	-91.822803
22678		-4.394698	7.654005	-91.702276
22679		-4.419161	7.677528	-91.594005
22680		-4.478469	7.691128	-91.512772
22681		-4.570735	7.710527	-91.462100
22682		-4.696846	7.738834	-91.433697
22683		-4.875682	7.778665	-91.428319
22684		-5.082026	7.824785	-91.444013
22685		-5.269067	7.865274	-91.466013
22686		-5.400817	7.917756	-91.474272
22687		-5.491563	7.959041	-91.478113
22688		-5.556138	7.968049	-91.488982
22689		-5.604681	7.953458	-91.518100
22690		-5.660199	7.949028	-91.550505
22691		-5.726561	7.973771	-91.590980
22692		-5.780757	8.012504	-91.636947
22693		-5.821790	8.049902	-91.686883
22694		-5.912716	8.098655	-91.739013
22695		-6.034274	8.145525	-91.791303
22696		-6.126957	8.165574	-91.843734
22697		-6.129729	8.161838	-91.882985
22698		-6.062274	8.151366	-91.905262
22699		-5.991931	8.129673	-91.935416
22700		-5.971238	8.100015	-91.994762
22701		-5.995724	8.073195	-92.079776
22702		-6.038653	8.083846	-92.165374
22703		-6.059271	8.124692	-92.245668
22704		-6.063759	8.170424	-92.321860
22705		-6.068835	8.205454	-92.389643
22706		-6.076937	8.230873	-92.443592
22707		-6.074379	8.239054	-92.498497
22708		-6.069287	8.235643	-92.567471
22709		-6.070358	8.229810	-92.661844
22710		-6.085311	8.234442	-92.761701
22711		-6.111734	8.255414	-92.865799
22712		-6.156640	8.278836	-92.971995
22713		-6.218646	8.302245	-93.092002
22714		-6.292762	8.332847	-93.216098
22715		-6.357154	8.373250	-93.334648
22716		-6.403519	8.435523	-93.430397
22717		-6.433756	8.517410	-93.511519
22718		-6.452133	8.587462	-93.593724
22719		-6.461378	8.648188	-93.687614
22720		-6.450061	8.684745	-93.785069
22721		-6.456226	8.711536	-93.888820
22722		-6.498676	8.757752	-93.988559
22723		-6.558377	8.822145	-94.090947
22724		-6.593392	8.904527	-94.180152
22725		-6.622469	8.996014	-94.266323
22726		-6.696535	9.087145	-94.352860
22727		-6.785908	9.159476	-94.446679
22728		-6.848133	9.207668	-94.532668
22729		-6.871555	9.240742	-94.605607
22730		-6.850503	9.260753	-94.659125
22731		-6.796172	9.259670	-94.709549
22732		-6.737321	9.234500	-94.756148
22733		-6.707761	9.201598	-94.800252
22734		-6.724491	9.165895	-94.840014
22735		-6.737562	9.124613	-94.876968
22736		-6.731637	9.081293	-94.906267
22737		-6.702882	9.041673	-94.924806
22738		-6.632233	9.008421	-94.929072
22739		-6.534504	8.978630	-94.928807
22740		-6.420381	8.942565	-94.931578
22741		-6.305482	8.893731	-94.948183
22742		-6.183498	8.843563	-94.969147
22743		-6.068217	8.800868	-94.998569
22744		-5.981291	8.773393	-95.021507
22745		-5.909460	8.743405	-95.037778
22746		-5.867612	8.699721	-95.054664
22747		-5.851843	8.662714	-95.070622
22748		-5.855993	8.635832	-95.087014
22749		-5.858522	8.608188	-95.118602
22750		-5.829430	8.573398	-95.156982
22751		-5.778330	8.535401	-95.204157
22752		-5.718505	8.498239	-95.256426
22753		-5.658248	8.467568	-95.316406
22754		-5.644003	8.448448	-95.389250
22755		-5.659070	8.444870	-95.474778
22756		-5.694102	8.442787	-95.576395
22757		-5.729125	8.439619	-95.688822
22758		-5.751141	8.433560	-95.804714
22759		-5.769161	8.423436	-95.925620
22760		-5.808699	8.390762	-96.064892
22761		-5.890341	8.341196	-96.214320
22762		-6.001346	8.277819	-96.363684
22763		-6.104247	8.209060	-96.510836
22764		-6.158226	8.146727	-96.647989
22765		-6.156923	8.084200	-96.773179
22766		-6.116566	8.019261	-96.892967
22767		-6.051629	7.948395	-97.015807
22768		-6.015767	7.880919	-97.142806
22769		-6.009790	7.815698	-97.283959
22770		-6.020826	7.750280	-97.437805
22771		-6.040347	7.687931	-97.609594
22772		-6.049958	7.640186	-97.789565
22773		-6.049446	7.618406	-97.970547
22774		-6.028232	7.601036	-98.147123
22775		-5.999779	7.574111	-98.327568
22776		-5.976849	7.524281	-98.503768
22777		-5.966077	7.452812	-98.678285
22778		-5.969246	7.375818	-98.848010
22779		-5.967763	7.307717	-99.022956
22780		-5.970830	7.237919	-99.210433
22781		-5.955576	7.173010	-99.422799
22782		-5.922856	7.117198	-99.634432
22783		-5.869813	7.077277	-99.841541
22784		-5.793420	7.040977	-100.045772
22785		-5.699966	7.011538	-100.252914
22786		-5.613029	6.988815	-100.466479
22787		-5.562770	6.967437	-100.698235
22788		-5.556635	6.941825	-100.945493
22789		-5.573543	6.913389	-101.215854
22790		-5.608722	6.878847	-101.507044
22791		-5.627451	6.846434	-101.811430
22792		-5.620125	6.822721	-102.122128
22793		-5.584891	6.804774	-102.436148
22794		-5.537428	6.785836	-102.748734
22795		-5.494650	6.761274	-103.070832
22796		-5.472863	6.726260	-103.407954
22797		-5.462260	6.687657	-103.764499
22798		-5.462984	6.662290	-104.132930
22799		-5.457759	6.647042	-104.520915
22800		-5.439796	6.638461	-104.916516
22801		-5.409314	6.631384	-105.323138
22802		-5.388269	6.616427	-105.736266
22803		-5.367546	6.608358	-106.159040
22804		-5.362579	6.607829	-106.575744
22805		-5.362169	6.612980	-106.998794
22806		-5.367318	6.603833	-107.426854
22807		-5.383165	6.581540	-107.870415
22808		-5.403978	6.559069	-108.317209
22809		-5.406839	6.532029	-108.770586
22810		-5.377113	6.512032	-109.231707
22811		-5.295836	6.509196	-109.693324
22812		-5.190232	6.509938	-110.147077
22813		-5.087606	6.505793	-110.604014
22814		-5.041086	6.483884	-111.060729
22815		-5.046871	6.451220	-111.524674
22816		-5.083743	6.415337	-111.994020
22817		-5.089877	6.380672	-112.464547
22818		-5.033749	6.355648	-112.931109
22819		-4.918742	6.348823	-113.407777
22820		-4.792423	6.327023	-113.894566
22821		-4.716477	6.298324	-114.414027
22822		-4.715373	6.271003	-114.945783
22823		-4.734283	6.262505	-115.491725
22824		-4.738124	6.265690	-116.027268
22825		-4.700109	6.276410	-116.563794
22826		-4.646707	6.287197	-117.086454
22827		-4.592811	6.283954	-117.630031
22828		-4.550525	6.267974	-118.195991
22829		-4.498601	6.254815	-118.786741
22830		-4.425146	6.245769	-119.379144
22831		-4.340138	6.229183	-119.987083
22832		-4.270411	6.200633	-120.593366
22833		-4.192083	6.164855	-121.197004
22834		-4.150264	6.117459	-121.807439
22835		-4.146945	6.069172	-122.441351
22836		-4.143853	6.042497	-123.083392
22837		-4.126356	6.046343	-123.741881
22838		-4.098755	6.062680	-124.409167
22839		-4.060878	6.074567	-125.098614
22840		-4.052617	6.085641	-125.794999
22841		-4.025867	6.102825	-126.486102
22842		-3.942327	6.121564	-127.161505
22843		-3.806268	6.145903	-127.843324
22844		-3.655750	6.171725	-128.530161
22845		-3.522168	6.201111	-129.236745
22846		-3.409524	6.227667	-129.945175
22847		-3.301502	6.261258	-130.658248
22848		-3.220510	6.307938	-131.366141
22849		-3.176126	6.361271	-132.085087
22850		-3.169974	6.427571	-132.800810
22851		-3.161494	6.501027	-133.517105
22852		-3.136879	6.574312	-134.221538
22853		-3.071122	6.635313	-134.921973
22854		-2.976874	6.676495	-135.608133
22855		-2.871880	6.716324	-136.303144
22856		-2.781588	6.767311	-136.993886
22857		-2.698510	6.832429	-137.690532
22858		-2.604246	6.907248	-138.370233
22859		-2.520720	6.988161	-139.043341
22860		-2.477330	7.081354	-139.705004
22861		-2.421931	7.176236	-140.355266
22862		-2.358673	7.281757	-140.978516
22863		-2.267429	7.395313	-141.598100
22864		-2.146958	7.515336	-142.213028
22865		-1.996977	7.648320	-142.823483
22866		-1.819517	7.794853	-143.417535
22867		-1.627758	7.952381	-144.008583
22868		-1.448972	8.115162	-144.593595
22869		-1.297706	8.271187	-145.184879
22870		-1.180137	8.437872	-145.760906
22871		-1.052610	8.624574	-146.324167
22872		-0.866129	8.833590	-146.874388
22873		-0.614825	9.050693	-147.418127
22874		-0.343640	9.278663	-147.951853
22875		0.001700	9.524471	-148.471604
22876		0.420987	9.773166	-148.986160
22877		0.924590	10.034188	-149.511619
22878		1.472863	10.302169	-150.055201
22879		1.951589	10.582532	-150.627038
22880		2.280114	10.860460	-151.227639
22881		2.430308	11.145869	-151.855552
22882		2.381696	11.442306	-152.490590
22883		2.204745	11.761354	-153.104735
22884		1.965375	12.081996	-153.690374
22885		1.745787	12.394440	-154.246592
22886		1.585346	12.683007	-154.767167
22887		1.490925	12.942079	-155.240744
22888		1.463277	13.161009	-155.670760
22889		1.510771	13.338372	-156.066982
22890		1.631024	13.473222	-156.430988
22891		1.780536	13.584841	-156.762406
22892		1.888735	13.707700	-157.066582
22893		1.943994	13.841184	-157.352037
22894		1.970152	13.982337	-157.621173
22895		1.995541	14.128021	-157.879862
22896		2.041026	14.272698	-158.130081
22897		2.138990	14.390714	-158.373337
22898		2.239631	14.489289	-158.606614
22899		2.317961	14.573887	-158.840941
22900		2.420089	14.621201	-159.073422
22901		2.557451	14.636949	-159.288134
22902		2.710813	14.630236	-159.491186
22903		2.865129	14.598044	-159.682094
22904		2.983785	14.565760	-159.875393
22905		3.036080	14.544855	-160.091758
22906		3.035483	14.535409	-160.338451
22907		2.975652	14.558312	-160.599410
22908		2.895979	14.614530	-160.859894
22909		2.848494	14.694904	-161.106972
22910		2.857908	14.794690	-161.331523
22911		2.918564	14.878483	-161.553858
22912		2.974492	14.934689	-161.783602
22913		3.004304	14.964915	-162.009264
22914		3.008839	14.973643	-162.228637
22915		3.023707	14.957009	-162.439062
22916		3.044154	14.941846	-162.643243
22917		3.084556	14.937737	-162.838313
22918		3.147893	14.952498	-163.022764
22919		3.230339	14.995101	-163.195500
22920		3.338412	15.046370	-163.374798
22921		3.455479	15.097804	-163.560825
22922		3.567079	15.154065	-163.743662
22923		3.659915	15.219443	-163.925294
22924		3.764037	15.281555	-164.111069
22925		3.870535	15.332205	-164.301711
22926		3.950899	15.379644	-164.501485
22927		3.991352	15.417022	-164.698390
22928		3.991857	15.453647	-164.896104
22929		3.952000	15.499029	-165.087053
22930		3.893037	15.550592	-165.272746
22931		3.851415	15.607078	-165.442278
22932		3.827095	15.661823	-165.596075
22933		3.777317	15.713061	-165.746212
22934		3.681677	15.760048	-165.906133
22935		3.552871	15.796145	-166.069814
22936		3.390484	15.815617	-166.231737
22937		3.213905	15.814835	-166.385796
22938		3.038470	15.797869	-166.514505
22939		2.880205	15.777610	-166.604561
22940		2.745903	15.766263	-166.656716
22941		2.605812	15.769154	-166.683625
22942		2.492564	15.801372	-166.687368
22943		2.427224	15.845448	-166.682063
22944		2.406076	15.887667	-166.678689
22945		2.438095	15.912190	-166.676952
22946		2.506267	15.911430	-166.675015
22947		2.578032	15.893858	-166.665442
22948		2.636871	15.876433	-166.642987
22949		2.659757	15.875204	-166.604359
22950		2.656196	15.890285	-166.558060
22951		2.632221	15.923192	-166.508185
22952		2.609786	15.952732	-166.462727
22953		2.585143	15.977685	-166.425752
22954		2.554020	15.983611	-166.399804
22955		2.529463	15.977293	-166.372223
22956		2.520268	15.967389	-166.338570
22957		2.538637	15.955530	-166.296763
22958		2.573850	15.943405	-166.256144
22959		2.611720	15.927347	-166.216830
22960		2.639000	15.906232	-166.185757
22961		2.624478	15.888178	-166.159327
22962		2.576296	15.879439	-166.143180
22963		2.534994	15.880323	-166.126169
22964		2.534149	15.891148	-166.108545
22965		2.574494	15.905970	-166.088100
22966		2.639129	15.911636	-166.069651
22967		2.712859	15.914595	-166.052034
22968		2.739348	15.924742	-166.041787
22969		2.712180	15.940285	-166.042455
22970		2.640968	15.959924	-166.055706
22971		2.548559	15.985535	-166.068241
22972		2.460571	16.015856	-166.078910
22973		2.375425	16.054323	-166.075510
22974		2.298328	16.087364	-166.065673
22975		2.231177	16.101902	-166.049103
22976		2.154809	16.104083	-166.034898
22977		2.080456	16.108130	-166.010399
22978		2.013055	16.122410	-165.964652
22979		1.941758	16.154006	-165.888053
22980		1.844253	16.185031	-165.791630
22981		1.714772	16.199331	-165.665606
22982		1.603182	16.181292	-165.495393
22983		1.527452	16.120833	-165.287361
22984		1.520487	16.028706	-165.057938
22985		1.553053	15.913273	-164.819236
22986		1.573484	15.792823	-164.589297
22987		1.532427	15.684786	-164.367694
22988		1.411894	15.604305	-164.155417
22989		1.237367	15.546057	-163.936496
22990		1.063566	15.509779	-163.698154
22991		0.923262	15.491140	-163.430957
22992		0.828333	15.468997	-163.141032
22993		0.762384	15.429521	-162.833059
22994		0.730728	15.360207	-162.516413
22995		0.715532	15.259275	-162.194040
22996		0.695564	15.152601	-161.869546
22997		0.660897	15.056363	-161.533634
22998		0.601023	14.980598	-161.189794
22999		0.520755	14.911468	-160.834031
23000		0.438019	14.846829	-160.461495
23001		0.345848	14.790637	-160.070191
23002		0.282190	14.743905	-159.666659
23003		0.261232	14.704759	-159.248983
23004		0.252077	14.683863	-158.826864
23005		0.210064	14.657206	-158.407722
23006		0.125136	14.610373	-157.991059
23007		-0.028447	14.546847	-157.567132
23008		-0.195656	14.460000	-157.131023
23009		-0.369897	14.360392	-156.672035
23010		-0.561462	14.268610	-156.201672
23011		-0.763378	14.187695	-155.718884
23012		-0.942585	14.119894	-155.228464
23013		-1.076957	14.058513	-154.718012
23014		-1.153652	13.992928	-154.191576
23015		-1.230886	13.925048	-153.655301
23016		-1.327350	13.855245	-153.127200
23017		-1.423363	13.778586	-152.594790
23018		-1.531771	13.690320	-152.067296
23019		-1.652448	13.610585	-151.535858
23020		-1.739767	13.528622	-151.009479
23021		-1.813895	13.447468	-150.469154
23022		-1.869741	13.372477	-149.911385
23023		-1.917615	13.298970	-149.323427
23024		-1.968551	13.232609	-148.735543
23025		-2.023645	13.157443	-148.152698
23026		-2.097939	13.089373	-147.577823
23027		-2.172357	13.022462	-146.996684
23028		-2.229200	12.948212	-146.417696
23029		-2.262499	12.868196	-145.818202
23030		-2.245067	12.791573	-145.189249
23031		-2.223618	12.724846	-144.531653
23032		-2.269178	12.683311	-143.878557
23033		-2.377271	12.646341	-143.247146
23034		-2.472552	12.618131	-142.629447
23035		-2.537583	12.587398	-142.007306
23036		-2.591760	12.528678	-141.402888
23037		-2.596392	12.463583	-140.793159
23038		-2.565061	12.401429	-140.171952
23039		-2.523868	12.342613	-139.525522
23040		-2.468173	12.285274	-138.856680
23041		-2.447792	12.225809	-138.164738
23042		-2.461630	12.170232	-137.465122
23043		-2.526074	12.111852	-136.762210
23044		-2.650971	12.031128	-136.085103
23045		-2.817781	11.926696	-135.417923
23046		-2.974262	11.782619	-134.765886
23047		-3.080657	11.617130	-134.092945
23048		-3.096725	11.437546	-133.398603
23049		-3.042133	11.254257	-132.673808
23050		-2.986753	11.088297	-131.946889
23051		-3.000146	10.931354	-131.222588
23052		-3.093397	10.776109	-130.506581
23053		-3.246863	10.603352	-129.780355
23054		-3.474576	10.393880	-129.064208
23055		-3.675530	10.166843	-128.330170
23056		-3.795904	9.935135	-127.593690
23057		-3.832229	9.718371	-126.856953
23058		-3.766300	9.523944	-126.137103
23059		-3.685453	9.355551	-125.424962
23060		-3.626665	9.215825	-124.723582
23061		-3.636068	9.103324	-124.025569
23062		-3.696874	9.014829	-123.336656
23063		-3.780847	8.927283	-122.633232
23064		-3.878936	8.849857	-121.923221
23065		-3.950893	8.767179	-121.203115
23066		-3.971113	8.668154	-120.484098
23067		-3.965883	8.557874	-119.760384
23068		-3.921156	8.439303	-119.046664
23069		-3.886840	8.328004	-118.335528
23070		-3.901754	8.245673	-117.638200
23071		-3.959236	8.184609	-116.931750
23072		-4.036610	8.147903	-116.231329
23073		-4.073118	8.116725	-115.507793
23074		-3.979713	8.088543	-114.754664
23075		-3.798606	8.058945	-113.966469
23076		-3.630740	8.037975	-113.199073
23077		-3.555554	8.012575	-112.471027
23078		-3.621340	7.990187	-111.787740
23079		-3.771556	7.948471	-111.116950
23080		-3.933443	7.856661	-110.438245
23081		-4.040775	7.723957	-109.699325
23082		-4.058385	7.580543	-108.892519
23083		-4.033244	7.434320	-108.051625
23084		-4.002225	7.258053	-107.242678
23085		-4.043759	7.044280	-106.455889
23086		-4.148957	6.820694	-105.710170
23087		-4.313778	6.620023	-105.000305
23088		-4.481388	6.469307	-104.331963
23089		-4.637113	6.367338	-103.685993
23090		-4.787552	6.285545	-103.061308
23091		-4.946126	6.202399	-102.441455
23092		-5.087352	6.100086	-101.821952
23093		-5.228842	5.966125	-101.202789
23094		-5.396854	5.846521	-100.601635
23095		-5.574039	5.733640	-100.008882
23096		-5.734304	5.629971	-99.435356
23097		-5.841756	5.532170	-98.862093
23098		-5.897262	5.447125	-98.276926
23099		-5.918626	5.367645	-97.683618
23100		-5.926836	5.294733	-97.104362
23101		-5.976796	5.202004	-96.544459
23102		-6.064168	5.112255	-96.004676
23103		-6.213103	5.057042	-95.483478
23104		-6.387301	5.034896	-94.998137
23105		-6.526409	5.036756	-94.523662
23106		-6.578037	5.045100	-94.037500
23107		-6.553570	5.042699	-93.531740
23108		-6.520281	5.054916	-93.023558
23109		-6.537917	5.084241	-92.533733
23110		-6.619249	5.126492	-92.078359
23111		-6.763187	5.166180	-91.646798
23112		-6.911250	5.196040	-91.222020
23113		-7.020091	5.205864	-90.774530
23114		-7.035769	5.208038	-90.303752
23115		-6.991630	5.231309	-89.813403
23116		-6.933439	5.264371	-89.331745
23117		-6.905216	5.305163	-88.867294
23118		-6.949381	5.330759	-88.441534
23119		-7.046777	5.333993	-88.032977
23120		-7.171897	5.344542	-87.620733
23121		-7.306276	5.359112	-87.193049
23122		-7.454649	5.390329	-86.774269
23123		-7.613341	5.434885	-86.378300
23124		-7.749016	5.481508	-86.006452
23125		-7.840841	5.519054	-85.653380
23126		-7.896690	5.541551	-85.322120
23127		-7.940950	5.553375	-85.007056
23128		-7.991750	5.560118	-84.703710
23129		-8.118318	5.569644	-84.422019
23130		-8.305621	5.623337	-84.174353
23131		-8.550633	5.730297	-83.949532
23132		-8.795434	5.861400	-83.742112
23133		-8.960499	5.967695	-83.534926
23134		-9.034089	6.025681	-83.314997
23135		-9.036458	6.018009	-83.080052
23136		-9.073890	5.943086	-82.863725
23137		-9.251147	5.871706	-82.682055
23138		-9.506892	5.838247	-82.527517
23139		-9.842520	5.805574	-82.383966
23140		-10.193117	5.784700	-82.221352
23141		-10.469979	5.778324	-82.009913
23142		-10.691494	5.775970	-81.782568
23143		-10.889919	5.751813	-81.572361
23144		-11.174847	5.711450	-81.402224
23145		-11.531749	5.681891	-81.266995
23146		-11.886099	5.680147	-81.147957
23147		-12.155444	5.702536	-81.025090
23148		-12.291384	5.742362	-80.883934
23149		-12.375371	5.771237	-80.748105
23150		-12.410607	5.773650	-80.628887
23151		-12.482283	5.754834	-80.538446
23152		-12.596088	5.743491	-80.468831
23153		-12.748633	5.743328	-80.423327
23154		-12.882599	5.740695	-80.378989
23155		-12.933524	5.715688	-80.304598
23156		-12.877537	5.678454	-80.191254
23157		-12.746108	5.620397	-80.058656
23158		-12.623565	5.535551	-79.925587
23159		-12.561739	5.456794	-79.808818
23160		-12.588172	5.394933	-79.721890
23161		-12.675541	5.371644	-79.676274
23162		-12.780945	5.390680	-79.660809
23163		-12.855188	5.440974	-79.657367
23164		-12.879590	5.489237	-79.651892
23165		-12.853904	5.519891	-79.636036
23166		-12.794110	5.522861	-79.613753
23167		-12.726708	5.516519	-79.583394
23168		-12.698544	5.520662	-79.564001
23169		-12.729058	5.543688	-79.574373
23170		-12.776926	5.582788	-79.605073
23171		-12.789606	5.622777	-79.632591
23172		-12.733464	5.656125	-79.641674
23173		-12.612625	5.672258	-79.637625
23174		-12.467697	5.669639	-79.635632
23175		-12.336315	5.648287	-79.651420
23176		-12.240457	5.630670	-79.673561
23177		-12.197927	5.632590	-79.703685
23178		-12.192532	5.663790	-79.754382
23179		-12.180357	5.703825	-79.811811
23180		-12.178234	5.766387	-79.884422
23181		-12.137231	5.794215	-79.944138
23182		-12.139708	5.777574	-80.028905
23183		-12.199399	5.734185	-80.084598
23184		-12.327653	5.677658	-80.158445
23185		-12.413070	5.640395	-80.235440
23186		-12.429790	5.649738	-80.300990
23187		-12.388026	5.713470	-80.351857
23188		-12.297354	5.774022	-80.404607
23189		-12.239008	5.832047	-80.477153
23190		-12.226561	5.896872	-80.574585
23191		-12.263159	5.948864	-80.694466
23192		-12.324403	5.986212	-80.825028
23193		-12.387575	6.040533	-80.959674
23194		-12.385267	6.078522	-81.078772
23195		-12.313616	6.134916	-81.172289
23196		-12.173250	6.172693	-81.252848
23197		-12.059529	6.201550	-81.334500
23198		-12.027058	6.217694	-81.424683
23199		-12.066634	6.221934	-81.526422
23200		-12.137746	6.232459	-81.644241
23201		-12.180054	6.242875	-81.770364
23202		-12.161311	6.243004	-81.885978
23203		-12.079425	6.247213	-81.999074
23204		-11.961314	6.242408	-82.118602
23205		-11.855544	6.230358	-82.249144
23206		-11.787010	6.213482	-82.395716
23207		-11.803842	6.192927	-82.571409
23208		-11.827650	6.195394	-82.744804
23209		-11.777076	6.211660	-82.909686
23210		-11.685887	6.247661	-83.064204
23211		-11.591517	6.274799	-83.223679
23212		-11.536091	6.287624	-83.392633
23213		-11.538824	6.292949	-83.586782
23214		-11.596914	6.299127	-83.800355
23215		-11.656622	6.318162	-84.025023
23216		-11.658043	6.342579	-84.239838
23217		-11.577465	6.362776	-84.446895
23218		-11.442152	6.368495	-84.648582
23219		-11.326557	6.361267	-84.865213
23220		-11.275121	6.348026	-85.094578
23221		-11.268650	6.345926	-85.340873
23222		-11.257968	6.372115	-85.596813
23223		-11.187512	6.407862	-85.854440
23224		-11.107410	6.439765	-86.108532
23225		-11.060997	6.471738	-86.367667
23226		-11.062917	6.490649	-86.636430
23227		-11.080077	6.504975	-86.919373
23228		-11.069607	6.530142	-87.196319
23229		-11.023402	6.567644	-87.477714
23230		-10.964107	6.609755	-87.765301
23231		-10.885512	6.630083	-88.065155
23232		-10.799513	6.635881	-88.355916
23233		-10.721468	6.644394	-88.646739
23234		-10.670683	6.650220	-88.939440
23235		-10.646698	6.644070	-89.255723
23236		-10.660363	6.626777	-89.591346
23237		-10.696657	6.607654	-89.937882
23238		-10.734859	6.597621	-90.280538
23239		-10.728571	6.597611	-90.613230
23240		-10.665796	6.598905	-90.946008
23241		-10.551962	6.594863	-91.293083
23242		-10.426239	6.557405	-91.646137
23243		-10.320329	6.490162	-92.015323
23244		-10.238574	6.411311	-92.384602
23245		-10.181896	6.328270	-92.798544
23246		-10.068314	6.255687	-93.191758
23247		-9.943980	6.174917	-93.574689
23248		-9.767013	6.133033	-93.953666
23249		-9.515152	6.096730	-94.331989
23250		-9.231302	6.081630	-94.690397
23251		-8.832350	6.122186	-95.051107
23252		-8.406031	6.143180	-95.402534
23253		-8.086236	6.133291	-95.779874
23254		-7.905501	6.117140	-96.202047
23255		-7.805673	6.081125	-96.648036
23256		-7.720369	6.066729	-97.096369
23257		-7.557044	6.046155	-97.537147
23258		-7.407309	6.032644	-97.972977
23259		-7.279936	6.005059	-98.418409
23260		-7.214202	5.944812	-98.855832
23261		-7.194363	5.867879	-99.308704
23262		-7.176992	5.783657	-99.759122
23263		-7.124354	5.710673	-100.218278
23264		-7.053454	5.633856	-100.687132
23265		-6.951322	5.583771	-101.164937
23266		-6.827986	5.542732	-101.653054
23267		-6.708360	5.505811	-102.171118
23268		-6.611387	5.472685	-102.697765
23269		-6.517934	5.446803	-103.235970
23270		-6.467430	5.426677	-103.785366
23271		-6.439461	5.414281	-104.357563
23272		-6.422499	5.409798	-104.931434
23273		-6.358043	5.400447	-105.506702
23274		-6.260764	5.370649	-106.075907
23275		-6.158547	5.328320	-106.664175
23276		-6.083037	5.286237	-107.259187
23277		-6.004813	5.254342	-107.881840
23278		-5.908575	5.224361	-108.520738
23279		-5.839076	5.207618	-109.191009
23280		-5.795876	5.208979	-109.870459
23281		-5.765614	5.229335	-110.557122
23282		-5.750139	5.259713	-111.241154
23283		-5.734995	5.283062	-111.947754
23284		-5.738445	5.323946	-112.655958
23285		-5.715748	5.394391	-113.378061
23286		-5.656607	5.465942	-114.096625
23287		-5.588917	5.520300	-114.842813
23288		-5.583945	5.538536	-115.616233
23289		-5.665035	5.535312	-116.417381
23290		-5.786511	5.534429	-117.221416
23291		-5.882762	5.540168	-118.025366
23292		-5.927466	5.554245	-118.805379
23293		-5.911259	5.563102	-119.581251
23294		-5.907538	5.550319	-120.359925
23295		-5.964531	5.528950	-121.145947
23296		-6.085172	5.510428	-121.925420
23297		-6.228151	5.498440	-122.712070
23298		-6.338322	5.493790	-123.486447
23299		-6.369656	5.507655	-124.251108
23300		-6.361475	5.531493	-125.016029
23301		-6.351511	5.567749	-125.794174
23302		-6.364941	5.623791	-126.572677
23303		-6.384960	5.710321	-127.356933
23304		-6.349872	5.830669	-128.126929
23305		-6.210783	5.983728	-128.870254
23306		-6.029988	6.122305	-129.586937
23307		-5.871811	6.220940	-130.297138
23308		-5.766683	6.270863	-130.981541
23309		-5.699450	6.295660	-131.642161
23310		-5.665621	6.313790	-132.295879
23311		-5.628114	6.339296	-132.950129
23312		-5.585657	6.388827	-133.601999
23313		-5.531792	6.474099	-134.254100
23314		-5.443544	6.587561	-134.894250
23315		-5.289661	6.718461	-135.532282
