// General information: 
//  MT Manager version: 2022.2.0 
//  XDA version: 2022.2.0 build 7381 rev 124627 built on 2023-07-19
// Device information: 
//  DeviceId: 00B44846
//  ProductCode: MTW2-3A7G6
//  Firmware Version: 4.3.5
//  Hardware Version: 2.0.0
// Device settings: 
//  Filter Profile: human(46.1)
//  Option Flags: Orientation Smoother Disabled, Position/Velocity Smoother Disabled, Continuous Zero Rotation Update Disabled, AHS Disabled, ICC Disabled
// Coordinate system: ENU
PacketCounter	SampleTimeFine	Roll	Pitch	Yaw
52272		-4.982856	-16.043767	-34.404474
52273		-4.972807	-16.050863	-34.404054
52274		-4.937167	-15.984083	-34.396298
52275		-4.904754	-15.874554	-34.418064
52276		-4.884432	-15.745052	-34.441298
52277		-4.917083	-15.628269	-34.454701
52278		-4.919345	-15.539664	-34.476959
52279		-4.900925	-15.459970	-34.509961
52280		-4.885121	-15.421165	-34.557866
52281		-4.640812	-15.291589	-34.544951
52282		-4.441468	-15.074232	-34.524472
52283		-4.422021	-14.792608	-34.560418
52284		-4.488604	-14.585030	-34.566355
52285		-4.460172	-14.518508	-34.485461
52286		-4.308345	-14.506929	-34.373707
52287		-4.229931	-14.447647	-34.312564
52288		-4.104404	-14.258277	-34.271464
52289		-4.020761	-13.997684	-34.218616
52290		-3.989384	-13.817550	-34.150750
52291		-3.890057	-13.679627	-34.060379
52292		-3.817962	-13.554285	-33.975734
52293		-3.770268	-13.436779	-33.853499
52294		-3.629572	-13.301672	-33.681334
52295		-3.485822	-13.157951	-33.504406
52296		-3.361670	-12.956969	-33.287454
52297		-3.125577	-12.686014	-33.063370
52298		-2.882957	-12.445528	-32.867662
52299		-2.583880	-12.214736	-32.712157
52300		-2.358460	-11.981398	-32.616165
52301		-2.262095	-11.746559	-32.561044
52302		-2.195952	-11.478863	-32.448019
52303		-2.026795	-11.205629	-32.313913
52304		-1.905692	-10.992563	-32.130484
52305		-1.912050	-10.820582	-31.818226
52306		-2.043959	-10.719609	-31.359945
52307		-2.118320	-10.802969	-30.735696
52308		-1.927248	-10.941240	-29.994998
52309		-1.801353	-11.118215	-29.270312
52310		-1.901007	-11.284650	-28.529877
52311		-2.015431	-11.356251	-27.785447
52312		-2.131541	-11.464699	-27.010145
52313		-2.523228	-11.635189	-26.144068
52314		-2.742024	-11.747409	-25.205187
52315		-2.837826	-11.860683	-24.244029
52316		-2.772602	-11.936895	-23.350452
52317		-2.480488	-12.015748	-22.589041
52318		-2.462715	-12.209979	-21.803524
52319		-2.768134	-12.479186	-20.941759
52320		-2.785740	-12.722092	-20.095619
52321		-2.739741	-12.900527	-19.332501
52322		-2.641191	-13.009321	-18.730428
52323		-2.524857	-13.122766	-18.255795
52324		-2.482283	-13.336826	-17.807211
52325		-2.446515	-13.605263	-17.372824
52326		-2.420694	-13.922145	-16.998195
52327		-2.375685	-14.241487	-16.698438
52328		-2.367110	-14.514645	-16.492743
52329		-2.391780	-14.743912	-16.430497
52330		-2.371242	-14.878315	-16.513850
52331		-2.304640	-14.883387	-16.707957
52332		-2.214168	-14.860540	-16.949459
52333		-2.217362	-14.745910	-17.198831
52334		-2.290678	-14.618577	-17.375030
52335		-2.312926	-14.553718	-17.509841
52336		-2.342289	-14.490883	-17.626689
52337		-2.406615	-14.427172	-17.711339
52338		-2.459442	-14.365840	-17.729332
52339		-2.506482	-14.370155	-17.694657
52340		-2.566203	-14.502283	-17.628923
52341		-2.591442	-14.514381	-17.550578
52342		-2.686041	-14.510868	-17.460662
52343		-2.785508	-14.489958	-17.355061
52344		-2.801630	-14.434796	-17.255084
52345		-2.774092	-14.392052	-17.176195
52346		-2.783486	-14.380869	-17.134449
52347		-2.823435	-14.390315	-17.120139
52348		-2.845550	-14.426593	-17.116670
52349		-2.885761	-14.484827	-17.121050
52350		-2.939605	-14.500429	-17.121227
52351		-3.000346	-14.488772	-17.113897
52352		-3.069788	-14.472760	-17.116835
52353		-3.137933	-14.459134	-17.118091
52354		-3.179005	-14.439873	-17.108000
52355		-3.213158	-14.431071	-17.070439
52356		-3.226985	-14.422119	-17.039429
52357		-3.202949	-14.425354	-17.011061
52358		-3.190868	-14.444509	-16.981549
52359		-3.212434	-14.460654	-16.961868
52360		-3.256370	-14.496157	-16.924963
52361		-3.255866	-14.540907	-16.884770
52362		-3.237391	-14.575336	-16.860016
52363		-3.204319	-14.582035	-16.833106
52364		-3.141251	-14.548458	-16.807460
52365		-3.086003	-14.506558	-16.801476
52366		-3.078682	-14.477000	-16.813929
52367		-3.100956	-14.458176	-16.826221
52368		-3.132236	-14.431996	-16.830005
52369		-3.158577	-14.409213	-16.841514
52370		-3.179071	-14.388397	-16.850613
52371		-3.197723	-14.376385	-16.831038
52372		-3.195797	-14.367184	-16.801832
52373		-3.185790	-14.365104	-16.772863
52374		-3.164733	-14.367875	-16.747150
52375		-3.155521	-14.356575	-16.722116
52376		-3.149403	-14.339122	-16.719983
52377		-3.130226	-14.333916	-16.728389
52378		-3.089652	-14.315877	-16.760637
52379		-3.081783	-14.302173	-16.804035
52380		-3.113081	-14.271837	-16.848366
52381		-3.149302	-14.289777	-16.906491
52382		-3.186046	-14.288913	-16.998617
52383		-3.259614	-14.256398	-17.122513
52384		-3.296974	-14.198833	-17.309216
52385		-3.349483	-14.140637	-17.548410
52386		-3.404347	-14.143152	-17.820007
52387		-3.381477	-14.105939	-18.102984
52388		-3.409946	-14.044469	-18.400388
52389		-3.472117	-13.948052	-18.710168
52390		-3.526674	-13.813206	-19.020418
52391		-3.572880	-13.652825	-19.361003
52392		-3.626148	-13.449534	-19.725801
52393		-3.724616	-13.242367	-20.105161
52394		-3.820729	-13.007087	-20.501493
52395		-3.917730	-12.760169	-20.932258
52396		-4.015988	-12.465761	-21.357799
52397		-4.087610	-12.135589	-21.786482
52398		-4.144295	-11.871312	-22.256338
52399		-4.245247	-11.614735	-22.748356
52400		-4.388565	-11.294004	-23.214175
52401		-4.541433	-10.933379	-23.645610
52402		-4.692009	-10.622221	-24.165626
52403		-4.854469	-10.378490	-24.731838
52404		-4.975065	-10.143154	-25.269101
52405		-5.104372	-9.895319	-25.813452
52406		-5.392452	-9.638201	-26.447181
52407		-5.824373	-9.433834	-27.089025
52408		-6.194916	-9.184044	-27.676458
52409		-6.503264	-8.885038	-28.232521
52410		-6.847801	-8.577329	-28.808084
52411		-7.073588	-8.281203	-29.328285
52412		-7.188725	-7.996809	-29.746403
52413		-7.324130	-7.701737	-30.133490
52414		-7.529113	-7.425971	-30.608994
52415		-7.868196	-7.174121	-31.180516
52416		-8.346715	-6.996294	-31.700036
52417		-8.815584	-6.873480	-32.127222
52418		-9.198842	-6.788006	-32.507889
52419		-9.599942	-6.733615	-32.869101
52420		-10.014802	-6.677270	-33.267006
52421		-10.331982	-6.692281	-33.679905
52422		-10.594348	-6.782986	-34.046497
52423		-10.817695	-6.945620	-34.348842
52424		-10.924275	-7.124510	-34.633438
52425		-11.012554	-7.294718	-34.883585
52426		-11.174268	-7.435270	-35.089490
52427		-11.451551	-7.567939	-35.250396
52428		-11.704338	-7.675943	-35.328319
52429		-11.772713	-7.712181	-35.291558
52430		-11.641167	-7.703463	-35.187414
52431		-11.441962	-7.670295	-35.106397
52432		-11.276015	-7.655914	-35.079912
52433		-11.183182	-7.686356	-35.084971
52434		-11.131181	-7.736336	-35.106831
52435		-11.099804	-7.809874	-35.143165
52436		-11.053071	-7.919680	-35.167779
52437		-10.966935	-8.072024	-35.177338
52438		-10.908121	-8.232864	-35.208054
52439		-10.832980	-8.398775	-35.237018
52440		-10.720225	-8.536777	-35.253052
52441		-10.584273	-8.647068	-35.274324
52442		-10.497803	-8.737147	-35.297732
52443		-10.455257	-8.827031	-35.312688
52444		-10.425203	-8.941463	-35.297482
52445		-10.355754	-9.047697	-35.289292
52446		-10.300915	-9.121511	-35.314913
52447		-10.254900	-9.198322	-35.345445
52448		-10.175806	-9.288683	-35.357451
52449		-10.111434	-9.362819	-35.354473
52450		-10.078026	-9.408384	-35.359811
52451		-10.035219	-9.432602	-35.361059
52452		-9.949882	-9.448629	-35.344800
52453		-9.864123	-9.448495	-35.330137
52454		-9.797726	-9.457940	-35.333159
52455		-9.744866	-9.467973	-35.345565
52456		-9.700197	-9.485807	-35.361498
52457		-9.661177	-9.501457	-35.377906
52458		-9.654784	-9.501470	-35.393582
52459		-9.661450	-9.494342	-35.400104
52460		-9.681863	-9.468183	-35.398494
52461		-9.705233	-9.440291	-35.398667
52462		-9.702106	-9.400088	-35.403984
52463		-9.673793	-9.360032	-35.415986
52464		-9.655900	-9.339681	-35.450676
52465		-9.652468	-9.346127	-35.498463
52466		-9.669391	-9.346601	-35.551221
52467		-9.699877	-9.344767	-35.605875
52468		-9.729302	-9.364302	-35.656088
52469		-9.706161	-9.386406	-35.691603
52470		-9.692546	-9.399853	-35.713099
52471		-9.672863	-9.406832	-35.726677
52472		-9.657737	-9.384588	-35.735840
52473		-9.652543	-9.350566	-35.742197
52474		-9.627945	-9.316837	-35.754637
52475		-9.609139	-9.275114	-35.770866
52476		-9.605595	-9.234901	-35.795041
52477		-9.600818	-9.213539	-35.801228
52478		-9.583386	-9.203687	-35.790111
52479		-9.534521	-9.190512	-35.784903
52480		-9.501446	-9.195196	-35.766006
52481		-9.443618	-9.193268	-35.721454
52482		-9.447958	-9.204739	-35.672218
52483		-9.351102	-9.192947	-35.648499
52484		-9.264082	-9.109288	-35.641235
52485		-9.211758	-8.981100	-35.630246
52486		-9.173969	-8.855171	-35.603948
52487		-9.163871	-8.774751	-35.527035
52488		-9.113185	-8.732043	-35.395382
52489		-9.002795	-8.691429	-35.241639
52490		-8.905945	-8.660873	-35.069614
52491		-8.865291	-8.680480	-34.846605
52492		-8.769895	-8.713718	-34.601312
52493		-8.646602	-8.707037	-34.382764
52494		-8.496561	-8.643430	-34.184748
52495		-8.321398	-8.588713	-33.956906
52496		-8.137908	-8.541530	-33.707370
52497		-7.957950	-8.484749	-33.458795
52498		-7.774193	-8.416395	-33.244718
52499		-7.588979	-8.361373	-33.039872
52500		-7.440315	-8.332860	-32.799341
52501		-7.345077	-8.354542	-32.535002
52502		-7.246585	-8.426218	-32.232931
52503		-7.126348	-8.525398	-31.890406
52504		-7.010912	-8.615419	-31.499143
52505		-6.907002	-8.691444	-31.106542
52506		-6.785054	-8.770392	-30.689045
52507		-6.631416	-8.859207	-30.225630
52508		-6.465875	-8.904051	-29.733696
52509		-6.349498	-8.989578	-29.252677
52510		-6.306826	-9.150814	-28.757498
52511		-6.217583	-9.285177	-28.270728
52512		-6.087672	-9.389244	-27.841360
52513		-6.009535	-9.499875	-27.442615
52514		-5.942521	-9.661862	-27.074194
52515		-5.869139	-9.836077	-26.692271
52516		-5.781362	-9.997258	-26.327538
52517		-5.740635	-10.213816	-25.994966
52518		-5.698854	-10.484766	-25.624345
52519		-5.514796	-10.723854	-25.237185
52520		-5.350206	-10.976672	-24.841140
52521		-5.151870	-11.295108	-24.431413
52522		-4.916686	-11.646495	-24.010315
52523		-4.689899	-11.945561	-23.587699
52524		-4.497866	-12.240230	-23.175889
52525		-4.331473	-12.493772	-22.775304
52526		-4.157614	-12.694517	-22.369420
52527		-4.053345	-12.839482	-21.961478
52528		-3.975485	-12.947203	-21.566953
52529		-3.862636	-13.062469	-21.185172
52530		-3.805667	-13.197916	-20.789156
52531		-3.804354	-13.349194	-20.356545
52532		-3.804771	-13.513289	-19.918268
52533		-3.720303	-13.652875	-19.518554
52534		-3.625856	-13.807038	-19.148563
52535		-3.584074	-13.923192	-18.769261
52536		-3.513917	-14.028555	-18.428494
52537		-3.456715	-14.123281	-18.120092
52538		-3.429953	-14.220305	-17.815088
52539		-3.367907	-14.276152	-17.540484
52540		-3.289617	-14.350715	-17.306344
52541		-3.168108	-14.460737	-17.125578
52542		-2.977492	-14.533364	-16.999377
52543		-2.720092	-14.517496	-16.890688
52544		-2.513970	-14.454150	-16.858613
52545		-2.430074	-14.469335	-16.928503
52546		-2.357193	-14.575625	-17.056391
52547		-2.325408	-14.754024	-17.247483
52548		-2.315199	-14.899552	-17.420403
52549		-2.282082	-14.978587	-17.549809
52550		-2.247750	-15.029605	-17.645964
52551		-2.236814	-15.101152	-17.691151
52552		-2.230288	-15.193377	-17.712366
52553		-2.244670	-15.273942	-17.712605
52554		-2.286744	-15.323062	-17.716892
52555		-2.382425	-15.365870	-17.720217
52556		-2.475934	-15.425476	-17.689225
52557		-2.557084	-15.472329	-17.607957
52558		-2.621699	-15.487849	-17.497469
52559		-2.669493	-15.464393	-17.378659
52560		-2.745688	-15.426198	-17.249428
52561		-2.807318	-15.420132	-17.111398
52562		-2.861372	-15.412325	-16.957850
52563		-2.920216	-15.413758	-16.804237
52564		-2.993131	-15.381379	-16.677216
52565		-3.068162	-15.359430	-16.566009
52566		-3.124219	-15.360874	-16.460460
52567		-3.137734	-15.366133	-16.357345
52568		-3.138976	-15.375439	-16.255776
52569		-3.119423	-15.382747	-16.187399
52570		-3.107461	-15.395578	-16.122565
52571		-3.085234	-15.400419	-16.034748
52572		-3.055495	-15.377913	-15.964765
52573		-3.017427	-15.378070	-15.903777
52574		-2.979080	-15.404843	-15.831752
52575		-2.924448	-15.396871	-15.754527
52576		-2.866229	-15.375287	-15.713318
52577		-2.818517	-15.356201	-15.696044
52578		-2.785995	-15.350862	-15.672784
52579		-2.776890	-15.378276	-15.646951
52580		-2.772407	-15.427616	-15.628760
52581		-2.781889	-15.448388	-15.607723
52582		-2.766213	-15.442778	-15.595867
52583		-2.738197	-15.438060	-15.584003
52584		-2.705492	-15.422534	-15.569570
52585		-2.682170	-15.400204	-15.546871
52586		-2.672241	-15.393571	-15.526257
52587		-2.682470	-15.388116	-15.514777
52588		-2.716504	-15.388911	-15.503328
52589		-2.764275	-15.407217	-15.499305
52590		-2.789518	-15.426255	-15.495585
52591		-2.806385	-15.425836	-15.482139
52592		-2.803970	-15.390867	-15.486656
52593		-2.785616	-15.356476	-15.528463
52594		-2.809410	-15.322738	-15.556655
52595		-2.851241	-15.283812	-15.570359
52596		-2.889938	-15.255862	-15.586241
52597		-2.945436	-15.236389	-15.605607
52598		-3.006763	-15.225372	-15.629427
52599		-2.987343	-15.211001	-15.686030
52600		-2.953751	-15.161853	-15.777832
52601		-2.963374	-15.092245	-15.880863
52602		-2.987062	-15.025673	-15.989713
52603		-3.018623	-14.957765	-16.095589
52604		-3.050914	-14.893560	-16.201452
52605		-3.114781	-14.798813	-16.314711
52606		-3.181446	-14.694607	-16.447066
52607		-3.242150	-14.612099	-16.592787
52608		-3.291528	-14.540684	-16.745883
52609		-3.337590	-14.467444	-16.903174
52610		-3.404898	-14.392863	-17.067410
52611		-3.503436	-14.315348	-17.216100
52612		-3.606384	-14.221623	-17.377847
52613		-3.706450	-14.097070	-17.554730
52614		-3.820995	-13.952677	-17.747240
52615		-3.937455	-13.825197	-17.963901
52616		-4.042309	-13.725503	-18.179440
52617		-4.147142	-13.585217	-18.403655
52618		-4.259348	-13.428552	-18.644669
52619		-4.357596	-13.242825	-18.893930
52620		-4.483183	-12.999404	-19.162361
52621		-4.640978	-12.742578	-19.440504
52622		-4.804542	-12.510043	-19.715758
52623		-4.926905	-12.295086	-20.011797
52624		-5.050392	-12.117962	-20.322672
52625		-5.190031	-11.918963	-20.627606
52626		-5.346528	-11.661910	-20.937769
52627		-5.496015	-11.397515	-21.236024
52628		-5.579993	-11.160198	-21.497438
52629		-5.572943	-11.021624	-21.715946
52630		-5.662830	-10.945043	-21.984780
52631		-5.721129	-10.651114	-22.483096
52632		-5.955941	-10.268262	-23.182630
52633		-6.361417	-9.926262	-23.912080
52634		-6.625825	-9.644629	-24.552193
52635		-6.807471	-9.373305	-25.099248
52636		-7.100173	-9.108065	-25.573155
52637		-7.314195	-8.869979	-26.036955
52638		-7.384482	-8.646637	-26.440040
52639		-7.438668	-8.404238	-26.774327
52640		-7.502629	-8.190733	-27.139361
52641		-7.666624	-8.052417	-27.559149
52642		-7.915359	-7.884428	-27.993994
52643		-8.286232	-7.683145	-28.425677
52644		-8.680972	-7.539178	-28.821059
52645		-8.929393	-7.365577	-29.250421
52646		-9.235301	-7.185755	-29.713860
52647		-9.551230	-7.068555	-30.132741
52648		-9.673405	-6.970886	-30.552944
52649		-9.736813	-6.927721	-30.961387
52650		-9.829856	-6.944691	-31.305696
52651		-9.996944	-7.016311	-31.604358
52652		-10.125922	-7.095730	-31.930817
52653		-10.336582	-7.170307	-32.264381
52654		-10.676610	-7.212466	-32.552225
52655		-11.022006	-7.235152	-32.745158
52656		-11.149781	-7.244632	-32.843712
52657		-11.091116	-7.247557	-32.893261
52658		-11.113857	-7.248708	-32.914749
52659		-11.234109	-7.244976	-32.921427
52660		-11.357808	-7.225030	-32.892150
52661		-11.374591	-7.208554	-32.826741
52662		-11.302869	-7.224432	-32.741952
52663		-11.203966	-7.285655	-32.687332
52664		-11.137903	-7.365895	-32.681259
52665		-11.157930	-7.461600	-32.705300
52666		-11.207299	-7.572994	-32.753128
52667		-11.210632	-7.703362	-32.783833
52668		-11.185838	-7.846309	-32.784771
52669		-11.203379	-8.000380	-32.789851
52670		-11.202463	-8.175491	-32.793324
52671		-11.137856	-8.339764	-32.795756
52672		-11.080896	-8.487403	-32.837199
52673		-11.016628	-8.636848	-32.908409
52674		-10.910695	-8.777569	-32.991563
52675		-10.845766	-8.902666	-33.107298
52676		-10.774531	-9.039291	-33.238985
52677		-10.692255	-9.161887	-33.347542
52678		-10.594545	-9.259965	-33.433793
52679		-10.476960	-9.379302	-33.520737
52680		-10.383399	-9.509448	-33.590918
52681		-10.369279	-9.605211	-33.647889
52682		-10.397951	-9.673698	-33.703846
52683		-10.360666	-9.746130	-33.746091
52684		-10.251096	-9.820637	-33.756987
52685		-10.114555	-9.879546	-33.767324
52686		-10.008755	-9.940732	-33.781244
52687		-9.937336	-10.002681	-33.791975
52688		-9.858749	-10.063798	-33.804879
52689		-9.802599	-10.119512	-33.823760
52690		-9.781003	-10.162874	-33.845985
52691		-9.774099	-10.191723	-33.880416
52692		-9.765611	-10.217959	-33.909905
52693		-9.719268	-10.252646	-33.908951
52694		-9.646152	-10.275624	-33.887263
52695		-9.584769	-10.288460	-33.876209
52696		-9.551187	-10.300392	-33.869344
52697		-9.512547	-10.316401	-33.869365
52698		-9.453382	-10.336921	-33.899413
52699		-9.394841	-10.381000	-33.945906
52700		-9.328385	-10.446130	-33.993849
52701		-9.289048	-10.517288	-34.046910
52702		-9.251120	-10.589271	-34.100022
52703		-9.218267	-10.666676	-34.156706
52704		-9.174134	-10.737620	-34.212152
52705		-9.140858	-10.799924	-34.259621
52706		-9.106862	-10.844296	-34.290707
52707		-9.078428	-10.883318	-34.316755
52708		-9.056726	-10.912199	-34.336566
52709		-9.035068	-10.924249	-34.352784
52710		-9.005348	-10.929291	-34.365388
52711		-8.991299	-10.934298	-34.376911
52712		-8.967425	-10.947082	-34.376557
52713		-8.959109	-10.954875	-34.380077
52714		-8.952400	-10.968604	-34.376612
52715		-8.948981	-10.980756	-34.369814
52716		-8.936721	-10.988986	-34.351991
52717		-8.929293	-10.989156	-34.335401
52718		-8.935377	-10.983033	-34.330180
52719		-8.955526	-10.974142	-34.332932
52720		-8.972835	-10.974757	-34.338967
52721		-8.985214	-10.984235	-34.335006
52722		-9.008855	-10.983816	-34.336632
52723		-9.021121	-10.970116	-34.336743
52724		-9.003473	-10.966039	-34.331324
52725		-8.978868	-10.963713	-34.324970
52726		-8.955614	-10.955555	-34.316450
52727		-8.926747	-10.934291	-34.316421
52728		-8.849352	-10.925760	-34.312916
52729		-8.771638	-10.921895	-34.309950
52730		-8.672711	-10.910685	-34.345781
52731		-8.537763	-10.899633	-34.358835
52732		-8.454818	-10.904962	-34.332582
52733		-8.363817	-10.904576	-34.303923
52734		-8.267220	-10.872824	-34.272744
52735		-8.142011	-10.802217	-34.243636
52736		-8.051030	-10.762203	-34.192700
52737		-7.985661	-10.700947	-34.135104
52738		-7.976519	-10.637733	-34.063524
52739		-8.005456	-10.659214	-33.924506
52740		-7.955074	-10.685102	-33.740669
52741		-7.856289	-10.680280	-33.556164
52742		-7.727315	-10.619372	-33.401473
52743		-7.624544	-10.534169	-33.224791
52744		-7.512580	-10.432004	-33.010629
52745		-7.402081	-10.346681	-32.782874
52746		-7.301491	-10.277045	-32.542715
52747		-7.214644	-10.216477	-32.278547
52748		-7.091216	-10.164673	-32.011117
52749		-6.962274	-10.147625	-31.713653
52750		-6.866820	-10.141269	-31.405326
52751		-6.745164	-10.150113	-31.099610
52752		-6.622529	-10.178019	-30.775499
52753		-6.466554	-10.191790	-30.455354
52754		-6.318395	-10.193878	-30.150154
52755		-6.236863	-10.188707	-29.849044
52756		-6.167350	-10.215905	-29.503893
52757		-6.040032	-10.285070	-29.097071
52758		-5.905024	-10.347239	-28.670902
52759		-5.750739	-10.415037	-28.250994
52760		-5.576128	-10.530451	-27.795463
52761		-5.409042	-10.686433	-27.297509
52762		-5.172950	-10.823396	-26.789113
52763		-4.981039	-10.967511	-26.287601
52764		-4.870693	-11.145234	-25.810861
52765		-4.737989	-11.372816	-25.324867
52766		-4.557688	-11.579871	-24.828176
52767		-4.403276	-11.786792	-24.353614
52768		-4.216908	-12.052900	-23.901331
52769		-4.122457	-12.313241	-23.439591
52770		-4.064102	-12.541747	-22.987168
52771		-3.980382	-12.783196	-22.548113
52772		-3.851990	-13.047266	-22.127435
52773		-3.747189	-13.290097	-21.740330
52774		-3.614081	-13.550055	-21.380913
52775		-3.506756	-13.808412	-21.024959
52776		-3.363356	-14.046724	-20.660730
52777		-3.225552	-14.257967	-20.320203
52778		-3.103671	-14.453211	-20.014899
52779		-3.038510	-14.624781	-19.718859
52780		-2.935157	-14.846792	-19.425909
52781		-2.808390	-15.055965	-19.138899
52782		-2.753870	-15.199683	-18.879403
52783		-2.713508	-15.289479	-18.630378
52784		-2.631397	-15.425572	-18.370936
52785		-2.534076	-15.679386	-18.128305
52786		-2.405097	-15.909441	-17.904338
52787		-2.233046	-16.035075	-17.721794
52788		-2.027406	-16.048263	-17.560884
52789		-1.859936	-16.117716	-17.515178
52790		-1.715512	-16.287892	-17.619863
52791		-1.626032	-16.407207	-17.743109
52792		-1.566424	-16.486932	-17.856815
52793		-1.542558	-16.595834	-17.983077
52794		-1.525377	-16.665001	-18.110154
52795		-1.503728	-16.729583	-18.214905
52796		-1.467896	-16.767167	-18.284719
52797		-1.422970	-16.807029	-18.337632
52798		-1.386229	-16.821632	-18.386277
52799		-1.383966	-16.833497	-18.403611
52800		-1.412622	-16.837903	-18.394653
52801		-1.472294	-16.836092	-18.334717
52802		-1.520350	-16.833691	-18.251025
52803		-1.564311	-16.846014	-18.142392
52804		-1.597481	-16.842029	-18.015416
52805		-1.631744	-16.829950	-17.900942
52806		-1.658665	-16.823773	-17.799735
52807		-1.706525	-16.801554	-17.699844
52808		-1.745655	-16.778522	-17.600892
52809		-1.769243	-16.757436	-17.513296
52810		-1.789254	-16.764314	-17.466297
52811		-1.824475	-16.770202	-17.413416
52812		-1.814097	-16.801785	-17.321278
52813		-1.753997	-16.783402	-17.231743
52814		-1.700787	-16.790691	-17.181200
52815		-1.674642	-16.829775	-17.156213
52816		-1.677499	-16.833114	-17.113659
52817		-1.664381	-16.806580	-17.057539
52818		-1.624614	-16.776777	-17.028235
52819		-1.589052	-16.771990	-17.011905
52820		-1.606912	-16.791424	-16.969152
52821		-1.614889	-16.836596	-16.885346
52822		-1.593464	-16.859198	-16.795400
52823		-1.562220	-16.907836	-16.750421
52824		-1.554481	-16.938977	-16.725519
52825		-1.568030	-16.940462	-16.695705
52826		-1.571954	-16.926926	-16.677841
52827		-1.547405	-16.924956	-16.694380
52828		-1.529659	-16.941292	-16.697312
52829		-1.514214	-16.964459	-16.682955
52830		-1.506091	-17.000399	-16.671467
52831		-1.512620	-17.019704	-16.672008
52832		-1.536735	-17.051616	-16.678389
52833		-1.584961	-17.058938	-16.663021
52834		-1.601924	-17.051347	-16.632536
52835		-1.597377	-17.071080	-16.630678
52836		-1.606598	-17.095455	-16.638195
52837		-1.662087	-17.110549	-16.633218
52838		-1.715144	-17.109837	-16.630881
52839		-1.762473	-17.113516	-16.632214
52840		-1.788653	-17.130625	-16.646365
52841		-1.794801	-17.168303	-16.692102
52842		-1.805867	-17.222579	-16.775903
52843		-1.861848	-17.269264	-16.872228
52844		-1.922735	-17.274448	-16.989103
52845		-1.976491	-17.223826	-17.133234
52846		-2.049130	-17.149477	-17.271116
52847		-2.122431	-17.074514	-17.415752
52848		-2.175452	-16.972732	-17.561730
52849		-2.224834	-16.857245	-17.707553
52850		-2.276697	-16.759187	-17.875561
52851		-2.339123	-16.671257	-18.060134
52852		-2.437741	-16.546701	-18.229934
52853		-2.555397	-16.428505	-18.385897
52854		-2.663019	-16.289713	-18.526918
52855		-2.781223	-16.127167	-18.662574
52856		-2.928746	-15.984801	-18.783214
52857		-3.090123	-15.844984	-18.887666
52858		-3.274503	-15.729801	-18.989380
52859		-3.421414	-15.617580	-19.113494
52860		-3.591521	-15.455676	-19.258011
52861		-3.760121	-15.257693	-19.403286
52862		-3.909583	-15.061170	-19.540626
52863		-4.060458	-14.877766	-19.686173
52864		-4.225188	-14.694477	-19.834333
52865		-4.362280	-14.567001	-20.009108
52866		-4.503684	-14.463230	-20.177607
52867		-4.680250	-14.313409	-20.340414
52868		-4.840268	-14.136467	-20.512571
52869		-4.954138	-13.942245	-20.704157
52870		-5.085560	-13.738316	-20.910574
52871		-5.199731	-13.507395	-21.102858
52872		-5.289366	-13.294436	-21.301083
52873		-5.373879	-13.130608	-21.518722
52874		-5.471935	-12.990983	-21.767572
52875		-5.596891	-12.831671	-22.040102
52876		-5.744258	-12.641330	-22.317830
52877		-5.901816	-12.464778	-22.598428
52878		-6.091403	-12.307188	-22.864285
52879		-6.255463	-12.152561	-23.093975
52880		-6.257645	-11.926739	-23.303501
52881		-6.194020	-11.661834	-23.480706
52882		-6.241450	-11.437743	-23.713947
52883		-6.383430	-11.201979	-24.085827
52884		-6.650570	-10.976761	-24.613548
52885		-6.965368	-10.834659	-25.181773
52886		-7.178097	-10.780336	-25.682268
52887		-7.214934	-10.771488	-26.083966
52888		-7.195107	-10.707724	-26.445191
52889		-7.266422	-10.564388	-26.770053
52890		-7.332732	-10.380320	-27.028328
52891		-7.320858	-10.199917	-27.235063
52892		-7.377984	-9.970263	-27.434573
52893		-7.568006	-9.737619	-27.641610
52894		-7.762534	-9.548675	-27.828965
52895		-7.871809	-9.395674	-27.994928
52896		-7.890070	-9.252762	-28.164778
52897		-7.939000	-9.104823	-28.380177
52898		-8.036057	-8.969532	-28.657188
52899		-8.156601	-8.861547	-28.974475
52900		-8.294161	-8.781018	-29.313731
52901		-8.411348	-8.694050	-29.664194
52902		-8.518149	-8.582247	-30.065033
52903		-8.675096	-8.489444	-30.447808
52904		-8.788841	-8.404467	-30.744978
52905		-8.802926	-8.331470	-31.038882
52906		-8.813033	-8.294564	-31.335081
52907		-8.887320	-8.273747	-31.637025
52908		-9.012038	-8.302068	-31.909544
52909		-9.136225	-8.368276	-32.114737
52910		-9.366713	-8.420757	-32.283923
52911		-9.628088	-8.459839	-32.402345
52912		-9.712783	-8.457523	-32.474710
52913		-9.695962	-8.442928	-32.492716
52914		-9.644731	-8.446567	-32.453211
52915		-9.532177	-8.468821	-32.407522
52916		-9.431035	-8.491696	-32.414940
52917		-9.403429	-8.510626	-32.453339
52918		-9.435253	-8.525672	-32.472471
52919		-9.457961	-8.545829	-32.472563
52920		-9.416893	-8.566210	-32.469394
52921		-9.357859	-8.602910	-32.477650
52922		-9.318068	-8.672767	-32.503685
52923		-9.289973	-8.744693	-32.546154
52924		-9.302753	-8.804974	-32.606609
52925		-9.319184	-8.867729	-32.665811
52926		-9.314522	-8.931986	-32.709577
52927		-9.273949	-9.010905	-32.736296
52928		-9.203592	-9.104608	-32.751021
52929		-9.147379	-9.202558	-32.761600
52930		-9.118854	-9.297606	-32.782021
52931		-9.136844	-9.385649	-32.825640
52932		-9.159458	-9.484751	-32.867411
52933		-9.134179	-9.593624	-32.898949
52934		-9.086975	-9.714966	-32.922559
52935		-9.043157	-9.830544	-32.950658
52936		-9.002648	-9.957608	-32.991998
52937		-8.980833	-10.076629	-33.040788
52938		-8.964399	-10.182971	-33.103474
52939		-8.937631	-10.286673	-33.165976
52940		-8.871037	-10.410939	-33.210582
52941		-8.771189	-10.538232	-33.250190
52942		-8.691979	-10.650210	-33.298006
52943		-8.646403	-10.762658	-33.360322
52944		-8.599954	-10.877003	-33.404267
52945		-8.517004	-10.982838	-33.432389
52946		-8.405337	-11.062478	-33.455909
52947		-8.272027	-11.133816	-33.493017
52948		-8.154632	-11.206052	-33.545340
52949		-8.039724	-11.275899	-33.615720
52950		-7.934988	-11.350587	-33.700653
52951		-7.848793	-11.440163	-33.797465
52952		-7.774547	-11.530532	-33.897460
52953		-7.711162	-11.621909	-33.989261
52954		-7.656911	-11.710062	-34.074753
52955		-7.589569	-11.804606	-34.143149
52956		-7.541048	-11.898681	-34.195187
52957		-7.505901	-11.988070	-34.232184
52958		-7.470682	-12.080085	-34.253448
52959		-7.439902	-12.174355	-34.250111
52960		-7.411263	-12.268229	-34.244298
52961		-7.395578	-12.358877	-34.246644
52962		-7.391933	-12.455207	-34.248059
52963		-7.360418	-12.536909	-34.250809
52964		-7.336500	-12.583350	-34.257403
52965		-7.350258	-12.623849	-34.259290
52966		-7.363436	-12.686205	-34.247470
52967		-7.359869	-12.756640	-34.225225
52968		-7.340447	-12.811311	-34.204352
52969		-7.317296	-12.848884	-34.196387
52970		-7.285496	-12.884202	-34.202934
52971		-7.263090	-12.929514	-34.218360
52972		-7.261916	-12.963329	-34.241994
52973		-7.294686	-12.992132	-34.285165
52974		-7.303041	-13.039292	-34.329316
52975		-7.274400	-13.078117	-34.384204
52976		-7.269031	-13.078377	-34.451993
52977		-7.277983	-13.066694	-34.518818
52978		-7.274535	-13.055186	-34.562381
52979		-7.214066	-13.049305	-34.590047
52980		-7.111915	-13.048839	-34.605255
52981		-7.031596	-13.029311	-34.624057
52982		-7.002525	-12.997118	-34.678161
52983		-6.960714	-12.974886	-34.726275
52984		-6.907328	-12.955129	-34.748616
52985		-6.845609	-12.914426	-34.756278
52986		-6.779884	-12.881318	-34.733292
52987		-6.686357	-12.852898	-34.689386
52988		-6.620709	-12.799692	-34.689269
52989		-6.642455	-12.738001	-34.720527
52990		-6.617901	-12.663525	-34.734770
52991		-6.560527	-12.576408	-34.735853
52992		-6.526520	-12.494730	-34.750067
52993		-6.521830	-12.432068	-34.746400
52994		-6.495656	-12.363449	-34.708260
52995		-6.473327	-12.295317	-34.642808
52996		-6.480566	-12.250631	-34.547602
52997		-6.463730	-12.232101	-34.431470
52998		-6.428026	-12.217180	-34.304398
52999		-6.383466	-12.172234	-34.168900
53000		-6.334065	-12.092603	-34.016541
53001		-6.281032	-12.002232	-33.851735
53002		-6.221833	-11.898445	-33.676261
53003		-6.165219	-11.800536	-33.474265
53004		-6.100586	-11.717901	-33.262624
53005		-6.037678	-11.664692	-33.050063
53006		-5.983781	-11.620473	-32.816252
53007		-5.902584	-11.567721	-32.582955
53008		-5.810289	-11.528720	-32.346132
53009		-5.813410	-11.513027	-32.120269
53010		-5.825439	-11.471436	-31.920069
53011		-5.809657	-11.410763	-31.723252
53012		-5.735856	-11.358962	-31.506037
53013		-5.630104	-11.336864	-31.268536
53014		-5.535227	-11.353616	-31.013593
53015		-5.467535	-11.382896	-30.770127
53016		-5.446712	-11.396596	-30.519575
53017		-5.417782	-11.430923	-30.200073
53018		-5.313368	-11.519113	-29.781596
53019		-5.215339	-11.655616	-29.344710
53020		-5.152532	-11.784799	-28.925031
53021		-5.128835	-11.895399	-28.538951
53022		-5.077668	-12.015853	-28.137829
53023		-4.976910	-12.118601	-27.684818
53024		-4.835877	-12.236275	-27.211619
53025		-4.617635	-12.399525	-26.739458
53026		-4.412197	-12.588016	-26.265548
53027		-4.267476	-12.738623	-25.816950
53028		-4.178473	-12.877894	-25.403568
53029		-4.127674	-13.033233	-24.997483
53030		-4.043471	-13.174785	-24.591675
53031		-3.966789	-13.283864	-24.193814
53032		-3.863485	-13.474272	-23.791756
53033		-3.729563	-13.713902	-23.345166
53034		-3.623478	-13.937888	-22.875775
53035		-3.540473	-14.170313	-22.412168
53036		-3.436272	-14.412424	-21.934054
53037		-3.328246	-14.611706	-21.456226
53038		-3.178250	-14.759005	-21.028563
53039		-3.150397	-14.855368	-20.630523
53040		-3.158415	-14.952205	-20.252200
53041		-3.144528	-15.029833	-19.870819
53042		-3.118823	-15.081662	-19.488030
53043		-3.076278	-15.141159	-19.105565
53044		-2.986679	-15.214070	-18.734977
53045		-2.912003	-15.289688	-18.368640
53046		-2.840145	-15.401123	-18.010218
53047		-2.740276	-15.492450	-17.654516
53048		-2.584932	-15.519015	-17.390180
53049		-2.483625	-15.527362	-17.221708
53050		-2.380339	-15.605886	-17.099973
53051		-2.273408	-15.723549	-17.059957
53052		-2.133272	-15.820241	-17.090530
53053		-2.065268	-15.902698	-17.172657
53054		-2.023321	-15.981599	-17.302100
53055		-1.992035	-16.053575	-17.460721
53056		-1.950338	-16.092060	-17.594348
53057		-1.945063	-16.122910	-17.697474
53058		-1.938134	-16.131179	-17.780440
53059		-1.897243	-16.115835	-17.827612
53060		-1.881262	-16.098544	-17.846528
53061		-1.889093	-16.112425	-17.872770
53062		-1.935906	-16.118230	-17.882340
53063		-1.993312	-16.127397	-17.855268
53064		-2.047305	-16.122350	-17.798925
53065		-2.086816	-16.098246	-17.708740
53066		-2.116151	-16.080955	-17.601305
53067		-2.144365	-16.035288	-17.471639
53068		-2.176051	-16.003763	-17.337058
53069		-2.221338	-15.972442	-17.184011
53070		-2.223828	-15.898007	-17.030523
53071		-2.215084	-15.820775	-16.896402
53072		-2.245842	-15.751992	-16.805240
53073		-2.282639	-15.685662	-16.732073
53074		-2.307246	-15.679071	-16.635665
53075		-2.303853	-15.669474	-16.540895
53076		-2.265878	-15.619981	-16.470488
53077		-2.248707	-15.599274	-16.429118
53078		-2.230325	-15.585264	-16.392450
53079		-2.205123	-15.556049	-16.350105
53080		-2.175208	-15.528287	-16.303719
53081		-2.134516	-15.528426	-16.295946
53082		-2.112651	-15.531578	-16.295825
53083		-2.099798	-15.548793	-16.275831
53084		-2.099674	-15.532939	-16.265154
53085		-2.099815	-15.508129	-16.242784
53086		-2.079949	-15.498144	-16.179284
53087		-2.040891	-15.465834	-16.129808
53088		-1.990806	-15.425275	-16.109480
53089		-1.958174	-15.383170	-16.102361
53090		-1.939370	-15.336962	-16.090722
53091		-1.936644	-15.291994	-16.093653
53092		-1.955644	-15.257927	-16.100309
53093		-1.993620	-15.235142	-16.093743
53094		-2.041662	-15.222467	-16.053652
53095		-2.087049	-15.231859	-16.005560
53096		-2.114764	-15.233322	-15.969188
53097		-2.148240	-15.231560	-15.949530
53098		-2.182300	-15.225178	-15.931881
53099		-2.228106	-15.217174	-15.917983
53100		-2.253576	-15.231250	-15.905318
53101		-2.297759	-15.235858	-15.884679
53102		-2.361465	-15.207544	-15.888609
53103		-2.433947	-15.152671	-15.925291
53104		-2.505548	-15.074444	-15.991063
53105		-2.577263	-15.007244	-16.095723
53106		-2.648845	-14.941455	-16.214188
53107		-2.740136	-14.847098	-16.322405
53108		-2.824697	-14.771700	-16.425813
53109		-2.894630	-14.719024	-16.525915
53110		-2.959861	-14.654644	-16.631002
53111		-3.056452	-14.561099	-16.749582
53112		-3.167852	-14.458216	-16.883257
53113		-3.268724	-14.340402	-17.021615
53114		-3.374261	-14.196464	-17.174537
53115		-3.472358	-14.044589	-17.326433
53116		-3.543762	-13.898984	-17.485017
53117		-3.617386	-13.741557	-17.642277
53118		-3.717538	-13.585151	-17.813164
53119		-3.850188	-13.436492	-18.007696
53120		-3.973515	-13.279740	-18.196648
53121		-4.082500	-13.123980	-18.379102
53122		-4.183950	-12.982993	-18.564864
53123		-4.278798	-12.842210	-18.748508
53124		-4.366759	-12.694555	-18.924979
53125		-4.438855	-12.577686	-19.092490
53126		-4.507997	-12.512900	-19.284667
53127		-4.568187	-12.419440	-19.507270
53128		-4.621801	-12.265435	-19.742816
53129		-4.693585	-12.065144	-20.015760
53130		-4.784904	-11.873653	-20.303130
53131		-4.870486	-11.679021	-20.582543
53132		-4.925926	-11.487735	-20.879617
53133		-4.981729	-11.278503	-21.198650
53134		-4.940237	-11.054102	-21.556192
53135		-4.870060	-10.779224	-21.967155
53136		-5.035837	-10.434950	-22.436085
53137		-5.236251	-10.172610	-22.954125
53138		-5.398430	-9.996555	-23.442283
53139		-5.538329	-9.837508	-23.862690
53140		-5.708503	-9.676607	-24.252782
53141		-5.909044	-9.556749	-24.654946
53142		-6.108784	-9.423477	-25.035007
53143		-6.255236	-9.274342	-25.380647
53144		-6.360195	-9.156251	-25.729937
53145		-6.476213	-9.049677	-26.089499
53146		-6.628722	-8.909334	-26.456751
53147		-6.775377	-8.726650	-26.826982
53148		-6.878454	-8.529792	-27.174630
53149		-6.939459	-8.320834	-27.490717
53150		-7.014562	-8.072217	-27.839769
53151		-7.168713	-7.825932	-28.206113
53152		-7.399192	-7.598505	-28.569230
53153		-7.625746	-7.434969	-28.901241
53154		-7.794075	-7.339837	-29.168954
53155		-7.947112	-7.275047	-29.398819
53156		-8.021906	-7.237268	-29.671517
53157		-8.117959	-7.253913	-29.979244
53158		-8.363338	-7.276047	-30.291153
53159		-8.648357	-7.336980	-30.562521
53160		-8.941142	-7.404653	-30.784030
53161		-9.144225	-7.475181	-31.015123
53162		-9.313605	-7.554587	-31.221019
53163		-9.373166	-7.674976	-31.419013
53164		-9.362928	-7.848131	-31.615298
53165		-9.458505	-7.995958	-31.773900
53166		-9.689304	-8.075109	-31.869670
53167		-9.958658	-8.082818	-31.896800
53168		-10.089619	-8.049746	-31.838416
53169		-10.017724	-8.023992	-31.724889
53170		-9.833969	-8.020871	-31.596903
53171		-9.725047	-8.032640	-31.489459
53172		-9.747527	-8.067258	-31.435688
53173		-9.823518	-8.108300	-31.426572
53174		-9.901945	-8.146127	-31.420890
53175		-9.918275	-8.215196	-31.401621
53176		-9.872645	-8.300984	-31.390547
53177		-9.641466	-8.339436	-31.442155
53178		-9.483976	-8.290404	-31.584172
53179		-9.500061	-8.260172	-31.834071
53180		-9.636474	-8.316202	-32.116128
53181		-9.755022	-8.439243	-32.341556
53182		-9.738907	-8.581321	-32.480092
53183		-9.630367	-8.742783	-32.577554
53184		-9.501734	-8.904961	-32.679467
53185		-9.417182	-9.037922	-32.809708
53186		-9.390807	-9.171762	-32.973013
53187		-9.393918	-9.310833	-33.145922
53188		-9.411434	-9.442441	-33.314540
53189		-9.403103	-9.560207	-33.471686
53190		-9.404852	-9.654766	-33.602553
53191		-9.373680	-9.720029	-33.705552
53192		-9.221816	-9.795837	-33.828275
53193		-9.022178	-9.901016	-33.947924
53194		-8.916725	-9.999009	-34.055323
53195		-8.931012	-10.062174	-34.216313
53196		-8.940707	-10.152996	-34.395993
53197		-8.862955	-10.260378	-34.540590
53198		-8.754636	-10.353701	-34.642431
53199		-8.702194	-10.414282	-34.744274
53200		-8.685628	-10.470724	-34.838873
53201		-8.678993	-10.529082	-34.906709
53202		-8.698822	-10.571795	-34.954107
53203		-8.729359	-10.605264	-34.991871
53204		-8.771207	-10.625400	-35.012675
53205		-8.802348	-10.646013	-35.008511
53206		-8.783784	-10.676048	-34.977896
53207		-8.717183	-10.699515	-34.942299
53208		-8.673719	-10.725722	-34.906340
53209		-8.684029	-10.741671	-34.889457
53210		-8.741307	-10.762637	-34.889042
53211		-8.772986	-10.789973	-34.897482
53212		-8.765803	-10.809805	-34.905135
53213		-8.750924	-10.820420	-34.924409
53214		-8.765073	-10.822962	-34.962122
53215		-8.790511	-10.810472	-35.009665
53216		-8.788554	-10.781822	-35.050297
53217		-8.763378	-10.739876	-35.088453
53218		-8.750934	-10.710927	-35.135726
53219		-8.742705	-10.697492	-35.193006
53220		-8.755100	-10.674063	-35.256422
53221		-8.790568	-10.650392	-35.314630
53222		-8.778192	-10.641099	-35.342890
53223		-8.728753	-10.630864	-35.360417
53224		-8.680032	-10.636022	-35.372607
53225		-8.624851	-10.606972	-35.389731
53226		-8.597694	-10.545208	-35.408365
53227		-8.635427	-10.483340	-35.401101
53228		-8.641493	-10.458161	-35.365177
53229		-8.568823	-10.456014	-35.298293
53230		-8.522224	-10.440865	-35.243096
53231		-8.495209	-10.414511	-35.218181
53232		-8.487879	-10.362983	-35.219394
53233		-8.486911	-10.333175	-35.224717
53234		-8.460661	-10.341227	-35.222155
53235		-8.421218	-10.344131	-35.211849
53236		-8.386165	-10.335662	-35.204576
53237		-8.355554	-10.348280	-35.202428
53238		-8.300369	-10.351452	-35.198558
53239		-8.214769	-10.345516	-35.181297
53240		-8.161456	-10.350904	-35.169522
53241		-8.121024	-10.357962	-35.152711
53242		-8.099368	-10.336285	-35.102841
53243		-8.044407	-10.331426	-35.007979
53244		-7.947434	-10.330711	-34.878525
53245		-7.839328	-10.335276	-34.731041
53246		-7.723486	-10.332197	-34.565385
53247		-7.593049	-10.287147	-34.406303
53248		-7.502984	-10.247474	-34.254702
53249		-7.404881	-10.234805	-34.104175
53250		-7.247383	-10.207605	-33.955359
53251		-7.121136	-10.183272	-33.784874
53252		-6.969763	-10.147780	-33.598165
53253		-6.828138	-10.106472	-33.374096
53254		-6.667330	-10.028581	-33.131975
53255		-6.506290	-9.940302	-32.875411
53256		-6.312532	-9.845794	-32.601132
53257		-6.083179	-9.777183	-32.289825
53258		-5.902491	-9.765146	-31.956597
53259		-5.759073	-9.773884	-31.615020
53260		-5.638268	-9.790052	-31.254991
53261		-5.495693	-9.837069	-30.884326
53262		-5.335559	-9.916493	-30.474063
53263		-5.169536	-9.996183	-30.056719
53264		-5.050483	-10.072343	-29.673165
53265		-4.967141	-10.180559	-29.305921
53266		-4.868167	-10.302725	-28.919960
53267		-4.781053	-10.402258	-28.524832
53268		-4.714382	-10.522946	-28.154677
53269		-4.680981	-10.706185	-27.759112
53270		-4.604689	-10.890313	-27.335618
53271		-4.564296	-11.068469	-26.902139
53272		-4.486564	-11.239946	-26.480704
53273		-4.405097	-11.411408	-26.050397
53274		-4.327143	-11.558490	-25.595863
53275		-4.247161	-11.739682	-25.127293
53276		-4.168706	-11.926387	-24.660116
53277		-4.127520	-12.104959	-24.181540
53278		-4.006346	-12.249989	-23.712565
53279		-3.836404	-12.417802	-23.271127
53280		-3.803279	-12.629010	-22.846671
53281		-3.772371	-12.824907	-22.418166
53282		-3.685076	-12.974126	-21.990533
53283		-3.516796	-13.114390	-21.584949
53284		-3.396807	-13.278436	-21.166612
53285		-3.286212	-13.449455	-20.744902
53286		-3.135399	-13.627417	-20.344123
53287		-3.019883	-13.807489	-19.952368
53288		-2.998161	-13.947910	-19.563788
53289		-2.990777	-14.077013	-19.177321
53290		-2.902852	-14.210535	-18.833523
53291		-2.771692	-14.330742	-18.526342
53292		-2.614092	-14.475210	-18.257246
53293		-2.470206	-14.633491	-18.052258
53294		-2.345472	-14.826384	-17.917418
53295		-2.276967	-14.956992	-17.810136
53296		-2.119514	-15.037238	-17.721183
53297		-1.881160	-15.012085	-17.661647
53298		-1.623075	-15.038376	-17.684366
53299		-1.377458	-15.116622	-17.840296
53300		-1.385014	-15.288419	-18.038592
53301		-1.464665	-15.524459	-18.223803
53302		-1.488513	-15.676276	-18.386155
53303		-1.518825	-15.727087	-18.537627
53304		-1.441503	-15.770636	-18.676762
53305		-1.350868	-15.818074	-18.748228
53306		-1.330994	-15.879070	-18.753398
53307		-1.350528	-15.911110	-18.768478
53308		-1.417290	-15.913681	-18.778196
53309		-1.480612	-15.954501	-18.731868
53310		-1.532748	-15.975729	-18.639138
53311		-1.562497	-15.969112	-18.538096
53312		-1.590476	-15.964221	-18.430039
53313		-1.599672	-16.000549	-18.311638
53314		-1.614242	-16.017924	-18.190128
53315		-1.648544	-16.002771	-18.053260
53316		-1.671667	-15.991134	-17.936991
53317		-1.685803	-15.999273	-17.825002
53318		-1.706530	-15.999014	-17.712196
53319		-1.729212	-15.994653	-17.619431
53320		-1.724049	-15.988694	-17.540668
53321		-1.697843	-15.991779	-17.470584
53322		-1.679711	-16.014455	-17.399401
53323		-1.656995	-16.014484	-17.324700
53324		-1.623859	-16.019400	-17.246519
53325		-1.589638	-16.062859	-17.184080
53326		-1.522364	-16.123739	-17.135500
53327		-1.443790	-16.179402	-17.078886
53328		-1.368195	-16.246342	-17.045406
53329		-1.290531	-16.287096	-17.041747
53330		-1.242829	-16.303021	-17.049210
53331		-1.207547	-16.359815	-17.060263
53332		-1.175674	-16.410573	-17.046872
53333		-1.151304	-16.443463	-17.016671
53334		-1.110152	-16.481389	-16.988041
53335		-1.081379	-16.495164	-16.958681
53336		-1.049028	-16.493578	-16.944521
53337		-1.017283	-16.508599	-16.951354
53338		-0.996998	-16.530533	-16.951836
53339		-0.982984	-16.532815	-16.944368
53340		-0.975662	-16.523387	-16.929448
53341		-0.973105	-16.535678	-16.904431
53342		-0.985281	-16.576691	-16.874228
53343		-1.011182	-16.603748	-16.854897
53344		-1.039061	-16.596881	-16.848621
53345		-1.032701	-16.573475	-16.855589
53346		-1.014424	-16.539901	-16.872996
53347		-1.012812	-16.505172	-16.888450
53348		-1.055321	-16.491409	-16.908849
53349		-1.109295	-16.508671	-16.939651
53350		-1.164533	-16.503533	-16.978840
53351		-1.224241	-16.451670	-17.011855
53352		-1.257561	-16.338524	-17.051246
53353		-1.317241	-16.240405	-17.108998
53354		-1.346780	-16.188279	-17.176232
53355		-1.339614	-16.159008	-17.232992
53356		-1.341055	-16.127136	-17.275813
53357		-1.362862	-16.103775	-17.317235
53358		-1.365619	-16.099219	-17.362879
53359		-1.339454	-16.121760	-17.417484
53360		-1.340988	-16.134347	-17.481886
53361		-1.342122	-16.105829	-17.570823
53362		-1.337767	-16.056325	-17.678717
53363		-1.350605	-16.001483	-17.777492
53364		-1.357135	-15.955497	-17.858318
53365		-1.325654	-15.918226	-17.938185
53366		-1.302475	-15.856707	-18.019052
53367		-1.308754	-15.752683	-18.113061
53368		-1.342444	-15.649983	-18.222849
53369		-1.386761	-15.549933	-18.357967
53370		-1.466132	-15.436821	-18.474845
53371		-1.556898	-15.306758	-18.574312
53372		-1.608711	-15.174305	-18.653724
53373		-1.645671	-15.042298	-18.724196
53374		-1.715763	-14.912552	-18.800083
53375		-1.804069	-14.798945	-18.887887
53376		-1.881264	-14.708470	-18.972456
53377		-1.975634	-14.605529	-19.044307
53378		-2.052811	-14.505349	-19.113653
53379		-2.071537	-14.434083	-19.203167
53380		-2.116727	-14.308010	-19.340648
53381		-2.206978	-14.114799	-19.531906
53382		-2.283290	-13.890077	-19.737247
53383		-2.368086	-13.629726	-19.935402
53384		-2.469173	-13.363411	-20.111122
53385		-2.571142	-13.101746	-20.280896
53386		-2.665817	-12.879791	-20.457490
53387		-2.776463	-12.697031	-20.647927
53388		-2.919153	-12.549267	-20.852403
53389		-3.061894	-12.415362	-21.068503
53390		-3.222859	-12.268435	-21.279058
53391		-3.396406	-12.088824	-21.483859
53392		-3.525548	-11.923070	-21.698458
53393		-3.655237	-11.727588	-21.901307
53394		-3.777088	-11.495206	-22.081444
53395		-3.835627	-11.273172	-22.248173
53396		-3.874196	-11.079067	-22.410323
53397		-3.926243	-10.831319	-22.585100
53398		-4.022686	-10.515377	-22.814263
53399		-4.169871	-10.254704	-23.115184
53400		-4.297095	-10.022418	-23.468026
53401		-4.397186	-9.769089	-23.848357
53402		-4.565647	-9.519769	-24.230052
53403		-4.825094	-9.301727	-24.588004
53404		-5.035771	-9.095011	-24.899197
53405		-5.203904	-8.887065	-25.175571
53406		-5.377949	-8.697162	-25.428658
53407		-5.550524	-8.506637	-25.672666
53408		-5.697537	-8.359638	-25.888189
53409		-5.841963	-8.211834	-26.060456
53410		-6.015374	-8.066090	-26.216772
53411		-6.240673	-7.933002	-26.375471
53412		-6.477477	-7.787086	-26.527278
53413		-6.678861	-7.657313	-26.685888
53414		-6.874692	-7.555349	-26.842100
53415		-7.052053	-7.429982	-27.006685
53416		-7.254572	-7.292863	-27.190465
53417		-7.449019	-7.169690	-27.369489
53418		-7.575390	-7.057986	-27.550642
53419		-7.715399	-6.938249	-27.742317
53420		-7.905084	-6.831058	-27.958820
53421		-8.083254	-6.711067	-28.194628
53422		-8.254871	-6.575115	-28.451971
53423		-8.434661	-6.456052	-28.718767
53424		-8.639095	-6.366511	-28.983120
53425		-8.802297	-6.264781	-29.251775
53426		-8.915601	-6.177592	-29.524235
53427		-9.007543	-6.113729	-29.814170
53428		-9.077660	-6.060762	-30.132475
53429		-9.171756	-6.020255	-30.496241
53430		-9.367141	-5.986769	-30.889794
53431		-9.695085	-6.011248	-31.266102
53432		-9.943488	-6.033863	-31.565522
53433		-10.100965	-6.040979	-31.790804
53434		-10.262639	-6.044582	-31.962256
53435		-10.375314	-6.059800	-32.119469
53436		-10.448540	-6.075204	-32.267181
53437		-10.565680	-6.078257	-32.362454
53438		-10.671821	-6.083683	-32.393560
53439		-10.713376	-6.102555	-32.372039
53440		-10.697904	-6.088926	-32.321833
53441		-10.645309	-6.072994	-32.264964
53442		-10.601438	-6.076966	-32.217243
53443		-10.560801	-6.114935	-32.193912
53444		-10.516877	-6.183542	-32.177446
53445		-10.493769	-6.283377	-32.173516
53446		-10.488283	-6.398197	-32.193032
53447		-10.483970	-6.522850	-32.222880
53448		-10.447202	-6.658800	-32.263488
53449		-10.390600	-6.815541	-32.314307
53450		-10.308160	-6.984082	-32.381324
53451		-10.257847	-7.149969	-32.462424
53452		-10.256315	-7.311491	-32.555194
53453		-10.278374	-7.453763	-32.648704
53454		-10.258311	-7.577860	-32.731895
53455		-10.195487	-7.699816	-32.777944
53456		-10.090915	-7.813986	-32.812608
53457		-9.931200	-7.936540	-32.868005
53458		-9.802418	-8.057792	-32.937999
53459		-9.728867	-8.165076	-33.014182
53460		-9.645715	-8.278506	-33.100561
53461		-9.550355	-8.398484	-33.187086
53462		-9.486195	-8.534620	-33.276663
53463		-9.446397	-8.685288	-33.370668
53464		-9.398514	-8.825072	-33.463135
53465		-9.385303	-8.917013	-33.534631
53466		-9.364875	-8.979902	-33.574259
53467		-9.306811	-9.043625	-33.570890
53468		-9.221987	-9.100270	-33.543089
53469		-9.136743	-9.128902	-33.522378
53470		-9.029251	-9.152233	-33.515241
53471		-8.912194	-9.183947	-33.518346
53472		-8.820610	-9.194233	-33.529042
53473		-8.766030	-9.202080	-33.551678
53474		-8.755049	-9.232442	-33.593362
53475		-8.764050	-9.267330	-33.633799
53476		-8.769376	-9.291035	-33.649633
53477		-8.785441	-9.308971	-33.640743
53478		-8.750468	-9.332643	-33.615948
53479		-8.665520	-9.362943	-33.591196
53480		-8.589289	-9.388630	-33.592219
53481		-8.565075	-9.414568	-33.627380
53482		-8.555430	-9.455582	-33.680180
53483		-8.555617	-9.497445	-33.729365
53484		-8.544441	-9.512640	-33.775188
53485		-8.530793	-9.522289	-33.821210
53486		-8.499336	-9.544185	-33.862713
53487		-8.445030	-9.571597	-33.896907
53488		-8.406575	-9.603010	-33.928259
53489		-8.377171	-9.650375	-33.958362
53490		-8.337837	-9.699421	-33.986107
53491		-8.279733	-9.751232	-34.012660
53492		-8.236461	-9.808025	-34.043952
53493		-8.222962	-9.870751	-34.078121
53494		-8.202815	-9.933515	-34.118045
53495		-8.177582	-9.990526	-34.160098
53496		-8.139024	-10.030025	-34.199329
53497		-8.078076	-10.054661	-34.231629
53498		-7.989541	-10.096235	-34.241903
53499		-7.886216	-10.140722	-34.244093
53500		-7.761272	-10.170717	-34.242617
53501		-7.622765	-10.188045	-34.238365
53502		-7.477833	-10.181074	-34.234741
53503		-7.311702	-10.140001	-34.249768
53504		-7.154973	-10.104404	-34.263170
53505		-7.008044	-10.062832	-34.280769
53506		-6.869273	-9.981250	-34.307093
53507		-6.780021	-9.930193	-34.336529
53508		-6.715579	-9.932251	-34.330870
53509		-6.682930	-9.922002	-34.300916
53510		-6.666729	-9.900191	-34.256719
53511		-6.665202	-9.877307	-34.180921
53512		-6.690008	-9.859953	-34.053076
53513		-6.695686	-9.862849	-33.866959
53514		-6.644056	-9.861504	-33.633356
53515		-6.534778	-9.851991	-33.385575
53516		-6.394112	-9.846080	-33.125392
53517		-6.206464	-9.865785	-32.884789
53518		-6.111244	-9.949824	-32.608943
53519		-6.065610	-10.003464	-32.305421
53520		-5.931329	-9.987219	-32.003100
53521		-5.815280	-9.951241	-31.696977
53522		-5.694478	-9.928730	-31.373099
53523		-5.568695	-9.926836	-31.007180
53524		-5.433759	-9.940556	-30.629718
53525		-5.309720	-9.983954	-30.230664
53526		-5.189611	-10.053457	-29.796268
53527		-5.082406	-10.116713	-29.339035
53528		-4.959504	-10.172983	-28.884291
53529		-4.874922	-10.244274	-28.442815
53530		-4.829067	-10.327514	-27.989194
53531		-4.803115	-10.442775	-27.536357
53532		-4.735563	-10.626938	-27.092894
53533		-4.648361	-10.840591	-26.648863
53534		-4.543921	-11.026040	-26.210095
53535		-4.497716	-11.207023	-25.817771
53536		-4.443747	-11.385253	-25.459261
53537		-4.441458	-11.553999	-25.093735
53538		-4.394704	-11.709109	-24.725015
53539		-4.320454	-11.885053	-24.338927
53540		-4.212326	-12.050534	-23.944435
53541		-4.016438	-12.210866	-23.561009
53542		-3.816947	-12.344864	-23.183024
53543		-3.643557	-12.436034	-22.825294
53544		-3.458201	-12.493211	-22.466790
53545		-3.275010	-12.545106	-22.088614
53546		-3.100067	-12.591294	-21.724073
53547		-2.928914	-12.648086	-21.400518
53548		-2.791662	-12.744611	-21.102227
53549		-2.750666	-12.824467	-20.788583
53550		-2.722349	-12.918894	-20.474724
53551		-2.623316	-13.046573	-20.192387
53552		-2.534580	-13.203479	-19.936004
53553		-2.519524	-13.363290	-19.665073
53554		-2.489841	-13.547043	-19.387349
53555		-2.427489	-13.727653	-19.128748
53556		-2.297260	-13.867530	-18.860963
53557		-2.134512	-13.978034	-18.632063
53558		-1.989487	-14.123854	-18.508749
53559		-1.897395	-14.232967	-18.448231
53560		-1.821944	-14.270842	-18.380183
53561		-1.725757	-14.292175	-18.313197
53562		-1.631468	-14.398168	-18.275526
53563		-1.529021	-14.549096	-18.326992
53564		-1.463025	-14.755876	-18.408790
53565		-1.371984	-14.914992	-18.489707
53566		-1.272708	-14.962265	-18.612441
53567		-1.220702	-14.989457	-18.755477
53568		-1.194435	-15.074967	-18.843724
53569		-1.184467	-15.188478	-18.881286
53570		-1.174469	-15.293236	-18.921300
53571		-1.191763	-15.368261	-18.951829
53572		-1.253742	-15.411826	-18.964945
53573		-1.329237	-15.453315	-18.918519
53574		-1.370935	-15.499244	-18.823370
53575		-1.389783	-15.537178	-18.703379
53576		-1.408113	-15.576476	-18.565086
53577		-1.425206	-15.590937	-18.407024
53578		-1.425829	-15.614954	-18.262007
53579		-1.459734	-15.625333	-18.097945
53580		-1.480919	-15.597604	-17.906116
53581		-1.477393	-15.610151	-17.724853
53582		-1.469354	-15.646608	-17.564353
53583		-1.451055	-15.676325	-17.424694
53584		-1.441562	-15.690760	-17.291280
53585		-1.417194	-15.698394	-17.176140
53586		-1.385692	-15.700758	-17.067704
53587		-1.339519	-15.716830	-16.966475
53588		-1.260952	-15.766634	-16.903910
53589		-1.198009	-15.801775	-16.845890
53590		-1.131235	-15.850352	-16.778512
53591		-1.082331	-15.898097	-16.747900
53592		-1.020986	-15.962182	-16.722472
53593		-0.941252	-16.030682	-16.658755
53594		-0.846972	-16.055875	-16.602022
53595		-0.777332	-16.077253	-16.562274
53596		-0.729808	-16.114615	-16.524757
53597		-0.688367	-16.141388	-16.476681
53598		-0.616811	-16.176666	-16.418133
53599		-0.522601	-16.248436	-16.369038
53600		-0.435001	-16.278739	-16.329602
53601		-0.345134	-16.286486	-16.300000
53602		-0.258680	-16.303256	-16.273358
53603		-0.194283	-16.325836	-16.272342
53604		-0.148808	-16.345655	-16.283402
53605		-0.095846	-16.382375	-16.299104
53606		-0.050137	-16.428599	-16.310385
53607		-0.024069	-16.460482	-16.330342
53608		0.008888	-16.489128	-16.361266
53609		0.062622	-16.513422	-16.388887
53610		0.096194	-16.515355	-16.392776
53611		0.107420	-16.509695	-16.375091
53612		0.116819	-16.504529	-16.351086
53613		0.107127	-16.499843	-16.322584
53614		0.084990	-16.523808	-16.299027
53615		0.003998	-16.582834	-16.295236
53616		-0.108453	-16.663196	-16.306744
53617		-0.214554	-16.707240	-16.296768
53618		-0.305503	-16.716368	-16.293523
53619		-0.430852	-16.691046	-16.301646
53620		-0.545390	-16.638489	-16.299950
53621		-0.588233	-16.592000	-16.290410
53622		-0.621489	-16.541531	-16.314384
53623		-0.675106	-16.548574	-16.384387
53624		-0.738612	-16.608522	-16.478158
53625		-0.817308	-16.708289	-16.577107
53626		-0.942021	-16.832837	-16.693277
53627		-1.061136	-16.942627	-16.835133
53628		-1.104643	-16.925273	-16.956543
53629		-1.166177	-16.809602	-17.090125
53630		-1.232854	-16.662070	-17.257074
53631		-1.270289	-16.490298	-17.456365
53632		-1.338334	-16.292978	-17.635594
53633		-1.465814	-16.087969	-17.796538
53634		-1.582657	-15.918958	-17.982270
53635		-1.688036	-15.774117	-18.181749
53636		-1.797377	-15.635256	-18.355289
53637		-1.877064	-15.501058	-18.518453
53638		-1.947355	-15.367857	-18.689341
53639		-2.033914	-15.194041	-18.864112
53640		-2.132252	-14.973804	-19.014403
53641		-2.209057	-14.785345	-19.150203
53642		-2.278187	-14.655520	-19.293393
53643		-2.419573	-14.540241	-19.457179
53644		-2.559070	-14.460926	-19.662588
53645		-2.659938	-14.351334	-19.890308
53646		-2.797844	-14.118908	-20.112875
53647		-2.964730	-13.862501	-20.337736
53648		-3.110949	-13.616543	-20.542020
53649		-3.223914	-13.388900	-20.749156
53650		-3.295156	-13.176168	-20.970722
53651		-3.367055	-12.963632	-21.202357
53652		-3.480977	-12.746964	-21.431499
53653		-3.593105	-12.552909	-21.656798
53654		-3.683741	-12.418811	-21.894852
53655		-3.735809	-12.251639	-22.161362
53656		-3.784830	-12.079121	-22.436321
53657		-3.867578	-11.928160	-22.713746
53658		-3.995013	-11.757793	-23.001927
53659		-4.163429	-11.579840	-23.286208
53660		-4.304138	-11.433903	-23.581787
53661		-4.462287	-11.327344	-23.869856
53662		-4.638152	-11.224842	-24.146563
53663		-4.823034	-11.138991	-24.418024
53664		-4.963017	-11.023258	-24.717025
53665		-5.149079	-10.858837	-25.039275
53666		-5.334168	-10.684595	-25.357716
53667		-5.520199	-10.520988	-25.659905
53668		-5.662382	-10.376700	-25.940433
53669		-5.695928	-10.248992	-26.228225
53670		-5.654342	-10.161754	-26.542513
53671		-5.816391	-10.082873	-26.859008
53672		-6.078366	-9.990597	-27.140647
53673		-6.279620	-9.888484	-27.363080
53674		-6.422308	-9.825448	-27.537634
53675		-6.510589	-9.772692	-27.703666
53676		-6.614959	-9.696987	-27.885921
53677		-6.740390	-9.605519	-28.067898
53678		-6.857155	-9.521445	-28.257630
53679		-7.007719	-9.431600	-28.452762
53680		-7.193793	-9.329158	-28.640297
53681		-7.346345	-9.242859	-28.796462
53682		-7.436565	-9.140560	-28.928764
53683		-7.522666	-9.023873	-29.068091
53684		-7.642598	-8.912745	-29.221171
53685		-7.762222	-8.817566	-29.386718
53686		-7.897842	-8.741199	-29.586340
53687		-8.069488	-8.673610	-29.795447
53688		-8.256110	-8.610706	-29.996836
53689		-8.440348	-8.523567	-30.177361
53690		-8.648496	-8.407327	-30.348653
53691		-8.839548	-8.280322	-30.504982
53692		-8.988710	-8.147657	-30.648176
53693		-9.156392	-8.001474	-30.790002
53694		-9.268217	-7.860145	-30.946984
53695		-9.358209	-7.713597	-31.152202
53696		-9.461685	-7.606320	-31.365280
53697		-9.595146	-7.498621	-31.565346
53698		-9.693583	-7.418889	-31.746109
53699		-9.776819	-7.373245	-31.909471
53700		-9.959556	-7.335298	-32.029124
53701		-10.170752	-7.296339	-32.104344
53702		-10.298995	-7.262010	-32.126103
53703		-10.327697	-7.228360	-32.088969
53704		-10.308206	-7.218844	-32.018182
53705		-10.290696	-7.224191	-31.953086
53706		-10.302258	-7.220601	-31.921223
53707		-10.359874	-7.228781	-31.916623
53708		-10.395630	-7.262534	-31.919597
53709		-10.390280	-7.322869	-31.919115
53710		-10.370784	-7.403683	-31.925509
53711		-10.367970	-7.508142	-31.936036
53712		-10.338318	-7.622863	-31.940114
53713		-10.332345	-7.746194	-31.963863
53714		-10.299050	-7.877951	-32.009267
53715		-10.233213	-7.995124	-32.066577
53716		-10.153678	-8.100580	-32.137195
53717		-10.131117	-8.205705	-32.209383
53718		-10.153049	-8.302196	-32.277042
53719		-10.150195	-8.392364	-32.331220
53720		-10.140585	-8.480751	-32.367237
53721		-10.107427	-8.559618	-32.405325
53722		-10.018917	-8.646159	-32.453021
53723		-9.868123	-8.731751	-32.529520
53724		-9.760859	-8.822198	-32.640371
53725		-9.724421	-8.931079	-32.776805
53726		-9.706251	-9.052683	-32.914721
53727		-9.620923	-9.164091	-33.039954
53728		-9.526904	-9.262408	-33.148429
53729		-9.451748	-9.356177	-33.260641
53730		-9.349948	-9.455681	-33.388784
53731		-9.287593	-9.549045	-33.526289
53732		-9.294374	-9.638183	-33.648408
53733		-9.285551	-9.716307	-33.760067
53734		-9.192836	-9.795092	-33.855675
53735		-9.079749	-9.876933	-33.922313
53736		-8.988474	-9.947197	-33.973771
53737		-8.877585	-9.991965	-34.016588
53738		-8.775454	-10.029252	-34.051002
53739		-8.709044	-10.066042	-34.080794
53740		-8.621228	-10.112520	-34.112598
53741		-8.517534	-10.167309	-34.149236
53742		-8.428610	-10.221431	-34.186485
53743		-8.355147	-10.263722	-34.226686
53744		-8.267011	-10.314595	-34.257722
53745		-8.188352	-10.378238	-34.274904
53746		-8.124089	-10.464164	-34.283291
53747		-8.082640	-10.561457	-34.281600
53748		-8.047779	-10.653407	-34.271753
53749		-7.998450	-10.724788	-34.261052
53750		-7.941283	-10.786203	-34.258279
53751		-7.878552	-10.865975	-34.275125
53752		-7.807627	-10.960493	-34.297861
53753		-7.746333	-11.041857	-34.331332
53754		-7.707355	-11.105558	-34.364634
53755		-7.667472	-11.149785	-34.390837
53756		-7.605192	-11.191986	-34.410083
53757		-7.535896	-11.223871	-34.437107
53758		-7.486704	-11.249898	-34.476440
53759		-7.436216	-11.274570	-34.527876
53760		-7.380886	-11.292393	-34.585052
53761		-7.338668	-11.302243	-34.630652
53762		-7.278038	-11.298746	-34.672473
53763		-7.185281	-11.275297	-34.717384
53764		-7.112327	-11.268410	-34.740888
53765		-7.021320	-11.251921	-34.765972
53766		-6.920581	-11.264062	-34.805176
53767		-6.823224	-11.264968	-34.848691
53768		-6.742830	-11.210531	-34.883538
53769		-6.635512	-11.161121	-34.930554
53770		-6.475859	-11.166139	-34.965383
53771		-6.387671	-11.211986	-34.963459
53772		-6.334392	-11.237824	-34.949820
53773		-6.308306	-11.214733	-34.912380
53774		-6.276752	-11.188687	-34.843545
53775		-6.253414	-11.202688	-34.730981
53776		-6.203117	-11.215437	-34.573201
53777		-6.108412	-11.208387	-34.409705
53778		-6.063933	-11.186892	-34.230283
53779		-5.969707	-11.124749	-34.043903
53780		-5.871822	-11.068433	-33.851171
53781		-5.767686	-11.012137	-33.645545
53782		-5.676495	-10.944957	-33.434217
53783		-5.636270	-10.867248	-33.214279
53784		-5.560127	-10.794011	-32.968588
53785		-5.408402	-10.726258	-32.685502
53786		-5.241475	-10.687452	-32.359657
53787		-5.142261	-10.683620	-32.023509
53788		-5.055801	-10.700163	-31.706172
53789		-4.966877	-10.733279	-31.384788
53790		-4.907291	-10.787023	-31.032753
53791		-4.810297	-10.844476	-30.682305
53792		-4.739969	-10.871085	-30.354337
53793		-4.769551	-10.932374	-30.030424
53794		-4.789906	-11.030781	-29.659512
53795		-4.759096	-11.155217	-29.268341
53796		-4.746447	-11.292019	-28.864975
53797		-4.670209	-11.433841	-28.452138
53798		-4.519937	-11.537662	-28.049869
53799		-4.452220	-11.639970	-27.682468
53800		-4.470800	-11.796272	-27.326816
53801		-4.471220	-11.958102	-26.951116
53802		-4.429307	-12.094774	-26.570130
53803		-4.389300	-12.274162	-26.180666
53804		-4.301490	-12.414452	-25.792135
53805		-4.221242	-12.536398	-25.463530
53806		-4.146858	-12.642126	-25.174047
53807		-4.110587	-12.809203	-24.877854
53808		-4.014086	-12.971866	-24.546748
53809		-3.917235	-13.082362	-24.203946
53810		-3.799045	-13.195577	-23.889211
53811		-3.676098	-13.326208	-23.598336
53812		-3.572940	-13.456990	-23.315407
53813		-3.474380	-13.585501	-23.012603
53814		-3.368213	-13.665013	-22.701589
53815		-3.271590	-13.724269	-22.391780
53816		-3.172361	-13.778053	-22.084733
53817		-3.073927	-13.842516	-21.792527
53818		-2.961350	-13.947754	-21.511718
53819		-2.868849	-14.035801	-21.222701
53820		-2.805168	-14.114696	-20.950009
53821		-2.717722	-14.212764	-20.706517
53822		-2.615414	-14.303527	-20.471292
53823		-2.487383	-14.389372	-20.237605
53824		-2.303419	-14.493694	-20.064592
53825		-2.134057	-14.609410	-19.937133
53826		-2.033784	-14.746743	-19.848230
53827		-1.995570	-14.859075	-19.791209
53828		-1.921355	-14.934108	-19.730604
53829		-1.797132	-14.954325	-19.650072
53830		-1.656339	-15.005775	-19.593950
53831		-1.500555	-15.098704	-19.584829
53832		-1.399402	-15.168467	-19.569099
53833		-1.335959	-15.231853	-19.545937
53834		-1.249109	-15.289534	-19.523260
53835		-1.109573	-15.335902	-19.476530
53836		-0.954628	-15.355849	-19.433307
53837		-0.825104	-15.411741	-19.461673
53838		-0.756164	-15.494130	-19.531658
53839		-0.754307	-15.558333	-19.606462
53840		-0.766645	-15.624007	-19.674972
53841		-0.743403	-15.667715	-19.722432
53842		-0.710560	-15.682151	-19.742348
53843		-0.651217	-15.710228	-19.747595
53844		-0.636962	-15.751636	-19.753980
53845		-0.669524	-15.810982	-19.756696
53846		-0.725798	-15.857573	-19.757895
53847		-0.771490	-15.902476	-19.745774
53848		-0.817201	-15.946182	-19.749103
53849		-0.865328	-15.991836	-19.752240
53850		-0.931949	-16.029878	-19.730890
53851		-1.013652	-16.055636	-19.679350
53852		-1.112592	-16.065835	-19.600508
53853		-1.189668	-16.088135	-19.505489
53854		-1.251385	-16.097429	-19.394028
53855		-1.304959	-16.094709	-19.256028
53856		-1.360481	-16.064870	-19.119054
53857		-1.384407	-16.065016	-18.967440
53858		-1.407781	-16.075132	-18.810274
53859		-1.430232	-16.073674	-18.665322
53860		-1.442672	-16.093247	-18.529583
53861		-1.451460	-16.093065	-18.404131
53862		-1.454884	-16.094138	-18.299080
53863		-1.467280	-16.086128	-18.202531
53864		-1.461592	-16.095834	-18.102500
53865		-1.428478	-16.110584	-18.005451
53866		-1.375539	-16.126971	-17.909268
53867		-1.312115	-16.155051	-17.809604
53868		-1.255743	-16.171932	-17.747516
53869		-1.204549	-16.153846	-17.694685
53870		-1.144823	-16.130335	-17.615570
53871		-1.095700	-16.127709	-17.556942
53872		-1.049000	-16.150889	-17.541300
53873		-0.998425	-16.170132	-17.504211
53874		-0.930590	-16.188357	-17.462474
53875		-0.876992	-16.187265	-17.440569
53876		-0.833215	-16.200795	-17.452223
53877		-0.815546	-16.228360	-17.467738
53878		-0.842110	-16.260856	-17.463924
53879		-0.857765	-16.267781	-17.450840
53880		-0.852043	-16.265201	-17.435679
53881		-0.851866	-16.262401	-17.415499
53882		-0.862157	-16.254064	-17.373893
53883		-0.894178	-16.243374	-17.309386
53884		-0.959852	-16.211464	-17.241158
53885		-1.016123	-16.183790	-17.206334
53886		-1.070855	-16.156959	-17.172389
53887		-1.113994	-16.148177	-17.135733
53888		-1.146597	-16.124906	-17.111289
53889		-1.188948	-16.113342	-17.136918
53890		-1.241775	-16.102844	-17.177202
53891		-1.297834	-16.070603	-17.225336
53892		-1.352444	-16.097329	-17.307271
53893		-1.370639	-16.082074	-17.443942
53894		-1.417539	-16.026829	-17.617471
53895		-1.480439	-15.951891	-17.809976
53896		-1.527420	-15.858281	-18.026703
53897		-1.550172	-15.726021	-18.252074
53898		-1.561948	-15.575629	-18.490138
53899		-1.596329	-15.436298	-18.729528
53900		-1.664479	-15.316455	-18.956248
53901		-1.724304	-15.260349	-19.149306
53902		-1.762203	-15.156275	-19.311798
53903		-1.874142	-15.003062	-19.462582
53904		-2.017681	-14.826916	-19.629079
53905		-2.153377	-14.627881	-19.779744
53906		-2.283743	-14.401964	-19.904111
53907		-2.391712	-14.179467	-20.043506
53908		-2.490966	-13.943932	-20.194299
53909		-2.595808	-13.683482	-20.349012
53910		-2.712804	-13.441397	-20.523284
53911		-2.842420	-13.254033	-20.711150
53912		-2.971343	-13.107767	-20.913686
53913		-3.089129	-12.934899	-21.125610
53914		-3.256161	-12.720371	-21.337343
53915		-3.454137	-12.518561	-21.552558
53916		-3.604500	-12.314819	-21.755128
53917		-3.726382	-12.066745	-21.944404
53918		-3.836654	-11.832680	-22.155514
53919		-4.004211	-11.624771	-22.397394
53920		-4.195424	-11.400638	-22.651193
53921		-4.351841	-11.170665	-22.924882
53922		-4.495033	-10.991555	-23.223035
53923		-4.657842	-10.818729	-23.551800
53924		-4.833214	-10.642096	-23.888712
53925		-4.979818	-10.463431	-24.225015
53926		-5.151514	-10.283236	-24.557379
53927		-5.313093	-10.054769	-24.901653
53928		-5.459037	-9.815585	-25.284879
53929		-5.624392	-9.608211	-25.665572
53930		-5.771181	-9.410924	-26.041928
53931		-5.961060	-9.207608	-26.414069
53932		-6.217854	-8.996216	-26.779039
53933		-6.470508	-8.805609	-27.119963
53934		-6.667986	-8.631149	-27.454611
53935		-6.799300	-8.477109	-27.776881
53936		-6.968394	-8.337149	-28.106866
53937		-7.199210	-8.210249	-28.444453
53938		-7.419691	-8.081990	-28.759543
53939		-7.562139	-7.984214	-29.057424
53940		-7.678770	-7.834800	-29.369302
53941		-7.818838	-7.626939	-29.728918
53942		-7.842475	-7.437660	-30.121008
53943		-7.825988	-7.288797	-30.559129
53944		-7.987472	-7.173934	-31.081661
53945		-8.255453	-7.124805	-31.592357
53946		-8.435985	-7.143822	-32.031268
53947		-8.528221	-7.161866	-32.400930
53948		-8.627501	-7.177442	-32.726032
53949		-8.711240	-7.243096	-33.042859
53950		-8.789114	-7.302828	-33.354938
53951		-8.997649	-7.346329	-33.668650
53952		-9.255570	-7.376822	-33.997030
53953		-9.481722	-7.427225	-34.286161
53954		-9.707007	-7.437689	-34.487389
53955		-9.823430	-7.400154	-34.626295
53956		-9.838663	-7.388055	-34.731651
53957		-9.827990	-7.392795	-34.806804
53958		-9.839881	-7.396302	-34.878531
53959		-9.837518	-7.418924	-34.977796
53960		-9.824795	-7.479109	-35.081322
53961		-9.883477	-7.562476	-35.162157
53962		-9.971230	-7.623929	-35.201815
53963		-10.020509	-7.640299	-35.175061
53964		-10.002362	-7.637843	-35.115894
53965		-9.933168	-7.666299	-35.066071
53966		-9.904700	-7.733399	-35.036543
53967		-9.938249	-7.811169	-35.034317
53968		-9.993763	-7.869857	-35.056196
53969		-10.030767	-7.899927	-35.082730
53970		-10.034702	-7.934892	-35.093703
53971		-9.991931	-8.005895	-35.073522
53972		-9.881979	-8.083536	-35.064347
53973		-9.786452	-8.180746	-35.076320
53974		-9.769548	-8.264144	-35.095053
53975		-9.777375	-8.312580	-35.131246
53976		-9.784397	-8.330920	-35.182862
53977		-9.756294	-8.330997	-35.223640
53978		-9.685894	-8.350471	-35.249749
53979		-9.612300	-8.383763	-35.280921
53980		-9.540459	-8.409999	-35.308286
53981		-9.491056	-8.418541	-35.331320
53982		-9.474933	-8.404332	-35.356432
53983		-9.484265	-8.391787	-35.388495
53984		-9.477391	-8.390410	-35.412764
53985		-9.441595	-8.393150	-35.430481
53986		-9.397974	-8.385688	-35.450165
53987		-9.380692	-8.380520	-35.474469
53988		-9.365251	-8.395568	-35.490524
53989		-9.350580	-8.419720	-35.495644
53990		-9.345936	-8.445159	-35.488594
53991		-9.323855	-8.475119	-35.465498
53992		-9.278235	-8.505172	-35.428678
53993		-9.225500	-8.542432	-35.399029
53994		-9.193574	-8.587793	-35.397571
53995		-9.186891	-8.626972	-35.425303
53996		-9.187385	-8.653420	-35.460839
53997		-9.187240	-8.677100	-35.490885
53998		-9.184009	-8.703327	-35.512244
53999		-9.154705	-8.731563	-35.530235
54000		-9.131077	-8.746890	-35.550968
54001		-9.124533	-8.763040	-35.579561
54002		-9.107207	-8.780895	-35.595066
54003		-9.097707	-8.803843	-35.606789
54004		-9.084673	-8.845261	-35.604749
54005		-9.060484	-8.884058	-35.609749
54006		-9.017446	-8.916409	-35.615075
54007		-8.930732	-8.950639	-35.589149
54008		-8.841797	-8.975010	-35.540887
54009		-8.733192	-8.982642	-35.506110
54010		-8.637540	-8.961378	-35.488991
54011		-8.568337	-8.947978	-35.457672
54012		-8.459647	-8.936709	-35.411064
54013		-8.381704	-8.937081	-35.367459
54014		-8.341896	-8.925332	-35.311737
54015		-8.311774	-8.934220	-35.232669
54016		-8.243704	-8.956077	-35.139222
54017		-8.167545	-8.992279	-35.043218
54018		-8.121561	-9.032816	-34.953714
54019		-8.070518	-9.086804	-34.850642
54020		-8.005392	-9.119083	-34.748046
54021		-7.963822	-9.140357	-34.636059
54022		-7.913203	-9.136505	-34.497215
54023		-7.829731	-9.114587	-34.323614
54024		-7.724106	-9.095153	-34.136096
54025		-7.624534	-9.089599	-33.920383
54026		-7.485855	-9.081703	-33.705528
54027		-7.366174	-9.082149	-33.498698
54028		-7.258721	-9.105694	-33.302104
54029		-7.130660	-9.133584	-33.119538
54030		-7.056820	-9.157880	-32.933305
54031		-7.016127	-9.168693	-32.735218
54032		-6.952755	-9.163625	-32.547128
54033		-6.804822	-9.175658	-32.354546
54034		-6.640628	-9.220669	-32.124091
54035		-6.509415	-9.287362	-31.869866
54036		-6.410288	-9.372148	-31.613583
54037		-6.289515	-9.449815	-31.354015
54038		-6.165197	-9.532494	-31.065020
54039		-6.015489	-9.641202	-30.745382
54040		-5.864255	-9.772543	-30.428124
54041		-5.727534	-9.938514	-30.115695
54042		-5.600273	-10.099822	-29.824159
54043		-5.463070	-10.284817	-29.535965
54044		-5.326968	-10.476513	-29.234138
54045		-5.227806	-10.657573	-28.938224
54046		-5.117413	-10.843344	-28.662042
54047		-4.982459	-11.052831	-28.372980
54048		-4.849868	-11.295843	-28.059241
54049		-4.726145	-11.511995	-27.741095
54050		-4.615042	-11.754543	-27.424495
54051		-4.469906	-12.025591	-27.082081
54052		-4.302840	-12.279221	-26.728718
54053		-4.128722	-12.565066	-26.394087
54054		-3.902362	-12.873289	-26.057024
54055		-3.677827	-13.160348	-25.709505
54056		-3.481786	-13.420711	-25.370726
54057		-3.346012	-13.632505	-25.034346
54058		-3.140668	-13.873668	-24.730498
54059		-2.933260	-14.164537	-24.405986
54060		-2.746544	-14.414623	-24.061227
54061		-2.585043	-14.625410	-23.722365
54062		-2.399214	-14.857596	-23.401998
54063		-2.194363	-15.106799	-23.102043
54064		-2.028606	-15.362485	-22.814156
54065		-1.909703	-15.582817	-22.532097
54066		-1.799252	-15.785409	-22.235262
54067		-1.642376	-16.006755	-21.943158
54068		-1.402641	-16.246916	-21.657950
54069		-1.168111	-16.417090	-21.364897
54070		-0.952012	-16.541187	-21.131230
54071		-0.746414	-16.765047	-21.017335
54072		-0.541482	-16.978036	-20.968390
54073		-0.327550	-17.044993	-20.921242
54074		-0.125978	-17.023010	-20.906672
54075		0.083953	-17.008941	-20.950956
54076		0.324054	-17.044810	-20.998107
54077		0.686404	-17.023747	-21.057223
54078		1.143491	-16.752832	-21.150648
54079		1.415342	-16.392775	-21.298464
54080		1.495719	-16.262955	-21.417421
54081		1.563286	-16.342039	-21.458805
54082		1.568448	-16.447477	-21.481363
54083		1.569257	-16.578649	-21.539097
54084		1.610964	-16.688097	-21.576704
54085		1.642444	-16.787476	-21.608151
54086		1.571086	-16.912988	-21.667910
54087		1.441871	-17.037355	-21.722966
54088		1.328649	-17.157470	-21.734221
54089		1.227284	-17.297617	-21.703626
54090		1.131290	-17.440809	-21.611078
54091		1.038085	-17.549081	-21.488576
54092		0.944430	-17.591825	-21.328792
54093		0.864046	-17.593449	-21.110773
54094		0.781301	-17.539799	-20.894284
54095		0.712740	-17.512268	-20.696380
54096		0.612752	-17.514193	-20.447460
54097		0.524448	-17.515424	-20.166241
54098		0.450961	-17.499162	-19.854684
54099		0.389898	-17.451669	-19.559338
54100		0.370793	-17.384588	-19.324006
54101		0.377398	-17.326430	-19.098661
54102		0.416896	-17.263804	-18.883211
54103		0.455135	-17.170446	-18.700645
54104		0.524287	-17.083847	-18.544098
54105		0.651344	-17.023048	-18.420560
54106		0.766790	-16.958036	-18.349063
54107		0.826055	-16.881772	-18.335990
54108		0.915079	-16.860021	-18.351248
54109		1.031335	-16.884287	-18.359536
54110		1.122014	-16.904185	-18.343990
54111		1.174028	-16.921872	-18.314423
54112		1.199960	-16.955584	-18.314351
54113		1.175390	-16.972340	-18.305950
54114		1.165148	-16.974618	-18.279355
54115		1.162703	-16.987371	-18.252591
54116		1.115793	-17.016796	-18.245718
54117		1.066666	-17.033392	-18.232058
54118		1.028231	-17.035141	-18.191136
54119		0.996429	-17.022031	-18.163459
54120		0.973671	-17.016606	-18.155122
54121		0.927513	-16.999723	-18.157728
54122		0.843267	-16.979239	-18.147502
54123		0.765494	-16.978295	-18.134642
54124		0.705972	-17.009721	-18.130246
54125		0.665419	-17.018614	-18.135045
54126		0.629693	-16.993246	-18.150776
54127		0.661017	-16.994082	-18.187057
54128		0.725109	-16.938993	-18.247730
54129		0.741484	-16.834265	-18.379675
54130		0.714493	-16.734847	-18.569618
54131		0.660242	-16.625413	-18.755805
54132		0.650907	-16.527781	-18.942052
54133		0.699779	-16.418856	-19.142087
54134		0.701994	-16.291016	-19.332391
54135		0.692846	-16.164728	-19.492995
54136		0.666286	-16.023233	-19.653411
54137		0.609213	-15.850757	-19.812530
54138		0.493487	-15.665273	-19.942095
54139		0.373011	-15.524229	-20.051912
54140		0.295181	-15.377056	-20.165300
54141		0.185376	-15.194415	-20.273620
54142		0.061380	-15.025271	-20.377701
54143		-0.084475	-14.861274	-20.471471
54144		-0.214153	-14.694873	-20.572094
54145		-0.315251	-14.525236	-20.693359
54146		-0.417983	-14.339342	-20.824892
54147		-0.547651	-14.168954	-20.962498
54148		-0.693393	-14.016245	-21.128171
54149		-0.866132	-13.810967	-21.325083
54150		-1.041786	-13.587051	-21.535015
54151		-1.195003	-13.352541	-21.751509
54152		-1.318982	-13.084031	-21.973051
54153		-1.379114	-12.841951	-22.234748
54154		-1.440241	-12.615032	-22.531542
54155		-1.537327	-12.397250	-22.832404
54156		-1.694720	-12.198987	-23.137231
54157		-1.843034	-12.025735	-23.460917
54158		-2.004638	-11.862816	-23.806750
54159		-2.205036	-11.679104	-24.175494
54160		-2.406433	-11.491233	-24.573045
54161		-2.586927	-11.265147	-24.964140
54162		-2.811899	-10.994912	-25.359848
54163		-3.062087	-10.742315	-25.752172
54164		-3.268157	-10.525312	-26.125865
54165		-3.509691	-10.336240	-26.463199
54166		-3.805996	-10.167020	-26.772282
54167		-4.133712	-9.980716	-27.150390
54168		-4.468748	-9.678042	-27.588900
54169		-4.692503	-9.391973	-28.070546
54170		-4.906143	-9.170858	-28.564486
54171		-5.226173	-8.972723	-29.071126
54172		-5.598924	-8.782459	-29.563329
54173		-5.974331	-8.630293	-29.968006
54174		-6.244718	-8.513195	-30.265847
54175		-6.402023	-8.388803	-30.498252
54176		-6.510965	-8.240652	-30.722041
54177		-6.615185	-8.086339	-30.929850
54178		-6.733992	-7.962891	-31.128202
54179		-6.893288	-7.779003	-31.254713
54180		-7.000125	-7.595260	-31.363955
54181		-7.075092	-7.490596	-31.557314
54182		-7.213592	-7.476609	-31.809077
54183		-7.441637	-7.500651	-32.102001
54184		-7.617085	-7.563148	-32.391956
54185		-7.709951	-7.618741	-32.620542
54186		-7.804941	-7.651457	-32.771702
54187		-7.973984	-7.653387	-32.889067
54188		-8.099474	-7.628205	-33.001149
54189		-8.209744	-7.606883	-33.106442
54190		-8.274750	-7.608521	-33.192738
54191		-8.285882	-7.662421	-33.252713
54192		-8.181330	-7.727493	-33.322063
54193		-8.098104	-7.784423	-33.417823
54194		-8.110285	-7.804591	-33.533039
54195		-8.148877	-7.847411	-33.650491
54196		-8.146034	-7.938556	-33.732546
54197		-8.167095	-8.024839	-33.764139
54198		-8.230259	-8.068651	-33.767972
54199		-8.245573	-8.074185	-33.768119
54200		-8.204610	-8.082219	-33.758659
54201		-8.160341	-8.106146	-33.761881
54202		-8.154385	-8.157635	-33.789925
54203		-8.178959	-8.225402	-33.826532
54204		-8.229665	-8.287298	-33.843464
54205		-8.261648	-8.361520	-33.825114
54206		-8.284529	-8.458590	-33.783777
54207		-8.243832	-8.565481	-33.718960
54208		-8.198654	-8.683515	-33.673367
54209		-8.170516	-8.803260	-33.644270
54210		-8.172865	-8.914498	-33.616957
54211		-8.124646	-9.011216	-33.607352
54212		-8.064214	-9.091594	-33.637361
54213		-8.051537	-9.165799	-33.686445
54214		-8.036254	-9.227899	-33.749416
54215		-8.004717	-9.273720	-33.818102
54216		-7.939461	-9.306590	-33.859853
54217		-7.871354	-9.315368	-33.885386
54218		-7.795161	-9.317554	-33.910033
54219		-7.702759	-9.333986	-33.935954
54220		-7.615449	-9.371792	-33.964793
54221		-7.527846	-9.413763	-33.996446
54222		-7.462898	-9.434757	-34.040508
54223		-7.418574	-9.466541	-34.085280
54224		-7.390636	-9.509355	-34.123948
54225		-7.370119	-9.549730	-34.133925
54226		-7.370323	-9.580871	-34.120702
54227		-7.363650	-9.600042	-34.100270
54228		-7.320086	-9.627036	-34.073793
54229		-7.237997	-9.664097	-34.057814
54230		-7.167099	-9.714048	-34.078116
54231		-7.134679	-9.786809	-34.129321
54232		-7.148513	-9.868456	-34.198387
54233		-7.138661	-9.940346	-34.255159
54234		-7.092047	-10.015784	-34.281309
54235		-7.039771	-10.089758	-34.309221
54236		-6.984680	-10.136493	-34.345311
54237		-6.961387	-10.140243	-34.383777
54238		-6.969778	-10.116533	-34.429475
54239		-6.994045	-10.094449	-34.476491
54240		-6.999968	-10.064726	-34.520451
54241		-7.019125	-10.031090	-34.557528
54242		-7.089109	-10.015902	-34.609347
54243		-7.138879	-10.045770	-34.648895
54244		-7.118147	-10.095580	-34.658765
54245		-7.063692	-10.157088	-34.657226
54246		-7.037648	-10.209016	-34.629282
54247		-7.037229	-10.240817	-34.583710
54248		-6.983498	-10.233785	-34.539191
54249		-6.939836	-10.194029	-34.507652
54250		-6.921632	-10.158558	-34.504382
54251		-6.916522	-10.121569	-34.528711
54252		-6.919589	-10.095673	-34.570293
54253		-6.913878	-10.099220	-34.607808
54254		-6.890512	-10.109764	-34.637950
54255		-6.891302	-10.119776	-34.648224
54256		-6.857288	-10.118042	-34.646597
54257		-6.798905	-10.115565	-34.624122
54258		-6.773810	-10.115110	-34.589682
54259		-6.780161	-10.137575	-34.539485
54260		-6.773115	-10.169344	-34.453070
54261		-6.722255	-10.201873	-34.371665
54262		-6.679381	-10.251827	-34.303357
54263		-6.673550	-10.334266	-34.226377
54264		-6.640313	-10.346999	-34.161280
54265		-6.622061	-10.341986	-34.092984
54266		-6.551705	-10.334815	-34.022026
54267		-6.501592	-10.354413	-33.931094
54268		-6.454856	-10.379993	-33.857138
54269		-6.394729	-10.413142	-33.790430
54270		-6.323585	-10.418203	-33.686693
54271		-6.268817	-10.412538	-33.573381
54272		-6.195651	-10.393745	-33.451366
54273		-6.121890	-10.387694	-33.301513
54274		-6.044512	-10.342937	-33.146749
54275		-5.922164	-10.230284	-33.005808
54276		-5.797259	-10.114981	-32.849800
54277		-5.724403	-10.046797	-32.674642
54278		-5.650128	-10.041357	-32.475035
54279		-5.548796	-10.021044	-32.295568
54280		-5.489945	-10.012932	-32.108441
54281		-5.438855	-9.995237	-31.897444
54282		-5.358388	-9.979371	-31.678305
54283		-5.310770	-10.077265	-31.375135
54284		-5.196562	-10.163985	-31.017716
54285		-5.099650	-10.225304	-30.681663
54286		-4.975135	-10.271452	-30.369845
54287		-4.854490	-10.303992	-30.032804
54288		-4.770580	-10.352614	-29.653332
54289		-4.659211	-10.434320	-29.262304
54290		-4.550067	-10.531909	-28.893178
54291		-4.464121	-10.650428	-28.531233
54292		-4.385552	-10.757271	-28.174374
54293		-4.352638	-10.895799	-27.821918
54294		-4.334862	-11.064845	-27.455112
54295		-4.287215	-11.215378	-27.095818
54296		-4.214574	-11.375285	-26.752422
54297		-4.143065	-11.620021	-26.402973
54298		-4.025735	-11.863401	-26.041126
54299		-3.954781	-12.087208	-25.706885
54300		-3.902970	-12.332862	-25.411537
54301		-3.825207	-12.560610	-25.147605
54302		-3.742351	-12.754319	-24.901610
54303		-3.675217	-12.928632	-24.669471
54304		-3.568573	-13.108200	-24.456121
54305		-3.472066	-13.269730	-24.245928
54306		-3.373714	-13.419155	-24.050863
54307		-3.271408	-13.599219	-23.853888
54308		-3.142242	-13.783476	-23.632819
54309		-3.029047	-13.951612	-23.390509
54310		-2.898694	-14.144317	-23.144677
54311		-2.768594	-14.342081	-22.897476
54312		-2.639196	-14.524490	-22.655163
54313		-2.527637	-14.704347	-22.419611
54314		-2.465496	-14.870394	-22.182550
54315		-2.351355	-15.034446	-21.932146
54316		-2.208327	-15.149902	-21.671508
54317		-1.953801	-15.240425	-21.450435
54318		-1.683899	-15.306393	-21.265050
54319		-1.483739	-15.425170	-21.076204
54320		-1.363646	-15.619732	-20.892255
54321		-1.318192	-15.750092	-20.701582
54322		-1.277560	-15.835314	-20.492007
54323		-1.153039	-15.892992	-20.249960
54324		-0.968310	-15.984866	-20.031235
54325		-0.730454	-16.104122	-19.881570
54326		-0.561145	-16.259842	-19.860970
54327		-0.385095	-16.338318	-19.876272
54328		-0.274881	-16.370932	-19.933091
54329		-0.159817	-16.449092	-20.060766
54330		-0.019469	-16.565914	-20.195055
54331		0.138150	-16.619920	-20.312380
54332		0.233815	-16.654987	-20.426295
54333		0.272745	-16.702930	-20.541199
54334		0.217884	-16.792204	-20.625333
54335		0.158160	-16.923151	-20.697671
54336		0.110246	-17.078559	-20.782106
54337		0.064064	-17.202383	-20.869234
54338		0.001681	-17.280581	-20.931477
54339		-0.091456	-17.348291	-20.921321
54340		-0.185192	-17.392675	-20.843567
54341		-0.249494	-17.436276	-20.726895
54342		-0.293228	-17.501337	-20.584077
54343		-0.329830	-17.597522	-20.395380
54344		-0.352173	-17.674844	-20.192772
54345		-0.397934	-17.698906	-19.986516
54346		-0.440745	-17.669890	-19.772287
54347		-0.440511	-17.618434	-19.560924
54348		-0.439603	-17.583597	-19.372705
54349		-0.463986	-17.571312	-19.226112
54350		-0.468195	-17.542463	-19.074520
54351		-0.464421	-17.498253	-18.908247
54352		-0.411120	-17.450863	-18.771868
54353		-0.346066	-17.397868	-18.648905
54354		-0.274483	-17.362356	-18.528395
54355		-0.207856	-17.343082	-18.429980
54356		-0.129882	-17.335975	-18.358712
54357		-0.038916	-17.331566	-18.304702
54358		0.048692	-17.346389	-18.269413
54359		0.151256	-17.350787	-18.211608
54360		0.286211	-17.347814	-18.140770
54361		0.380918	-17.348144	-18.086757
54362		0.375275	-17.325289	-18.081863
54363		0.373954	-17.297750	-18.117492
54364		0.391073	-17.287528	-18.123438
54365		0.433690	-17.297320	-18.116623
54366		0.456627	-17.318825	-18.111067
54367		0.490567	-17.363516	-18.102667
54368		0.544298	-17.410462	-18.099553
54369		0.577155	-17.447474	-18.105690
54370		0.595823	-17.438301	-18.112213
54371		0.594798	-17.412128	-18.116810
54372		0.592050	-17.372181	-18.139984
54373		0.582946	-17.338739	-18.164647
54374		0.561392	-17.313485	-18.184100
54375		0.499018	-17.282502	-18.184006
54376		0.430359	-17.232628	-18.173740
54377		0.409910	-17.194532	-18.165745
54378		0.413823	-17.164040	-18.175591
54379		0.389907	-17.126395	-18.211218
54380		0.337651	-17.069969	-18.249842
54381		0.327969	-17.052041	-18.293633
54382		0.333013	-17.050789	-18.350052
54383		0.290065	-17.004168	-18.424850
54384		0.225291	-16.935851	-18.513059
54385		0.182739	-16.861037	-18.618040
54386		0.153504	-16.781600	-18.727484
54387		0.101744	-16.685841	-18.835087
54388		0.061385	-16.565103	-18.937675
54389		0.048690	-16.448220	-19.044161
54390		0.026036	-16.335937	-19.138919
54391		-0.039847	-16.215506	-19.236117
54392		-0.102427	-16.081474	-19.362370
54393		-0.179030	-15.947002	-19.476166
54394		-0.247541	-15.834971	-19.608236
54395		-0.308593	-15.734513	-19.769893
54396		-0.375998	-15.605458	-19.944874
54397		-0.506038	-15.498382	-20.105646
54398		-0.610932	-15.372596	-20.259682
54399		-0.707603	-15.216174	-20.416844
54400		-0.842825	-15.034333	-20.571387
54401		-0.965662	-14.859116	-20.725615
54402		-1.088406	-14.685018	-20.865722
54403		-1.215542	-14.500175	-20.995746
54404		-1.332053	-14.326521	-21.136810
54405		-1.432908	-14.153489	-21.290028
54406		-1.560746	-13.974037	-21.441237
54407		-1.725497	-13.828421	-21.578024
54408		-1.856801	-13.691198	-21.702420
54409		-1.962670	-13.501642	-21.830864
54410		-2.100135	-13.274421	-21.977375
54411		-2.233749	-13.044176	-22.154149
54412		-2.376608	-12.834921	-22.329052
54413		-2.501888	-12.669315	-22.488716
54414		-2.594902	-12.447548	-22.637236
54415		-2.718758	-12.186627	-22.817936
54416		-2.851304	-11.949526	-23.028794
54417		-3.018499	-11.747690	-23.237398
54418		-3.196966	-11.553665	-23.433227
54419		-3.370213	-11.333262	-23.639755
54420		-3.551030	-11.135359	-23.870452
54421		-3.698422	-10.971930	-24.123121
54422		-3.828247	-10.785280	-24.403520
54423		-3.972920	-10.622081	-24.668468
54424		-4.114165	-10.467289	-24.910582
54425		-4.254430	-10.353131	-25.140028
54426		-4.391414	-10.215879	-25.369874
54427		-4.554023	-10.044926	-25.611166
54428		-4.742926	-9.903028	-25.847229
54429		-4.923413	-9.773731	-26.055142
54430		-5.056444	-9.647111	-26.288182
54431		-5.198161	-9.512696	-26.537637
54432		-5.383314	-9.368647	-26.778094
54433		-5.554471	-9.221753	-27.004250
54434		-5.660189	-9.041408	-27.234009
54435		-5.787439	-8.831249	-27.503730
54436		-5.943869	-8.609828	-27.799877
54437		-6.078045	-8.390809	-28.148312
54438		-6.242112	-8.221213	-28.539751
54439		-6.460495	-8.051650	-28.920141
54440		-6.720005	-7.872663	-29.280420
54441		-6.925976	-7.704089	-29.620048
54442		-7.129172	-7.542627	-29.910443
54443		-7.328955	-7.401228	-30.139314
54444		-7.449154	-7.233091	-30.346163
54445		-7.601324	-7.059170	-30.566163
54446		-7.793861	-6.919632	-30.756266
54447		-7.921748	-6.813846	-30.918743
54448		-7.991120	-6.710562	-31.087983
54449		-8.111505	-6.578875	-31.241080
54450		-8.260593	-6.481896	-31.420165
54451		-8.442150	-6.414035	-31.600653
54452		-8.659291	-6.355093	-31.768006
54453		-8.843770	-6.312872	-31.926999
54454		-9.005189	-6.288228	-32.069030
54455		-9.167424	-6.257679	-32.181647
54456		-9.304841	-6.229494	-32.288846
54457		-9.411942	-6.210663	-32.389190
54458		-9.482642	-6.157219	-32.507372
54459		-9.496808	-6.103834	-32.668946
54460		-9.530043	-6.074895	-32.826372
54461		-9.622411	-6.080460	-32.965890
54462		-9.762810	-6.086973	-33.102243
54463		-9.816790	-6.118645	-33.253751
54464		-9.849387	-6.153254	-33.361228
54465		-9.872776	-6.182340	-33.458182
54466		-9.905313	-6.244015	-33.533835
54467		-9.946963	-6.274792	-33.558738
54468		-9.998699	-6.266814	-33.534053
54469		-9.986315	-6.275519	-33.446819
54470		-9.848266	-6.297273	-33.343168
54471		-9.783774	-6.390977	-33.253334
54472		-9.690687	-6.492773	-33.189437
54473		-9.608238	-6.571386	-33.178490
54474		-9.599109	-6.664309	-33.180784
54475		-9.542674	-6.752052	-33.207360
54476		-9.407125	-6.831518	-33.273774
54477		-9.277577	-6.927360	-33.370409
54478		-9.140660	-7.049734	-33.475110
54479		-9.018594	-7.187677	-33.610633
54480		-8.960985	-7.316268	-33.760794
54481		-8.949639	-7.415095	-33.911005
54482		-8.924584	-7.500319	-34.051828
54483		-8.874242	-7.593638	-34.168910
54484		-8.787571	-7.673676	-34.269667
54485		-8.714622	-7.703782	-34.374747
54486		-8.672282	-7.714597	-34.493826
54487		-8.644873	-7.753078	-34.600074
54488		-8.624384	-7.800498	-34.684073
54489		-8.635775	-7.854469	-34.748483
54490		-8.623086	-7.911677	-34.800247
54491		-8.574194	-7.982647	-34.829224
54492		-8.543308	-8.047580	-34.834149
54493		-8.538509	-8.106278	-34.843118
54494		-8.512368	-8.138445	-34.865349
54495		-8.451802	-8.173750	-34.903626
54496		-8.407608	-8.242972	-34.949923
54497		-8.407300	-8.337147	-35.000849
54498		-8.445252	-8.430118	-35.063041
54499		-8.499450	-8.497234	-35.109826
54500		-8.527253	-8.560581	-35.132321
54501		-8.528216	-8.625527	-35.142643
54502		-8.508014	-8.685878	-35.146826
54503		-8.493186	-8.727986	-35.151805
54504		-8.489372	-8.761101	-35.168880
54505		-8.472072	-8.791844	-35.180042
54506		-8.453734	-8.827478	-35.187545
54507		-8.428148	-8.864900	-35.187754
54508		-8.397781	-8.896546	-35.176804
54509		-8.352429	-8.936959	-35.163567
54510		-8.305555	-8.965749	-35.157969
54511		-8.274397	-9.004935	-35.155368
54512		-8.257126	-9.054689	-35.149300
54513		-8.232625	-9.101950	-35.146155
54514		-8.193671	-9.148630	-35.139748
54515		-8.144665	-9.181614	-35.139362
54516		-8.115188	-9.209447	-35.151167
54517		-8.078974	-9.253441	-35.152493
54518		-8.035358	-9.300290	-35.148904
54519		-8.000992	-9.346642	-35.146858
54520		-7.946371	-9.393223	-35.140854
54521		-7.893951	-9.440435	-35.147825
54522		-7.845527	-9.497184	-35.143570
54523		-7.794403	-9.567261	-35.125095
54524		-7.746643	-9.625256	-35.106130
54525		-7.703804	-9.670972	-35.098448
54526		-7.624985	-9.716890	-35.084721
54527		-7.559537	-9.746327	-35.078279
54528		-7.528054	-9.775474	-35.077310
54529		-7.507627	-9.795680	-35.080463
54530		-7.476252	-9.822108	-35.069524
54531		-7.464348	-9.870940	-35.045148
54532		-7.414442	-9.941834	-34.983356
54533		-7.334314	-9.971779	-34.910102
54534		-7.275012	-9.978051	-34.844368
54535		-7.225447	-9.987584	-34.741897
54536		-7.157641	-9.964039	-34.646441
54537		-7.116367	-9.916970	-34.586223
54538		-7.090549	-9.883046	-34.516057
54539		-7.029426	-9.865667	-34.421716
54540		-6.939887	-9.866371	-34.311256
54541		-6.879928	-9.882155	-34.183394
54542		-6.842602	-9.925206	-34.043561
54543		-6.777292	-9.976461	-33.901074
54544		-6.691780	-9.998386	-33.751049
54545		-6.627324	-10.009038	-33.604208
54546		-6.538583	-10.023706	-33.462959
54547		-6.405864	-10.025771	-33.332648
54548		-6.225712	-10.033720	-33.224921
54549		-6.055486	-10.021126	-33.134074
54550		-5.909615	-9.997656	-33.062048
54551		-5.874093	-10.061932	-32.978089
54552		-5.733761	-10.090272	-32.891254
54553		-5.584845	-10.068648	-32.853857
54554		-5.489619	-10.051743	-32.819881
54555		-5.424674	-10.038329	-32.735891
54556		-5.381313	-10.034126	-32.606119
54557		-5.283859	-10.039259	-32.464536
54558		-5.140251	-10.092409	-32.300303
54559		-5.022644	-10.183934	-32.087069
54560		-4.956775	-10.265163	-31.862184
54561		-4.932472	-10.344859	-31.644411
54562		-4.895952	-10.455664	-31.389128
54563		-4.792443	-10.567669	-31.092326
54564		-4.618642	-10.654610	-30.791425
54565		-4.485554	-10.710825	-30.515317
54566		-4.411267	-10.767741	-30.243659
54567		-4.357166	-10.844558	-29.958213
54568		-4.260042	-10.955677	-29.657912
54569		-4.083026	-11.080611	-29.343829
54570		-3.969330	-11.207096	-29.019931
54571		-3.874460	-11.320681	-28.702769
54572		-3.826293	-11.462295	-28.375530
54573		-3.820006	-11.679777	-28.034306
54574		-3.736074	-11.934423	-27.655091
54575		-3.596252	-12.181115	-27.270429
54576		-3.450852	-12.443695	-26.888001
54577		-3.252893	-12.688850	-26.503977
54578		-3.109755	-12.895280	-26.113433
54579		-2.998213	-13.060155	-25.730327
54580		-2.876163	-13.240071	-25.384195
54581		-2.778061	-13.476028	-25.054435
54582		-2.641755	-13.673392	-24.716676
54583		-2.547386	-13.881268	-24.384166
54584		-2.429456	-14.093146	-24.058692
54585		-2.277617	-14.293694	-23.758108
54586		-2.133624	-14.506930	-23.494741
54587		-2.003823	-14.705414	-23.238046
54588		-1.896640	-14.934713	-22.980986
54589		-1.804436	-15.182611	-22.720456
54590		-1.687686	-15.424294	-22.457384
54591		-1.591160	-15.615582	-22.194419
54592		-1.513856	-15.806118	-21.964214
54593		-1.443363	-16.049618	-21.722758
54594		-1.327600	-16.240372	-21.485227
54595		-1.195925	-16.387702	-21.310567
54596		-1.085217	-16.553672	-21.195403
54597		-0.967219	-16.681304	-21.077960
54598		-0.888554	-16.776595	-20.954023
54599		-0.815417	-16.912770	-20.889538
54600		-0.712180	-17.096971	-20.915147
54601		-0.616051	-17.234964	-20.924780
54602		-0.516841	-17.305426	-20.907083
54603		-0.390484	-17.351490	-20.834278
54604		-0.220920	-17.472654	-20.765651
54605		-0.038352	-17.603792	-20.776734
54606		0.048001	-17.713854	-20.853520
54607		0.041974	-17.765173	-20.924742
54608		-0.006069	-17.785241	-20.969096
54609		-0.028149	-17.796311	-21.006598
54610		0.009324	-17.831015	-21.017925
54611		0.046656	-17.849402	-20.987998
54612		0.056660	-17.875935	-20.987994
54613		0.032952	-17.904465	-21.012455
54614		-0.064405	-17.914066	-21.025349
54615		-0.152363	-17.938801	-20.997314
54616		-0.231883	-17.943359	-20.927178
54617		-0.267211	-17.954656	-20.834074
54618		-0.278570	-17.964791	-20.727636
54619		-0.309704	-17.965166	-20.599944
54620		-0.350432	-17.959538	-20.489073
54621		-0.414856	-17.918306	-20.377977
54622		-0.475682	-17.909710	-20.256078
54623		-0.542231	-17.931032	-20.118780
54624		-0.580752	-17.922617	-19.976180
54625		-0.624623	-17.906054	-19.847896
54626		-0.693036	-17.871778	-19.718334
54627		-0.753561	-17.865535	-19.565659
54628		-0.761688	-17.868563	-19.425106
54629		-0.800004	-17.839854	-19.302267
54630		-0.844614	-17.792157	-19.197273
54631		-0.870467	-17.713011	-19.082313
54632		-0.899220	-17.643526	-18.953770
54633		-0.882871	-17.615442	-18.861333
54634		-0.809700	-17.573831	-18.780326
54635		-0.739989	-17.524532	-18.689396
54636		-0.669760	-17.448769	-18.622367
54637		-0.609814	-17.363378	-18.616937
54638		-0.588886	-17.319574	-18.624318
54639		-0.592930	-17.356774	-18.620099
54640		-0.590561	-17.383801	-18.622028
54641		-0.546138	-17.393502	-18.637333
54642		-0.530613	-17.408262	-18.641458
54643		-0.535437	-17.435129	-18.632990
54644		-0.524124	-17.444741	-18.610594
54645		-0.540589	-17.454399	-18.583118
54646		-0.552655	-17.461737	-18.567213
54647		-0.558345	-17.495610	-18.543921
54648		-0.562549	-17.539722	-18.516380
54649		-0.565008	-17.593849	-18.498873
54650		-0.599081	-17.720806	-18.467486
54651		-0.652103	-17.832379	-18.414009
54652		-0.715510	-17.896347	-18.380233
54653		-0.797434	-17.927270	-18.367053
54654		-0.873693	-17.920011	-18.343502
54655		-0.912502	-17.924334	-18.323997
54656		-0.903133	-17.923151	-18.318699
54657		-0.934434	-17.894674	-18.334085
54658		-0.980569	-17.907995	-18.363613
54659		-1.022270	-17.914260	-18.411714
54660		-1.065234	-17.883433	-18.469749
54661		-1.083663	-17.839606	-18.544395
54662		-1.095721	-17.784281	-18.643426
54663		-1.135077	-17.735036	-18.758387
54664		-1.175259	-17.668750	-18.880151
54665		-1.215563	-17.603606	-19.021525
54666		-1.273766	-17.542152	-19.175267
54667		-1.342570	-17.446933	-19.329994
54668		-1.407681	-17.341852	-19.492732
54669		-1.485683	-17.229980	-19.665760
54670		-1.568067	-17.098437	-19.841748
54671		-1.659662	-16.955878	-20.018827
54672		-1.712864	-16.826159	-20.196188
54673		-1.783806	-16.655129	-20.390402
54674		-1.889734	-16.436573	-20.601950
54675		-1.990449	-16.221405	-20.840660
54676		-2.080231	-16.029276	-21.089239
54677		-2.181533	-15.863847	-21.319437
54678		-2.281164	-15.667153	-21.567450
54679		-2.413977	-15.432771	-21.812389
54680		-2.551989	-15.165837	-22.054377
54681		-2.680942	-14.912806	-22.314931
54682		-2.784735	-14.670178	-22.581500
54683		-2.937501	-14.385291	-22.842612
54684		-3.116824	-14.101039	-23.098387
54685		-3.264644	-13.845416	-23.350856
54686		-3.469338	-13.550065	-23.593663
54687		-3.678688	-13.240281	-23.827097
54688		-3.895857	-12.938113	-24.043651
54689		-4.065079	-12.659176	-24.243190
54690		-4.197526	-12.384189	-24.443658
54691		-4.334968	-12.117971	-24.648287
54692		-4.520915	-11.874655	-24.870044
54693		-4.767328	-11.622100	-25.095782
54694		-5.004119	-11.379884	-25.316058
54695		-5.177431	-11.162709	-25.527356
54696		-5.338381	-10.989109	-25.744970
54697		-5.485187	-10.789034	-25.962348
54698		-5.646856	-10.570876	-26.189213
54699		-5.807268	-10.387031	-26.446207
54700		-5.971717	-10.210798	-26.721258
54701		-6.110407	-10.035361	-27.003644
54702		-6.207536	-9.916708	-27.292519
54703		-6.320077	-9.798653	-27.587435
54704		-6.463292	-9.620286	-27.892851
54705		-6.649606	-9.423716	-28.196334
54706		-6.804032	-9.266608	-28.505897
54707		-6.931688	-9.148347	-28.823855
54708		-7.082663	-8.994565	-29.135938
54709		-7.300145	-8.810163	-29.432178
54710		-7.481465	-8.656779	-29.695956
54711		-7.598420	-8.547650	-29.933467
54712		-7.629393	-8.459690	-30.153994
54713		-7.589446	-8.392584	-30.358789
54714		-7.542077	-8.343851	-30.568726
54715		-7.523803	-8.323213	-30.820825
54716		-7.529608	-8.359924	-31.092264
54717		-7.546096	-8.415596	-31.372070
54718		-7.557140	-8.502660	-31.676734
54719		-7.607409	-8.631448	-32.009548
54720		-7.681574	-8.775631	-32.356304
54721		-7.729686	-8.884621	-32.658943
54722		-7.811871	-8.939293	-32.904028
54723		-7.879792	-8.956797	-33.122412
54724		-7.924047	-8.953865	-33.325247
54725		-7.976960	-8.915012	-33.508456
54726		-8.049696	-8.865077	-33.695125
54727		-8.127458	-8.832725	-33.875806
54728		-8.182281	-8.809977	-34.027647
54729		-8.212530	-8.765932	-34.166584
54730		-8.236657	-8.728391	-34.332137
54731		-8.319211	-8.684424	-34.480577
54732		-8.401406	-8.680883	-34.608958
54733		-8.411196	-8.742171	-34.741194
54734		-8.422118	-8.865710	-34.842036
54735		-8.482572	-8.967199	-34.886490
54736		-8.587259	-8.981640	-34.876201
54737		-8.617086	-8.938973	-34.818836
54738		-8.530518	-8.889570	-34.742643
54739		-8.412672	-8.879040	-34.637901
54740		-8.237000	-8.885897	-34.517633
54741		-8.096995	-8.930035	-34.453709
54742		-8.059570	-9.001315	-34.455165
54743		-8.080089	-9.079215	-34.488293
54744		-8.165744	-9.147625	-34.506418
54745		-8.241101	-9.192611	-34.521420
54746		-8.282063	-9.207955	-34.527461
54747		-8.284007	-9.225426	-34.539684
54748		-8.238877	-9.267466	-34.548776
54749		-8.177318	-9.303098	-34.557575
54750		-8.117215	-9.350359	-34.575024
54751		-8.082475	-9.384303	-34.592521
54752		-8.062429	-9.392905	-34.632641
54753		-8.064531	-9.392143	-34.667385
54754		-8.035199	-9.382069	-34.692719
54755		-7.977608	-9.396347	-34.716855
54756		-7.869590	-9.430020	-34.721248
54757		-7.760394	-9.464744	-34.702768
54758		-7.681117	-9.492955	-34.689408
54759		-7.630034	-9.503980	-34.688647
54760		-7.590104	-9.512620	-34.701603
54761		-7.540229	-9.536152	-34.725715
54762		-7.472053	-9.586832	-34.747375
54763		-7.420053	-9.631207	-34.784665
54764		-7.393444	-9.672374	-34.837453
54765		-7.374566	-9.712142	-34.892745
54766		-7.351025	-9.763168	-34.935664
54767		-7.307152	-9.809089	-34.972301
54768		-7.243046	-9.830997	-35.001941
54769		-7.172989	-9.849063	-35.024620
54770		-7.117926	-9.856380	-35.054478
54771		-7.074648	-9.872657	-35.085979
54772		-7.024708	-9.887722	-35.107814
54773		-6.979594	-9.889521	-35.133147
54774		-6.956213	-9.886346	-35.153735
54775		-6.866515	-9.894706	-35.172136
54776		-6.749599	-9.918492	-35.190843
54777		-6.645890	-9.963935	-35.213592
54778		-6.523871	-10.030930	-35.209512
54779		-6.409632	-10.080049	-35.203100
54780		-6.274885	-10.119692	-35.206875
54781		-6.156374	-10.180204	-35.219108
54782		-6.070449	-10.258149	-35.219468
54783		-5.922156	-10.315542	-35.208013
54784		-5.776184	-10.358962	-35.172731
54785		-5.699700	-10.377550	-35.106828
54786		-5.667181	-10.370635	-35.023903
54787		-5.620857	-10.363386	-34.913390
54788		-5.582481	-10.397954	-34.768902
54789		-5.506048	-10.452798	-34.594452
54790		-5.447870	-10.507128	-34.415365
54791		-5.400390	-10.533876	-34.252680
54792		-5.342933	-10.560120	-34.072784
54793		-5.237987	-10.580293	-33.884326
54794		-5.109597	-10.613800	-33.696841
54795		-5.006539	-10.630938	-33.506463
54796		-4.938285	-10.621735	-33.310916
54797		-4.892681	-10.624762	-33.092192
54798		-4.813451	-10.631982	-32.842415
54799		-4.724727	-10.631165	-32.564248
54800		-4.621828	-10.621526	-32.288120
54801		-4.506165	-10.663204	-31.991236
54802		-4.428184	-10.722231	-31.653472
54803		-4.376943	-10.785203	-31.309999
54804		-4.320729	-10.867962	-30.953771
54805		-4.278287	-10.926453	-30.588923
54806		-4.233932	-11.016348	-30.204841
54807		-4.142448	-11.127183	-29.818986
54808		-4.079574	-11.241834	-29.458433
54809		-4.021060	-11.380062	-29.111666
54810		-3.954838	-11.523675	-28.764238
54811		-3.903379	-11.660927	-28.417797
54812		-3.824989	-11.793861	-28.093856
54813		-3.762422	-11.964421	-27.771147
54814		-3.690553	-12.140119	-27.426836
54815		-3.607381	-12.299966	-27.082832
54816		-3.513664	-12.462446	-26.759189
54817		-3.418357	-12.645566	-26.466597
54818		-3.291390	-12.863504	-26.196776
54819		-3.168724	-13.052633	-25.912575
54820		-3.050738	-13.248539	-25.601569
54821		-2.945577	-13.440553	-25.278898
54822		-2.861040	-13.616658	-24.964151
54823		-2.757353	-13.805078	-24.675063
54824		-2.660709	-14.014315	-24.408736
54825		-2.555742	-14.242839	-24.149015
54826		-2.458549	-14.453996	-23.887428
54827		-2.348095	-14.638851	-23.654782
54828		-2.210855	-14.814276	-23.475124
54829		-2.140099	-15.006219	-23.309007
54830		-2.050765	-15.211463	-23.128653
54831		-1.942820	-15.427847	-22.919107
54832		-1.822006	-15.646200	-22.685373
54833		-1.702628	-15.873795	-22.469701
54834		-1.575217	-16.096131	-22.232925
54835		-1.488066	-16.300053	-21.976921
54836		-1.383862	-16.514801	-21.730918
54837		-1.268926	-16.721376	-21.511441
54838		-1.153610	-16.945955	-21.326531
54839		-1.048773	-17.168953	-21.171694
54840		-0.923770	-17.373385	-21.055269
54841		-0.761794	-17.533642	-20.952037
54842		-0.608006	-17.698998	-20.872951
54843		-0.453477	-17.886043	-20.815669
54844		-0.300479	-18.036419	-20.744928
54845		-0.128308	-18.126184	-20.684585
54846		0.030636	-18.167081	-20.663260
54847		0.211363	-18.255870	-20.697756
54848		0.401245	-18.335746	-20.780802
54849		0.585306	-18.386735	-20.892037
54850		0.761640	-18.428415	-21.036120
54851		0.911246	-18.456067	-21.194845
54852		0.989014	-18.474734	-21.313429
54853		1.037021	-18.523142	-21.377650
54854		1.083386	-18.560320	-21.409165
54855		1.120115	-18.613557	-21.420132
54856		1.128199	-18.699470	-21.450238
54857		1.086932	-18.746073	-21.486811
54858		0.990368	-18.758705	-21.472874
54859		0.988324	-18.773119	-21.435920
54860		0.995211	-18.813297	-21.351166
54861		0.998322	-18.866771	-21.231453
54862		0.983132	-18.870869	-21.082123
54863		0.923813	-18.875720	-20.903454
54864		0.842492	-18.847928	-20.729036
54865		0.765470	-18.809269	-20.543349
54866		0.710074	-18.809791	-20.335845
54867		0.636883	-18.838314	-20.114724
54868		0.560716	-18.870935	-19.866531
54869		0.527179	-18.899081	-19.598322
54870		0.487103	-18.901978	-19.330144
54871		0.465995	-18.903172	-19.113550
54872		0.430659	-18.875273	-18.918172
54873		0.423001	-18.853242	-18.749358
54874		0.490934	-18.864639	-18.617094
54875		0.551196	-18.878499	-18.477360
54876		0.604006	-18.902369	-18.352124
54877		0.676700	-18.881590	-18.272129
54878		0.772168	-18.793671	-18.214008
54879		0.870671	-18.681939	-18.174829
54880		0.995295	-18.632726	-18.170353
54881		1.074483	-18.599021	-18.214607
54882		1.198603	-18.607177	-18.280073
54883		1.304446	-18.623485	-18.328833
54884		1.388790	-18.646887	-18.342014
54885		1.459978	-18.672479	-18.337262
54886		1.537804	-18.708632	-18.331808
54887		1.587301	-18.735042	-18.315336
54888		1.605987	-18.724992	-18.286321
54889		1.612631	-18.697728	-18.267803
54890		1.600102	-18.691338	-18.264215
54891		1.584189	-18.732513	-18.269174
54892		1.584506	-18.749808	-18.244850
54893		1.538376	-18.735016	-18.208351
54894		1.465011	-18.749119	-18.189232
54895		1.419893	-18.751812	-18.185574
54896		1.392861	-18.730558	-18.171343
54897		1.418784	-18.742094	-18.170276
54898		1.434872	-18.754686	-18.191764
54899		1.412603	-18.747485	-18.225493
54900		1.402604	-18.714460	-18.262559
54901		1.472305	-18.642001	-18.295305
54902		1.529262	-18.504218	-18.361323
54903		1.519893	-18.374374	-18.511692
54904		1.479078	-18.333153	-18.690414
54905		1.409295	-18.299175	-18.843532
54906		1.349026	-18.230998	-18.962303
54907		1.286917	-18.159884	-19.065890
54908		1.258684	-18.105161	-19.160535
54909		1.296628	-18.021889	-19.251139
54910		1.319358	-17.933140	-19.364994
54911		1.274790	-17.836621	-19.496546
54912		1.166302	-17.690907	-19.622677
54913		1.028788	-17.504856	-19.745062
54914		0.913078	-17.314764	-19.876733
54915		0.816747	-17.128985	-19.987345
54916		0.737774	-16.950649	-20.094005
54917		0.660800	-16.760301	-20.220550
54918		0.563864	-16.561055	-20.387983
54919		0.410974	-16.394447	-20.559614
54920		0.247819	-16.187306	-20.735378
54921		0.050277	-15.922553	-20.903424
54922		-0.119162	-15.683609	-21.061221
54923		-0.262447	-15.433364	-21.226144
54924		-0.407397	-15.180627	-21.421461
54925		-0.571466	-14.930328	-21.639035
54926		-0.740794	-14.712428	-21.885081
54927		-0.931346	-14.474743	-22.157722
54928		-1.150111	-14.185141	-22.439365
54929		-1.393668	-13.870951	-22.704922
54930		-1.605818	-13.559105	-22.958612
54931		-1.778576	-13.248161	-23.194274
54932		-1.912827	-12.890764	-23.409451
54933		-2.006132	-12.539434	-23.574976
54934		-2.070486	-12.226596	-23.796339
54935		-2.213230	-11.993331	-24.060581
54936		-2.411422	-11.795626	-24.302959
54937		-2.606174	-11.593462	-24.498824
54938		-2.745912	-11.404208	-24.651236
54939		-2.814918	-11.185474	-24.768719
54940		-2.884909	-10.937888	-24.907627
54941		-2.989803	-10.697488	-25.049318
54942		-3.108480	-10.492952	-25.171524
54943		-3.167015	-10.309919	-25.278990
54944		-3.245730	-10.079921	-25.433536
54945		-3.439153	-9.813310	-25.639266
54946		-3.666380	-9.547253	-25.844545
54947		-3.842657	-9.316823	-26.011494
54948		-3.933065	-9.124076	-26.174886
54949		-3.991934	-8.940065	-26.359987
54950		-4.091192	-8.764961	-26.553153
54951		-4.222824	-8.580947	-26.765922
54952		-4.373107	-8.355606	-27.014033
54953		-4.614067	-8.103710	-27.297342
54954		-4.874064	-7.867045	-27.584571
54955		-5.100298	-7.679231	-27.869521
54956		-5.288550	-7.550017	-28.183339
54957		-5.560021	-7.443035	-28.520901
54958		-5.887699	-7.354957	-28.879420
54959		-6.183371	-7.305157	-29.245250
54960		-6.334831	-7.258852	-29.586082
54961		-6.480986	-7.172783	-29.904894
54962		-6.685057	-7.077076	-30.209070
54963		-6.917021	-6.982337	-30.487917
54964		-7.106504	-6.891506	-30.748879
54965		-7.309030	-6.800230	-30.984411
54966		-7.524174	-6.741769	-31.187225
54967		-7.750357	-6.727467	-31.366225
54968		-7.953363	-6.736343	-31.545008
54969		-8.146580	-6.719229	-31.733071
54970		-8.386182	-6.664154	-31.978232
54971		-8.607953	-6.629429	-32.262344
54972		-8.753312	-6.615344	-32.534080
54973		-8.877240	-6.596288	-32.786532
54974		-8.982883	-6.582836	-33.026392
54975		-9.059582	-6.587684	-33.253340
54976		-9.123560	-6.601403	-33.449636
54977		-9.151071	-6.613923	-33.605753
54978		-9.170485	-6.657289	-33.726259
54979		-9.210371	-6.700008	-33.798252
54980		-9.322429	-6.726229	-33.817970
54981		-9.439896	-6.740735	-33.772538
54982		-9.479759	-6.729122	-33.683501
54983		-9.427159	-6.725378	-33.576480
54984		-9.282908	-6.730018	-33.491255
54985		-9.167723	-6.759988	-33.455982
54986		-9.090530	-6.828393	-33.454133
54987		-9.067316	-6.885089	-33.489761
54988		-9.038861	-6.953600	-33.544149
54989		-9.015681	-7.043999	-33.587080
54990		-9.009060	-7.138961	-33.629491
54991		-9.032067	-7.226193	-33.670016
54992		-9.066195	-7.293852	-33.702132
54993		-9.074845	-7.332599	-33.720648
54994		-9.022685	-7.357136	-33.738042
54995		-8.938509	-7.399176	-33.753696
54996		-8.861339	-7.439025	-33.767852
54997		-8.774341	-7.479350	-33.763655
54998		-8.697122	-7.512737	-33.750600
54999		-8.643567	-7.537782	-33.751267
55000		-8.598942	-7.575600	-33.769635
55001		-8.561311	-7.622813	-33.788288
55002		-8.520058	-7.667917	-33.796902
55003		-8.487773	-7.714821	-33.791621
55004		-8.431936	-7.758172	-33.778131
55005		-8.374907	-7.798184	-33.764447
55006		-8.330321	-7.835758	-33.757914
55007		-8.287732	-7.871121	-33.761352
55008		-8.237829	-7.906777	-33.759523
55009		-8.178024	-7.939072	-33.751135
55010		-8.119836	-7.971446	-33.757702
55011		-8.073600	-8.002837	-33.792448
55012		-8.016439	-8.040924	-33.848575
55013		-7.958386	-8.096369	-33.917892
55014		-7.875138	-8.176787	-33.980189
55015		-7.779401	-8.267956	-34.027209
55016		-7.689358	-8.358717	-34.060619
55017		-7.626488	-8.421022	-34.108908
55018		-7.600874	-8.468750	-34.169728
55019		-7.569679	-8.496626	-34.228211
55020		-7.527281	-8.515533	-34.274926
55021		-7.478234	-8.536558	-34.302717
55022		-7.447992	-8.534519	-34.330141
55023		-7.430611	-8.522255	-34.374181
55024		-7.375420	-8.525879	-34.424909
55025		-7.306459	-8.549552	-34.459877
55026		-7.243076	-8.579354	-34.482567
55027		-7.171435	-8.596299	-34.506248
55028		-7.111652	-8.606997	-34.535678
55029		-7.033626	-8.623511	-34.565796
55030		-6.940048	-8.622264	-34.596457
55031		-6.891170	-8.622009	-34.620056
55032		-6.850847	-8.626021	-34.632350
55033		-6.753864	-8.632377	-34.628893
55034		-6.658884	-8.610026	-34.633309
55035		-6.543069	-8.571005	-34.647447
55036		-6.421795	-8.541007	-34.638745
55037		-6.308383	-8.525241	-34.623735
55038		-6.234124	-8.507229	-34.632193
55039		-6.214227	-8.493511	-34.647459
55040		-6.197828	-8.471595	-34.638587
55041		-6.157095	-8.453201	-34.619523
55042		-6.087514	-8.472875	-34.580595
55043		-5.988518	-8.529635	-34.486897
55044		-5.857419	-8.572359	-34.360618
55045		-5.757814	-8.599978	-34.243220
55046		-5.683888	-8.611879	-34.127130
55047		-5.646311	-8.621260	-34.015998
55048		-5.635043	-8.661325	-33.876558
55049		-5.571382	-8.691845	-33.706021
55050		-5.450718	-8.704997	-33.526674
55051		-5.296927	-8.726336	-33.372874
55052		-5.150898	-8.754921	-33.221624
55053		-5.033061	-8.791641	-33.061131
55054		-4.910586	-8.830518	-32.878606
55055		-4.784172	-8.873971	-32.683706
55056		-4.629951	-8.932001	-32.482469
55057		-4.474877	-9.016385	-32.273280
55058		-4.332443	-9.123478	-32.054701
55059		-4.231417	-9.239619	-31.837455
55060		-4.178237	-9.371215	-31.617130
55061		-4.114981	-9.523588	-31.362488
55062		-3.989889	-9.701424	-31.054069
55063		-3.828053	-9.923327	-30.717989
55064		-3.670117	-10.144071	-30.376284
55065		-3.512855	-10.345676	-30.054619
55066		-3.381789	-10.556793	-29.762056
55067		-3.234481	-10.790373	-29.457299
55068		-3.083554	-11.044406	-29.144467
55069		-2.908175	-11.322597	-28.839362
55070		-2.716262	-11.583853	-28.554449
55071		-2.531358	-11.827814	-28.299962
55072		-2.374666	-12.096093	-28.063714
55073		-2.226725	-12.382135	-27.800924
55074		-2.042782	-12.639573	-27.551609
55075		-1.840351	-12.885460	-27.321086
55076		-1.650653	-13.139766	-27.088342
55077		-1.439365	-13.409674	-26.832971
55078		-1.216473	-13.683728	-26.535148
55079		-1.004152	-13.898093	-26.243578
55080		-0.838860	-14.100845	-25.969742
55081		-0.710700	-14.309746	-25.699531
55082		-0.581111	-14.542727	-25.435606
55083		-0.447426	-14.785882	-25.167823
55084		-0.340397	-15.038177	-24.886364
55085		-0.243116	-15.280380	-24.603212
55086		-0.157861	-15.488864	-24.295716
55087		-0.056356	-15.672927	-23.972568
55088		0.056182	-15.841110	-23.658211
55089		0.123255	-16.011532	-23.374790
55090		0.129956	-16.176566	-23.090223
55091		0.163130	-16.342009	-22.797665
55092		0.196153	-16.492733	-22.517634
55093		0.273029	-16.657209	-22.243408
55094		0.337695	-16.822881	-22.030778
55095		0.356427	-16.946328	-21.903124
55096		0.378420	-17.041781	-21.795099
55097		0.450011	-17.137135	-21.661558
55098		0.609807	-17.192906	-21.513904
55099		0.821820	-17.254390	-21.420097
55100		0.962713	-17.348488	-21.400384
55101		1.096880	-17.419157	-21.431009
55102		1.195628	-17.459035	-21.443071
55103		1.283594	-17.502022	-21.446330
55104		1.375633	-17.556228	-21.484572
55105		1.474045	-17.588671	-21.530641
55106		1.550001	-17.614471	-21.581160
55107		1.614886	-17.653532	-21.616479
55108		1.656817	-17.693487	-21.644393
55109		1.663052	-17.744410	-21.679772
55110		1.641271	-17.790930	-21.701160
55111		1.607442	-17.809046	-21.695619
55112		1.581164	-17.841710	-21.669724
55113		1.526847	-17.862535	-21.619149
55114		1.492298	-17.882545	-21.527976
55115		1.468433	-17.915633	-21.400435
55116		1.443472	-17.952071	-21.242939
55117		1.423634	-18.001402	-21.064213
55118		1.370339	-18.040994	-20.868938
55119		1.359514	-18.058939	-20.667505
55120		1.340672	-18.056612	-20.450473
55121		1.306020	-18.032570	-20.233910
55122		1.271884	-17.979515	-20.049008
55123		1.244140	-17.945681	-19.871969
55124		1.214242	-17.888090	-19.691475
55125		1.228796	-17.808533	-19.477900
55126		1.268632	-17.736243	-19.279236
55127		1.303985	-17.691381	-19.136113
55128		1.392262	-17.694501	-19.008861
55129		1.469075	-17.701186	-18.867663
55130		1.536305	-17.682199	-18.731399
55131		1.603562	-17.654683	-18.641451
55132		1.695643	-17.652583	-18.570875
55133		1.795297	-17.676561	-18.524261
55134		1.896108	-17.696703	-18.485043
55135		2.001461	-17.704151	-18.483560
55136		2.102653	-17.737232	-18.503121
55137		2.199104	-17.771530	-18.513225
55138		2.264588	-17.780906	-18.511306
55139		2.342009	-17.797261	-18.515392
55140		2.417620	-17.843072	-18.519050
55141		2.458009	-17.892103	-18.512142
55142		2.515334	-17.949171	-18.510253
55143		2.554563	-17.994113	-18.506788
55144		2.561674	-18.014137	-18.497954
55145		2.560575	-18.014565	-18.473464
55146		2.556743	-18.005918	-18.458132
55147		2.535802	-17.996455	-18.448794
55148		2.517090	-17.985650	-18.432051
55149		2.485168	-17.992460	-18.405937
55150		2.438683	-17.979261	-18.391358
55151		2.409601	-17.965605	-18.390582
55152		2.392781	-17.933962	-18.390861
55153		2.394199	-17.915969	-18.409868
55154		2.375608	-17.911101	-18.423901
55155		2.344351	-17.932836	-18.427973
55156		2.314140	-17.930226	-18.438841
55157		2.266863	-17.889915	-18.460903
55158		2.241362	-17.850839	-18.483731
55159		2.233841	-17.813118	-18.509143
55160		2.250906	-17.767147	-18.559706
55161		2.158803	-17.662784	-18.609630
55162		1.957385	-17.548441	-18.675106
55163		1.821348	-17.514147	-18.756871
55164		1.735892	-17.543023	-18.810837
55165		1.670519	-17.565393	-18.861228
55166		1.634101	-17.519885	-18.933463
55167		1.621946	-17.427740	-19.020427
55168		1.635439	-17.352078	-19.141273
55169		1.620291	-17.294282	-19.268136
55170		1.573065	-17.255014	-19.375156
55171		1.480580	-17.241684	-19.468287
55172		1.408887	-17.182460	-19.556597
55173		1.359191	-17.119994	-19.651640
55174		1.303318	-17.039091	-19.768420
55175		1.230078	-16.902704	-19.881396
55176		1.142023	-16.749138	-19.995453
55177		1.074749	-16.618121	-20.112822
55178		0.985813	-16.465157	-20.209922
55179		0.864185	-16.278323	-20.287616
55180		0.747813	-16.085587	-20.375375
55181		0.612426	-15.891812	-20.466240
55182		0.473743	-15.721077	-20.553842
55183		0.335955	-15.600653	-20.649975
55184		0.212008	-15.489124	-20.760081
55185		0.050820	-15.281233	-20.884230
55186		-0.149283	-15.011830	-21.010275
55187		-0.339499	-14.765359	-21.140543
55188		-0.511164	-14.536629	-21.254934
55189		-0.653622	-14.334079	-21.372055
55190		-0.785013	-14.169625	-21.496856
55191		-0.891831	-14.017623	-21.635472
55192		-0.990089	-13.874683	-21.773078
55193		-1.130479	-13.722416	-21.904694
55194		-1.301183	-13.551142	-22.039482
55195		-1.466300	-13.362299	-22.183596
55196		-1.639643	-13.137538	-22.328431
55197		-1.817378	-12.888929	-22.478420
55198		-2.004986	-12.636009	-22.658856
55199		-2.200943	-12.374186	-22.874762
55200		-2.440825	-12.087761	-23.102309
55201		-2.663529	-11.802707	-23.340176
55202		-2.860600	-11.500252	-23.607198
55203		-3.138726	-11.116192	-23.873832
55204		-3.477173	-10.660453	-24.168658
55205		-3.726243	-10.263836	-24.526297
55206		-3.939533	-9.907410	-24.879432
55207		-4.156302	-9.619544	-25.208647
55208		-4.250917	-9.293542	-25.505998
55209		-4.332489	-8.964896	-25.762786
55210		-4.453858	-8.647248	-26.008741
55211		-4.622623	-8.342152	-26.284066
55212		-4.808614	-8.100258	-26.574140
55213		-5.028771	-7.876436	-26.848070
55214		-5.274092	-7.670963	-27.097997
55215		-5.497855	-7.498195	-27.335762
55216		-5.647733	-7.402645	-27.580703
55217		-5.694330	-7.351251	-27.825795
55218		-5.853142	-7.242657	-28.102876
55219		-6.093995	-7.061688	-28.423488
55220		-6.339305	-6.860191	-28.739026
55221		-6.607929	-6.657815	-29.004515
55222		-6.857512	-6.459405	-29.207866
55223		-7.020493	-6.267700	-29.379659
55224		-7.145664	-6.090898	-29.558877
55225		-7.327664	-5.929079	-29.742877
55226		-7.539522	-5.808203	-29.939230
55227		-7.742228	-5.724245	-30.137525
55228		-7.928913	-5.648319	-30.343515
55229		-8.185913	-5.613314	-30.564074
55230		-8.452431	-5.636104	-30.805018
55231		-8.761760	-5.671698	-31.050360
55232		-9.094830	-5.693584	-31.297588
55233		-9.368243	-5.699217	-31.525625
55234		-9.510480	-5.668714	-31.724916
55235		-9.584730	-5.660426	-31.893217
55236		-9.586314	-5.698443	-32.060938
55237		-9.570696	-5.778555	-32.274404
55238		-9.662643	-5.863697	-32.533812
55239		-9.877906	-5.923917	-32.775348
55240		-10.140561	-5.968541	-32.932134
55241		-10.318831	-5.968745	-32.960912
55242		-10.369162	-5.921782	-32.886294
55243		-10.310360	-5.860954	-32.759575
55244		-10.219239	-5.823236	-32.639909
55245		-10.163183	-5.807711	-32.561345
55246		-10.195793	-5.828520	-32.520941
55247		-10.327182	-5.882258	-32.497038
55248		-10.411835	-5.977108	-32.447263
55249		-10.381528	-6.097803	-32.362452
55250		-10.286794	-6.206841	-32.264633
55251		-10.268071	-6.319514	-32.194062
55252		-10.274218	-6.460837	-32.157520
55253		-10.208872	-6.605442	-32.118614
55254		-10.080274	-6.727481	-32.080562
55255		-10.036831	-6.817349	-32.068538
55256		-9.997688	-6.894242	-32.079425
55257		-9.896926	-6.964079	-32.077302
55258		-9.756068	-7.073580	-32.052780
55259		-9.663556	-7.222838	-32.032288
55260		-9.597364	-7.370839	-32.036684
55261		-9.521335	-7.534071	-32.081846
55262		-9.420475	-7.699387	-32.142870
55263		-9.296449	-7.852361	-32.213153
55264		-9.175112	-8.006401	-32.284494
55265		-9.021125	-8.170899	-32.359305
55266		-8.833784	-8.319022	-32.445141
55267		-8.702949	-8.446649	-32.527393
55268		-8.608044	-8.575490	-32.608933
55269		-8.533984	-8.702812	-32.682192
55270		-8.452200	-8.807419	-32.762198
55271		-8.323514	-8.912293	-32.841745
55272		-8.214615	-9.030422	-32.921683
55273		-8.129709	-9.149221	-33.000259
55274		-8.036260	-9.267268	-33.065643
55275		-7.949012	-9.377786	-33.107341
55276		-7.865407	-9.490992	-33.132889
55277		-7.783426	-9.603032	-33.153019
55278		-7.694432	-9.735804	-33.169833
55279		-7.596445	-9.875929	-33.166232
55280		-7.525934	-9.988927	-33.154044
55281		-7.473319	-10.081402	-33.140566
55282		-7.389662	-10.186302	-33.133072
55283		-7.247661	-10.337055	-33.128772
55284		-7.078755	-10.511015	-33.149612
55285		-7.006127	-10.643834	-33.222468
55286		-7.035716	-10.755555	-33.327830
55287		-7.119331	-10.872866	-33.432150
55288		-7.170214	-11.000724	-33.519347
55289		-7.141976	-11.129583	-33.557107
55290		-7.083489	-11.258613	-33.583362
55291		-7.011488	-11.352201	-33.623663
55292		-6.987542	-11.377629	-33.683021
55293		-6.991330	-11.370194	-33.758943
55294		-6.960080	-11.368172	-33.822061
55295		-6.922386	-11.357690	-33.878174
55296		-6.913162	-11.340965	-33.940182
55297		-6.882773	-11.336320	-33.994778
55298		-6.843050	-11.345789	-34.027840
55299		-6.819312	-11.361992	-34.048233
55300		-6.842041	-11.355509	-34.085213
55301		-6.852103	-11.355371	-34.121170
55302		-6.919797	-11.340840	-34.133503
55303		-6.897826	-11.321906	-34.133585
55304		-6.804006	-11.284274	-34.139899
55305		-6.725053	-11.218158	-34.161289
55306		-6.669535	-11.173175	-34.174472
55307		-6.592841	-11.119894	-34.180288
55308		-6.547575	-11.068064	-34.194932
55309		-6.495499	-11.000034	-34.229227
55310		-6.474260	-10.933882	-34.270454
55311		-6.475548	-10.869228	-34.288959
55312		-6.489047	-10.805578	-34.272174
55313		-6.467079	-10.774706	-34.221563
55314		-6.422019	-10.747758	-34.153001
55315		-6.321554	-10.713247	-34.066361
55316		-6.255892	-10.676391	-33.953561
55317		-6.222869	-10.656620	-33.826890
55318		-6.177750	-10.632480	-33.688651
55319		-6.138733	-10.623972	-33.534416
55320		-6.103752	-10.628165	-33.368351
55321		-6.034610	-10.638649	-33.199987
55322		-5.943596	-10.655854	-33.025409
55323		-5.878955	-10.700232	-32.872062
55324		-5.809207	-10.765203	-32.743123
55325		-5.711626	-10.810254	-32.632148
55326		-5.633755	-10.888748	-32.512619
55327		-5.494594	-10.952215	-32.373315
55328		-5.341091	-10.985289	-32.258704
55329		-5.197900	-11.046003	-32.153819
55330		-5.046462	-11.123103	-32.036113
55331		-4.981610	-11.155859	-31.929959
55332		-4.979447	-11.138310	-31.818919
55333		-4.905981	-11.152574	-31.646798
55334		-4.775235	-11.208475	-31.399868
55335		-4.631384	-11.310465	-31.103173
55336		-4.538927	-11.497825	-30.742566
55337		-4.389637	-11.658611	-30.340633
55338		-4.235106	-11.794500	-29.964134
55339		-4.098819	-11.935594	-29.586812
55340		-3.962852	-12.042988	-29.189313
55341		-3.838224	-12.143612	-28.793066
55342		-3.719310	-12.235967	-28.400079
55343		-3.596667	-12.379825	-28.005026
55344		-3.497405	-12.588947	-27.600678
55345		-3.401043	-12.772728	-27.206155
55346		-3.275748	-12.945752	-26.845945
55347		-3.147088	-13.139317	-26.515711
55348		-3.059472	-13.370569	-26.196496
55349		-2.961849	-13.595751	-25.863844
55350		-2.885794	-13.847922	-25.526679
55351		-2.758222	-14.096729	-25.202275
55352		-2.609320	-14.307949	-24.903052
55353		-2.498524	-14.561471	-24.623483
55354		-2.380244	-14.829601	-24.335249
55355		-2.248545	-15.109790	-24.044004
55356		-2.103881	-15.351362	-23.780589
55357		-1.990510	-15.575560	-23.539793
55358		-1.876235	-15.777743	-23.287586
55359		-1.731586	-15.937316	-23.013488
55360		-1.579489	-16.133918	-22.758895
55361		-1.483850	-16.332278	-22.503405
55362		-1.440938	-16.512253	-22.243228
55363		-1.355365	-16.696688	-21.985751
55364		-1.220650	-16.915524	-21.762155
