// General information: 
//  MT Manager version: 2022.2.0 
//  XDA version: 2022.2.0 build 7381 rev 124627 built on 2023-07-19
// Device information: 
//  DeviceId: 00B447F7
//  ProductCode: MTW2-3A7G6
//  Firmware Version: 4.3.5
//  Hardware Version: 2.0.0
// Device settings: 
//  Filter Profile: human(46.1)
//  Option Flags: Orientation Smoother Disabled, Position/Velocity Smoother Disabled, Continuous Zero Rotation Update Disabled, AHS Disabled, ICC Disabled
// Coordinate system: ENU
PacketCounter	SampleTimeFine	Roll	Pitch	Yaw
52272		16.856480	-4.651214	-152.051640
52273		16.854009	-4.635194	-152.052917
52274		16.843818	-4.615855	-152.057161
52275		16.886621	-4.588703	-152.104410
52276		16.969212	-4.551447	-152.176556
52277		16.943126	-4.511716	-152.212465
52278		16.914015	-4.443236	-152.233714
52279		16.956288	-4.364782	-152.229138
52280		17.042977	-4.269101	-152.229846
52281		17.320456	-4.056809	-152.368014
52282		17.752403	-3.621854	-152.635571
52283		18.040796	-3.234442	-152.772619
52284		18.093154	-2.968365	-152.802432
52285		17.954813	-2.750903	-152.766705
52286		17.820470	-2.569257	-152.677784
52287		17.848468	-2.348371	-152.527145
52288		18.203390	-2.016132	-152.452638
52289		18.576282	-1.446280	-152.575464
52290		18.885842	-1.150088	-152.715652
52291		18.973404	-1.099730	-152.816712
52292		18.912916	-0.747917	-152.949160
52293		19.012966	-0.491919	-153.164269
52294		19.091272	-0.442269	-153.310444
52295		19.057680	-0.270310	-153.409654
52296		18.778026	0.166744	-153.448756
52297		18.605604	0.672150	-153.323425
52298		18.615649	1.347146	-153.035733
52299		18.583840	2.173569	-152.749559
52300		18.810157	3.257428	-152.321357
52301		19.408756	4.846755	-151.697611
52302		20.387751	7.140297	-150.781670
52303		20.241963	8.430165	-150.241561
52304		19.622000	8.206193	-150.229207
52305		19.434975	7.507225	-150.265514
52306		18.959639	6.442540	-150.258942
52307		18.197643	5.257299	-150.287057
52308		17.386260	4.546676	-150.368832
52309		17.125687	4.199366	-150.684115
52310		16.762869	3.627679	-151.208251
52311		16.483785	3.174699	-151.587133
52312		16.334652	3.115441	-151.794492
52313		16.185190	2.841536	-151.982214
52314		16.097494	2.286131	-152.046038
52315		16.143244	1.821216	-151.921155
52316		16.214982	1.388311	-151.712223
52317		16.378494	1.010050	-151.639983
52318		16.493053	0.771118	-151.832098
52319		16.521054	0.537134	-152.138257
52320		16.472474	0.374211	-152.348963
52321		16.410016	0.432014	-152.352269
52322		16.370686	0.453568	-152.283706
52323		16.307377	0.286113	-152.420502
52324		16.330900	0.152971	-152.728098
52325		16.392360	0.091850	-153.089752
52326		16.420291	-0.061927	-153.420238
52327		16.434385	-0.114383	-153.764425
52328		16.502921	-0.246764	-154.105969
52329		16.591678	-0.406312	-154.410507
52330		16.643538	-0.513920	-154.541822
52331		16.755992	-0.613701	-154.572359
52332		16.917259	-0.744055	-154.597896
52333		17.015398	-0.762793	-154.621500
52334		17.053024	-0.759425	-154.563786
52335		17.160722	-0.763930	-154.530014
52336		17.232298	-0.789101	-154.501370
52337		17.225120	-0.815827	-154.511063
52338		17.211850	-0.875401	-154.570537
52339		17.205414	-0.992750	-154.667515
52340		17.193651	-1.069159	-154.707376
52341		17.166410	-1.184618	-154.701800
52342		17.120408	-1.303685	-154.718297
52343		17.124412	-1.341884	-154.762313
52344		17.138003	-1.368275	-154.810430
52345		17.002931	-1.630360	-155.014205
52346		16.839433	-2.440685	-155.303424
52347		16.691800	-3.611727	-155.347184
52348		16.762610	-4.035627	-155.206247
52349		16.877586	-3.957505	-155.139427
52350		17.228113	-4.191778	-155.152870
52351		17.448085	-5.146888	-155.135768
52352		17.125463	-5.937505	-154.847614
52353		17.025793	-6.220770	-154.615301
52354		17.114154	-6.560967	-154.606645
52355		17.225711	-6.800199	-154.756593
52356		16.936528	-6.698206	-155.103584
52357		16.633386	-6.512417	-155.442693
52358		15.828700	-6.782131	-155.431914
52359		14.852759	-7.110195	-155.603162
52360		14.061574	-7.356531	-155.871198
52361		13.207128	-7.295429	-156.184948
52362		12.431104	-7.100176	-156.405309
52363		11.839547	-6.843348	-156.495448
52364		11.412795	-6.583330	-156.596578
52365		11.136369	-6.317029	-156.650700
52366		11.009637	-6.045760	-156.648144
52367		10.938132	-5.851907	-156.653901
52368		10.831243	-5.697711	-156.670019
52369		10.761724	-5.553734	-156.687342
52370		10.678976	-5.429709	-156.694280
52371		10.638851	-5.368548	-156.695048
52372		10.714236	-5.346535	-156.689386
52373		10.771708	-5.287189	-156.666577
52374		10.834246	-5.228568	-156.631593
52375		10.884307	-5.201303	-156.602419
52376		10.921148	-5.195806	-156.562368
52377		11.003745	-5.192290	-156.516498
52378		11.104944	-5.245398	-156.468095
52379		11.119319	-5.306266	-156.571223
52380		11.101475	-5.373051	-156.669491
52381		11.067525	-5.407884	-156.807736
52382		11.073012	-5.420930	-156.900138
52383		11.107569	-5.419645	-156.948903
52384		11.139724	-5.423914	-156.993403
52385		11.191408	-5.433942	-156.987245
52386		11.190788	-5.423047	-156.971603
52387		11.170565	-5.443150	-156.961966
52388		11.154165	-5.451674	-156.944112
52389		11.156262	-5.442681	-156.907801
52390		11.159291	-5.465489	-156.871089
52391		11.146168	-5.482320	-156.857955
52392		11.129970	-5.476488	-156.851740
52393		11.113094	-5.475854	-156.861266
52394		11.095328	-5.485083	-156.895508
52395		11.016809	-5.454025	-156.949576
52396		10.902347	-5.391100	-156.964516
52397		10.832622	-5.377341	-156.921790
52398		10.875787	-5.382598	-156.822180
52399		10.924112	-5.347554	-156.699759
52400		10.972067	-5.258191	-156.673619
52401		10.951881	-5.180241	-156.702615
52402		10.855153	-5.090794	-156.728951
52403		10.809890	-4.946876	-156.748703
52404		10.813886	-4.771662	-156.721245
52405		10.786872	-4.627213	-156.697086
52406		10.747705	-4.416912	-156.675371
52407		10.763778	-4.159200	-156.629987
52408		10.870209	-3.974506	-156.572719
52409		10.973041	-3.794325	-156.465428
52410		11.027247	-3.595409	-156.372193
52411		10.910249	-3.456259	-156.315956
52412		10.611996	-3.602385	-156.315076
52413		10.799077	-4.386460	-156.596434
52414		11.264117	-4.717953	-156.723660
52415		11.376644	-4.476812	-156.740999
52416		11.508905	-4.163650	-156.865266
52417		11.641317	-4.070281	-156.960002
52418		11.747427	-4.113365	-157.065677
52419		11.932401	-4.187246	-157.173565
52420		12.114469	-4.264738	-157.374073
52421		12.214552	-4.450341	-157.520171
52422		12.164286	-4.943168	-157.596098
52423		12.336366	-5.613864	-157.791186
52424		12.744339	-6.354302	-157.967664
52425		12.990423	-6.719208	-158.069455
52426		13.101707	-6.780616	-158.193904
52427		13.115418	-6.785003	-158.305891
52428		13.020876	-6.747102	-158.400439
52429		12.829759	-6.625054	-158.446322
52430		12.701039	-6.574290	-158.459369
52431		12.672778	-6.663236	-158.449422
52432		12.731307	-6.837015	-158.463886
52433		12.806699	-6.998553	-158.479974
52434		12.891871	-7.113177	-158.492351
52435		12.993720	-7.137012	-158.486546
52436		13.064375	-7.188235	-158.506590
52437		13.048484	-7.376105	-158.546885
52438		12.973241	-7.673667	-158.584601
52439		12.936132	-7.928703	-158.606477
52440		12.939387	-8.247351	-158.673030
52441		12.875999	-8.774536	-158.778620
52442		12.681903	-9.385583	-158.819573
52443		12.634153	-9.988734	-158.834169
52444		12.883911	-10.592308	-158.812466
52445		13.402148	-11.239087	-158.836873
52446		13.917359	-12.038962	-158.899467
52447		14.174238	-12.437800	-158.808040
52448		14.687829	-12.444455	-158.734333
52449		15.245926	-12.336074	-158.704365
52450		15.702411	-12.210405	-158.617046
52451		15.843022	-12.080193	-158.363204
52452		15.779369	-11.866378	-157.974059
52453		15.464127	-11.344003	-157.258395
52454		15.012629	-10.412540	-156.320325
52455		14.613577	-9.323323	-155.684620
52456		14.289904	-7.883295	-155.474740
52457		13.946974	-5.758918	-155.291133
52458		13.500376	-3.249231	-155.256406
52459		13.049445	-0.881225	-155.252735
52460		12.561364	1.288024	-155.134196
52461		12.139524	3.412048	-154.983026
52462		11.680617	4.896957	-155.111643
52463		11.727477	4.846452	-154.971765
52464		11.572823	5.009394	-154.996720
52465		11.466628	5.159013	-154.983345
52466		11.455158	5.147336	-155.004054
52467		11.480575	4.991524	-155.046740
52468		11.483726	4.831870	-155.074907
52469		11.508983	4.686527	-155.096695
52470		11.506059	4.630577	-155.101881
52471		11.416725	4.795122	-155.078449
52472		11.366208	4.956933	-155.049451
52473		11.359140	5.062223	-155.021402
52474		11.402529	5.033821	-155.000916
52475		11.418417	5.011803	-154.991420
52476		11.428300	5.097845	-154.983544
52477		11.426397	5.233764	-154.973208
52478		11.409244	5.382361	-154.959212
52479		11.397404	5.642533	-154.949535
52480		11.395392	6.016552	-154.907999
52481		11.356358	6.480904	-154.850255
52482		11.191994	7.230416	-154.897564
52483		10.934947	8.498155	-155.009492
52484		10.859302	10.173473	-154.970700
52485		10.907302	11.873631	-154.911743
52486		11.044886	13.266825	-155.081376
52487		11.279235	14.317349	-155.070076
52488		11.389513	15.312548	-154.924339
52489		11.314974	16.363933	-154.865444
52490		11.322741	17.111456	-154.782949
52491		11.333711	17.379789	-154.723349
52492		11.280507	17.255825	-154.713093
52493		11.062851	17.158087	-154.754890
52494		10.790900	17.295536	-154.837547
52495		10.698893	17.436176	-154.855387
52496		10.696593	17.520539	-154.878779
52497		10.723728	17.679433	-154.880078
52498		10.884788	18.003932	-154.821086
52499		11.082733	18.354613	-154.782786
52500		11.201121	18.608384	-154.786968
52501		11.332798	18.765305	-154.727027
52502		11.458530	18.878512	-154.606932
52503		11.455373	18.929373	-154.512328
52504		11.385114	18.817025	-154.493109
52505		11.290350	18.435728	-154.345492
52506		11.060171	17.671098	-154.063637
52507		10.673599	16.820661	-153.817213
52508		10.289590	16.033439	-153.556713
52509		10.069349	15.346531	-153.371024
52510		10.075224	14.645925	-153.194533
52511		10.024218	13.970711	-153.084204
52512		9.779646	13.342119	-153.060504
52513		9.665606	12.829880	-152.992230
52514		9.698199	12.485471	-152.917090
52515		9.753590	12.155040	-152.932243
52516		9.788426	11.898274	-153.045691
52517		9.784975	11.639204	-153.188731
52518		9.859209	11.310817	-153.307854
52519		9.925680	10.810900	-153.553820
52520		9.960952	10.430244	-153.935027
52521		9.885321	10.259230	-154.319772
52522		9.894002	9.959878	-154.542916
52523		10.062249	9.448430	-154.581349
52524		10.225619	8.975776	-154.651841
52525		10.271925	8.750982	-154.911840
52526		10.337899	8.560146	-155.183141
52527		10.430892	8.270220	-155.368687
52528		10.459428	8.083373	-155.487022
52529		10.485242	7.841546	-155.571692
52530		10.547120	7.560917	-155.650033
52531		10.530621	7.471613	-155.808969
52532		10.471347	7.504810	-155.983774
52533		10.477837	7.445076	-156.146212
52534		10.559935	7.262700	-156.256564
52535		10.695282	7.047541	-156.276370
52536		10.847716	6.749072	-156.321579
52537		10.967348	6.526344	-156.454562
52538		11.042086	6.386390	-156.579942
52539		11.108957	6.303092	-156.613690
52540		11.122887	6.227827	-156.601716
52541		11.165537	6.157431	-156.618531
52542		11.183711	6.192859	-156.675671
52543		11.101037	6.223012	-156.782187
52544		10.852388	6.304263	-156.850246
52545		10.693685	6.287420	-156.830279
52546		10.719713	6.253618	-156.801486
52547		10.831442	6.184126	-156.746007
52548		11.030058	6.093951	-156.676376
52549		11.192381	6.059944	-156.637449
52550		11.238174	6.031366	-156.621307
52551		11.201982	6.003947	-156.632452
52552		11.176389	5.931379	-156.637271
52553		11.320588	5.556630	-156.645968
52554		11.779230	4.793944	-156.687374
52555		12.296721	4.087688	-156.784251
52556		12.691258	3.466056	-156.804158
52557		13.043238	2.477739	-156.786578
52558		13.605017	0.844202	-156.702601
52559		13.697987	-1.255499	-156.559502
52560		13.513582	-2.888729	-156.546579
52561		13.356756	-3.841022	-156.705416
52562		13.465292	-5.180154	-156.861037
52563		13.561841	-7.225360	-156.771826
52564		13.241147	-8.598829	-156.558979
52565		12.995079	-9.012473	-156.325958
52566		12.854732	-9.053842	-156.181039
52567		12.672146	-8.931728	-156.226468
52568		12.321280	-9.017032	-156.478656
52569		12.123976	-9.345533	-156.718217
52570		12.042281	-10.048595	-156.858642
52571		11.613753	-11.143254	-156.969330
52572		10.971789	-12.126652	-157.046695
52573		10.629685	-12.352255	-156.939747
52574		10.634178	-11.104844	-156.764179
52575		11.185739	-9.410662	-156.641338
52576		11.193795	-8.271925	-156.779555
52577		10.886822	-7.861448	-156.891008
52578		10.557355	-7.309685	-157.067726
52579		10.292533	-6.914556	-157.287894
52580		10.007721	-6.593813	-157.401868
52581		9.801325	-6.297306	-157.493222
52582		9.589059	-5.914481	-157.582882
52583		9.341840	-5.553955	-157.638674
52584		9.171639	-5.313978	-157.674142
52585		9.069161	-5.152328	-157.694517
52586		8.989775	-5.006084	-157.705772
52587		8.935045	-4.904164	-157.716305
52588		8.934795	-4.856999	-157.722447
52589		8.948869	-4.832048	-157.717819
52590		8.936147	-4.797423	-157.710939
52591		8.912941	-4.759822	-157.688377
52592		8.930283	-4.742150	-157.641744
52593		9.001763	-4.758919	-157.575539
52594		9.053791	-4.800544	-157.500899
52595		9.126410	-4.905790	-157.427914
52596		9.239563	-5.080179	-157.340054
52597		9.284262	-5.267326	-157.338457
52598		9.309042	-5.486511	-157.324556
52599		9.331003	-5.698556	-157.284054
52600		9.422455	-5.886812	-157.249883
52601		9.501041	-6.029210	-157.226980
52602		9.506094	-6.120437	-157.188647
52603		9.511655	-6.178521	-157.180330
52604		9.483471	-6.172005	-157.202919
52605		9.449813	-6.158544	-157.216578
52606		9.440422	-6.160777	-157.219820
52607		9.438149	-6.162826	-157.210741
52608		9.419142	-6.162406	-157.165514
52609		9.412147	-6.172528	-157.122918
52610		9.417050	-6.194515	-157.077839
52611		9.406418	-6.213188	-157.033958
52612		9.391745	-6.245460	-156.992352
52613		9.405464	-6.286607	-156.958672
52614		9.417365	-6.311144	-156.927202
52615		9.404543	-6.326164	-156.875894
52616		9.374884	-6.347536	-156.818124
52617		9.350671	-6.365178	-156.750651
52618		9.340182	-6.379661	-156.669384
52619		9.343063	-6.389496	-156.593392
52620		9.313762	-6.386202	-156.541230
52621		9.246329	-6.373026	-156.507834
52622		9.209267	-6.361499	-156.453127
52623		9.207700	-6.345340	-156.343575
52624		9.208387	-6.366908	-156.204996
52625		9.193064	-6.358186	-156.089448
52626		9.184010	-6.317302	-156.001816
52627		9.195758	-6.258414	-155.933432
52628		9.149748	-6.221531	-155.870590
52629		9.060038	-6.216666	-155.772614
52630		9.011438	-6.200301	-155.626295
52631		8.985011	-6.187198	-155.538988
52632		8.979725	-6.160829	-155.518290
52633		8.952209	-6.095224	-155.502870
52634		8.925416	-6.089031	-155.436779
52635		8.929774	-6.060625	-155.343128
52636		8.959626	-5.968620	-155.252926
52637		8.976173	-5.862468	-155.216725
52638		8.931099	-5.749332	-155.225558
52639		8.841131	-5.603709	-155.262738
52640		8.740321	-5.473804	-155.307759
52641		8.673883	-5.295498	-155.380872
52642		8.688343	-5.039790	-155.461780
52643		8.723388	-4.737896	-155.513925
52644		8.744126	-4.391539	-155.540980
52645		8.726478	-4.208523	-155.486635
52646		8.660083	-4.147178	-155.407259
52647		8.551998	-4.198172	-155.421530
52648		8.782987	-4.757895	-155.622468
52649		9.079608	-4.954080	-155.686159
52650		9.166344	-4.795816	-155.794933
52651		9.175232	-4.583992	-156.092524
52652		9.208032	-4.500539	-156.330043
52653		9.301058	-4.454006	-156.486950
52654		9.439466	-4.392029	-156.588218
52655		9.540053	-4.422049	-156.635987
52656		9.607557	-4.543874	-156.638568
52657		9.741822	-4.666863	-156.685664
52658		9.788926	-4.689974	-156.716380
52659		9.733285	-4.637387	-156.763513
52660		9.605847	-4.555556	-156.844116
52661		9.485166	-4.543436	-156.891264
52662		9.448301	-4.587422	-156.894690
52663		9.480955	-4.620638	-156.869588
52664		9.542621	-4.632622	-156.856662
52665		9.574849	-4.638807	-156.846914
52666		9.608582	-4.662096	-156.829539
52667		9.638299	-4.734801	-156.809324
52668		9.597519	-4.853224	-156.780228
52669		9.539546	-4.999211	-156.749178
52670		9.513893	-5.209178	-156.723340
52671		9.347055	-5.543925	-156.616723
52672		9.125817	-5.897273	-156.344693
52673		8.846698	-6.355723	-156.132608
52674		8.608209	-6.887717	-155.981439
52675		8.352899	-7.416907	-155.839654
52676		8.214611	-7.972178	-155.579809
52677		8.168242	-8.550081	-155.343666
52678		8.288435	-9.265508	-155.158697
52679		8.747162	-9.948450	-154.790889
52680		9.391199	-10.607019	-154.408502
52681		9.872173	-11.109853	-154.057827
52682		9.922003	-11.571366	-153.820677
52683		9.712793	-11.655957	-153.471779
52684		9.605383	-11.263100	-152.891434
52685		9.379532	-10.746443	-152.477166
52686		9.309323	-10.210224	-152.296009
52687		9.382853	-9.319720	-152.158604
52688		9.550913	-7.866162	-151.991772
52689		9.769378	-6.087762	-151.920494
52690		10.019640	-4.415295	-151.936599
52691		10.242549	-2.887591	-151.988045
52692		10.213402	-1.183840	-152.041878
52693		9.990800	0.881196	-152.071344
52694		9.870648	2.789666	-152.122813
52695		9.912159	4.495865	-152.193841
52696		10.037599	6.148149	-152.236595
52697		9.990279	6.691870	-152.353494
52698		9.793356	7.025266	-152.409889
52699		9.660007	7.194230	-152.436359
52700		9.636571	7.391571	-152.430453
52701		9.666446	7.445445	-152.416020
52702		9.649496	7.480113	-152.405606
52703		9.632821	7.550053	-152.419570
52704		9.644311	7.565686	-152.442575
52705		9.655073	7.535370	-152.458499
52706		9.645373	7.497501	-152.463086
52707		9.639805	7.451026	-152.461896
52708		9.649082	7.431343	-152.465314
52709		9.651172	7.429621	-152.468213
52710		9.645849	7.452583	-152.463785
52711		9.657918	7.450440	-152.464015
52712		9.659148	7.425301	-152.465441
52713		9.658678	7.393341	-152.470534
52714		9.664404	7.374510	-152.477401
52715		9.675025	7.352769	-152.489577
52716		9.675058	7.331338	-152.503816
52717		9.681738	7.319624	-152.511662
52718		9.697937	7.306838	-152.512349
52719		9.717316	7.278381	-152.514219
52720		9.740216	7.239207	-152.515943
52721		9.730760	7.310479	-152.517316
52722		9.723305	7.391662	-152.526511
52723		9.711526	7.422126	-152.538765
52724		9.700745	7.393744	-152.556035
52725		9.693910	7.341382	-152.560299
52726		9.707239	7.267489	-152.540804
52727		9.744139	7.197640	-152.521731
52728		9.780806	7.216167	-152.505572
52729		9.831788	7.227066	-152.488046
52730		9.899620	7.252703	-152.481202
52731		9.964333	7.411820	-152.507013
52732		9.972511	7.596932	-152.535572
52733		10.004527	7.831241	-152.462660
52734		10.304455	8.155289	-152.352422
52735		10.684298	8.479979	-152.272045
52736		11.155453	8.754016	-152.104838
52737		11.577162	9.092301	-151.846383
52738		11.951135	9.510134	-151.607911
52739		12.321068	9.838786	-151.532539
52740		12.610531	10.191730	-151.541795
52741		12.859840	10.494721	-151.576489
52742		12.730503	10.626047	-151.519973
52743		12.631757	10.682555	-151.454558
52744		12.575986	10.808810	-151.435917
52745		12.470325	10.907429	-151.516654
52746		12.260022	10.883486	-151.653517
52747		11.989537	10.752305	-151.739137
52748		11.911738	10.621385	-151.679163
52749		11.944143	10.619844	-151.538441
52750		11.999307	10.550582	-151.401027
52751		12.116044	10.324804	-151.280580
52752		12.127629	10.190932	-151.201356
52753		12.088257	10.314804	-151.191009
52754		12.192184	10.333153	-151.220169
52755		12.101748	10.112844	-151.214088
52756		11.959444	9.945934	-151.059552
52757		11.887381	9.919279	-150.939970
52758		11.840216	10.063488	-150.946125
52759		11.802133	10.018540	-150.985891
52760		11.776992	9.573599	-150.909875
52761		11.786280	9.215812	-150.739593
52762		11.697263	9.066313	-150.630074
52763		11.499237	8.842585	-150.582038
52764		11.456381	8.446886	-150.463237
52765		11.512379	8.023192	-150.316255
52766		11.458114	7.645045	-150.215765
52767		11.424083	7.318596	-150.123565
52768		11.534010	7.067967	-150.071900
52769		11.738513	6.963835	-150.120364
52770		11.882302	7.036826	-150.285717
52771		11.880978	7.020434	-150.480756
52772		11.886619	6.867435	-150.596089
52773		11.900236	6.704906	-150.678105
52774		11.860396	6.561762	-150.768196
52775		11.924765	6.453159	-150.811235
52776		12.050658	6.367187	-150.878731
52777		12.202999	6.100384	-150.913058
52778		12.264086	6.018660	-150.995309
52779		12.242546	6.179972	-151.147830
52780		12.223726	6.288744	-151.303804
52781		12.254693	6.269331	-151.444572
52782		12.230694	6.151682	-151.550290
52783		12.189838	6.117882	-151.613147
52784		12.132581	6.071837	-151.647108
52785		12.100156	5.957439	-151.679330
52786		12.075859	5.802673	-151.740366
52787		12.010192	5.658259	-151.818808
52788		11.930593	5.559865	-151.839366
52789		11.757982	5.483998	-151.844611
52790		11.504284	5.474703	-151.859811
52791		11.403400	5.504591	-151.818748
52792		11.529492	5.485080	-151.808646
52793		11.640214	5.451262	-151.787116
52794		11.677504	5.369810	-151.793565
52795		11.705299	5.094078	-151.868792
52796		11.798844	4.667348	-151.995028
52797		11.914127	4.018473	-152.145385
52798		12.048911	3.235574	-152.434257
52799		12.370372	2.084306	-152.744579
52800		12.445655	0.159577	-153.114199
52801		12.522790	-2.265867	-153.383279
52802		12.472058	-3.977573	-153.474075
52803		12.260606	-4.977431	-153.582489
52804		12.241937	-6.142088	-153.693727
52805		12.039920	-7.616492	-153.783289
52806		11.611391	-8.673168	-153.798364
52807		11.312009	-9.055482	-153.732455
52808		11.220218	-9.072650	-153.616016
52809		11.084322	-9.074044	-153.528310
52810		10.791656	-9.020310	-153.517870
52811		10.533800	-8.951261	-153.512792
52812		10.381522	-9.106983	-153.512500
52813		10.201939	-9.121552	-153.521288
52814		9.873231	-8.831852	-153.649156
52815		9.647791	-8.617225	-153.802997
52816		9.574360	-8.384789	-153.968985
52817		9.655278	-7.791273	-154.058007
52818		9.300728	-7.254265	-154.150760
52819		8.977622	-6.842808	-154.355647
52820		8.515426	-6.246195	-154.524651
52821		8.037884	-5.627330	-154.690318
52822		7.609378	-5.183147	-154.816782
52823		7.153164	-4.843038	-154.935110
52824		6.729964	-4.509277	-155.055804
52825		6.419394	-4.231312	-155.136545
52826		6.248155	-4.007968	-155.191680
52827		6.169052	-3.833538	-155.220717
52828		6.142017	-3.715730	-155.207072
52829		6.132645	-3.618895	-155.173679
52830		6.118464	-3.516712	-155.123693
52831		6.110627	-3.462891	-155.071235
52832		6.094131	-3.449309	-155.035783
52833		6.090401	-3.477850	-155.000337
52834		6.129751	-3.549004	-154.963771
52835		6.189987	-3.644351	-154.909832
52836		6.194847	-3.680747	-154.860190
52837		6.142423	-3.706412	-154.830142
52838		6.130776	-3.752932	-154.802937
52839		6.100279	-3.775154	-154.814425
52840		6.078911	-3.790841	-154.928837
52841		5.968709	-3.800207	-155.020707
52842		5.870106	-3.841921	-155.056836
52843		5.896237	-3.888814	-155.082350
52844		5.890088	-3.929540	-155.071015
52845		5.821826	-3.960807	-155.066093
52846		5.795363	-3.979905	-155.049289
52847		5.806856	-3.997702	-154.995331
52848		5.807600	-4.024854	-154.918532
52849		5.826977	-4.058399	-154.859951
52850		5.869076	-4.107596	-154.820113
52851		5.890718	-4.161456	-154.808664
52852		5.906629	-4.217558	-154.816761
52853		5.945234	-4.280114	-154.868454
52854		5.949315	-4.307492	-154.939451
52855		5.983003	-4.352901	-154.990397
52856		5.962429	-4.394516	-155.001781
52857		5.840936	-4.410991	-154.930512
52858		5.673229	-4.423448	-154.789873
52859		5.574343	-4.457592	-154.645276
52860		5.527126	-4.485152	-154.526951
52861		5.479441	-4.500241	-154.435039
52862		5.453138	-4.508443	-154.376367
52863		5.457389	-4.515927	-154.354390
52864		5.473701	-4.521534	-154.353540
52865		5.481170	-4.520319	-154.379691
52866		5.470918	-4.519821	-154.435006
52867		5.466434	-4.510358	-154.476023
52868		5.483775	-4.507183	-154.490079
52869		5.486960	-4.518503	-154.507090
52870		5.468721	-4.514554	-154.523431
52871		5.420230	-4.497520	-154.535319
52872		5.387102	-4.488159	-154.516363
52873		5.400374	-4.487686	-154.469583
52874		5.418039	-4.480662	-154.424722
52875		5.429258	-4.463379	-154.397869
52876		5.415276	-4.463685	-154.358307
52877		5.409094	-4.448447	-154.340214
52878		5.430468	-4.410621	-154.311676
52879		5.466279	-4.374120	-154.278070
52880		5.516671	-4.347970	-154.272336
52881		5.588959	-4.317915	-154.275571
52882		5.640838	-4.289757	-154.316107
52883		5.647677	-4.241564	-154.360656
52884		5.645986	-4.183869	-154.420004
52885		5.629089	-4.143319	-154.431496
52886		5.570870	-4.072461	-154.379474
52887		5.541307	-3.979524	-154.305799
52888		5.512118	-3.902218	-154.256607
52889		5.462268	-3.796270	-154.222748
52890		5.406280	-3.710286	-154.185994
52891		5.350188	-3.652678	-154.149919
52892		5.292266	-3.624916	-154.131882
52893		5.235245	-3.589869	-154.116377
52894		5.206981	-3.540118	-154.085926
52895		5.215607	-3.489109	-154.039993
52896		5.225220	-3.424094	-153.947421
52897		5.214147	-3.341563	-153.841125
52898		5.212971	-3.261283	-153.766264
52899		5.173834	-3.176662	-153.708467
52900		5.131469	-3.043982	-153.666139
52901		5.121392	-2.873517	-153.620948
52902		5.090799	-2.741015	-153.545753
52903		5.022681	-2.635821	-153.483341
52904		4.910549	-2.630164	-153.425491
52905		4.736295	-2.776621	-153.474213
52906		4.852448	-3.259431	-153.772186
52907		5.451449	-3.813514	-154.064336
52908		5.873808	-3.834100	-154.116953
52909		5.807237	-3.496861	-154.082139
52910		5.687409	-3.232626	-154.070592
52911		5.577172	-3.084427	-154.047508
52912		5.500391	-2.983022	-154.016437
52913		5.430225	-2.906991	-153.998893
52914		5.366712	-2.833446	-154.042728
52915		5.234609	-2.767654	-154.148638
52916		5.059684	-2.626380	-154.323011
52917		4.846274	-2.387881	-154.483896
52918		4.625420	-2.180942	-154.647970
52919		4.447336	-2.082710	-154.769801
52920		4.360467	-2.011761	-154.853002
52921		4.340533	-1.953485	-154.890992
52922		4.384446	-1.982369	-154.874973
52923		4.506298	-2.100861	-154.837013
52924		4.617394	-2.246043	-154.797596
52925		4.670920	-2.417298	-154.768089
52926		4.727967	-2.625597	-154.720618
52927		4.861962	-2.920803	-154.650354
52928		5.064067	-3.302207	-154.535218
52929		5.268962	-3.626892	-154.495561
52930		5.278573	-3.832979	-154.488434
52931		5.207666	-4.102779	-154.501170
52932		5.161738	-4.352624	-154.458418
52933		5.238749	-4.559312	-154.372740
52934		5.462638	-4.841142	-154.259734
52935		5.769696	-5.217153	-154.100978
52936		6.129813	-5.549313	-153.893785
52937		6.398258	-5.904280	-153.669229
52938		6.690584	-6.334185	-153.434514
52939		6.978446	-6.759055	-153.196639
52940		7.402897	-7.327732	-152.685406
52941		7.882422	-7.812538	-152.302871
52942		8.227148	-8.361089	-152.019401
52943		8.336512	-8.772794	-151.765300
52944		8.295975	-8.936409	-151.516830
52945		8.272513	-8.890201	-151.227545
52946		8.227024	-8.597086	-150.879487
52947		8.250715	-8.006418	-150.506317
52948		8.348649	-7.064705	-150.196969
52949		8.578860	-6.061650	-149.954319
52950		8.758682	-5.127639	-149.882679
52951		8.973877	-4.174108	-149.900611
52952		9.199113	-3.029944	-149.997099
52953		9.421329	-1.217061	-150.234093
52954		9.617391	1.252854	-150.499344
52955		9.790224	3.403493	-150.780307
52956		9.785479	4.500165	-150.908033
52957		9.534907	4.912615	-150.837517
52958		9.159419	5.740654	-150.849866
52959		8.972877	6.310943	-150.911396
52960		8.927459	6.727343	-150.929209
52961		8.831290	7.347348	-151.000491
52962		8.732363	8.490576	-151.208156
52963		8.440658	9.581439	-151.438412
52964		8.197005	10.484135	-151.607284
52965		8.025010	11.109609	-151.710186
52966		7.834412	11.761464	-151.787049
52967		7.616248	12.430032	-151.839812
52968		7.423547	12.903884	-151.865655
52969		7.344425	13.077136	-151.871106
52970		7.327852	13.182546	-151.872250
52971		7.306984	13.318312	-151.864751
52972		7.323328	13.362593	-151.861930
52973		7.354509	13.274024	-151.850060
52974		7.407026	13.124992	-151.832658
52975		7.436559	13.057846	-151.823045
52976		7.454224	13.012980	-151.814984
52977		7.459605	12.972673	-151.807100
52978		7.468437	12.906799	-151.783956
52979		7.482437	12.764706	-151.743624
52980		7.499581	12.663172	-151.679515
52981		7.542049	12.584179	-151.593667
52982		7.565794	12.547942	-151.543241
52983		7.582246	12.535363	-151.460406
52984		7.697915	12.500606	-151.342495
52985		7.833126	12.522732	-151.246778
52986		7.907892	12.610027	-151.154161
52987		7.989400	12.730569	-151.016333
52988		8.177502	12.811477	-150.802458
52989		8.374910	13.014086	-150.576962
52990		8.642060	13.436484	-150.285620
52991		8.981867	13.885794	-149.904392
52992		9.314619	14.165411	-149.599823
52993		9.354772	14.423726	-149.463361
52994		9.442386	14.346934	-149.376119
52995		9.485908	14.040022	-149.325846
52996		9.587433	13.634829	-149.338487
52997		9.794188	13.173582	-149.396741
52998		9.941091	12.933002	-149.446238
52999		9.993722	13.107261	-149.493462
53000		10.023390	13.419036	-149.518310
53001		10.096130	13.553058	-149.550325
53002		10.220411	13.706861	-149.536417
53003		10.350100	13.906605	-149.554287
53004		10.240191	14.011619	-149.714244
53005		10.019438	14.014936	-149.893201
53006		10.025740	14.133195	-149.958674
53007		10.273511	14.375158	-149.796487
53008		10.728443	14.250992	-149.516034
53009		10.891520	14.079981	-149.418163
53010		10.700450	14.135313	-149.484444
53011		10.631742	14.135392	-149.515554
53012		10.611511	13.990409	-149.489887
53013		10.561426	13.847445	-149.481099
53014		10.486999	13.747412	-149.462645
53015		10.479228	13.653566	-149.417707
53016		10.533741	13.571444	-149.338640
53017		10.604390	13.421083	-149.278279
53018		10.597966	13.288302	-149.270713
53019		10.594783	13.105265	-149.281357
53020		10.544961	12.930294	-149.300619
53021		10.393139	12.718890	-149.400491
53022		10.239843	12.477578	-149.523443
53023		10.142628	12.260221	-149.592341
53024		10.116918	12.000901	-149.647232
53025		10.179948	11.573074	-149.744682
53026		10.226347	11.153067	-149.882863
53027		10.246569	10.852724	-150.023342
53028		10.283418	10.574585	-150.134179
53029		10.317027	10.256289	-150.219442
53030		10.282030	9.976021	-150.318025
53031		10.215344	9.742143	-150.418958
53032		10.201877	9.598195	-150.479457
53033		10.229359	9.510613	-150.560042
53034		10.230689	9.398595	-150.752111
53035		10.232499	9.266329	-150.976165
53036		10.269121	9.187924	-151.129384
53037		10.323910	9.136448	-151.235537
53038		10.404367	8.992029	-151.373247
53039		10.519007	8.855803	-151.512790
53040		10.652813	8.608725	-151.771688
53041		10.778224	8.346193	-152.118091
53042		10.803520	8.234625	-152.419051
53043		10.844237	8.230449	-152.569689
53044		10.960633	8.137591	-152.700128
53045		11.003999	7.948319	-152.916932
53046		11.064793	7.778275	-153.119667
53047		11.058275	7.787298	-153.296758
53048		10.991188	7.673513	-153.464132
53049		10.859049	7.604467	-153.613797
53050		10.740811	7.489643	-153.723718
53051		10.645677	7.378517	-153.760046
53052		10.588378	7.247329	-153.780309
53053		10.505041	7.176677	-153.759411
53054		10.503003	7.108879	-153.703358
53055		10.610209	7.015838	-153.654363
53056		10.731315	6.894841	-153.595483
53057		10.908988	6.619717	-153.619294
53058		11.133224	6.251349	-153.680285
53059		11.349752	5.837182	-153.758243
53060		11.565968	5.133010	-153.825992
53061		11.893187	3.837366	-153.974755
53062		12.142625	2.140219	-154.342165
53063		12.448045	0.440492	-154.714120
53064		12.858704	-1.205620	-154.793722
53065		12.818069	-2.925357	-154.687847
53066		12.635996	-4.687923	-154.606709
53067		12.221516	-5.977874	-154.631190
53068		11.919910	-6.698813	-154.844317
53069		11.900579	-7.095942	-154.985370
53070		11.826416	-7.280027	-155.039990
53071		11.658589	-7.592020	-155.077392
53072		11.318586	-8.073989	-155.116634
53073		10.821195	-8.480845	-155.257113
53074		10.598840	-8.827515	-155.399074
53075		10.567890	-9.398520	-155.622586
53076		10.311260	-10.168445	-156.006670
53077		10.302831	-10.507091	-156.289571
53078		10.158682	-9.785565	-156.307919
53079		9.834176	-8.613152	-156.570954
53080		9.634515	-8.298469	-156.758180
53081		9.190554	-8.001229	-156.944338
53082		8.804822	-7.151677	-156.986695
53083		8.501523	-6.527297	-157.006796
53084		8.258495	-6.028901	-157.045400
53085		7.977104	-5.548563	-157.089848
53086		7.698174	-5.115634	-157.125580
53087		7.489131	-4.792014	-157.148419
53088		7.309502	-4.547470	-157.167770
53089		7.157599	-4.352496	-157.171121
53090		7.084238	-4.221782	-157.156177
53091		7.090832	-4.170326	-157.126866
53092		7.118420	-4.160791	-157.094342
53093		7.126469	-4.174948	-157.068089
53094		7.124441	-4.210690	-157.045114
53095		7.152114	-4.253394	-157.012054
53096		7.177152	-4.307961	-156.952034
53097		7.233975	-4.356273	-156.899357
53098		7.279149	-4.467406	-156.857036
53099		7.254778	-4.666228	-156.881585
53100		7.175399	-4.878116	-157.088401
53101		7.100919	-5.068905	-157.262954
53102		7.125045	-5.201300	-157.426211
53103		7.194136	-5.249535	-157.521976
53104		7.278686	-5.257392	-157.541039
53105		7.359535	-5.261738	-157.505400
53106		7.423575	-5.266667	-157.453473
53107		7.453643	-5.268496	-157.393497
53108		7.458862	-5.276652	-157.323989
53109		7.451525	-5.282826	-157.247386
53110		7.458343	-5.291166	-157.184049
53111		7.479954	-5.308047	-157.148329
53112		7.471873	-5.332927	-157.106642
53113		7.465801	-5.358911	-157.066465
53114		7.466799	-5.391509	-157.023775
53115		7.489345	-5.435829	-156.999656
53116		7.491596	-5.493093	-156.960079
53117		7.488130	-5.535439	-156.924030
53118		7.461961	-5.563454	-156.883305
53119		7.432952	-5.594270	-156.828671
53120		7.423784	-5.631205	-156.764121
53121		7.437856	-5.645663	-156.711892
53122		7.454653	-5.649628	-156.652979
53123		7.453325	-5.652899	-156.586394
53124		7.467515	-5.654495	-156.506885
53125		7.489265	-5.659269	-156.387256
53126		7.495090	-5.664697	-156.225018
53127		7.499790	-5.661025	-156.020507
53128		7.515398	-5.645964	-155.831030
53129		7.502412	-5.626001	-155.697556
53130		7.436649	-5.619832	-155.612699
53131		7.333743	-5.612325	-155.509277
53132		7.227331	-5.598408	-155.412584
53133		7.075876	-5.572579	-155.355482
53134		6.680866	-5.523830	-155.446679
53135		5.968596	-5.446799	-155.566489
53136		5.298573	-5.398957	-155.570533
53137		4.844666	-5.415432	-155.439018
53138		4.616772	-5.397065	-155.304925
53139		4.614450	-5.311393	-155.229969
53140		4.770315	-5.207773	-155.221525
53141		4.949398	-5.113203	-155.220361
53142		5.235432	-5.083565	-155.089457
53143		5.600447	-5.101163	-154.916670
53144		5.841716	-5.136353	-154.795238
53145		6.000191	-5.109699	-154.727109
53146		6.127581	-5.038667	-154.727024
53147		6.166585	-4.946268	-154.746530
53148		6.136586	-4.824624	-154.780159
53149		6.074261	-4.642170	-154.869033
53150		5.971163	-4.438852	-154.982754
53151		5.771615	-4.200648	-155.096789
53152		5.564169	-3.970346	-155.159069
53153		5.415157	-3.763093	-155.134854
53154		5.396218	-3.569610	-155.002544
53155		5.456972	-3.351419	-154.817491
53156		5.489265	-3.112088	-154.729272
53157		5.406389	-2.846530	-154.747856
53158		5.309533	-2.566928	-154.823984
53159		5.190448	-2.332022	-154.958510
53160		4.959422	-2.152419	-155.156029
53161		4.664642	-2.174252	-155.365278
53162		4.687477	-2.533065	-155.610278
53163		5.297134	-3.432806	-155.697328
53164		6.236814	-3.816796	-155.648135
53165		6.884848	-3.606284	-155.594856
53166		7.108897	-3.417173	-155.571765
53167		6.997170	-3.286307	-155.641736
53168		6.843687	-3.213643	-155.681151
53169		6.832534	-3.211634	-155.697135
53170		6.902282	-3.236895	-155.703697
53171		6.930900	-3.222320	-155.714960
53172		6.915817	-3.165624	-155.744883
53173		6.909214	-3.133849	-155.771874
53174		6.964314	-3.130578	-155.786497
53175		7.053396	-3.168229	-155.799411
53176		7.113139	-3.257006	-155.795424
53177		7.195161	-3.364632	-155.768918
53178		7.339582	-3.489690	-155.693625
53179		7.450591	-3.652956	-155.598449
53180		7.493097	-3.885093	-155.504059
53181		7.539678	-4.161914	-155.427156
53182		7.599781	-4.516018	-155.368918
53183		7.720351	-4.953505	-155.279902
53184		7.711929	-5.457631	-155.070411
53185		7.576958	-5.984726	-154.829820
53186		7.528519	-6.553591	-154.570679
53187		7.500616	-7.019285	-154.461773
53188		7.927799	-7.378523	-154.363840
53189		8.448568	-7.718748	-154.228242
53190		8.956474	-8.165484	-154.022124
53191		9.410670	-8.469351	-153.658237
53192		9.679861	-8.636721	-153.238840
53193		9.983661	-8.638226	-152.711830
53194		10.299421	-8.300791	-152.214314
53195		10.606566	-7.621348	-151.780730
53196		10.643567	-6.480454	-151.351235
53197		10.454520	-4.935553	-150.897776
53198		10.419712	-3.180700	-150.505773
53199		10.458122	-1.406403	-150.308988
53200		10.397163	0.501334	-150.080167
53201		10.238466	2.319496	-149.774081
53202		10.060745	3.960427	-149.551210
53203		9.851766	5.203232	-149.469255
53204		9.559449	6.056249	-149.511173
53205		9.261744	7.137644	-149.550222
53206		9.062997	8.272429	-149.678416
53207		8.764017	9.196131	-149.816418
53208		8.726973	10.186638	-149.922457
53209		8.614895	10.714795	-149.993711
53210		8.320864	11.121720	-150.072395
53211		8.124057	11.320482	-150.113277
53212		8.079761	11.387344	-150.102907
53213		8.095222	11.399130	-150.073696
53214		8.041198	11.563189	-150.059952
53215		7.957133	11.766435	-150.068692
53216		7.911900	11.879229	-150.076869
53217		7.953173	11.846950	-150.078517
53218		8.002268	11.753081	-150.087081
53219		8.043813	11.691692	-150.101687
53220		8.060874	11.687809	-150.103543
53221		8.083140	11.708894	-150.091941
53222		8.097866	11.738001	-150.075064
53223		8.089197	11.770716	-150.055573
53224		8.061012	11.843278	-150.028899
53225		8.062878	11.899302	-150.005207
53226		8.095541	11.938457	-149.992957
53227		8.165271	11.914777	-149.997055
53228		8.221140	11.822666	-149.993289
53229		8.271850	11.763896	-149.976588
53230		8.336483	11.730030	-149.945804
53231		8.398626	11.691740	-149.928957
53232		8.424671	11.668213	-149.933962
53233		8.438744	11.621836	-149.962008
53234		8.438720	11.534081	-149.979393
53235		8.467091	11.473813	-149.970386
53236		8.558771	11.442784	-149.952900
53237		8.660774	11.416694	-149.945592
53238		8.693392	11.459476	-149.954343
53239		8.752632	11.485721	-149.943559
53240		8.966671	11.359285	-149.910176
53241		9.204702	11.202705	-149.882583
53242		9.518358	11.064525	-149.772167
53243		9.584499	11.257096	-149.839846
53244		9.624776	11.426438	-149.854484
53245		9.568366	11.468965	-149.970341
53246		9.564024	11.350523	-150.105578
53247		9.582786	11.256482	-150.239204
53248		9.650074	11.420021	-150.344141
53249		9.730952	11.702168	-150.446913
53250		9.826496	12.029905	-150.486490
53251		10.034470	12.271723	-150.448796
53252		10.192667	12.302113	-150.396400
53253		10.190998	12.348091	-150.403827
53254		10.199990	12.555690	-150.443653
53255		10.240809	12.738328	-150.503033
53256		10.295358	13.040161	-150.513477
53257		10.441691	12.967779	-150.537779
53258		10.329216	12.594428	-150.565166
53259		10.097964	12.084023	-150.555886
53260		9.906149	11.777020	-150.538356
53261		9.859189	11.380679	-150.557113
53262		9.962979	10.744610	-150.543324
53263		10.164868	9.903976	-150.468091
53264		10.328863	9.203439	-150.407591
53265		10.398786	8.832580	-150.464922
53266		10.448861	8.471253	-150.605914
53267		10.524570	8.005001	-150.755803
53268		10.680039	7.521371	-150.869247
53269		10.876619	7.159592	-150.964007
53270		10.980886	6.916521	-151.113591
53271		11.034840	6.761166	-151.232002
53272		11.106791	6.548961	-151.337002
53273		11.168200	6.344936	-151.465427
53274		11.221703	6.123415	-151.611473
53275		11.324135	5.912358	-151.755046
53276		11.362113	5.801052	-151.899782
53277		11.441544	5.641383	-152.024455
53278		11.614762	5.382552	-152.129447
53279		11.742469	5.169831	-152.230581
53280		11.817299	5.035979	-152.344490
53281		11.912684	4.929750	-152.456719
53282		11.991179	4.792807	-152.610270
53283		12.050752	4.568942	-152.798865
53284		12.153913	4.399542	-153.002122
53285		12.223959	4.332235	-153.275044
53286		12.259000	4.249350	-153.557540
53287		12.331650	4.012055	-153.772458
53288		12.463536	3.835973	-153.930878
53289		12.557036	3.738477	-154.080639
53290		12.588974	3.698691	-154.249712
53291		12.562197	3.717161	-154.402512
53292		12.516621	3.754088	-154.486182
53293		12.441009	3.844957	-154.577226
53294		12.229211	3.966866	-154.748465
53295		12.119787	4.051392	-154.847340
53296		12.105494	4.110123	-154.878661
53297		12.033923	4.037525	-154.956113
53298		11.854961	4.134269	-155.005049
53299		11.536801	4.355423	-154.957659
53300		11.308847	4.492716	-154.876938
53301		11.336558	4.596736	-154.823595
53302		11.502792	4.635688	-154.776578
53303		11.643048	4.625561	-154.746329
53304		11.735429	4.460120	-154.777245
53305		11.881438	4.076186	-154.844639
53306		12.114410	3.599245	-154.947911
53307		12.340059	3.000868	-155.057518
53308		12.796402	1.969405	-155.352807
53309		13.240503	0.374246	-155.746880
53310		13.638813	-1.474918	-156.083960
53311		13.714558	-3.182211	-156.284366
53312		13.528646	-4.560392	-156.244737
53313		13.237402	-5.849823	-156.105359
53314		12.828980	-7.212729	-156.075911
53315		12.517436	-8.412433	-156.206922
53316		12.421474	-9.197786	-156.221145
53317		12.405119	-9.702217	-156.056295
53318		12.267413	-10.239601	-155.964838
53319		12.170490	-11.009029	-155.875108
53320		12.017541	-11.947205	-155.654967
53321		11.760940	-12.785351	-155.329334
53322		11.607971	-13.249363	-155.105649
53323		11.521802	-13.106062	-154.782944
53324		11.061138	-12.581963	-154.649843
53325		10.770209	-11.669611	-154.884875
53326		10.753679	-10.378284	-155.128419
53327		10.883665	-8.846896	-155.281124
53328		10.261168	-7.541013	-155.504977
53329		9.670029	-6.672520	-155.620339
53330		8.916628	-5.437065	-155.921058
53331		8.478291	-4.967115	-156.098143
53332		8.012639	-4.511754	-156.224389
53333		7.619550	-4.111205	-156.357938
53334		7.327938	-3.840996	-156.456609
53335		7.096464	-3.649634	-156.518855
53336		6.918144	-3.481592	-156.552868
53337		6.866263	-3.363533	-156.562484
53338		6.869405	-3.287576	-156.558768
53339		6.854341	-3.240612	-156.556949
53340		6.855410	-3.215073	-156.555244
53341		6.862063	-3.196365	-156.543087
53342		6.859078	-3.199962	-156.523056
53343		6.843373	-3.201418	-156.515503
53344		6.865229	-3.219277	-156.502794
53345		6.946561	-3.260780	-156.464502
53346		7.010304	-3.299620	-156.420460
53347		7.041363	-3.325253	-156.363298
53348		7.068152	-3.370319	-156.288342
53349		7.111785	-3.433043	-156.221389
53350		7.158260	-3.518354	-156.153828
53351		7.164722	-3.598148	-156.158471
53352		7.214031	-3.671868	-156.196833
53353		7.162274	-3.717250	-156.238021
53354		7.051252	-3.743250	-156.273515
53355		7.050537	-3.762432	-156.389906
53356		7.051417	-3.793385	-156.454218
53357		7.051571	-3.845474	-156.542405
53358		7.051973	-3.886874	-156.654211
53359		7.060580	-3.909945	-156.765509
53360		7.072963	-3.911145	-156.893845
53361		7.083554	-3.925531	-157.007149
53362		7.102822	-3.940429	-157.131300
53363		7.122456	-3.952378	-157.243607
53364		7.129356	-3.949165	-157.352116
53365		7.132325	-3.966841	-157.457988
53366		7.151724	-3.975209	-157.537940
53367		7.168437	-3.968648	-157.608340
53368		7.179551	-3.979649	-157.679228
53369		7.197892	-4.001390	-157.738659
53370		7.215502	-4.014861	-157.795283
53371		7.220597	-4.022546	-157.835891
53372		7.244280	-4.037251	-157.856828
53373		7.261839	-4.048642	-157.865249
53374		7.265338	-4.037037	-157.885522
53375		7.259330	-4.039153	-157.905307
53376		7.262743	-4.040874	-157.934442
53377		7.272510	-4.044123	-157.929229
53378		7.260910	-4.045317	-157.901676
53379		7.183924	-4.051751	-157.858387
53380		7.096903	-4.056722	-157.806991
53381		7.034757	-4.067473	-157.704740
53382		6.991361	-4.089631	-157.570872
53383		6.971142	-4.123145	-157.448496
53384		6.950259	-4.141336	-157.349428
53385		6.925680	-4.144073	-157.280575
53386		6.891159	-4.139779	-157.233960
53387		6.826041	-4.122249	-157.208191
53388		6.775121	-4.112047	-157.218374
53389		6.722481	-4.099866	-157.245576
53390		6.672351	-4.080551	-157.252222
53391		6.642215	-4.055436	-157.219448
53392		6.663376	-4.052407	-157.136524
53393		6.699054	-4.052012	-157.052083
53394		6.726081	-4.047539	-156.967547
53395		6.759454	-4.063110	-156.892861
53396		6.828272	-4.107288	-156.820488
53397		6.902409	-4.133480	-156.773803
53398		6.927371	-4.153491	-156.729972
53399		6.940789	-4.170303	-156.699856
53400		6.970818	-4.192992	-156.672586
53401		6.978710	-4.204567	-156.639425
53402		6.946388	-4.200373	-156.588787
53403		6.922859	-4.202993	-156.478368
53404		6.930425	-4.207055	-156.363189
53405		6.914071	-4.199803	-156.257240
53406		6.888009	-4.184642	-156.150206
53407		6.857864	-4.175487	-156.052057
53408		6.791189	-4.155792	-155.984066
53409		6.724293	-4.121772	-155.893062
53410		6.680197	-4.094772	-155.793227
53411		6.677477	-4.046265	-155.701987
53412		6.673856	-3.978609	-155.637130
53413		6.664163	-3.935963	-155.575988
53414		6.680924	-3.885776	-155.532487
53415		6.684942	-3.834350	-155.474989
53416		6.659507	-3.781617	-155.431976
53417		6.593743	-3.731717	-155.400112
53418		6.561762	-3.695665	-155.354719
53419		6.568239	-3.647566	-155.298218
53420		6.566976	-3.580186	-155.231589
53421		6.504852	-3.501980	-155.186711
53422		6.442690	-3.436940	-155.143702
53423		6.408539	-3.351627	-155.097481
53424		6.365971	-3.224632	-155.051167
53425		6.325238	-3.051180	-155.034031
53426		6.227652	-2.896123	-155.012131
53427		6.049238	-2.817512	-154.973316
53428		5.864378	-2.896991	-154.942382
53429		5.869573	-3.139901	-155.047293
53430		6.289180	-3.560632	-155.169871
53431		6.748415	-3.754119	-155.124449
53432		6.926360	-3.747496	-155.060956
53433		7.005248	-3.743580	-155.050001
53434		7.102210	-3.744384	-155.024585
53435		7.194028	-3.772366	-154.999662
53436		7.311506	-3.795327	-154.998071
53437		7.346826	-3.756537	-155.004599
53438		7.280137	-3.655262	-155.028710
53439		7.182484	-3.555774	-155.053510
53440		7.100557	-3.483559	-155.087088
53441		7.023031	-3.434451	-155.119850
53442		6.941793	-3.398506	-155.139632
53443		6.869660	-3.392763	-155.155480
53444		6.836556	-3.416320	-155.157296
53445		6.811907	-3.476405	-155.154933
53446		6.780938	-3.632854	-155.178963
53447		6.749274	-3.786921	-155.191256
53448		6.744677	-3.947212	-155.167747
53449		6.775833	-4.146696	-155.108273
53450		6.877128	-4.334644	-154.947261
53451		6.945482	-4.473626	-154.749462
53452		7.067593	-4.560958	-154.693113
53453		7.180442	-4.680127	-154.642085
53454		7.277466	-4.883720	-154.599931
53455		7.353409	-5.112546	-154.484092
53456		7.440794	-5.348836	-154.291654
53457		7.556783	-5.625462	-154.069123
53458		7.766034	-5.949815	-153.864466
53459		8.013001	-6.228813	-153.662135
53460		8.422952	-6.627890	-153.341204
53461		8.849936	-7.180450	-153.104820
53462		9.307403	-7.941525	-153.012579
53463		9.895422	-8.621610	-152.890333
53464		10.068389	-8.974263	-152.690546
53465		10.071071	-9.020734	-152.304113
53466		10.151847	-8.948970	-151.812216
53467		10.194345	-8.749422	-151.300513
53468		10.239268	-8.223837	-150.834748
53469		10.103300	-7.465265	-150.289479
53470		9.890826	-6.465858	-149.864580
53471		9.542944	-4.618491	-149.600135
53472		9.285163	-2.213942	-149.564556
53473		9.414633	0.041556	-149.625025
53474		9.706057	2.073702	-149.672213
53475		9.803352	4.135660	-149.716835
53476		9.525032	5.958369	-149.842026
53477		9.361360	7.388523	-149.900855
53478		9.182557	8.131323	-149.886659
53479		8.934045	8.492148	-149.847524
53480		8.763370	8.661930	-149.832431
53481		8.679849	8.851299	-149.815545
53482		8.712007	8.894433	-149.813068
53483		8.748034	8.878031	-149.815377
53484		8.743740	8.867444	-149.812466
53485		8.748912	8.881345	-149.805784
53486		8.747634	8.897258	-149.793260
53487		8.727419	8.934447	-149.779817
53488		8.726054	8.950135	-149.763325
53489		8.737277	8.954545	-149.750871
53490		8.760788	8.967164	-149.749633
53491		8.776731	8.982831	-149.756005
53492		8.794267	8.965241	-149.772291
53493		8.810704	8.944796	-149.799539
53494		8.819790	8.923192	-149.819228
53495		8.832695	8.901171	-149.830399
53496		8.897450	8.853459	-149.843394
53497		9.007201	8.810256	-149.869933
53498		9.109874	8.771272	-149.894737
53499		9.231287	8.749833	-149.926209
53500		9.317101	8.639863	-149.963779
53501		9.384823	8.432095	-149.988315
53502		9.491381	8.281105	-149.992384
53503		9.623411	8.274446	-150.009786
53504		9.728395	8.371895	-150.013275
53505		9.820878	8.560713	-149.955995
53506		9.975750	8.790017	-149.853057
53507		10.015446	9.340611	-149.985345
53508		9.944555	11.477097	-149.919215
53509		10.328128	13.584395	-149.580178
53510		10.884324	15.381292	-149.407733
53511		11.215503	16.752180	-149.605913
53512		11.278122	17.663130	-149.967072
53513		11.157788	18.139143	-150.299522
53514		11.059981	18.250664	-150.533230
53515		10.813318	18.099360	-150.760353
53516		10.663317	17.855872	-150.909335
53517		10.577749	17.602086	-151.034364
53518		10.386248	17.270533	-151.210576
53519		10.117923	16.813080	-151.294690
53520		10.120962	16.020031	-151.189859
53521		10.247274	14.752673	-151.088524
53522		10.178378	13.246474	-151.132659
53523		10.003257	12.298512	-151.307308
53524		9.993397	12.071277	-151.489879
53525		10.088468	11.591323	-151.596201
53526		10.183475	10.718621	-151.555583
53527		10.295045	9.986533	-151.394542
53528		10.387806	9.573878	-151.241278
53529		10.377658	9.229130	-151.214410
53530		10.346580	8.983810	-151.318413
53531		10.260704	8.871108	-151.462505
53532		10.150286	8.819275	-151.599950
53533		10.056815	8.739243	-151.772212
53534		10.040389	8.562929	-151.980740
53535		10.054395	8.400526	-152.207539
53536		10.022602	8.284290	-152.473420
53537		10.032125	8.219785	-152.704173
53538		10.134410	8.018374	-152.921662
53539		10.256885	7.661169	-153.149080
53540		10.298694	7.465062	-153.291749
53541		10.295528	7.350690	-153.315549
53542		10.298926	7.168283	-153.310829
53543		10.347119	6.900443	-153.305340
53544		10.433887	6.701336	-153.319847
53545		10.501215	6.551964	-153.318996
53546		10.553549	6.413672	-153.333676
53547		10.532732	6.376236	-153.429763
53548		10.459493	6.410312	-153.570799
53549		10.396869	6.453710	-153.691123
53550		10.400455	6.360176	-153.752016
53551		10.449741	6.169515	-153.805121
53552		10.511012	6.037320	-153.869634
53553		10.483827	6.101270	-154.004871
53554		10.461066	6.216452	-154.153412
53555		10.576273	6.152413	-154.250879
53556		10.702519	6.116310	-154.320293
53557		10.762171	6.125627	-154.477501
53558		10.598623	6.305859	-154.713173
53559		10.283378	6.638734	-154.916696
53560		10.052617	6.788471	-155.019399
53561		9.974573	6.818245	-155.079553
53562		9.853479	6.867735	-155.093483
53563		9.822817	6.777384	-155.068667
53564		9.869160	6.718550	-155.024414
53565		9.930882	6.697943	-154.978208
53566		9.888571	6.717562	-154.924728
53567		9.889800	6.687496	-154.889891
53568		9.943557	6.600376	-154.901036
53569		9.997670	6.439501	-154.954793
53570		10.153857	6.000560	-154.998057
53571		10.573509	5.047937	-155.015026
53572		11.229183	3.851972	-155.272647
53573		11.929007	2.796137	-155.551083
53574		12.558213	1.518708	-155.690792
53575		12.886417	-0.126945	-155.861925
53576		12.948937	-1.834520	-156.203957
53577		13.137995	-3.419815	-156.249697
53578		12.977217	-5.008781	-155.971464
53579		12.644861	-6.538077	-155.828866
53580		12.385655	-7.800933	-155.784616
53581		12.302026	-8.855764	-155.870205
53582		12.394229	-9.634860	-155.885829
53583		12.280671	-10.105588	-155.792523
53584		12.048362	-10.407028	-155.674220
53585		11.763422	-10.760360	-155.473407
53586		11.573064	-11.356651	-155.253382
53587		11.529854	-11.722161	-155.009932
53588		11.342533	-11.364924	-154.719834
53589		11.138636	-10.856594	-154.645874
53590		11.144911	-10.651212	-154.712760
53591		11.061625	-10.351443	-154.717421
53592		11.025998	-9.774277	-154.722083
53593		11.051461	-9.247840	-154.758260
53594		10.955947	-8.763794	-154.862439
53595		10.700068	-8.216575	-155.003971
53596		10.216926	-7.512817	-155.083181
53597		9.586985	-6.673539	-155.134574
53598		9.009672	-5.826177	-155.226048
53599		8.577847	-5.417755	-155.384594
53600		8.268944	-5.232445	-155.536086
53601		8.126715	-5.098930	-155.630733
53602		8.069347	-4.901395	-155.734990
53603		7.938845	-4.713667	-155.827759
53604		7.821798	-4.564445	-155.899047
53605		7.767399	-4.469853	-155.928788
53606		7.776718	-4.411032	-155.951595
53607		7.757339	-4.331706	-155.973850
53608		7.713087	-4.256467	-155.968510
53609		7.722531	-4.209147	-155.961971
53610		7.710531	-4.171099	-155.945309
53611		7.685286	-4.135618	-155.932156
53612		7.679616	-4.105354	-155.919331
53613		7.658335	-4.080266	-155.901358
53614		7.667687	-4.066042	-155.873336
53615		7.746005	-4.092084	-155.832539
53616		7.943770	-4.147569	-155.779755
53617		8.035371	-4.233335	-155.667742
53618		7.987946	-4.248064	-155.603651
53619		7.943643	-4.254388	-155.540153
53620		7.889115	-4.286754	-155.510103
53621		7.784971	-4.334147	-155.578145
53622		7.740178	-4.421732	-155.672520
53623		7.676866	-4.499588	-155.817861
53624		7.554816	-4.573804	-155.995547
53625		7.550921	-4.652590	-156.101584
53626		7.629670	-4.664590	-156.160749
53627		7.659060	-4.665040	-156.196006
53628		7.653490	-4.671939	-156.229619
53629		7.690447	-4.657227	-156.216444
53630		7.753903	-4.621323	-156.180580
53631		7.773203	-4.609795	-156.144830
53632		7.760613	-4.609794	-156.130518
53633		7.740615	-4.623351	-156.131367
53634		7.725625	-4.641674	-156.162799
53635		7.719547	-4.651887	-156.211232
53636		7.693406	-4.651444	-156.244379
53637		7.638026	-4.658246	-156.263989
53638		7.621249	-4.667271	-156.301685
53639		7.618950	-4.681431	-156.337863
53640		7.610988	-4.713193	-156.388084
53641		7.616333	-4.741931	-156.420988
53642		7.637367	-4.759088	-156.403990
53643		7.661370	-4.762262	-156.360202
53644		7.712621	-4.778601	-156.319227
53645		7.739185	-4.795121	-156.293026
53646		7.719210	-4.793116	-156.269835
53647		7.695403	-4.787470	-156.223680
53648		7.656491	-4.784692	-156.170020
53649		7.642796	-4.793538	-156.096985
53650		7.604034	-4.806228	-156.038318
53651		7.545688	-4.804407	-156.006919
53652		7.500463	-4.798177	-155.960890
53653		7.493987	-4.802060	-155.921079
53654		7.479436	-4.801051	-155.883282
53655		7.447865	-4.783588	-155.876681
53656		7.428997	-4.778930	-155.899571
53657		7.416903	-4.785667	-155.923052
53658		7.397160	-4.780584	-155.953557
53659		7.385690	-4.750050	-156.000533
53660		7.364143	-4.727960	-156.027119
53661		7.332024	-4.687416	-156.027911
53662		7.274682	-4.642284	-155.992107
53663		7.253442	-4.583532	-155.921442
53664		7.260031	-4.520651	-155.848003
53665		7.280105	-4.464125	-155.771723
53666		7.301614	-4.425283	-155.664906
53667		7.318399	-4.370829	-155.564138
53668		7.312192	-4.287529	-155.462416
53669		7.317910	-4.226216	-155.396929
53670		7.344894	-4.202739	-155.337267
53671		7.367670	-4.142896	-155.360058
53672		7.368518	-4.084163	-155.403231
53673		7.358029	-4.034490	-155.475156
53674		7.350270	-4.001953	-155.529540
53675		7.354993	-3.945423	-155.562412
53676		7.367316	-3.886923	-155.542378
53677		7.399416	-3.824475	-155.469411
53678		7.428419	-3.782968	-155.350460
53679		7.446892	-3.777699	-155.228311
53680		7.453737	-3.755597	-155.115293
53681		7.441841	-3.708533	-155.038758
53682		7.403719	-3.665626	-154.996892
53683		7.352525	-3.622209	-155.003195
53684		7.308809	-3.549968	-155.038292
53685		7.271607	-3.462855	-155.095600
53686		7.232085	-3.413625	-155.130048
53687		7.246191	-3.375487	-155.147909
53688		7.270383	-3.334071	-155.137478
53689		7.283158	-3.273932	-155.134753
53690		7.288609	-3.195389	-155.134737
53691		7.276007	-3.131921	-155.140818
53692		7.216951	-3.115210	-155.137955
53693		7.077625	-3.126630	-155.167533
53694		6.869439	-3.234882	-155.190221
53695		6.722959	-3.388597	-155.177409
53696		6.809121	-3.636119	-155.268790
53697		7.049596	-3.927779	-155.331002
53698		7.316454	-4.142739	-155.408113
53699		7.477610	-4.173191	-155.559756
53700		7.498206	-4.100992	-155.749204
53701		7.435436	-4.008830	-155.914449
53702		7.373367	-3.942397	-156.021392
53703		7.355159	-3.904898	-156.082514
53704		7.333957	-3.863139	-156.107539
53705		7.314479	-3.830186	-156.134465
53706		7.283987	-3.798239	-156.162731
53707		7.248894	-3.767130	-156.182315
53708		7.250972	-3.745559	-156.195771
53709		7.249006	-3.737010	-156.194340
53710		7.226719	-3.730478	-156.181626
53711		7.200366	-3.744555	-156.160731
53712		7.176602	-3.765142	-156.152573
53713		7.171365	-3.777981	-156.098638
53714		7.211653	-3.750002	-156.057095
53715		7.247808	-3.756417	-156.001320
53716		7.301554	-3.789243	-155.931791
53717		7.453384	-3.799997	-155.861444
53718		7.508607	-3.830135	-155.823654
53719		7.533768	-3.881235	-155.801237
53720		7.568183	-3.889022	-155.790776
53721		7.608077	-3.900670	-155.731874
53722		7.660374	-3.958178	-155.535034
53723		7.693741	-4.152126	-155.323519
53724		7.785383	-4.445953	-155.117225
53725		7.954915	-4.821447	-154.879187
53726		8.181295	-5.276618	-154.613701
53727		8.454813	-5.806903	-154.325843
53728		8.711641	-6.283443	-153.984096
53729		9.187549	-6.758913	-153.711626
53730		9.741209	-7.371322	-153.511949
53731		10.168327	-8.156047	-153.329088
53732		10.464672	-9.029997	-153.086644
53733		10.534152	-9.724319	-152.754131
53734		10.527043	-9.877003	-152.241362
53735		10.448439	-9.584660	-151.721643
53736		10.391914	-9.162798	-151.377128
53737		10.465720	-8.772075	-151.137936
53738		10.608445	-8.193527	-150.850869
53739		10.626477	-7.262607	-150.539777
53740		10.638326	-6.281384	-150.285329
53741		10.735711	-5.070352	-149.974377
53742		10.860014	-3.664185	-149.630957
53743		10.766613	-2.334990	-149.480374
53744		10.574463	-0.823738	-149.377239
53745		10.439598	0.746385	-149.250124
53746		10.434885	2.294582	-149.135815
53747		10.430569	3.649382	-149.173706
53748		10.399463	4.769057	-149.291865
53749		10.288903	5.720876	-149.285292
53750		9.972601	6.052741	-149.252914
53751		9.741084	6.322853	-149.210659
53752		9.651689	6.553275	-149.216475
53753		9.615683	6.812333	-149.229391
53754		9.591807	7.051034	-149.256451
53755		9.522182	7.209556	-149.277288
53756		9.458119	7.293379	-149.285015
53757		9.441576	7.328483	-149.283417
53758		9.424756	7.393905	-149.276993
53759		9.401036	7.504134	-149.280450
53760		9.394118	7.631020	-149.286483
53761		9.409664	7.744957	-149.285607
53762		9.421083	7.845890	-149.295787
53763		9.397946	7.956119	-149.314938
53764		9.409116	8.051967	-149.330744
53765		9.528417	8.203731	-149.341632
53766		9.777730	8.390059	-149.374076
53767		9.938279	8.718320	-149.358669
53768		10.091847	9.125035	-149.277334
53769		10.316722	9.396867	-149.193302
53770		10.512737	9.483222	-149.067517
53771		10.744111	9.446997	-148.936394
53772		11.016323	9.433114	-148.959737
53773		11.295637	9.239174	-149.013664
53774		11.564356	9.047803	-149.100099
53775		11.761900	8.914528	-149.235168
53776		11.947869	8.968371	-149.395707
53777		12.157031	9.053164	-149.500320
53778		12.320683	9.158190	-149.544051
53779		12.527718	9.491509	-149.511326
53780		12.831821	10.056960	-149.353151
53781		13.106042	10.265729	-149.252087
53782		13.024652	10.155123	-149.348507
53783		12.798461	10.459644	-149.587386
53784		12.786496	10.935717	-149.787407
53785		12.947866	10.822930	-149.895145
53786		12.789237	10.332329	-149.887468
53787		12.401913	9.959974	-149.875625
53788		12.191989	9.825960	-149.908179
53789		12.080013	9.562816	-150.001934
53790		11.956087	9.168358	-150.139804
53791		11.844846	8.700926	-150.277934
53792		11.830335	8.339160	-150.389400
53793		11.884167	8.006082	-150.490294
53794		11.981616	7.617751	-150.596585
53795		12.042508	7.258346	-150.738919
53796		12.063056	7.024179	-150.920684
53797		12.064690	6.818099	-151.099206
53798		12.092073	6.566828	-151.217224
53799		12.135781	6.291598	-151.316507
53800		12.172026	6.130367	-151.454637
53801		12.163932	6.114754	-151.660113
53802		12.157894	6.061492	-151.868222
53803		12.281596	5.846393	-151.968485
53804		12.458044	5.577887	-152.011731
53805		12.577334	5.399886	-152.070416
53806		12.650896	5.308741	-152.201334
53807		12.710929	5.207214	-152.433803
53808		12.797968	5.052142	-152.667002
53809		12.883596	4.848811	-152.847980
53810		12.978167	4.634759	-153.017723
53811		12.991426	4.520968	-153.214190
53812		12.901991	4.500258	-153.394475
53813		12.880940	4.388271	-153.550173
53814		12.896420	4.269558	-153.753418
53815		12.887664	4.216184	-153.966786
53816		12.868380	4.155044	-154.187517
53817		12.828339	4.087474	-154.416603
53818		12.716666	4.115919	-154.619389
53819		12.607773	4.127499	-154.817720
53820		12.612967	3.977166	-155.045879
53821		12.657168	3.884699	-155.217316
53822		12.619242	3.931880	-155.316850
53823		12.543963	4.025723	-155.364034
53824		12.475901	3.945964	-155.459294
53825		12.509671	3.839981	-155.559425
53826		12.408157	3.895363	-155.645949
53827		12.305194	4.023343	-155.645691
53828		12.200199	4.189578	-155.605536
53829		12.105759	4.291834	-155.588634
53830		12.056195	4.295697	-155.568647
53831		11.997428	4.335246	-155.543446
53832		11.978624	4.353585	-155.520607
53833		11.948199	4.510829	-155.482784
53834		11.930943	4.633167	-155.440091
53835		11.935111	4.752943	-155.384799
53836		11.953929	4.712963	-155.341611
53837		11.919260	4.755594	-155.372705
53838		11.743950	4.865188	-155.363402
53839		11.712509	4.906597	-155.346584
53840		11.825107	4.877519	-155.326182
53841		11.908967	4.836103	-155.300244
53842		11.920624	4.818152	-155.275312
53843		11.930831	4.781290	-155.261972
53844		11.925819	4.738263	-155.265290
53845		11.905839	4.660641	-155.281244
53846		11.938527	4.499243	-155.309630
53847		12.092859	4.178904	-155.317122
53848		12.400586	3.708907	-155.311994
53849		12.861145	3.052972	-155.372150
53850		13.521596	1.886855	-155.531884
53851		14.047382	0.368365	-155.782574
53852		14.576078	-1.416019	-155.896539
53853		14.646160	-3.088687	-155.797207
53854		14.427424	-4.496123	-155.685889
53855		14.105802	-5.889463	-155.544684
53856		13.756568	-7.281369	-155.349470
53857		13.269141	-8.562415	-155.402945
53858		12.957628	-9.616870	-155.581025
53859		12.761509	-10.367349	-155.720030
53860		12.579109	-10.871784	-155.767137
53861		12.510451	-11.149669	-155.801358
53862		12.061391	-11.552684	-155.876540
53863		11.622622	-12.170170	-155.993762
53864		11.640565	-12.423824	-155.941540
53865		11.527480	-11.869723	-155.704592
53866		11.079193	-10.984675	-155.675112
53867		10.980154	-10.586490	-155.846835
53868		10.928071	-10.585978	-155.940867
53869		10.815131	-10.066068	-155.925472
53870		10.415108	-8.679844	-156.000305
53871		9.751043	-7.913112	-156.038282
53872		9.215645	-7.199327	-156.110255
53873		8.621410	-6.388775	-156.143926
53874		8.141244	-6.002714	-156.201476
53875		7.691615	-5.637851	-156.311444
53876		7.326353	-5.328084	-156.400675
53877		7.151995	-5.115168	-156.451151
53878		7.034333	-4.950560	-156.462005
53879		7.003593	-4.830950	-156.462269
53880		7.010249	-4.765194	-156.439427
53881		7.030301	-4.729937	-156.421586
53882		7.038439	-4.711509	-156.403200
53883		7.040959	-4.712605	-156.384739
53884		7.026259	-4.721090	-156.359258
53885		7.039341	-4.744403	-156.338505
53886		7.044078	-4.785829	-156.297456
53887		7.041789	-4.829900	-156.235950
53888		7.069626	-4.884905	-156.166287
53889		7.101834	-4.945806	-156.172326
53890		7.041832	-4.969986	-156.241235
53891		7.042427	-5.007196	-156.377477
53892		7.048285	-5.061220	-156.508094
53893		7.038750	-5.118251	-156.599843
53894		7.009908	-5.152837	-156.645216
53895		7.007145	-5.178481	-156.619186
53896		7.033326	-5.175788	-156.525523
53897		7.070235	-5.178577	-156.396521
53898		7.116387	-5.200903	-156.268802
53899		7.179037	-5.221281	-156.165393
53900		7.233450	-5.232554	-156.087942
53901		7.257680	-5.243222	-156.054152
53902		7.268847	-5.245424	-156.017828
53903		7.282349	-5.247107	-155.993960
53904		7.267250	-5.262173	-155.961138
53905		7.258001	-5.265206	-155.931569
53906		7.250186	-5.260674	-155.900129
53907		7.231771	-5.264925	-155.853621
53908		7.217715	-5.273925	-155.813427
53909		7.205883	-5.286463	-155.792193
53910		7.203417	-5.294337	-155.756912
53911		7.209133	-5.298027	-155.730773
53912		7.215255	-5.309212	-155.702199
53913		7.226383	-5.308389	-155.699335
53914		7.247881	-5.301382	-155.694195
53915		7.277179	-5.302500	-155.654060
53916		7.306553	-5.305829	-155.595854
53917		7.338838	-5.306750	-155.537384
53918		7.372556	-5.303143	-155.489811
53919		7.395996	-5.276318	-155.454192
53920		7.395616	-5.229936	-155.430055
53921		7.370218	-5.208924	-155.379236
53922		7.351159	-5.195991	-155.283074
53923		7.353052	-5.164704	-155.220507
53924		7.333962	-5.146294	-155.166754
53925		7.301698	-5.117569	-155.123731
53926		7.276616	-5.075423	-155.116694
53927		7.264420	-5.029596	-155.126933
53928		7.249201	-4.992909	-155.121047
53929		7.244224	-4.960026	-155.095214
53930		7.227951	-4.921200	-155.045342
53931		7.221359	-4.859065	-154.989665
53932		7.229700	-4.784827	-154.927008
53933		7.235985	-4.680154	-154.892437
53934		7.217694	-4.589896	-154.876124
53935		7.199890	-4.527266	-154.884787
53936		7.195815	-4.457499	-154.882553
53937		7.163661	-4.384622	-154.886193
53938		7.112759	-4.290715	-154.899302
53939		7.075130	-4.216694	-154.892271
53940		7.088335	-4.132855	-154.868291
53941		7.122136	-4.008098	-154.869878
53942		7.126453	-3.876164	-154.866244
53943		7.114459	-3.829902	-154.786344
53944		7.072706	-3.799407	-154.706395
53945		7.006075	-3.808965	-154.647879
53946		6.904305	-3.896759	-154.619821
53947		7.000608	-4.327704	-154.698073
53948		7.329391	-4.798002	-154.667204
53949		7.459256	-4.710429	-154.683911
53950		7.427815	-4.378283	-154.931885
53951		7.386731	-4.126603	-155.153291
53952		7.304154	-4.078968	-155.302733
53953		7.272800	-4.077396	-155.442439
53954		7.284488	-4.121465	-155.486792
53955		7.355078	-4.189956	-155.449244
53956		7.461939	-4.255837	-155.405148
53957		7.522873	-4.291680	-155.383139
53958		7.507046	-4.302636	-155.403488
53959		7.367804	-4.388442	-155.422473
53960		7.272720	-4.503786	-155.530821
53961		7.225652	-4.528273	-155.637802
53962		7.147677	-4.445761	-155.714977
53963		7.017733	-4.337655	-155.809493
53964		6.865875	-4.363340	-155.862692
53965		6.708378	-4.439833	-155.910523
53966		6.553511	-4.537643	-155.932222
53967		6.454992	-4.689989	-155.952007
53968		6.381130	-5.018441	-155.986408
53969		6.193448	-5.502659	-156.007084
53970		5.965389	-6.152074	-156.024067
53971		5.881438	-6.939540	-155.789468
53972		5.558604	-7.941688	-155.381174
53973		5.479747	-8.576106	-155.231757
53974		6.047694	-9.012966	-155.176574
53975		6.700600	-9.474029	-154.944907
53976		6.814155	-9.384364	-154.523898
53977		6.594715	-9.272314	-153.938245
53978		6.088908	-8.985599	-153.286122
53979		5.809729	-8.336083	-152.799279
53980		5.812788	-7.527129	-152.590025
53981		6.104431	-6.429148	-152.394231
53982		6.646278	-5.399709	-152.152441
53983		7.126746	-4.330577	-151.891582
53984		7.492053	-2.769063	-151.486941
53985		7.860012	-1.184650	-151.133561
53986		8.012202	0.153811	-151.026133
53987		8.331940	1.447973	-150.872791
53988		8.727183	2.773239	-150.699320
53989		8.888259	3.793596	-150.759732
53990		8.828032	4.806336	-150.838725
53991		8.660765	5.845258	-150.903260
53992		8.553843	6.861265	-150.945294
53993		8.611744	6.709537	-150.961241
53994		8.510277	6.918777	-150.967278
53995		8.461088	7.022155	-150.987650
53996		8.433966	7.065898	-150.998250
53997		8.391449	7.081232	-151.001003
53998		8.332125	7.063007	-151.000178
53999		8.293549	7.028836	-150.995924
54000		8.282787	7.013944	-150.992747
54001		8.266395	7.013662	-150.985093
54002		8.245750	7.020345	-150.973390
54003		8.235157	7.019871	-150.953888
54004		8.257598	7.029996	-150.928441
54005		8.330079	7.083123	-150.904036
54006		8.466977	7.173055	-150.903485
54007		8.698974	7.224168	-150.896879
54008		8.984082	7.281675	-150.876321
54009		9.236332	7.371070	-150.850166
54010		9.549502	7.334492	-150.777709
54011		10.126384	6.776709	-150.585422
54012		10.962005	6.267563	-150.450850
54013		11.365963	6.140288	-150.415114
54014		11.326742	6.135041	-150.379514
54015		11.152420	6.309920	-150.375742
54016		11.204561	6.511814	-150.431890
54017		11.347839	6.339160	-150.448544
54018		11.567846	6.126698	-150.516708
54019		11.684189	6.219387	-150.604841
54020		11.818055	6.426947	-150.673117
54021		11.932350	6.454073	-150.743302
54022		11.933861	6.373640	-150.766865
54023		11.966022	6.391613	-150.724634
54024		12.004951	6.502679	-150.770577
54025		12.058531	6.640974	-150.914966
54026		12.243709	6.842143	-150.994104
54027		12.473471	7.170116	-150.974553
54028		12.527720	7.522107	-150.876664
54029		12.408607	7.478254	-150.821668
54030		12.249342	7.153394	-150.801620
54031		12.194005	7.182782	-150.896533
54032		12.431737	7.571273	-151.086498
54033		12.781605	8.107698	-151.149286
54034		12.926422	8.119069	-151.119668
54035		12.589655	7.848645	-151.149002
54036		12.323346	7.708537	-151.128032
54037		12.395798	7.781386	-151.108886
54038		12.538886	7.840386	-151.165531
54039		12.612143	7.653161	-151.223391
54040		12.662355	7.391208	-151.245999
54041		12.657697	7.320600	-151.288331
54042		12.659570	7.180926	-151.348110
54043		12.725754	7.024438	-151.440245
54044		12.780531	6.918647	-151.531478
54045		12.793757	6.856002	-151.567808
54046		12.773553	6.684870	-151.620565
54047		12.870733	6.323339	-151.736545
54048		13.034450	6.048165	-151.865036
54049		13.109103	5.975864	-152.043395
54050		13.101609	5.958028	-152.211199
54051		13.141882	5.904242	-152.315326
54052		13.189839	5.789808	-152.357330
54053		13.243336	5.634709	-152.343057
54054		13.323451	5.507195	-152.369291
54055		13.390401	5.491780	-152.500670
54056		13.406904	5.417968	-152.624601
54057		13.525124	5.199984	-152.658642
54058		13.657315	4.960754	-152.699514
54059		13.716214	4.837117	-152.861916
54060		13.725204	4.835457	-153.129102
54061		13.780896	4.774860	-153.326976
54062		13.881080	4.574545	-153.493129
54063		13.968032	4.428404	-153.683204
54064		13.955423	4.394047	-153.900868
54065		13.924367	4.413616	-154.102935
54066		13.878894	4.394303	-154.290050
54067		13.906616	4.292892	-154.416141
54068		13.943062	4.235842	-154.513296
54069		13.934862	4.309953	-154.643399
54070		13.879155	4.338642	-154.817933
54071		13.828859	4.311740	-154.906615
54072		13.705755	4.349813	-154.898820
54073		13.542108	4.483756	-154.879110
54074		13.519509	4.541428	-154.891320
54075		13.548144	4.592737	-154.917081
54076		13.627459	4.599094	-154.891060
54077		13.762311	4.550858	-154.856583
54078		13.936434	4.510543	-154.760510
54079		14.167714	4.420393	-154.647779
54080		14.271959	4.303863	-154.605240
54081		14.190694	4.343056	-154.634103
54082		14.123851	4.397172	-154.656384
54083		14.021870	4.462337	-154.664305
54084		13.914558	4.502537	-154.678450
54085		13.885513	4.419587	-154.746299
54086		13.946739	4.315468	-154.893824
54087		14.136784	3.913682	-154.943669
54088		14.607498	2.887471	-155.024215
54089		14.996940	1.587297	-155.216227
54090		15.214451	0.129798	-155.551518
54091		15.253623	-1.583428	-155.963935
54092		15.618436	-3.631561	-156.033719
54093		15.402508	-5.642681	-155.832414
54094		14.740195	-7.227128	-155.626685
54095		14.104282	-8.508175	-155.374536
54096		13.528441	-9.350818	-155.149676
54097		12.927082	-10.030689	-154.960091
54098		12.363332	-10.863562	-154.772734
54099		12.047464	-11.821420	-154.585907
54100		11.892200	-11.963985	-154.266613
54101		11.320892	-11.939855	-154.219440
54102		11.055907	-11.796527	-154.271654
54103		10.656229	-10.674260	-154.170937
54104		10.205694	-8.595067	-154.110574
54105		9.971055	-6.726533	-154.379270
54106		9.452597	-6.004147	-154.477564
54107		8.675129	-5.012207	-154.455927
54108		8.208026	-4.362102	-154.495981
54109		7.686641	-3.781209	-154.552709
54110		7.030663	-3.188178	-154.593307
54111		6.518495	-2.740439	-154.626634
54112		6.160692	-2.426631	-154.647399
54113		5.942083	-2.223999	-154.648941
54114		5.884015	-2.103562	-154.652771
54115		5.882125	-2.037570	-154.656055
54116		5.887968	-1.982599	-154.652283
54117		5.882566	-1.941073	-154.653265
54118		5.858871	-1.920267	-154.650648
54119		5.870339	-1.902779	-154.654161
54120		5.890113	-1.883782	-154.661003
54121		5.905446	-1.890820	-154.671204
54122		5.876838	-1.922272	-154.673496
54123		5.896303	-1.986804	-154.677832
54124		6.013756	-2.059341	-154.662888
54125		6.172770	-2.108560	-154.647974
54126		6.244777	-2.205383	-154.707858
54127		6.167638	-2.347941	-154.969009
54128		6.025418	-2.458291	-155.301658
54129		5.895098	-2.476236	-155.556794
54130		5.859321	-2.500014	-155.751097
54131		5.860958	-2.536648	-155.886716
54132		5.884722	-2.610808	-155.981553
54133		5.897092	-2.665140	-156.084590
54134		5.931058	-2.710760	-156.141588
54135		6.005256	-2.761896	-156.159275
54136		6.086064	-2.808106	-156.166455
54137		6.123812	-2.843639	-156.204793
54138		6.138059	-2.870397	-156.268079
54139		6.155405	-2.902042	-156.323351
54140		6.175316	-2.936997	-156.372062
54141		6.181423	-2.962602	-156.405032
54142		6.185220	-2.981603	-156.474359
54143		6.210035	-2.997600	-156.546610
54144		6.247601	-3.011638	-156.596337
54145		6.267741	-3.045477	-156.613927
54146		6.278051	-3.075425	-156.628180
54147		6.283202	-3.075750	-156.645428
54148		6.286207	-3.085195	-156.635993
54149		6.277366	-3.092085	-156.603515
54150		6.207904	-3.102939	-156.589742
54151		5.985411	-3.172575	-156.582931
54152		5.738326	-3.314322	-156.593256
54153		5.574010	-3.475154	-156.529985
54154		5.518864	-3.586656	-156.352583
54155		5.527054	-3.646861	-156.199354
54156		5.542363	-3.674247	-156.109196
54157		5.556510	-3.707845	-156.028448
54158		5.568014	-3.729428	-155.948608
54159		5.586172	-3.727868	-155.897796
54160		5.610595	-3.705507	-155.854773
54161		5.588126	-3.662369	-155.848702
54162		5.559388	-3.606895	-155.850287
54163		5.553407	-3.540264	-155.846833
54164		5.536620	-3.456830	-155.850772
54165		5.532276	-3.343862	-155.846353
54166		5.577762	-3.192585	-155.834799
54167		5.590218	-3.008737	-155.827933
54168		5.614113	-2.766938	-155.859621
54169		5.592164	-2.609214	-155.817007
54170		5.634059	-2.436302	-155.733141
54171		5.715400	-2.175547	-155.668565
54172		5.729087	-1.973168	-155.631900
54173		5.661225	-1.795859	-155.617178
54174		5.602313	-1.639005	-155.593259
54175		5.559035	-1.503806	-155.565610
54176		5.583290	-1.414968	-155.600720
54177		5.623427	-1.305947	-155.677965
54178		5.673846	-1.145947	-155.767797
54179		5.737693	-1.020508	-155.859355
54180		5.751622	-0.971126	-155.884857
54181		5.650784	-1.071686	-155.921534
54182		5.527177	-1.367075	-156.101062
54183		5.799305	-2.150335	-156.277847
54184		6.286911	-2.535127	-156.223231
54185		6.612969	-2.461282	-156.114620
54186		6.780899	-2.384443	-156.055689
54187		6.846468	-2.337868	-156.055753
54188		6.868225	-2.328930	-156.176338
54189		6.868726	-2.347409	-156.302281
54190		6.866646	-2.392199	-156.396126
54191		6.911955	-2.462591	-156.412915
54192		7.014494	-2.540006	-156.372905
54193		7.134738	-2.603576	-156.351092
54194		7.153800	-2.645309	-156.386866
54195		7.041622	-2.590538	-156.459483
54196		6.951856	-2.587812	-156.567601
54197		6.975228	-2.595669	-156.682310
54198		6.910075	-2.562920	-156.802071
54199		6.747774	-2.608645	-156.869862
54200		6.699668	-2.692676	-156.880685
54201		6.778284	-2.759499	-156.867097
54202		6.855997	-2.779068	-156.845395
54203		6.864921	-2.791944	-156.839123
54204		6.815448	-2.860526	-156.839268
54205		6.782300	-2.964714	-156.832410
54206		6.776369	-3.103456	-156.835359
54207		6.786231	-3.395230	-156.851512
54208		6.731071	-3.836657	-156.857619
54209		6.725395	-4.462948	-156.852839
54210		7.022775	-5.267545	-156.733491
54211		7.769013	-6.080434	-156.341327
54212		8.418190	-7.089776	-155.599389
54213		8.864888	-8.078471	-155.291889
54214		8.853280	-8.666174	-155.074481
54215		8.675657	-8.980096	-154.779033
54216		8.448779	-9.270468	-154.324180
54217		8.152128	-9.294331	-153.749541
54218		7.621882	-8.702077	-153.276726
54219		7.465226	-7.950865	-152.869218
54220		7.451353	-6.944588	-152.542403
54221		7.400718	-5.245272	-152.172370
54222		7.607080	-3.287617	-151.980603
54223		8.082455	-1.068852	-151.843270
54224		8.764744	1.385909	-151.726919
54225		8.839550	3.463915	-151.874322
54226		8.568241	5.206190	-151.944630
54227		8.351523	6.964112	-151.838557
54228		8.557776	8.057147	-151.815750
54229		8.449789	8.213448	-151.860517
54230		8.126115	8.428675	-151.913299
54231		7.964222	8.593640	-151.983257
54232		7.944577	8.730195	-152.028008
54233		7.915206	8.837369	-152.051448
54234		7.861173	8.860316	-152.059018
54235		7.832322	8.829417	-152.064310
54236		7.831748	8.818834	-152.058701
54237		7.866787	8.814969	-152.029822
54238		7.923132	8.800196	-152.003288
54239		7.978515	8.754980	-151.970894
54240		8.029677	8.708730	-151.935184
54241		8.068136	8.669277	-151.917482
54242		8.144344	8.654819	-151.903916
54243		8.215160	8.626037	-151.901271
54244		8.268774	8.587488	-151.900922
54245		8.318710	8.538064	-151.921703
54246		8.372520	8.518403	-151.927666
54247		8.553164	8.492665	-151.921135
54248		8.836580	8.512542	-151.903888
54249		9.011010	8.498823	-151.870316
54250		9.129443	8.448982	-151.822760
54251		9.272828	8.361920	-151.797369
54252		9.437246	8.243541	-151.796686
54253		9.585576	8.070412	-151.794615
54254		9.723973	7.899613	-151.813069
54255		9.910288	7.732727	-151.823007
54256		10.162085	7.623314	-151.833012
54257		10.530892	7.469011	-151.857528
54258		10.714712	7.554242	-151.934388
54259		10.902756	7.542747	-151.886471
54260		11.077965	7.505485	-151.716517
54261		11.332629	7.542040	-151.653936
54262		11.542920	7.473801	-151.752328
54263		11.650956	7.333023	-151.815317
54264		11.740061	7.254442	-151.834896
54265		11.934023	7.282378	-151.811168
54266		12.044242	7.243303	-151.872835
54267		12.207216	7.019175	-151.930259
54268		12.332349	6.763432	-151.968425
54269		12.358723	6.654285	-152.052408
54270		12.466891	6.812023	-152.219159
54271		12.722870	6.956886	-152.510681
54272		13.117956	7.056043	-152.786121
54273		13.449319	7.205039	-152.982283
54274		13.645710	7.337419	-153.106506
54275		13.727150	7.452689	-153.158342
54276		13.826941	7.639744	-153.182551
54277		14.065993	8.016895	-153.169097
54278		14.587257	8.308278	-153.068983
54279		14.853920	7.906965	-153.096123
54280		14.708041	7.383252	-153.365364
54281		14.689446	7.801672	-153.579867
54282		14.974484	8.092073	-153.721144
54283		15.211950	7.539790	-153.920176
54284		14.953511	7.006493	-154.158965
54285		14.647663	6.992550	-154.400386
54286		14.673184	7.109234	-154.681728
54287		14.972888	7.254120	-154.921200
54288		15.236092	7.317539	-155.162850
54289		15.307336	7.122178	-155.441050
54290		15.386768	7.063171	-155.759171
54291		15.690494	7.052339	-156.021726
54292		15.931453	6.913003	-156.181988
54293		15.960498	6.796031	-156.436866
54294		15.888855	6.842955	-156.688581
54295		15.792095	6.641523	-156.847360
54296		15.863646	6.212421	-156.886961
54297		15.988838	5.820318	-156.890640
54298		16.074727	5.657677	-156.876246
54299		16.051213	5.741203	-156.894338
54300		15.891408	5.831824	-156.996122
54301		15.894442	5.730372	-157.079181
54302		16.002576	5.577296	-157.054815
54303		16.016601	5.504617	-156.989527
54304		15.896460	5.512363	-156.952160
54305		15.864767	5.456853	-156.933834
54306		15.940072	5.301255	-156.881357
54307		15.930771	5.151034	-156.821635
54308		15.801942	5.073119	-156.769923
54309		15.707782	5.060237	-156.725334
54310		15.663128	4.992468	-156.763421
54311		15.646938	4.974091	-156.867326
54312		15.619982	4.943023	-156.928842
54313		15.580724	4.904267	-156.910729
54314		15.525062	4.843294	-156.816225
54315		15.529503	4.772098	-156.635539
54316		15.585596	4.650207	-156.399471
54317		15.667589	4.498047	-156.191591
54318		15.702442	4.319501	-156.095353
54319		15.689924	4.112297	-156.066418
54320		15.599720	3.996272	-156.066362
54321		15.461461	4.051586	-156.116734
54322		15.291200	4.172670	-156.206788
54323		15.074191	4.289290	-156.366508
54324		14.864146	4.311821	-156.478487
54325		14.661461	4.432265	-156.536082
54326		14.430631	4.653370	-156.564028
54327		14.299173	4.794783	-156.604978
54328		14.288237	4.732961	-156.625922
54329		14.351619	4.694314	-156.594530
54330		14.393953	4.791688	-156.559693
54331		14.354296	4.897529	-156.488306
54332		14.325993	4.950020	-156.436038
54333		14.301076	4.966052	-156.409190
54334		14.207871	4.976088	-156.390046
54335		14.043401	4.925514	-156.426677
54336		14.114126	4.615760	-156.415761
54337		14.811898	3.606606	-156.339596
54338		15.769877	2.204823	-156.431772
54339		16.387384	0.662327	-156.390296
54340		16.807133	-1.030369	-156.474792
54341		16.847694	-3.148694	-156.334131
54342		16.463099	-5.471488	-156.237182
54343		15.837158	-7.646825	-156.153938
54344		15.074320	-9.240542	-156.001708
54345		14.473539	-10.150452	-155.891278
54346		13.915756	-10.513736	-155.835958
54347		13.617659	-10.311616	-155.822921
54348		13.077578	-10.150909	-155.960471
54349		12.772651	-10.038469	-156.038756
54350		12.624999	-9.707712	-156.039724
54351		12.371667	-9.147463	-156.053719
54352		12.095781	-8.144907	-156.101667
54353		11.937841	-6.723571	-156.158979
54354		11.814687	-5.593794	-156.275608
54355		11.399560	-5.303184	-156.355222
54356		10.726623	-4.603164	-156.416141
54357		9.944212	-4.032311	-156.497539
54358		9.355678	-3.581664	-156.581079
54359		8.802565	-3.073868	-156.711561
54360		8.183590	-2.613631	-156.759318
54361		7.680899	-2.274657	-156.771254
54362		7.390299	-2.035851	-156.794605
54363		7.221678	-1.852764	-156.834194
54364		7.065200	-1.705803	-156.867781
54365		6.969926	-1.595564	-156.889667
54366		6.959531	-1.547816	-156.901941
54367		6.967792	-1.505777	-156.915441
54368		6.948363	-1.466897	-156.926635
54369		6.948286	-1.434495	-156.923819
54370		6.975451	-1.423098	-156.905806
54371		7.026706	-1.429569	-156.885995
54372		7.047070	-1.456228	-156.861942
54373		7.055267	-1.504563	-156.826229
54374		7.076878	-1.574937	-156.779263
54375		7.051080	-1.638726	-156.757000
54376		6.980256	-1.732852	-156.735640
54377		6.834819	-2.022829	-156.749987
54378		6.707500	-2.313108	-156.803714
54379		6.443471	-2.463030	-156.940893
54380		6.207766	-2.569739	-157.051327
54381		6.154601	-2.722332	-157.188211
54382		6.208077	-2.765501	-157.274090
54383		6.305810	-2.753723	-157.306974
54384		6.391144	-2.745329	-157.315291
54385		6.436683	-2.714810	-157.299673
54386		6.488147	-2.679078	-157.266045
54387		6.535645	-2.656997	-157.244317
54388		6.545064	-2.653970	-157.224035
54389		6.563066	-2.662607	-157.199713
54390		6.614229	-2.655634	-157.181740
54391		6.669291	-2.626903	-157.183786
54392		6.706304	-2.610465	-157.196535
54393		6.733897	-2.612168	-157.211674
54394		6.764680	-2.618261	-157.223506
54395		6.785179	-2.627919	-157.232194
54396		6.782562	-2.633046	-157.233544
54397		6.780556	-2.641362	-157.251434
54398		6.785649	-2.658098	-157.291567
54399		6.794262	-2.665713	-157.316180
54400		6.818402	-2.666550	-157.281097
54401		6.834636	-2.676953	-157.232393
54402		6.837872	-2.701860	-157.207538
54403		6.833076	-2.712192	-157.183772
54404		6.847905	-2.718971	-157.153378
54405		6.874102	-2.741281	-157.121500
54406		6.895946	-2.758819	-157.122762
54407		6.904840	-2.753290	-157.143141
54408		6.896258	-2.763919	-157.136477
54409		6.908313	-2.782623	-157.130201
54410		6.921780	-2.796356	-157.129603
54411		6.908236	-2.801061	-157.131542
54412		6.901011	-2.811210	-157.122549
54413		6.905730	-2.838088	-157.093165
54414		6.923890	-2.855219	-157.052163
54415		6.941378	-2.874225	-157.019197
54416		6.948193	-2.893545	-157.007755
54417		6.947833	-2.907303	-157.016029
54418		6.894809	-2.911782	-157.026205
54419		6.849767	-2.903835	-157.008063
54420		6.843870	-2.894148	-156.939011
54421		6.876546	-2.902630	-156.836306
54422		6.901202	-2.905533	-156.762141
54423		6.926504	-2.917610	-156.699402
54424		6.957838	-2.924222	-156.644718
54425		7.005085	-2.924510	-156.586823
54426		7.046392	-2.911028	-156.542795
54427		7.065501	-2.893026	-156.516585
54428		7.075638	-2.855886	-156.501017
54429		7.091559	-2.823970	-156.463774
54430		7.118723	-2.804091	-156.405592
54431		7.143515	-2.778758	-156.356428
54432		7.153138	-2.741198	-156.314967
54433		7.169770	-2.703054	-156.279922
54434		7.218483	-2.632432	-156.261669
54435		7.244915	-2.567823	-156.238764
54436		7.254835	-2.496794	-156.197707
54437		7.253557	-2.435248	-156.172337
54438		7.196419	-2.394025	-156.156353
54439		7.148766	-2.326120	-156.139662
54440		7.139687	-2.261417	-156.106776
54441		7.158244	-2.257931	-156.045141
54442		7.163855	-2.238502	-156.009850
54443		7.145182	-2.207383	-155.979164
54444		7.125169	-2.182347	-155.962270
54445		7.097615	-2.174400	-155.940286
54446		7.063262	-2.152658	-155.931634
54447		7.000337	-2.127497	-155.926612
54448		6.936160	-2.112818	-155.934581
54449		6.848048	-2.152380	-155.951774
54450		6.777437	-2.245889	-155.998185
54451		6.866197	-2.520478	-156.126364
54452		6.997322	-2.699265	-156.199853
54453		7.214881	-2.765845	-156.252967
54454		7.298908	-2.689947	-156.298645
54455		7.322313	-2.628811	-156.316640
54456		7.345298	-2.601179	-156.338614
54457		7.316071	-2.584932	-156.388393
54458		7.291928	-2.596105	-156.458216
54459		7.328377	-2.631726	-156.534972
54460		7.440243	-2.654326	-156.581249
54461		7.552884	-2.673593	-156.563146
54462		7.658211	-2.704013	-156.527812
54463		7.723653	-2.737680	-156.515340
54464		7.795549	-2.756026	-156.493627
54465		7.902117	-2.761573	-156.459367
54466		7.960502	-2.775572	-156.425638
54467		7.988526	-2.786922	-156.407780
54468		7.941791	-2.759092	-156.430706
54469		7.840098	-2.748662	-156.465011
54470		7.756952	-2.810569	-156.481346
54471		7.729624	-2.948035	-156.484682
54472		7.829186	-3.226553	-156.494324
54473		8.047993	-3.703871	-156.430364
54474		8.464031	-4.230635	-156.140125
54475		8.922830	-4.961978	-155.585595
54476		8.808275	-5.898725	-155.381181
54477		8.794083	-6.450055	-155.244998
54478		8.820744	-6.604539	-155.034059
54479		8.667442	-6.905602	-154.796106
54480		8.227920	-7.186088	-154.427104
54481		7.479249	-7.113692	-153.883813
54482		6.950507	-6.457041	-153.376890
54483		7.108755	-5.816071	-153.067435
54484		7.570300	-5.462761	-152.942140
54485		7.990775	-4.547678	-152.642127
54486		8.238409	-2.919565	-152.310590
54487		8.560666	-1.191021	-152.260682
54488		8.995579	0.418062	-152.362123
54489		9.345909	1.544126	-152.427003
54490		9.450879	2.278450	-152.426101
54491		9.302463	3.236497	-152.354570
54492		9.217826	4.512498	-152.283052
54493		9.228821	5.124159	-152.306441
54494		9.189916	5.368227	-152.295536
54495		9.096570	5.419724	-152.283512
54496		9.036973	5.465874	-152.273775
54497		9.001579	5.641702	-152.279793
54498		8.917764	5.954069	-152.302224
54499		8.803944	6.216020	-152.342061
54500		8.666864	6.464405	-152.371722
54501		8.549041	6.697389	-152.390756
54502		8.499272	6.853225	-152.392947
54503		8.501581	6.868806	-152.396229
54504		8.507379	6.832591	-152.380402
54505		8.528587	6.843852	-152.360052
54506		8.559874	6.895505	-152.337921
54507		8.563137	6.962538	-152.322835
54508		8.562577	6.966050	-152.309813
54509		8.585137	6.893961	-152.304870
54510		8.606449	6.807076	-152.307836
54511		8.640198	6.762433	-152.311524
54512		8.671558	6.753272	-152.306416
54513		8.726173	6.726066	-152.305695
54514		8.777676	6.673468	-152.321139
54515		8.817945	6.573656	-152.340493
54516		8.874319	6.460885	-152.349874
54517		8.942579	6.406122	-152.362320
54518		9.015790	6.400576	-152.370126
54519		9.092018	6.379678	-152.387195
54520		9.162877	6.359289	-152.391262
54521		9.250781	6.303666	-152.413006
54522		9.406288	6.178417	-152.454229
54523		9.614407	6.008821	-152.487128
54524		9.784821	5.805152	-152.507306
54525		9.909211	5.606041	-152.516352
54526		10.121122	5.491488	-152.554133
54527		10.337298	5.386067	-152.588680
54528		10.466147	5.298850	-152.590234
54529		10.693177	5.119105	-152.567928
54530		11.144002	4.559171	-152.575290
54531		11.494988	4.096068	-152.629863
54532		11.740890	3.863722	-152.682034
54533		11.924972	3.820713	-152.709858
54534		12.011719	4.031390	-152.833422
54535		12.190774	4.202361	-152.933326
54536		12.354066	4.283140	-152.988864
54537		12.451813	4.455987	-153.068761
54538		12.681905	4.712504	-153.233731
54539		12.832547	4.741581	-153.389085
54540		12.912739	4.512319	-153.557218
54541		12.872927	4.226698	-153.792680
54542		12.831817	4.073218	-153.982984
54543		12.836104	4.099411	-154.101755
54544		12.843230	4.118010	-154.221530
54545		12.892945	4.264895	-154.333121
54546		13.106685	4.436136	-154.420728
54547		13.270500	4.588753	-154.407170
54548		13.361080	4.742510	-154.334276
54549		13.325484	4.955465	-154.261288
54550		13.365171	5.203146	-154.206187
54551		13.548486	5.452742	-154.154227
54552		13.802155	5.789284	-154.075633
54553		14.004784	6.161542	-153.959799
54554		14.106798	6.366369	-153.723553
54555		14.007311	6.409579	-153.704810
54556		14.135672	7.000448	-153.942924
54557		14.358178	7.989412	-154.071579
54558		14.477089	8.250236	-154.015570
54559		14.358942	8.000181	-153.942642
54560		14.198781	8.017336	-153.919049
54561		14.103447	8.116218	-154.000823
54562		14.073271	8.073492	-154.092844
54563		14.054220	7.896383	-154.205138
54564		13.999561	7.645962	-154.333364
54565		13.930306	7.471525	-154.429350
54566		13.809368	7.376232	-154.487508
54567		13.760802	7.240767	-154.564722
54568		13.755306	7.024025	-154.671424
54569		13.811785	6.828796	-154.776495
54570		13.749862	6.648176	-154.930830
54571		13.681479	6.508245	-155.079904
54572		13.650226	6.422537	-155.235728
54573		13.687980	6.216375	-155.381525
54574		13.804145	5.927696	-155.506283
54575		13.935713	5.627540	-155.630291
54576		14.047317	5.273100	-155.767150
54577		14.188755	4.948578	-155.912500
54578		14.349500	4.708679	-156.060202
54579		14.429704	4.520934	-156.175977
54580		14.413053	4.328781	-156.302750
54581		14.428504	4.071167	-156.417811
54582		14.443981	3.944111	-156.517717
54583		14.428892	3.875661	-156.606921
54584		14.486463	3.743286	-156.631984
54585		14.550081	3.608651	-156.638999
54586		14.526271	3.564962	-156.649736
54587		14.443971	3.572295	-156.654985
54588		14.358527	3.495417	-156.690092
54589		14.339145	3.413224	-156.745276
54590		14.301939	3.346447	-156.818994
54591		14.241089	3.357425	-156.868259
54592		14.113084	3.410882	-156.909900
54593		14.056721	3.365050	-156.910740
54594		14.069227	3.259022	-156.859370
54595		14.070649	3.176907	-156.840861
54596		14.113953	3.138357	-156.828503
54597		14.148659	3.147276	-156.837625
54598		14.155635	3.196966	-156.881921
54599		14.043091	3.248031	-156.961963
54600		13.914517	3.217137	-157.047536
54601		13.835776	3.322821	-157.063227
54602		13.775178	3.524824	-157.064268
54603		13.750542	3.749016	-157.101824
54604		13.738172	4.101334	-157.148775
54605		13.798332	4.145947	-157.144315
54606		13.806643	4.173873	-157.119498
54607		13.789476	4.234890	-157.100372
54608		13.836273	4.252475	-157.078170
54609		13.863724	4.266001	-157.079370
54610		13.813264	4.273883	-157.086290
54611		13.794363	4.156054	-157.086627
54612		13.851516	3.996355	-157.131658
54613		13.972056	3.842255	-157.185488
54614		14.207463	3.409689	-157.274213
54615		14.574159	2.615359	-157.351290
54616		14.797543	1.652263	-157.358225
54617		14.946616	0.516627	-157.385530
54618		15.048612	-1.033379	-157.491416
54619		15.225343	-2.905717	-157.397709
54620		14.855346	-4.680205	-157.208713
54621		14.230429	-6.358471	-157.160616
54622		13.822482	-7.846047	-157.107473
54623		13.757503	-9.206384	-156.994705
54624		13.767985	-10.475580	-156.740090
54625		13.526241	-11.643123	-156.563702
54626		12.960933	-12.899366	-156.409209
54627		12.737323	-13.660086	-156.141178
54628		12.620796	-13.565460	-155.810859
54629		12.159704	-13.078310	-155.603347
54630		11.864566	-12.672203	-155.566951
54631		11.724653	-11.930983	-155.535824
54632		11.565485	-10.621869	-155.466025
54633		11.323756	-9.072902	-155.515310
54634		10.869246	-8.231808	-155.719480
54635		10.676392	-7.992924	-155.802225
54636		10.154350	-7.208061	-155.884809
54637		9.421708	-6.445071	-155.979333
54638		8.758346	-5.862598	-156.082212
54639		8.294471	-5.408218	-156.149970
54640		7.993508	-5.031464	-156.216162
54641		7.738666	-4.706195	-156.257331
54642		7.554892	-4.506550	-156.292076
54643		7.432129	-4.372722	-156.333758
54644		7.316803	-4.261234	-156.349511
54645		7.255653	-4.185886	-156.348529
54646		7.242590	-4.141958	-156.356382
54647		7.227946	-4.105264	-156.356195
54648		7.226145	-4.086677	-156.342220
54649		7.266006	-4.080104	-156.325718
54650		7.279129	-4.103684	-156.283128
54651		7.313944	-4.141456	-156.230178
54652		7.332539	-4.169287	-156.174362
54653		7.310231	-4.189412	-156.125238
54654		7.290334	-4.222988	-156.066670
54655		7.310259	-4.279023	-156.030554
54656		7.391866	-4.365419	-155.983327
54657		7.411055	-4.451496	-156.030389
54658		7.418850	-4.488290	-156.077094
54659		7.382467	-4.483156	-156.159493
54660		7.373205	-4.490279	-156.292804
54661		7.360685	-4.509140	-156.418246
54662		7.340129	-4.520601	-156.503685
54663		7.346730	-4.531783	-156.546849
54664		7.385961	-4.542555	-156.549258
54665		7.414390	-4.556972	-156.510168
54666		7.432788	-4.560505	-156.482123
54667		7.450928	-4.564264	-156.479150
54668		7.461407	-4.579764	-156.479041
54669		7.448433	-4.583081	-156.489394
54670		7.429915	-4.583157	-156.507859
54671		7.420407	-4.587799	-156.511867
54672		7.432114	-4.594834	-156.497047
54673		7.439246	-4.597778	-156.453394
54674		7.444902	-4.596920	-156.415172
54675		7.438270	-4.589199	-156.402906
54676		7.407921	-4.581020	-156.361832
54677		7.388550	-4.557439	-156.297728
54678		7.376672	-4.550185	-156.230864
54679		7.367670	-4.552077	-156.162701
54680		7.338993	-4.531013	-156.099005
54681		7.311364	-4.511423	-156.041061
54682		7.286212	-4.506577	-155.960383
54683		7.260178	-4.489251	-155.889744
54684		7.245909	-4.477583	-155.817540
54685		7.247961	-4.490676	-155.716955
54686		7.236342	-4.488243	-155.647895
54687		7.234007	-4.477646	-155.592642
54688		7.245489	-4.466544	-155.546006
54689		7.245782	-4.464715	-155.497546
54690		7.224170	-4.471233	-155.444928
54691		7.207471	-4.471634	-155.420510
54692		7.189555	-4.471486	-155.387454
54693		7.202551	-4.461383	-155.341377
54694		7.223413	-4.437825	-155.307223
54695		7.256177	-4.421483	-155.274329
54696		7.276891	-4.407747	-155.256045
54697		7.277306	-4.376923	-155.264247
54698		7.270831	-4.311185	-155.311060
54699		7.261099	-4.240789	-155.369475
54700		7.221555	-4.179956	-155.384421
54701		7.171120	-4.139568	-155.353186
54702		7.182674	-4.092754	-155.293845
54703		7.225755	-4.037646	-155.235950
54704		7.270871	-3.986629	-155.198201
54705		7.292560	-3.933648	-155.197217
54706		7.293031	-3.933111	-155.178119
54707		7.352096	-3.959078	-155.128697
54708		7.374618	-3.963251	-155.097136
54709		7.378115	-3.952262	-155.087555
54710		7.391221	-3.938377	-155.079054
54711		7.413243	-3.918728	-155.072551
54712		7.417616	-3.878865	-155.049933
54713		7.389103	-3.797785	-155.027100
54714		7.326707	-3.730423	-155.022901
54715		7.243402	-3.622903	-155.085299
54716		7.135848	-3.491675	-155.235657
54717		6.940044	-3.455283	-155.456977
54718		6.883911	-3.791618	-155.761379
54719		7.166916	-4.206369	-155.948142
54720		7.413755	-4.232643	-156.053071
54721		7.485661	-4.112345	-156.224827
54722		7.423748	-4.034635	-156.395512
54723		7.400964	-4.028775	-156.504397
54724		7.474689	-4.033848	-156.524411
54725		7.538698	-4.042872	-156.538204
54726		7.572559	-4.040973	-156.557716
54727		7.585300	-4.034462	-156.596366
54728		7.544830	-4.039088	-156.669645
54729		7.521955	-4.055953	-156.795115
54730		7.505321	-4.063170	-156.942418
54731		7.318830	-4.211774	-157.055448
54732		7.131944	-4.514008	-157.227462
54733		7.187615	-4.810674	-157.384033
54734		7.407528	-4.998011	-157.464841
54735		7.574158	-4.985320	-157.462848
54736		7.526767	-4.827631	-157.507246
54737		7.290743	-4.763774	-157.553606
54738		7.030773	-4.938729	-157.645473
54739		6.693179	-5.419671	-157.737398
54740		6.382182	-6.196825	-157.836735
54741		6.315141	-7.051441	-157.750239
54742		6.569552	-8.058127	-157.378853
54743		7.053816	-8.796765	-156.895844
54744		7.380403	-8.935891	-156.773953
54745		7.936946	-8.982491	-156.915784
54746		7.944421	-9.358854	-156.767443
54747		7.745784	-9.499405	-155.954604
54748		6.959452	-9.152313	-155.063449
54749		6.533080	-8.337602	-154.498982
54750		6.710146	-6.894671	-154.016511
54751		7.271307	-5.170452	-153.671375
54752		7.668834	-3.108163	-153.267361
54753		7.951468	-1.112476	-152.800949
54754		7.980352	0.596549	-152.495217
54755		7.723677	2.027614	-152.422377
54756		7.662168	3.378831	-152.313164
54757		7.784216	4.801881	-152.169422
54758		7.942898	6.194532	-152.143058
54759		8.066246	7.241231	-152.341263
54760		8.029341	7.720300	-152.447367
54761		7.887596	8.091925	-152.471007
54762		7.849095	8.280698	-152.493697
54763		7.781788	8.246537	-152.483850
54764		7.714221	8.206588	-152.484185
54765		7.717116	8.102184	-152.494855
54766		7.670237	8.078872	-152.494943
54767		7.654055	8.104788	-152.492968
54768		7.658026	8.091759	-152.482488
54769		7.637231	8.076031	-152.475957
54770		7.591002	8.056673	-152.457698
54771		7.608374	8.007530	-152.443363
54772		7.631202	8.034999	-152.438383
54773		7.616726	8.094944	-152.438775
54774		7.598883	8.139665	-152.431280
54775		7.682196	8.289724	-152.442057
54776		7.880226	8.506078	-152.470209
54777		8.108007	8.707894	-152.544089
54778		8.269077	8.838935	-152.637599
54779		8.456739	8.959593	-152.666542
54780		8.736323	8.865636	-152.582401
54781		8.873480	8.723544	-152.454204
54782		9.210756	8.376703	-152.315006
54783		9.455489	8.375695	-152.276601
54784		9.596947	8.653060	-152.240072
54785		9.739526	9.096769	-152.186541
54786		10.095971	9.362632	-152.147535
54787		10.478707	9.274178	-152.213237
54788		10.569286	9.226831	-152.350514
54789		10.430613	9.401880	-152.483994
54790		10.285158	9.613886	-152.556460
54791		10.157316	9.690557	-152.623617
54792		10.151329	9.682097	-152.623636
54793		10.189775	9.696696	-152.612573
54794		10.177794	9.806206	-152.592352
54795		10.139455	10.011229	-152.496930
54796		10.190941	10.072877	-152.354733
54797		10.159561	9.821738	-152.284274
54798		10.083239	9.605938	-152.306884
54799		10.080474	9.780580	-152.384285
54800		10.226251	10.156460	-152.313938
54801		10.367536	10.198721	-152.238288
54802		10.312154	10.135825	-152.222870
54803		10.202138	10.118702	-152.221602
54804		10.123752	10.029495	-152.234813
54805		10.061813	9.808133	-152.258342
54806		10.057826	9.540536	-152.262086
54807		10.136205	9.239271	-152.227824
54808		10.207314	9.015245	-152.214226
54809		10.257213	8.858312	-152.278952
54810		10.340526	8.713489	-152.354723
54811		10.411013	8.501978	-152.429594
54812		10.505383	8.310251	-152.487039
54813		10.551231	8.140717	-152.583225
54814		10.592507	8.028239	-152.646528
54815		10.663254	7.904596	-152.688404
54816		10.739077	7.812434	-152.744819
54817		10.803709	7.722764	-152.819844
54818		10.887461	7.591322	-152.895038
54819		10.980285	7.498574	-153.008949
54820		11.118536	7.356363	-153.092047
54821		11.260437	7.161187	-153.164052
54822		11.323896	7.099871	-153.283152
54823		11.347034	7.116193	-153.411816
54824		11.477260	6.942473	-153.427537
54825		11.808351	6.570947	-153.227601
54826		11.996954	6.383120	-153.160114
54827		11.983286	6.391415	-153.261112
54828		11.950063	6.427009	-153.354007
54829		11.924308	6.442548	-153.384327
54830		11.915827	6.437701	-153.412854
54831		11.895473	6.463962	-153.447130
54832		11.864228	6.493668	-153.482384
54833		11.875923	6.445528	-153.566344
54834		11.875278	6.471746	-153.676283
54835		11.812366	6.556133	-153.786579
54836		11.766162	6.632300	-153.879413
54837		11.718327	6.646839	-153.977405
54838		11.721768	6.631038	-154.017398
54839		11.776977	6.614040	-154.012024
54840		11.781053	6.723051	-154.000577
54841		11.783326	6.832190	-154.015660
54842		11.784241	6.926115	-154.075012
54843		11.841259	6.879884	-154.125177
54844		11.877676	6.959975	-154.201722
54845		11.769368	7.169327	-154.320619
54846		11.485243	7.444370	-154.448004
54847		11.417355	7.549657	-154.369552
54848		11.533985	7.372138	-154.347481
54849		11.634217	7.378398	-154.326352
54850		11.668233	7.401564	-154.285585
54851		11.656880	7.443516	-154.248495
54852		11.692250	7.460615	-154.222257
54853		11.719714	7.449079	-154.213809
54854		11.679061	7.443002	-154.213644
54855		11.617809	7.415953	-154.221427
54856		11.609338	7.262072	-154.203139
54857		11.888803	6.754672	-154.176561
54858		12.303365	6.161317	-154.146060
54859		12.820246	5.245663	-154.058823
54860		13.361036	4.232141	-154.052092
54861		13.864066	3.213799	-154.027798
54862		13.977221	2.170633	-154.182382
54863		13.729376	0.337179	-154.382833
54864		13.674862	-2.611763	-154.689098
54865		13.333791	-5.171936	-154.683438
54866		12.773243	-6.781160	-154.528030
54867		12.545586	-7.769573	-154.382354
54868		12.386190	-8.301171	-154.231725
54869		12.093047	-9.027032	-154.030078
54870		11.893655	-10.309455	-153.867480
54871		11.560503	-12.362340	-153.582716
54872		10.924455	-14.488130	-153.267570
54873		10.161694	-15.409084	-152.956998
54874		9.317548	-14.948181	-152.602383
54875		8.934899	-13.995525	-152.321078
54876		8.791964	-12.861338	-152.051807
54877		8.322650	-11.192375	-151.848096
54878		8.081875	-9.266465	-151.868282
54879		8.303948	-8.269042	-152.117775
54880		8.143255	-7.850417	-152.144873
54881		7.689692	-7.403893	-152.122089
54882		7.426443	-6.966335	-152.236377
54883		7.195438	-6.622095	-152.333722
54884		6.872015	-6.324982	-152.363545
54885		6.626687	-6.094898	-152.401326
54886		6.486898	-5.936222	-152.427184
54887		6.423031	-5.837568	-152.439216
54888		6.387856	-5.770669	-152.441586
54889		6.399859	-5.711812	-152.449283
54890		6.426005	-5.655003	-152.458731
54891		6.442861	-5.610729	-152.471628
54892		6.453415	-5.574548	-152.481951
54893		6.467768	-5.553603	-152.485047
54894		6.452856	-5.531017	-152.483956
54895		6.472406	-5.526636	-152.474410
54896		6.494476	-5.514210	-152.469404
54897		6.547044	-5.504596	-152.477925
54898		6.620442	-5.488042	-152.493697
54899		6.605773	-5.483176	-152.515879
54900		6.524374	-5.492785	-152.601931
54901		6.408802	-5.488847	-152.941818
54902		6.278706	-5.526493	-153.392231
54903		6.191342	-5.599580	-153.882920
54904		6.144687	-5.651675	-154.287504
54905		6.141529	-5.678631	-154.594728
54906		6.195853	-5.715420	-154.810628
54907		6.288530	-5.759962	-154.947350
54908		6.369446	-5.803967	-155.064998
54909		6.393736	-5.849917	-155.152911
54910		6.395088	-5.916290	-155.245908
54911		6.403955	-5.990777	-155.363800
54912		6.406350	-6.058180	-155.513056
54913		6.433644	-6.124218	-155.653285
54914		6.486726	-6.194316	-155.757080
54915		6.547227	-6.266633	-155.805132
54916		6.590356	-6.337893	-155.839851
54917		6.588716	-6.413014	-155.923907
54918		6.576232	-6.475870	-156.037880
54919		6.571397	-6.548164	-156.149794
54920		6.545062	-6.619234	-156.228463
54921		6.576418	-6.660441	-156.231746
54922		6.623137	-6.679212	-156.176796
54923		6.657219	-6.701602	-156.117305
54924		6.678652	-6.725013	-156.082019
54925		6.694209	-6.737810	-156.020836
54926		6.697005	-6.752565	-155.929558
54927		6.706807	-6.765022	-155.855601
54928		6.719979	-6.779586	-155.764588
54929		6.744213	-6.776634	-155.686560
54930		6.760269	-6.776187	-155.615502
54931		6.770013	-6.771887	-155.562735
54932		6.793018	-6.753734	-155.520227
54933		6.818953	-6.738402	-155.488511
54934		6.807671	-6.718018	-155.488028
54935		6.797449	-6.704258	-155.449536
54936		6.818552	-6.688254	-155.396694
54937		6.863019	-6.665972	-155.354743
54938		6.908932	-6.645681	-155.325307
54939		6.958726	-6.638629	-155.327081
54940		6.982430	-6.629433	-155.333002
54941		6.989941	-6.610817	-155.322627
54942		7.001110	-6.591534	-155.296807
54943		7.023166	-6.581673	-155.258672
54944		7.045801	-6.570560	-155.262579
54945		7.077787	-6.555132	-155.271517
54946		7.114060	-6.535196	-155.265106
54947		7.134837	-6.529009	-155.232241
54948		7.136449	-6.521939	-155.204095
54949		7.139063	-6.495756	-155.166953
54950		7.146841	-6.454443	-155.126127
54951		7.144874	-6.399180	-155.105227
54952		7.134737	-6.344038	-155.095899
54953		7.148699	-6.249422	-155.107920
54954		7.171498	-6.113429	-155.132103
54955		7.194018	-5.990885	-155.128710
54956		7.202874	-5.915518	-155.071573
54957		7.245528	-5.786460	-155.025488
54958		7.326897	-5.595619	-155.014908
54959		7.399905	-5.404187	-155.028701
54960		7.434066	-5.325850	-155.019447
54961		7.503495	-5.227235	-155.043890
54962		7.512049	-5.108759	-155.082914
54963		7.456743	-5.050768	-155.116389
54964		7.342745	-5.069427	-155.196668
54965		7.455315	-5.262045	-155.461514
54966		7.784056	-5.468039	-155.652756
54967		8.076590	-5.478825	-155.715991
54968		8.177860	-5.366309	-155.745649
54969		8.211137	-5.299276	-155.755211
54970		8.263107	-5.283169	-155.772784
54971		8.307287	-5.269836	-155.840907
54972		8.270539	-5.272614	-155.916129
54973		8.276724	-5.282467	-155.970296
54974		8.317450	-5.370948	-155.975027
54975		8.307309	-5.455549	-155.946083
54976		8.114383	-5.773449	-155.846582
54977		8.046844	-6.181339	-155.866944
54978		8.110578	-6.355606	-155.922355
54979		8.217018	-6.223916	-155.955559
54980		8.265954	-6.061619	-155.975387
54981		8.079741	-5.920660	-156.001361
54982		7.848164	-5.938220	-156.010255
54983		7.676330	-6.162237	-156.018503
54984		7.486406	-6.599037	-156.064477
54985		7.258388	-7.229569	-156.106552
54986		7.064768	-8.094181	-156.151683
54987		6.975721	-9.306559	-156.161591
54988		6.976042	-10.519807	-155.967619
54989		6.725633	-11.584578	-155.622058
54990		6.635484	-12.082487	-155.466592
54991		6.856613	-12.404149	-155.434082
54992		7.110291	-12.767212	-155.415889
54993		7.179620	-12.991385	-155.077132
54994		6.939833	-12.963279	-154.597437
54995		6.563417	-12.660394	-154.251634
54996		6.458621	-12.298016	-154.021882
54997		6.468268	-11.674500	-153.752769
54998		6.515765	-10.738460	-153.404646
54999		6.416044	-9.631213	-153.188541
55000		6.440569	-8.232007	-152.975014
55001		6.526672	-6.485002	-152.847939
55002		6.730106	-4.556252	-152.847593
55003		7.057195	-3.047785	-152.953576
55004		7.266002	-1.516807	-152.974353
55005		7.412448	0.204951	-152.944642
55006		7.561548	1.702975	-153.096947
55007		7.495175	2.850889	-153.310207
55008		7.417306	3.995965	-153.403167
55009		7.424024	5.326899	-153.449970
55010		7.936387	6.727162	-153.446212
55011		7.957274	7.024291	-153.497443
55012		7.710817	7.475113	-153.492994
55013		7.531642	7.630707	-153.478190
55014		7.421890	7.787252	-153.440546
55015		7.359980	7.907708	-153.406508
55016		7.274160	8.045094	-153.395540
55017		7.229046	8.236811	-153.412634
55018		7.148001	8.451009	-153.437166
55019		7.042150	8.719646	-153.446950
55020		6.982557	8.930907	-153.450037
55021		6.975378	9.034153	-153.452452
55022		6.987909	9.049961	-153.460856
55023		6.988561	9.026221	-153.452184
55024		6.996913	9.046373	-153.435993
55025		6.995488	9.062896	-153.421847
55026		6.986777	9.069855	-153.416295
55027		6.978059	9.067316	-153.405023
55028		6.969249	9.037911	-153.393629
55029		6.969179	9.027201	-153.389903
55030		6.998508	9.050945	-153.397994
55031		7.103698	9.120290	-153.429251
55032		7.283928	9.180096	-153.458560
55033		7.537629	9.252892	-153.507120
55034		7.753190	9.284783	-153.549851
55035		7.858146	9.236174	-153.574645
55036		7.970967	9.225407	-153.629013
55037		8.157602	9.102830	-153.636479
55038		8.243355	8.915206	-153.448149
55039		8.536902	9.154432	-153.119323
55040		8.891193	9.274273	-152.741230
55041		9.247360	9.175613	-152.472998
55042		9.402810	9.132413	-152.299910
55043		9.590350	9.249440	-152.160546
55044		9.709882	9.417474	-152.090749
55045		9.766808	9.453075	-152.060302
55046		9.994488	9.387625	-152.021049
55047		10.208883	9.221374	-152.089203
55048		10.313909	9.099591	-152.254017
55049		10.281597	9.282272	-152.389097
55050		10.201437	9.622744	-152.432960
55051		10.107500	9.867250	-152.426861
55052		9.994520	9.965575	-152.363276
55053		9.865879	9.881281	-152.280595
55054		9.723583	9.766520	-152.249827
55055		9.679807	9.802318	-152.321876
55056		9.631765	10.092534	-152.428733
55057		9.618127	10.227036	-152.452135
55058		9.594799	10.275139	-152.464883
55059		9.599277	10.248302	-152.454281
55060		9.658679	10.014642	-152.472268
55061		9.765835	9.642354	-152.533462
55062		9.875903	9.359706	-152.651515
55063		10.014680	9.152265	-152.781343
55064		10.045854	8.994884	-152.922620
55065		10.041251	8.886493	-153.074452
55066		10.075987	8.707777	-153.207857
55067		10.167577	8.462907	-153.252865
55068		10.199495	8.295715	-153.251526
55069		10.209582	8.215068	-153.252288
55070		10.236733	8.104080	-153.265339
55071		10.291247	7.953524	-153.273410
55072		10.367851	7.827451	-153.271911
55073		10.444375	7.711249	-153.289372
55074		10.515955	7.595084	-153.346367
55075		10.609442	7.498675	-153.434389
55076		10.707193	7.398616	-153.530155
55077		10.802876	7.299726	-153.598953
55078		10.891179	7.155102	-153.690011
55079		10.964496	7.069331	-153.801219
55080		11.012748	7.038572	-153.881297
55081		11.090519	6.936777	-153.949066
55082		11.202769	6.790820	-154.011572
55083		11.279676	6.725508	-154.063092
55084		11.325498	6.682070	-154.131234
55085		11.436173	6.547453	-154.216057
55086		11.528946	6.454065	-154.326192
55087		11.527313	6.448314	-154.445815
55088		11.509827	6.431558	-154.556177
55089		11.520808	6.357028	-154.600095
55090		11.572876	6.267949	-154.606267
55091		11.589845	6.239129	-154.648835
55092		11.578780	6.229674	-154.723847
55093		11.566416	6.233651	-154.786360
55094		11.448123	6.229472	-154.887870
55095		11.257336	6.267061	-154.905854
55096		11.177707	6.240401	-154.832185
55097		11.241855	6.207571	-154.740659
55098		11.296946	6.206154	-154.724620
55099		11.310675	6.252061	-154.735678
55100		11.270045	6.280324	-154.783097
55101		11.281804	6.235406	-154.816902
55102		11.307302	6.231675	-154.826437
55103		11.424018	6.169015	-154.812241
55104		11.632979	6.027548	-154.776494
55105		11.786360	6.011564	-154.713272
55106		11.808296	6.071013	-154.663604
55107		11.847483	6.124303	-154.589607
55108		11.869076	6.083608	-154.553041
55109		12.012602	5.938614	-154.501229
55110		12.211564	5.596689	-154.427598
55111		12.539047	5.011911	-154.360516
55112		13.210306	3.950820	-154.482113
55113		13.973457	2.655387	-154.721957
55114		14.461045	0.933310	-154.869316
55115		14.907458	-1.736418	-155.090770
55116		15.114525	-4.967098	-155.410604
55117		15.026644	-8.153513	-155.628414
55118		14.874964	-10.964345	-155.804554
55119		14.536359	-13.113058	-155.839227
55120		13.794283	-14.659711	-155.817630
55121		13.355081	-16.080246	-155.818581
55122		13.103223	-17.082274	-155.570930
55123		12.485880	-17.659957	-155.176191
55124		11.963826	-18.087742	-154.691494
55125		11.596829	-18.159681	-154.182036
55126		11.230053	-17.678913	-153.876800
55127		10.652361	-16.767929	-153.791848
55128		10.358238	-15.819105	-153.775343
55129		10.205824	-14.870488	-153.861438
55130		9.883600	-13.687265	-153.981582
55131		9.465200	-12.079855	-154.080034
55132		9.257415	-10.241431	-154.235162
55133		9.274143	-8.645351	-154.450390
55134		8.982626	-7.446474	-154.689438
55135		8.487475	-7.009688	-154.593097
55136		8.221774	-6.556906	-154.655299
55137		8.126413	-6.212950	-154.784920
55138		7.891918	-5.899620	-154.886748
55139		7.649878	-5.601302	-154.957457
55140		7.462031	-5.361868	-155.005775
55141		7.306031	-5.176901	-155.029063
55142		7.251306	-5.045104	-155.044090
55143		7.242598	-4.946469	-155.058028
55144		7.190756	-4.849704	-155.066539
55145		7.121951	-4.778758	-155.065278
55146		7.078244	-4.729936	-155.059951
55147		7.030302	-4.672897	-155.048417
55148		6.970733	-4.632024	-155.034511
55149		6.934605	-4.603958	-155.018141
55150		6.909888	-4.573124	-155.000179
55151		6.869240	-4.559289	-154.976606
55152		6.814807	-4.556991	-154.943709
55153		6.785490	-4.547175	-154.899761
55154		6.772562	-4.546757	-154.833387
55155		6.799834	-4.553616	-154.773544
55156		6.815771	-4.588950	-154.751920
55157		6.715591	-4.631100	-154.728841
55158		6.581166	-4.662837	-154.733465
55159		6.582914	-4.672153	-154.748148
55160		6.603927	-4.691533	-154.693500
55161		6.591211	-4.704529	-154.693510
55162		6.573797	-4.691230	-154.764906
55163		6.610336	-4.668410	-154.843531
55164		6.660347	-4.648777	-154.919707
55165		6.670629	-4.631689	-154.987753
55166		6.674211	-4.614951	-155.072127
55167		6.666605	-4.599846	-155.168155
55168		6.669671	-4.587097	-155.254658
55169		6.682183	-4.588183	-155.314065
55170		6.706369	-4.589224	-155.364702
55171		6.739537	-4.577005	-155.424915
55172		6.751501	-4.572894	-155.483398
55173		6.765538	-4.574904	-155.557088
55174		6.772946	-4.569896	-155.640914
55175		6.757624	-4.566717	-155.745243
55176		6.730352	-4.568646	-155.854278
55177		6.739981	-4.573356	-155.915639
55178		6.754512	-4.576203	-155.953382
55179		6.760121	-4.579590	-156.000249
55180		6.766539	-4.584369	-156.053783
55181		6.783002	-4.591264	-156.103181
55182		6.795122	-4.600292	-156.127832
55183		6.809717	-4.603761	-156.154843
55184		6.823354	-4.608075	-156.186557
55185		6.824774	-4.619446	-156.218200
55186		6.820517	-4.631738	-156.239975
55187		6.814518	-4.654788	-156.260381
55188		6.821062	-4.677647	-156.272565
55189		6.829830	-4.679898	-156.260746
55190		6.831869	-4.690148	-156.226338
55191		6.837470	-4.703199	-156.206468
55192		6.847360	-4.720277	-156.205521
55193		6.856091	-4.721065	-156.224575
55194		6.873938	-4.717630	-156.242464
55195		6.869524	-4.722375	-156.269545
55196		6.865734	-4.730605	-156.312384
55197		6.856111	-4.725230	-156.376588
55198		6.846551	-4.721358	-156.398348
55199		6.834712	-4.720820	-156.394812
55200		6.819754	-4.716613	-156.365935
55201		6.810981	-4.699242	-156.321743
55202		6.796220	-4.670324	-156.282631
55203		6.798654	-4.631354	-156.269189
55204		6.767671	-4.611907	-156.278195
55205		6.721816	-4.602059	-156.238903
55206		6.721620	-4.586058	-156.126281
55207		6.748909	-4.571083	-155.985176
55208		6.730572	-4.573072	-155.862715
55209		6.709742	-4.562080	-155.758780
55210		6.706113	-4.540285	-155.675202
55211		6.709357	-4.521093	-155.597951
55212		6.693927	-4.477481	-155.559827
55213		6.696543	-4.431852	-155.541083
55214		6.723755	-4.360330	-155.544264
55215		6.734128	-4.260921	-155.578167
55216		6.653286	-4.166829	-155.661149
55217		6.431525	-4.096809	-155.815964
55218		6.210657	-4.039983	-155.930958
55219		6.143099	-3.985259	-155.992720
55220		6.183592	-3.939623	-155.972044
55221		6.259909	-3.895681	-155.915598
55222		6.322865	-3.851269	-155.861627
55223		6.346591	-3.816260	-155.833754
55224		6.328763	-3.791081	-155.843095
55225		6.290262	-3.801377	-155.906455
55226		6.250268	-3.874437	-155.995473
55227		6.336162	-4.136067	-156.211651
55228		6.571347	-4.412475	-156.410922
55229		6.871889	-4.493090	-156.579109
55230		6.993781	-4.424351	-156.815934
55231		7.045345	-4.373440	-157.086095
55232		7.090953	-4.358336	-157.376319
55233		7.155578	-4.350440	-157.633591
55234		7.209006	-4.370717	-157.834050
55235		7.257746	-4.389524	-158.002261
55236		7.263999	-4.438699	-158.189628
55237		7.251789	-4.563437	-158.364917
55238		7.224619	-4.932856	-158.460021
55239		7.205357	-5.317181	-158.543352
55240		7.291486	-5.433176	-158.588241
55241		7.371535	-5.364601	-158.601449
55242		7.295320	-5.246141	-158.625983
55243		7.169526	-5.211295	-158.625186
55244		7.135283	-5.242594	-158.612251
55245		7.130776	-5.265435	-158.605109
55246		7.122595	-5.244749	-158.596576
55247		7.122276	-5.213194	-158.587584
55248		7.129742	-5.218344	-158.585301
55249		7.143340	-5.247285	-158.570650
55250		7.126220	-5.291192	-158.538854
55251		7.090210	-5.416395	-158.520209
55252		7.102553	-5.637386	-158.518822
55253		7.166148	-5.902327	-158.501991
55254		7.273183	-6.140780	-158.464315
55255		7.357295	-6.440074	-158.431465
55256		7.364720	-6.972760	-158.428440
55257		7.461648	-7.566219	-158.335863
55258		7.774495	-7.985960	-158.221996
55259		7.912226	-8.276396	-158.133989
55260		7.901804	-8.727413	-158.090215
55261		8.042216	-9.517779	-158.010335
55262		8.249299	-10.221604	-157.847337
55263		8.370196	-10.874026	-157.661256
55264		8.504400	-11.808038	-157.381547
55265		8.239820	-12.373939	-156.782789
55266		8.367763	-12.626485	-156.338406
55267		8.754374	-12.919822	-156.160212
55268		8.872608	-13.146058	-155.976064
55269		8.753282	-12.969559	-155.583334
55270		8.518922	-11.864376	-155.062728
55271		8.494319	-10.506321	-154.531244
55272		8.812600	-8.915202	-154.051991
55273		9.352933	-6.819905	-153.501736
55274		9.842818	-4.861145	-153.142904
55275		10.007376	-2.763038	-152.871372
55276		9.858419	-0.679286	-152.618018
55277		9.723365	0.876836	-152.345586
55278		9.688846	2.584478	-152.009207
55279		9.671209	4.652483	-151.907941
55280		9.678132	6.504524	-152.106672
55281		9.554557	7.763376	-152.262024
55282		9.078853	8.699719	-152.356412
55283		8.805070	9.072168	-152.402876
55284		8.661690	9.336495	-152.451046
55285		8.585491	9.558006	-152.508255
55286		8.527079	9.736029	-152.578454
55287		8.454139	9.835779	-152.657930
55288		8.374042	9.853224	-152.731895
55289		8.305507	9.899841	-152.782394
55290		8.258184	10.019734	-152.812679
55291		8.188169	10.139362	-152.836932
55292		8.118434	10.212689	-152.849754
55293		8.089178	10.236035	-152.849325
55294		8.082046	10.242885	-152.833124
55295		8.092008	10.248710	-152.811891
55296		8.119361	10.238373	-152.802234
55297		8.138204	10.189387	-152.803230
55298		8.170768	10.120131	-152.819913
55299		8.219180	10.069891	-152.828742
55300		8.287243	10.052852	-152.840684
55301		8.352021	10.047160	-152.859233
55302		8.484546	10.042294	-152.843323
55303		8.735825	10.060363	-152.823315
55304		8.945268	10.099758	-152.803939
55305		9.094646	10.104295	-152.767550
55306		9.218962	10.324953	-152.691134
55307		9.470351	10.570971	-152.588450
55308		9.768900	10.552623	-152.454259
55309		9.859383	10.212543	-152.365786
55310		10.191862	9.902858	-152.232500
55311		10.498175	9.789109	-151.966220
55312		10.760793	9.735966	-151.800194
55313		10.906735	9.549522	-151.824734
55314		10.855318	9.438981	-151.919962
55315		10.747447	9.490126	-152.055202
55316		10.750672	9.615644	-152.145691
55317		10.860689	9.724649	-152.198114
55318		10.928437	9.678490	-152.321827
55319		10.938796	9.503108	-152.445004
55320		10.854506	9.427247	-152.530748
55321		10.675905	9.326689	-152.679346
55322		10.518365	9.244756	-152.829676
55323		10.483883	9.252567	-152.932569
55324		10.551567	9.239834	-153.058930
55325		10.624116	9.244517	-153.183740
55326		10.711858	9.324878	-153.263629
55327		10.745125	9.563938	-153.295087
55328		10.806996	9.961001	-153.298061
55329		10.942481	10.727833	-153.196462
55330		11.304499	11.393179	-153.071060
55331		11.534844	11.546663	-153.176667
55332		11.663205	11.981931	-153.404748
55333		12.140351	12.603245	-153.422583
55334		12.595134	12.785732	-153.436438
55335		12.463468	12.514991	-153.695931
55336		12.134856	12.478511	-153.957937
55337		12.112526	12.445113	-154.073676
55338		12.234416	12.069854	-154.099280
55339		12.310402	11.287012	-154.036579
55340		12.258025	10.916961	-154.007755
55341		12.153553	10.775335	-154.072015
55342		11.965408	10.297374	-154.168632
55343		11.767548	9.825357	-154.265761
55344		11.640458	9.545407	-154.418029
55345		11.509583	9.282071	-154.567788
55346		11.429572	8.985174	-154.661859
55347		11.299485	8.822640	-154.761159
55348		11.165546	8.679075	-154.885243
55349		11.154433	8.482744	-154.977187
55350		11.184804	8.323228	-155.045640
55351		11.186421	8.254023	-155.077046
55352		11.228674	8.117847	-155.010098
55353		11.352339	7.879311	-154.869182
55354		11.494635	7.651825	-154.781035
55355		11.588368	7.482423	-154.765732
55356		11.632021	7.367480	-154.740371
55357		11.690169	7.211206	-154.759735
55358		11.740463	7.005013	-154.827000
55359		11.754687	6.871232	-154.888658
55360		11.684673	6.813531	-154.967261
55361		11.651126	6.706492	-155.001846
55362		11.704396	6.557058	-154.983354
55363		11.780055	6.426974	-154.988610
55364		11.815224	6.338345	-155.035582
55365		11.770088	6.353476	-155.112765
55366		11.701414	6.377845	-155.146888
55367		11.706635	6.307682	-155.140521
55368		11.701983	6.231627	-155.114593
55369		11.605863	6.205688	-155.173200
55370		11.494129	6.083456	-155.283322
55371		11.592471	5.848622	-155.243583
55372		11.671390	5.760244	-155.241680
55373		11.540078	5.843937	-155.395117
55374		11.388711	5.907152	-155.457002
55375		11.386495	5.873127	-155.450741
55376		11.427354	5.880499	-155.486431
55377		11.459531	5.950430	-155.513929
55378		11.424973	6.142349	-155.496534
55379		11.250071	6.495802	-155.478469
55380		11.073803	6.843100	-155.494626
55381		10.986442	7.043736	-155.545623
55382		11.088338	7.026030	-155.521555
55383		11.146914	6.956667	-155.484039
55384		11.240739	6.915417	-155.385345
55385		11.347912	6.907765	-155.275865
55386		11.403097	6.930980	-155.219400
55387		11.398330	6.914581	-155.182549
55388		11.438370	6.809102	-155.168019
55389		11.567167	6.649558	-155.152471
55390		11.828172	6.327385	-155.109179
55391		12.288335	5.974611	-155.060988
55392		12.911424	5.368070	-154.969047
55393		13.873065	4.180885	-154.793721
55394		14.710217	2.093660	-154.696555
55395		14.787737	-0.623964	-154.929190
55396		14.534471	-3.698777	-155.156946
55397		14.193239	-6.532343	-155.427194
55398		13.716176	-9.038797	-155.852085
55399		13.494535	-11.243838	-156.271844
55400		13.217430	-12.938831	-156.389263
55401		12.541798	-14.470953	-156.594526
55402		11.813273	-15.610082	-156.711235
55403		11.284918	-16.282191	-156.768225
55404		10.725998	-16.455490	-156.874097
55405		10.120609	-16.418735	-156.960354
