// General information: 
//  MT Manager version: 2022.2.0 
//  XDA version: 2022.2.0 build 7381 rev 124627 built on 2023-07-19
// Device information: 
//  DeviceId: 00B447F1
//  ProductCode: MTW2-3A7G6
//  Firmware Version: 4.3.5
//  Hardware Version: 2.0.0
// Device settings: 
//  Filter Profile: human(46.1)
//  Option Flags: Orientation Smoother Disabled, Position/Velocity Smoother Disabled, Continuous Zero Rotation Update Disabled, AHS Disabled, ICC Disabled
// Coordinate system: ENU
PacketCounter	SampleTimeFine	Roll	Pitch	Yaw
24680		0.597269	15.821813	13.087181
24681		0.603511	15.830625	13.086044
24682		0.612410	15.836460	13.087286
24683		0.622956	15.842697	13.087852
24684		0.626571	15.849808	13.089124
24685		0.619717	15.854169	13.086630
24686		0.603715	15.856860	13.082810
24687		0.587352	15.860619	13.074825
24688		0.572043	15.868317	13.064612
24689		0.575135	15.870543	13.055353
24690		0.590684	15.872554	13.053891
24691		0.614699	15.874838	13.057733
24692		0.630764	15.877223	13.061723
24693		0.640741	15.875545	13.062788
24694		0.644435	15.873837	13.062206
24695		0.646105	15.876915	13.056865
24696		0.647092	15.881252	13.051135
24697		0.651962	15.885918	13.047287
24698		0.644267	15.895461	13.040494
24699		0.628189	15.902761	13.031588
24700		0.615512	15.906436	13.024075
24701		0.611360	15.907618	13.014827
24702		0.617557	15.910767	13.008183
24703		0.633728	15.918395	13.000765
24704		0.646045	15.923185	12.991044
24705		0.656992	15.924355	12.980207
24706		0.664256	15.922398	12.969654
24707		0.666876	15.926220	12.963574
24708		0.662333	15.938884	12.959499
24709		0.655196	15.955155	12.954261
24710		0.645823	15.965650	12.948136
24711		0.644406	15.969686	12.936676
24712		0.641478	15.972722	12.918549
24713		0.639458	15.982922	12.906105
24714		0.628870	15.999641	12.891591
24715		0.607741	16.017468	12.880146
24716		0.580148	16.031540	12.868277
24717		0.556477	16.039689	12.856663
24718		0.535542	16.045100	12.845979
24719		0.524480	16.049563	12.836723
24720		0.511701	16.054269	12.827517
24721		0.501340	16.062187	12.816265
24722		0.499361	16.067011	12.807367
24723		0.510243	16.067206	12.796788
24724		0.529210	16.066263	12.785945
24725		0.551611	16.063650	12.777008
24726		0.569359	16.064127	12.771401
24727		0.570270	16.073078	12.762508
24728		0.560929	16.087347	12.754140
24729		0.542423	16.099372	12.746259
24730		0.517161	16.105865	12.736624
24731		0.487856	16.111889	12.723309
24732		0.448833	16.119697	12.709406
24733		0.409055	16.120389	12.692980
24734		0.365024	16.114607	12.673966
24735		0.329332	16.110331	12.649137
24736		0.306872	16.114460	12.622961
24737		0.301184	16.125128	12.599660
24738		0.302508	16.131856	12.576556
24739		0.307049	16.134333	12.555387
24740		0.307167	16.127013	12.529632
24741		0.306999	16.114055	12.496249
24742		0.304658	16.103729	12.455540
24743		0.306585	16.104440	12.406806
24744		0.312414	16.104970	12.359116
24745		0.323477	16.098161	12.307784
24746		0.323118	16.089397	12.248166
24747		0.317952	16.084979	12.184756
24748		0.302319	16.086876	12.117195
24749		0.284351	16.092028	12.043998
24750		0.264399	16.093973	11.968549
24751		0.248260	16.093950	11.890532
24752		0.230251	16.090770	11.810487
24753		0.214151	16.080289	11.729564
24754		0.200344	16.063745	11.645360
24755		0.193262	16.042014	11.552843
24756		0.191578	16.027085	11.452570
24757		0.190937	16.017227	11.343099
24758		0.180255	16.009559	11.227769
24759		0.161064	15.998868	11.101846
24760		0.135508	15.984995	10.964502
24761		0.118900	15.975247	10.826675
24762		0.110647	15.969589	10.687326
24763		0.099733	15.955120	10.537907
24764		0.079526	15.927788	10.377256
24765		0.052884	15.899629	10.198624
24766		0.031144	15.878747	10.006629
24767		0.029904	15.869485	9.803141
24768		0.049751	15.866079	9.596960
24769		0.086218	15.856286	9.386487
24770		0.119373	15.841589	9.174554
24771		0.145816	15.820764	8.956094
24772		0.154258	15.798701	8.730848
24773		0.151415	15.775155	8.497388
24774		0.142204	15.753762	8.253972
24775		0.123683	15.729578	7.994937
24776		0.100514	15.702970	7.726406
24777		0.081980	15.677325	7.446309
24778		0.060614	15.660978	7.154543
24779		0.029059	15.651132	6.854092
24780		-0.013308	15.636579	6.547280
24781		-0.056945	15.609253	6.233920
24782		-0.082917	15.571639	5.912880
24783		-0.078890	15.539131	5.585934
24784		-0.035692	15.518265	5.265914
24785		0.027324	15.499467	4.946318
24786		0.096259	15.474380	4.624259
24787		0.170447	15.430738	4.299353
24788		0.243882	15.379446	3.974420
24789		0.318116	15.338173	3.648360
24790		0.379092	15.310231	3.323438
24791		0.414460	15.289390	2.992912
24792		0.419151	15.260777	2.656124
24793		0.407499	15.220259	2.304494
24794		0.384328	15.183217	1.951371
24795		0.356299	15.156120	1.603068
24796		0.298238	15.126933	1.258832
24797		0.212507	15.090027	0.902606
24798		0.134581	15.051064	0.530261
24799		0.091428	15.030593	0.137492
24800		0.096582	15.027615	-0.257594
24801		0.156489	15.027642	-0.635187
24802		0.238722	15.016748	-0.980036
24803		0.314349	14.982875	-1.306163
24804		0.351788	14.935061	-1.627175
24805		0.352446	14.892962	-1.958781
24806		0.317922	14.855597	-2.312238
24807		0.273941	14.820753	-2.691421
24808		0.249528	14.783812	-3.082934
24809		0.243382	14.754033	-3.477671
24810		0.245849	14.720078	-3.868067
24811		0.246786	14.669416	-4.255954
24812		0.231531	14.608171	-4.643194
24813		0.219897	14.536362	-5.043611
24814		0.216118	14.472713	-5.461180
24815		0.234478	14.430390	-5.903182
24816		0.280194	14.407952	-6.367561
24817		0.346890	14.394032	-6.853075
24818		0.424478	14.376203	-7.345219
24819		0.494663	14.351960	-7.839146
24820		0.536541	14.318514	-8.331110
24821		0.546619	14.282023	-8.838072
24822		0.528818	14.236832	-9.365076
24823		0.496732	14.188293	-9.921483
24824		0.456272	14.130958	-10.502538
24825		0.424164	14.070148	-11.099922
24826		0.389184	14.009374	-11.711285
24827		0.344418	13.952022	-12.343221
24828		0.291939	13.901265	-12.998035
24829		0.247342	13.856127	-13.671820
24830		0.222763	13.817841	-14.346366
24831		0.207464	13.780140	-15.027009
24832		0.204556	13.726231	-15.713471
24833		0.215848	13.655354	-16.410207
24834		0.266337	13.578594	-17.111202
24835		0.344528	13.505401	-17.827861
24836		0.444158	13.434520	-18.546654
24837		0.551135	13.365198	-19.267632
24838		0.663181	13.284597	-19.988858
24839		0.761091	13.195231	-20.720357
24840		0.840791	13.113775	-21.450451
24841		0.917901	13.036795	-22.183121
24842		0.984437	12.955676	-22.905696
24843		1.039812	12.872437	-23.633433
24844		1.092836	12.784203	-24.352766
24845		1.133750	12.698227	-25.082197
24846		1.168783	12.611548	-25.813531
24847		1.203692	12.524355	-26.555278
24848		1.253446	12.434621	-27.295092
24849		1.327440	12.351329	-28.036913
24850		1.428248	12.271628	-28.770850
24851		1.545535	12.192922	-29.504476
24852		1.688442	12.098679	-30.223609
24853		1.848311	11.993845	-30.930009
24854		2.014619	11.879551	-31.625469
24855		2.168772	11.768212	-32.324229
24856		2.316798	11.661793	-33.023997
24857		2.456167	11.562404	-33.745080
24858		2.587913	11.469538	-34.486681
24859		2.698995	11.391524	-35.255282
24860		2.794992	11.324914	-36.030332
24861		2.867050	11.266809	-36.803815
24862		2.921327	11.190764	-37.558076
24863		2.974340	11.096489	-38.303207
24864		3.025911	10.991901	-39.033499
24865		3.110103	10.889521	-39.754046
24866		3.225089	10.795845	-40.465430
24867		3.360029	10.708213	-41.181091
24868		3.515655	10.618019	-41.904848
24869		3.678828	10.528473	-42.643811
24870		3.826780	10.443482	-43.382555
24871		3.943621	10.362049	-44.122878
24872		4.023926	10.284756	-44.859497
24873		4.074234	10.230784	-45.592040
24874		4.110657	10.189162	-46.319777
24875		4.148594	10.146440	-47.040202
24876		4.185629	10.101695	-47.755134
24877		4.210484	10.051527	-48.476039
24878		4.231283	9.994775	-49.201986
24879		4.263727	9.934793	-49.940859
24880		4.305189	9.868883	-50.683399
24881		4.369518	9.800872	-51.432918
24882		4.469733	9.738877	-52.171977
24883		4.591853	9.684479	-52.896730
24884		4.756619	9.640467	-53.596688
24885		4.973729	9.596563	-54.287423
24886		5.209390	9.546083	-54.975724
24887		5.468086	9.493352	-55.673272
24888		5.755443	9.425577	-56.374862
24889		6.050390	9.362378	-57.089949
24890		6.339085	9.327231	-57.807758
24891		6.613396	9.317889	-58.523100
24892		6.882308	9.308308	-59.217984
24893		7.108988	9.302250	-59.911020
24894		7.297410	9.302963	-60.592904
24895		7.458073	9.318648	-61.275664
24896		7.598145	9.338202	-61.960381
24897		7.742708	9.353425	-62.656279
24898		7.921386	9.358927	-63.352265
24899		8.094461	9.367356	-64.049247
24900		8.251294	9.382335	-64.727529
24901		8.382358	9.406639	-65.392191
24902		8.453165	9.451368	-66.035146
24903		8.492989	9.504171	-66.660490
24904		8.537458	9.540168	-67.268683
24905		8.586858	9.555301	-67.885763
24906		8.620578	9.556607	-68.515426
24907		8.640293	9.565617	-69.168237
24908		8.651159	9.580233	-69.822699
24909		8.645365	9.618002	-70.470699
24910		8.622007	9.686993	-71.093522
24911		8.547651	9.793527	-71.691376
24912		8.447171	9.909633	-72.269375
24913		8.350593	10.006629	-72.836751
24914		8.251068	10.075396	-73.401341
24915		8.144685	10.129895	-73.973154
24916		8.043716	10.183429	-74.531838
24917		7.927689	10.256889	-75.074026
24918		7.797630	10.348539	-75.593684
24919		7.685021	10.449338	-76.095437
24920		7.592949	10.545712	-76.573229
24921		7.535240	10.633886	-77.040338
24922		7.506784	10.715927	-77.474269
24923		7.489437	10.800679	-77.891704
24924		7.491296	10.887341	-78.283109
24925		7.495329	10.976945	-78.668517
24926		7.517173	11.047250	-79.047961
24927		7.559007	11.099770	-79.430718
24928		7.594063	11.162197	-79.799316
24929		7.595641	11.262411	-80.152530
24930		7.581152	11.377670	-80.483092
24931		7.563418	11.488675	-80.795260
24932		7.545570	11.577836	-81.093300
24933		7.534643	11.652571	-81.390995
24934		7.516355	11.724448	-81.686659
24935		7.497650	11.796836	-81.995640
24936		7.479397	11.866387	-82.317921
24937		7.440847	11.941092	-82.649513
24938		7.421331	12.020402	-82.966548
24939		7.407423	12.103254	-83.264937
24940		7.360660	12.195280	-83.540150
24941		7.317345	12.285204	-83.807217
24942		7.319180	12.349122	-84.070940
24943		7.362981	12.378827	-84.355664
24944		7.422767	12.385344	-84.664818
24945		7.464347	12.409191	-84.980657
24946		7.468038	12.459769	-85.290527
24947		7.448715	12.533513	-85.590073
24948		7.433024	12.613450	-85.871981
24949		7.427511	12.688439	-86.148376
24950		7.432154	12.743386	-86.430141
24951		7.427755	12.774039	-86.733790
24952		7.413495	12.792964	-87.051583
24953		7.375070	12.837430	-87.378409
24954		7.315149	12.899631	-87.707059
24955		7.298023	12.971995	-88.027776
24956		7.312362	13.050961	-88.325165
24957		7.338605	13.129377	-88.608615
24958		7.389049	13.187001	-88.877198
24959		7.459504	13.221157	-89.140728
24960		7.551104	13.250225	-89.388776
24961		7.638189	13.291102	-89.639225
24962		7.719729	13.331929	-89.882473
24963		7.787805	13.379242	-90.116842
24964		7.810178	13.438456	-90.337230
24965		7.792759	13.514212	-90.546839
24966		7.761054	13.592279	-90.731200
24967		7.718257	13.673384	-90.899537
24968		7.686792	13.760907	-91.053032
24969		7.642578	13.844670	-91.203953
24970		7.607980	13.924983	-91.356966
24971		7.565688	14.002166	-91.513821
24972		7.514737	14.077197	-91.672843
24973		7.464817	14.171080	-91.822713
24974		7.418854	14.279376	-91.944406
24975		7.408996	14.382260	-92.041411
24976		7.413693	14.473227	-92.123719
24977		7.414784	14.545069	-92.215039
24978		7.447970	14.604909	-92.311598
24979		7.510139	14.656669	-92.416434
24980		7.570650	14.711019	-92.521515
24981		7.608542	14.779098	-92.621950
24982		7.637031	14.859329	-92.699910
24983		7.660079	14.949290	-92.755568
24984		7.687599	15.039418	-92.793522
24985		7.701664	15.131355	-92.829219
24986		7.717364	15.214152	-92.868647
24987		7.730688	15.292574	-92.922741
24988		7.728579	15.371757	-92.978058
24989		7.701749	15.456063	-93.026379
24990		7.664000	15.550299	-93.051839
24991		7.615866	15.662714	-93.061200
24992		7.576601	15.770075	-93.065717
24993		7.590656	15.848930	-93.078303
24994		7.636258	15.898886	-93.096811
24995		7.707806	15.941244	-93.119088
24996		7.799097	15.986847	-93.128820
24997		7.859913	16.046872	-93.128066
24998		7.873522	16.117103	-93.116783
24999		7.871912	16.181227	-93.111677
25000		7.875327	16.232787	-93.106060
25001		7.878377	16.275837	-93.104792
25002		7.886892	16.310972	-93.099867
25003		7.874628	16.343961	-93.098461
25004		7.854999	16.376338	-93.089965
25005		7.836531	16.413010	-93.079664
25006		7.841148	16.445641	-93.065707
25007		7.864887	16.465840	-93.053937
25008		7.905350	16.474921	-93.038207
25009		7.931370	16.481395	-93.030112
25010		7.935308	16.492448	-93.024064
25011		7.930190	16.506374	-93.020267
25012		7.933241	16.513568	-93.013630
25013		7.934707	16.524315	-93.009589
25014		7.930951	16.538991	-93.001185
25015		7.924426	16.555001	-93.002064
25016		7.926407	16.564100	-93.007283
25017		7.933321	16.569862	-93.019779
25018		7.926131	16.572825	-93.036224
25019		7.891046	16.583184	-93.058058
25020		7.839905	16.598641	-93.071234
25021		7.782649	16.617229	-93.082244
25022		7.749149	16.632706	-93.091656
25023		7.737669	16.637452	-93.110589
25024		7.752187	16.635577	-93.133298
25025		7.781566	16.639168	-93.159921
25026		7.801593	16.645567	-93.181011
25027		7.802675	16.653063	-93.193833
25028		7.785751	16.662916	-93.205202
25029		7.757172	16.672409	-93.224293
25030		7.730060	16.678346	-93.245422
25031		7.713304	16.684345	-93.270197
25032		7.694295	16.694992	-93.290032
25033		7.673645	16.714328	-93.307369
25034		7.668998	16.728279	-93.320825
25035		7.676814	16.731495	-93.337507
25036		7.685110	16.730556	-93.349684
25037		7.695051	16.736040	-93.358853
25038		7.690903	16.746244	-93.360769
25039		7.666451	16.763093	-93.366104
25040		7.646266	16.770715	-93.370819
25041		7.646588	16.765461	-93.380662
25042		7.653003	16.756618	-93.384481
25043		7.651391	16.753849	-93.385862
25044		7.649146	16.756356	-93.379106
25045		7.640656	16.758969	-93.380071
25046		7.641259	16.755327	-93.383594
25047		7.639866	16.747576	-93.392747
25048		7.626434	16.737167	-93.399504
25049		7.590313	16.731767	-93.400695
25050		7.541999	16.728168	-93.393479
25051		7.504670	16.727673	-93.387292
25052		7.493865	16.716581	-93.380685
25053		7.511008	16.694791	-93.383556
25054		7.545312	16.668326	-93.386550
25055		7.557099	16.647014	-93.399435
25056		7.546858	16.634059	-93.403871
25057		7.520639	16.628916	-93.398079
25058		7.486835	16.624632	-93.387408
25059		7.454772	16.611048	-93.379840
25060		7.441130	16.586924	-93.375230
25061		7.434839	16.561332	-93.378429
25062		7.438866	16.545344	-93.380999
25063		7.434677	16.540382	-93.383310
25064		7.413355	16.540055	-93.384357
25065		7.379503	16.542135	-93.394962
25066		7.355538	16.540719	-93.404761
25067		7.342494	16.535743	-93.418415
25068		7.338712	16.531238	-93.422358
25069		7.324353	16.530732	-93.423910
25070		7.297265	16.530180	-93.420574
25071		7.274700	16.526271	-93.421831
25072		7.273730	16.523887	-93.426479
25073		7.279309	16.520664	-93.437994
25074		7.287757	16.516448	-93.437404
25075		7.278928	16.518418	-93.432128
25076		7.268466	16.522775	-93.412483
25077		7.248389	16.521226	-93.391249
25078		7.225662	16.519375	-93.367308
25079		7.207211	16.515540	-93.348187
25080		7.200374	16.511141	-93.325849
25081		7.191670	16.504946	-93.306151
25082		7.183522	16.496653	-93.277204
25083		7.170287	16.489725	-93.251192
25084		7.164954	16.477276	-93.216573
25085		7.162487	16.459932	-93.182312
25086		7.157817	16.439401	-93.141495
25087		7.150980	16.419212	-93.105421
25088		7.151736	16.396029	-93.065762
25089		7.145324	16.372270	-93.027496
25090		7.144241	16.349697	-92.976994
25091		7.131599	16.332597	-92.923284
25092		7.118076	16.309998	-92.867560
25093		7.109682	16.288271	-92.818005
25094		7.113953	16.262172	-92.766314
25095		7.116030	16.234654	-92.716581
25096		7.108327	16.211124	-92.654430
25097		7.073666	16.193595	-92.582887
25098		7.027084	16.177165	-92.507765
25099		6.988386	16.154398	-92.439668
25100		6.973380	16.121758	-92.370555
25101		6.973586	16.087938	-92.302671
25102		6.970950	16.059066	-92.227296
25103		6.963840	16.037653	-92.150375
25104		6.957145	16.021245	-92.071063
25105		6.946827	16.001785	-91.996182
25106		6.943091	15.984304	-91.922806
25107		6.936822	15.963106	-91.852799
25108		6.911266	15.951349	-91.778738
25109		6.874970	15.952000	-91.702519
25110		6.851610	15.956220	-91.618740
25111		6.845825	15.958571	-91.535581
25112		6.866211	15.960121	-91.448055
25113		6.894378	15.953889	-91.370351
25114		6.927222	15.943330	-91.287231
25115		6.948459	15.932519	-91.211272
25116		6.956426	15.923304	-91.128227
25117		6.952954	15.923748	-91.041368
25118		6.943368	15.926271	-90.946680
25119		6.934455	15.924740	-90.851435
25120		6.938456	15.911051	-90.756734
25121		6.955576	15.893574	-90.662892
25122		6.980219	15.872029	-90.562921
25123		6.980256	15.860131	-90.457891
25124		6.970566	15.851431	-90.338432
25125		6.955615	15.841441	-90.212907
25126		6.937204	15.828087	-90.080800
25127		6.926669	15.803398	-89.952344
25128		6.934237	15.768805	-89.822532
25129		6.958323	15.734669	-89.682748
25130		6.973795	15.700606	-89.526072
25131		6.987078	15.674588	-89.359065
25132		7.005958	15.652309	-89.177751
25133		7.039125	15.620112	-89.000426
25134		7.107577	15.572521	-88.822946
25135		7.182824	15.512766	-88.646032
25136		7.246195	15.459980	-88.465430
25137		7.296767	15.415617	-88.278080
25138		7.330700	15.378895	-88.075147
25139		7.341805	15.341632	-87.869149
25140		7.345624	15.296508	-87.650962
25141		7.343859	15.247417	-87.432011
25142		7.341549	15.196863	-87.204065
25143		7.337360	15.150077	-86.974776
25144		7.347081	15.103451	-86.735789
25145		7.355208	15.061026	-86.488640
25146		7.364715	15.025932	-86.235520
25147		7.356553	14.987209	-85.985337
25148		7.352925	14.944632	-85.725799
25149		7.354816	14.899544	-85.460599
25150		7.356739	14.859449	-85.183125
25151		7.358821	14.823429	-84.897802
25152		7.373432	14.787391	-84.601115
25153		7.382860	14.750581	-84.306146
25154		7.392215	14.715533	-84.001079
25155		7.394027	14.675247	-83.693152
25156		7.388556	14.645472	-83.375949
25157		7.387437	14.632294	-83.058506
25158		7.385143	14.630595	-82.735713
25159		7.386818	14.628337	-82.413516
25160		7.392630	14.619423	-82.089217
25161		7.393365	14.604877	-81.763982
25162		7.382414	14.585237	-81.431770
25163		7.363336	14.576089	-81.093155
25164		7.347411	14.579071	-80.740325
25165		7.327187	14.590211	-80.381932
25166		7.325259	14.591068	-80.018881
25167		7.344809	14.569795	-79.662208
25168		7.380179	14.532484	-79.307152
25169		7.435148	14.498530	-78.952899
25170		7.488548	14.476841	-78.589526
25171		7.537292	14.468178	-78.211276
25172		7.573605	14.462117	-77.812104
25173		7.611349	14.446105	-77.405328
25174		7.662257	14.420988	-76.994514
25175		7.743185	14.391805	-76.596352
25176		7.874650	14.359465	-76.207275
25177		8.055136	14.324419	-75.839654
25178		8.259443	14.286775	-75.474507
25179		8.482232	14.250637	-75.106181
25180		8.718052	14.217506	-74.715044
25181		8.953752	14.186350	-74.303996
25182		9.209013	14.157971	-73.874848
25183		9.477126	14.140420	-73.438776
25184		9.716356	14.140415	-73.004724
25185		9.891321	14.143903	-72.595975
25186		10.010205	14.131268	-72.196284
25187		10.077694	14.114924	-71.801761
25188		10.116832	14.113139	-71.383063
25189		10.112668	14.135110	-70.925273
25190		10.077727	14.170708	-70.429171
25191		10.078115	14.167828	-69.926632
25192		10.140798	14.120756	-69.418961
25193		10.269080	14.047877	-68.917361
25194		10.466766	13.967058	-68.403426
25195		10.699214	13.895264	-67.877543
25196		10.925542	13.845604	-67.331117
25197		11.115299	13.824837	-66.774265
25198		11.280214	13.803146	-66.201602
25199		11.428070	13.763539	-65.619292
25200		11.570675	13.706496	-65.018978
25201		11.739597	13.622869	-64.420707
25202		11.939148	13.500557	-63.817967
25203		12.152502	13.374832	-63.212026
25204		12.359709	13.247053	-62.596713
25205		12.544500	13.125680	-61.976187
25206		12.714305	13.009576	-61.342546
25207		12.879618	12.891453	-60.697709
25208		13.051848	12.770107	-60.034850
25209		13.229000	12.642116	-59.371235
25210		13.416043	12.505127	-58.705720
25211		13.606055	12.384006	-58.046521
25212		13.774359	12.270600	-57.398474
25213		13.903752	12.164174	-56.767858
25214		13.973557	12.077187	-56.148222
25215		13.956412	12.020724	-55.546284
25216		13.848463	11.978352	-54.951033
25217		13.651123	11.959282	-54.360239
25218		13.370876	11.943526	-53.760762
25219		13.022666	11.925798	-53.158938
25220		12.615041	11.910326	-52.542757
25221		12.166046	11.909182	-51.913297
25222		11.677077	11.939724	-51.253053
25223		11.166002	12.022419	-50.551995
25224		10.674480	12.131674	-49.819992
25225		10.164070	12.227632	-49.079625
25226		9.656751	12.257740	-48.363617
25227		9.156526	12.238941	-47.708297
25228		8.692572	12.209021	-47.094902
25229		8.238610	12.196084	-46.512187
25230		7.750648	12.229858	-45.936250
25231		7.268671	12.304715	-45.347580
25232		6.826926	12.386500	-44.715542
25233		6.441741	12.438121	-44.046856
25234		6.135162	12.432368	-43.338709
25235		5.935296	12.374032	-42.617600
25236		5.900536	12.274533	-41.892219
25237		6.023083	12.184883	-41.173782
25238		6.262892	12.123939	-40.444251
25239		6.583889	12.076361	-39.701301
25240		6.927590	12.016427	-38.947922
25241		7.262665	11.920526	-38.207540
25242		7.559235	11.820048	-37.472644
25243		7.789368	11.752289	-36.744610
25244		7.971456	11.725991	-36.007892
25245		8.086981	11.745528	-35.265648
25246		8.103396	11.775750	-34.519380
25247		8.019306	11.795695	-33.782822
25248		7.839505	11.812231	-33.052756
25249		7.589877	11.841580	-32.324086
25250		7.303782	11.876907	-31.592236
25251		7.010115	11.921084	-30.856933
25252		6.723517	11.957389	-30.118226
25253		6.463516	11.982365	-29.393085
25254		6.250487	12.006287	-28.673589
25255		6.061724	12.061810	-27.952152
25256		5.881410	12.135539	-27.214639
25257		5.697595	12.216571	-26.469724
25258		5.483686	12.282630	-25.721799
25259		5.262484	12.306008	-24.990934
25260		5.061295	12.287511	-24.284482
25261		4.910163	12.285298	-23.598370
25262		4.831057	12.328266	-22.902915
25263		4.801791	12.410867	-22.192090
25264		4.774704	12.506969	-21.461558
25265		4.703703	12.571593	-20.734114
25266		4.599270	12.571149	-20.017474
25267		4.462412	12.540091	-19.337779
25268		4.328968	12.525695	-18.681248
25269		4.218812	12.556206	-18.031513
25270		4.130697	12.613387	-17.375168
25271		4.051710	12.682633	-16.712444
25272		3.961336	12.743570	-16.047916
25273		3.856545	12.792670	-15.395351
25274		3.727458	12.827739	-14.767818
25275		3.586626	12.864214	-14.167917
25276		3.449762	12.912608	-13.589018
25277		3.320401	12.991432	-13.025141
25278		3.189485	13.097822	-12.451033
25279		3.028613	13.235454	-11.868012
25280		2.825967	13.367703	-11.282594
25281		2.575413	13.447070	-10.705755
25282		2.307874	13.469672	-10.155527
25283		2.041340	13.497095	-9.636224
25284		1.824133	13.574493	-9.119730
25285		1.640215	13.704758	-8.583228
25286		1.452441	13.845423	-8.017574
25287		1.261344	13.963544	-7.433444
25288		1.054733	14.041277	-6.842387
25289		0.855332	14.093748	-6.256059
25290		0.666574	14.156956	-5.681869
25291		0.500151	14.258175	-5.120667
25292		0.343391	14.391473	-4.559913
25293		0.184014	14.539557	-3.993031
25294		-0.001257	14.689101	-3.414752
25295		-0.224808	14.847741	-2.835223
25296		-0.511619	14.992824	-2.264703
25297		-0.842063	15.107967	-1.718768
25298		-1.188832	15.196104	-1.199815
25299		-1.534163	15.278023	-0.725771
25300		-1.844525	15.362745	-0.275563
25301		-2.099357	15.453203	0.167223
25302		-2.292576	15.517935	0.621323
25303		-2.423435	15.553634	1.096272
25304		-2.507843	15.567389	1.593691
25305		-2.552520	15.574690	2.099746
25306		-2.535450	15.582255	2.603249
25307		-2.421706	15.600661	3.098354
25308		-2.211038	15.623011	3.600867
25309		-1.942618	15.627502	4.114114
25310		-1.649446	15.593478	4.630891
25311		-1.368592	15.530451	5.135029
25312		-1.107017	15.449845	5.619062
25313		-0.851608	15.387701	6.081325
25314		-0.599176	15.353853	6.532449
25315		-0.360912	15.355220	6.970260
25316		-0.159746	15.371630	7.399576
25317		-0.017811	15.395138	7.820834
25318		0.041504	15.417170	8.229780
25319		0.015790	15.442277	8.623376
25320		-0.109001	15.475157	8.997237
25321		-0.302368	15.520915	9.335916
25322		-0.542465	15.582248	9.645206
25323		-0.803597	15.648384	9.932586
25324		-1.058265	15.698618	10.204071
25325		-1.284726	15.741180	10.472828
25326		-1.492549	15.780734	10.743752
25327		-1.678548	15.824812	11.013787
25328		-1.822470	15.874690	11.290261
25329		-1.914559	15.929037	11.576573
25330		-1.966261	15.974707	11.870810
25331		-1.988298	16.000013	12.158019
25332		-1.973483	15.993601	12.429504
25333		-1.906259	15.981486	12.689287
25334		-1.795587	15.980094	12.944124
25335		-1.664099	15.991642	13.197227
25336		-1.557347	16.006206	13.434381
25337		-1.492197	16.039913	13.655995
25338		-1.466011	16.073127	13.858457
25339		-1.462058	16.096947	14.032179
25340		-1.459490	16.108015	14.180380
25341		-1.443137	16.124122	14.307254
25342		-1.411827	16.148316	14.420649
25343		-1.378386	16.177873	14.523032
25344		-1.355786	16.207989	14.612350
25345		-1.356061	16.241492	14.688526
25346		-1.363931	16.277276	14.762776
25347		-1.362786	16.314782	14.835956
25348		-1.352886	16.348081	14.909014
25349		-1.327993	16.383973	14.978641
25350		-1.285034	16.417968	15.046744
25351		-1.232351	16.454892	15.113583
25352		-1.182984	16.486202	15.184538
25353		-1.154099	16.506611	15.251753
25354		-1.169647	16.513804	15.307677
25355		-1.214139	16.517073	15.348642
25356		-1.272884	16.528356	15.381401
25357		-1.314383	16.556723	15.410010
25358		-1.349177	16.600438	15.433709
25359		-1.366462	16.653724	15.455742
25360		-1.374961	16.696182	15.472082
25361		-1.376501	16.723343	15.477114
25362		-1.370399	16.736585	15.476731
25363		-1.371770	16.748430	15.470487
25364		-1.383337	16.759808	15.456671
25365		-1.408705	16.775307	15.431674
25366		-1.443656	16.791708	15.403930
25367		-1.471417	16.802158	15.381802
25368		-1.489562	16.809272	15.360061
25369		-1.498687	16.818929	15.331038
25370		-1.487079	16.824490	15.300890
25371		-1.460956	16.833407	15.272652
25372		-1.414417	16.832594	15.246201
25373		-1.367773	16.820294	15.222751
25374		-1.336648	16.798476	15.197429
25375		-1.336317	16.778978	15.164796
25376		-1.356162	16.771527	15.120079
25377		-1.374118	16.776188	15.071804
25378		-1.389613	16.788200	15.025372
25379		-1.401813	16.800586	14.985131
25380		-1.415787	16.798212	14.950044
25381		-1.440088	16.787305	14.915010
25382		-1.465610	16.769059	14.877921
25383		-1.487731	16.758803	14.837949
25384		-1.510782	16.749099	14.789768
25385		-1.527831	16.746236	14.740976
25386		-1.541162	16.741733	14.695216
25387		-1.555813	16.740706	14.649393
25388		-1.572149	16.737011	14.609320
25389		-1.586772	16.737746	14.573599
25390		-1.616073	16.740647	14.533349
25391		-1.647640	16.742834	14.490514
25392		-1.675947	16.747440	14.449736
25393		-1.699209	16.750669	14.406902
25394		-1.718884	16.746087	14.370534
25395		-1.738973	16.743339	14.334641
25396		-1.762960	16.739018	14.300110
25397		-1.784442	16.740666	14.266667
25398		-1.807064	16.746341	14.228005
25399		-1.823056	16.754401	14.186356
25400		-1.838229	16.755046	14.145171
25401		-1.852088	16.754364	14.099703
25402		-1.870815	16.758140	14.056331
25403		-1.885450	16.760021	14.011174
25404		-1.888944	16.763365	13.967232
25405		-1.879056	16.767691	13.922967
25406		-1.852754	16.769198	13.881203
25407		-1.817436	16.761968	13.838923
25408		-1.783727	16.742140	13.798466
25409		-1.747046	16.728624	13.758622
25410		-1.729535	16.730873	13.718729
25411		-1.730236	16.747615	13.679778
25412		-1.742423	16.757570	13.643579
25413		-1.760237	16.751677	13.609380
25414		-1.777646	16.736671	13.576979
25415		-1.794667	16.726421	13.546667
25416		-1.822284	16.722316	13.511479
25417		-1.854819	16.726893	13.467286
25418		-1.895602	16.738507	13.413225
25419		-1.930319	16.747608	13.355811
25420		-1.955826	16.741138	13.296962
25421		-1.971848	16.731877	13.238128
25422		-1.996895	16.722817	13.176505
25423		-2.039651	16.715793	13.101569
25424		-2.088810	16.711714	13.018872
25425		-2.128907	16.711008	12.925570
25426		-2.159597	16.718781	12.828975
25427		-2.175926	16.727916	12.725682
25428		-2.187511	16.724822	12.620420
25429		-2.198601	16.715444	12.509272
25430		-2.213671	16.699696	12.395199
25431		-2.223820	16.680843	12.276306
25432		-2.224162	16.665338	12.155442
25433		-2.211878	16.665049	12.026908
25434		-2.181074	16.674410	11.904534
25435		-2.143154	16.685018	11.781047
25436		-2.107554	16.688060	11.657319
25437		-2.084518	16.686022	11.527063
25438		-2.076594	16.676378	11.395096
25439		-2.074052	16.668207	11.259740
25440		-2.079971	16.670073	11.117251
25441		-2.089147	16.682256	10.964634
25442		-2.093221	16.699481	10.805288
25443		-2.077496	16.706123	10.645147
25444		-2.042506	16.701880	10.493364
25445		-1.998655	16.693226	10.343322
25446		-1.958061	16.680161	10.189231
25447		-1.923311	16.669443	10.025134
25448		-1.870543	16.664414	9.853792
25449		-1.805946	16.680769	9.675587
25450		-1.731169	16.708879	9.495511
25451		-1.646536	16.737645	9.320858
25452		-1.555707	16.750994	9.157662
25453		-1.478144	16.754765	9.006340
25454		-1.417244	16.750310	8.866646
25455		-1.399636	16.743773	8.716738
25456		-1.423947	16.733896	8.543256
25457		-1.480384	16.735593	8.341593
25458		-1.547046	16.750249	8.122403
25459		-1.606222	16.778130	7.894447
25460		-1.642929	16.807236	7.668206
25461		-1.667901	16.838482	7.446898
25462		-1.690649	16.860089	7.230654
25463		-1.718323	16.866665	7.012524
25464		-1.751814	16.851592	6.787577
25465		-1.784758	16.816182	6.548846
25466		-1.797811	16.782300	6.306064
25467		-1.787252	16.766591	6.048514
25468		-1.748804	16.770155	5.787061
25469		-1.684249	16.784959	5.524459
25470		-1.610758	16.793768	5.256940
25471		-1.528659	16.786781	4.985584
25472		-1.439026	16.767685	4.720507
25473		-1.352141	16.754706	4.463203
25474		-1.292497	16.737188	4.203020
25475		-1.259200	16.709415	3.929551
25476		-1.242936	16.678145	3.637822
25477		-1.233151	16.658337	3.336827
25478		-1.207198	16.645358	3.036148
25479		-1.170422	16.639146	2.739877
25480		-1.126590	16.630643	2.449090
25481		-1.082484	16.622179	2.164491
25482		-1.039197	16.614016	1.877973
25483		-0.989828	16.606223	1.596807
25484		-0.946847	16.592190	1.323765
25485		-0.925978	16.560251	1.046246
25486		-0.934415	16.516187	0.759165
25487		-0.971562	16.482738	0.453155
25488		-1.021554	16.473750	0.129610
25489		-1.083956	16.491733	-0.209951
25490		-1.132535	16.514212	-0.547388
25491		-1.175882	16.525564	-0.882456
25492		-1.221467	16.521914	-1.208330
25493		-1.272546	16.511472	-1.526407
25494		-1.325805	16.485745	-1.842260
25495		-1.389905	16.460176	-2.171075
25496		-1.447699	16.441263	-2.518093
25497		-1.477126	16.429217	-2.879485
25498		-1.461178	16.421606	-3.241294
25499		-1.397093	16.416091	-3.590647
25500		-1.309860	16.404437	-3.924039
25501		-1.226017	16.383811	-4.255693
25502		-1.142373	16.352504	-4.587156
25503		-1.054659	16.321095	-4.919604
25504		-0.961978	16.291817	-5.250470
25505		-0.864622	16.260048	-5.581224
25506		-0.760998	16.215777	-5.908166
25507		-0.653522	16.155035	-6.238419
25508		-0.545372	16.096572	-6.573262
25509		-0.444429	16.064938	-6.924295
25510		-0.334245	16.060396	-7.284825
25511		-0.223174	16.071096	-7.649997
25512		-0.127033	16.084256	-8.013661
25513		-0.045535	16.068470	-8.377783
25514		0.007738	16.032551	-8.749155
25515		0.045065	15.994515	-9.134788
25516		0.075026	15.979035	-9.527476
25517		0.110931	15.986186	-9.924731
25518		0.147055	15.997719	-10.318849
25519		0.176014	15.996769	-10.714510
25520		0.208631	15.974360	-11.106350
25521		0.232236	15.947422	-11.491764
25522		0.248195	15.927927	-11.868785
25523		0.257686	15.907906	-12.249148
25524		0.260466	15.893350	-12.633705
25525		0.260853	15.889037	-13.032942
25526		0.277497	15.889992	-13.441010
25527		0.322634	15.899646	-13.857075
25528		0.395113	15.912409	-14.278483
25529		0.482720	15.926747	-14.700679
25530		0.582689	15.939076	-15.124441
25531		0.672150	15.950196	-15.553494
25532		0.742293	15.961199	-15.985799
25533		0.798052	15.963849	-16.430688
25534		0.844711	15.966553	-16.882748
25535		0.882956	15.978075	-17.337711
25536		0.927887	15.994743	-17.778830
25537		0.957691	16.015401	-18.219542
25538		0.962449	16.040618	-18.668232
25539		0.950452	16.065210	-19.133404
25540		0.947329	16.092610	-19.617406
25541		0.980763	16.122325	-20.122482
25542		1.044921	16.164369	-20.634965
25543		1.118961	16.215183	-21.143256
25544		1.187615	16.241541	-21.633079
25545		1.217783	16.243825	-22.118767
25546		1.214045	16.248188	-22.597963
25547		1.196039	16.264232	-23.081574
25548		1.168960	16.284540	-23.574226
25549		1.137896	16.300228	-24.087127
25550		1.137918	16.305918	-24.616013
25551		1.179926	16.316044	-25.157773
25552		1.252025	16.347592	-25.690769
25553		1.343678	16.381204	-26.210986
25554		1.429223	16.400783	-26.716873
25555		1.487033	16.409967	-27.227038
25556		1.519769	16.413107	-27.741430
25557		1.518361	16.407406	-28.277913
25558		1.499199	16.403639	-28.838499
25559		1.485790	16.404771	-29.421327
25560		1.493076	16.415639	-30.006003
25561		1.540496	16.426893	-30.579191
25562		1.610366	16.415629	-31.125349
25563		1.681726	16.376754	-31.658189
25564		1.765900	16.321370	-32.179692
25565		1.858319	16.262481	-32.708507
25566		1.959515	16.216617	-33.250142
25567		2.093831	16.180828	-33.801235
25568		2.275974	16.157356	-34.339779
25569		2.472680	16.144788	-34.865872
25570		2.685129	16.127021	-35.373049
25571		2.889564	16.087784	-35.867477
25572		3.081264	16.040145	-36.360313
25573		3.260394	16.000109	-36.865305
25574		3.425753	15.982415	-37.379786
25575		3.550313	15.986051	-37.900896
25576		3.617303	15.997199	-38.424008
25577		3.628185	15.996035	-38.957498
25578		3.597380	15.987119	-39.490267
25579		3.518474	15.990657	-40.027132
25580		3.417263	16.006069	-40.551879
25581		3.298888	16.036742	-41.072715
25582		3.151997	16.073070	-41.598914
25583		3.005813	16.108435	-42.135024
25584		2.882347	16.136804	-42.670368
25585		2.785219	16.159424	-43.202494
25586		2.723473	16.180786	-43.720420
25587		2.704110	16.198085	-44.227869
25588		2.711038	16.203051	-44.730075
25589		2.713174	16.213121	-45.242368
25590		2.723727	16.228586	-45.760068
25591		2.757373	16.251243	-46.284088
25592		2.796695	16.279221	-46.780699
25593		2.771726	16.295455	-47.272046
25594		2.684119	16.319213	-47.769214
25595		2.548773	16.361293	-48.274970
25596		2.398956	16.408227	-48.786801
25597		2.299117	16.439020	-49.306492
25598		2.252217	16.448954	-49.817363
25599		2.244885	16.454540	-50.312834
25600		2.256529	16.463629	-50.787304
25601		2.245811	16.497820	-51.247300
25602		2.210594	16.558457	-51.688587
25603		2.147113	16.634804	-52.132281
25604		2.046561	16.723474	-52.592613
25605		1.911963	16.812894	-53.075876
25606		1.784924	16.866796	-53.562421
25607		1.695245	16.880282	-54.044040
25608		1.644064	16.893922	-54.492361
25609		1.569713	16.951569	-54.901114
25610		1.490717	17.042673	-55.261261
25611		1.422453	17.131793	-55.590523
25612		1.366763	17.199100	-55.910332
25613		1.347288	17.228875	-56.244886
25614		1.387853	17.222339	-56.598400
25615		1.491663	17.201229	-56.967762
25616		1.651818	17.201304	-57.334373
25617		1.809911	17.246985	-57.698394
25618		1.913585	17.335205	-58.053522
25619		1.944266	17.431303	-58.410633
25620		1.946309	17.505390	-58.760773
25621		1.964632	17.547405	-59.109106
25622		1.983514	17.564141	-59.453931
25623		2.007222	17.573356	-59.795562
25624		2.081528	17.591279	-60.113479
25625		2.163555	17.626889	-60.417716
25626		2.245613	17.678035	-60.713348
25627		2.342941	17.726284	-61.009065
25628		2.465016	17.752438	-61.305164
25629		2.633409	17.749733	-61.604006
25630		2.859487	17.740721	-61.888142
25631		3.081631	17.745061	-62.159411
25632		3.282087	17.758491	-62.414522
25633		3.448669	17.782332	-62.664273
25634		3.567649	17.815341	-62.911473
25635		3.648569	17.856272	-63.172699
25636		3.704201	17.896614	-63.444261
25637		3.715750	17.943076	-63.728238
25638		3.674715	18.010040	-64.020728
25639		3.592492	18.088226	-64.313794
25640		3.495515	18.158929	-64.600104
25641		3.382448	18.225703	-64.878465
25642		3.226809	18.294044	-65.145244
25643		3.056681	18.371593	-65.404119
25644		2.902725	18.455091	-65.645345
25645		2.793388	18.534348	-65.882748
25646		2.733447	18.588185	-66.120868
25647		2.733374	18.612320	-66.369148
25648		2.752746	18.628362	-66.617945
25649		2.748389	18.659532	-66.878546
25650		2.728780	18.701775	-67.150868
25651		2.713771	18.756586	-67.433169
25652		2.710166	18.828480	-67.718916
25653		2.727514	18.907104	-67.998693
25654		2.746014	18.980529	-68.259603
25655		2.723291	19.049654	-68.511025
25656		2.652884	19.108126	-68.751661
25657		2.564717	19.151285	-69.000698
25658		2.495576	19.184770	-69.271743
25659		2.446861	19.221666	-69.565557
25660		2.409438	19.250264	-69.885034
25661		2.378758	19.256837	-70.226420
25662		2.341661	19.243870	-70.562829
25663		2.283612	19.244880	-70.889832
25664		2.171896	19.271212	-71.200401
25665		2.010200	19.304921	-71.513745
25666		1.846825	19.323399	-71.828092
25667		1.691158	19.315197	-72.154894
25668		1.547236	19.276549	-72.495980
25669		1.446753	19.228399	-72.852575
25670		1.359915	19.202087	-73.205425
25671		1.268906	19.200041	-73.554280
25672		1.181519	19.207738	-73.887788
25673		1.100020	19.212269	-74.223297
25674		1.036113	19.203958	-74.563293
25675		0.970843	19.170829	-74.910843
25676		0.890079	19.132378	-75.252321
25677		0.823549	19.116217	-75.575238
25678		0.755242	19.131013	-75.875769
25679		0.677459	19.169151	-76.176127
25680		0.610567	19.202329	-76.485979
25681		0.549460	19.207646	-76.816182
25682		0.499153	19.174013	-77.168340
25683		0.473445	19.122945	-77.523379
25684		0.447093	19.107448	-77.851774
25685		0.386904	19.139978	-78.152479
25686		0.313160	19.193329	-78.433576
25687		0.255030	19.233754	-78.718635
25688		0.225901	19.245641	-79.012547
25689		0.209698	19.232307	-79.320739
25690		0.202222	19.207798	-79.625823
25691		0.209067	19.197189	-79.922213
25692		0.210709	19.213072	-80.190892
25693		0.201053	19.251699	-80.438861
25694		0.190706	19.299598	-80.669838
25695		0.186683	19.328907	-80.904838
25696		0.230302	19.329944	-81.143488
25697		0.310648	19.315622	-81.383128
25698		0.375939	19.303970	-81.610217
25699		0.413535	19.301451	-81.816300
25700		0.463715	19.310283	-81.991862
25701		0.530905	19.311940	-82.148806
25702		0.625539	19.300024	-82.291074
25703		0.776192	19.273161	-82.427954
25704		0.978078	19.232508	-82.562477
25705		1.182313	19.200169	-82.700945
25706		1.338912	19.186267	-82.838831
25707		1.384534	19.180728	-82.991491
25708		1.355802	19.172893	-83.160319
25709		1.275557	19.162313	-83.339391
25710		1.171938	19.155670	-83.512470
25711		1.067229	19.159079	-83.681680
25712		0.985910	19.162919	-83.836659
25713		0.947178	19.150754	-83.988598
25714		0.953067	19.131614	-84.133309
25715		0.963654	19.122647	-84.275979
25716		0.967314	19.125760	-84.416654
25717		0.945823	19.130308	-84.565495
25718		0.917422	19.121114	-84.723785
25719		0.898893	19.104464	-84.884502
25720		0.883364	19.102664	-85.034299
25721		0.861007	19.129500	-85.178888
25722		0.846995	19.162172	-85.311956
25723		0.838104	19.176410	-85.452105
25724		0.841243	19.175113	-85.591677
25725		0.870909	19.173418	-85.727064
25726		0.911206	19.186720	-85.850372
25727		0.946051	19.215563	-85.967737
25728		0.972920	19.247650	-86.078158
25729		1.008851	19.266225	-86.184100
25730		1.029805	19.274492	-86.276067
25731		1.035938	19.282128	-86.357142
25732		1.007609	19.304233	-86.428578
25733		0.956863	19.327983	-86.503574
25734		0.925964	19.352744	-86.579878
25735		0.921741	19.376960	-86.657532
25736		0.913163	19.402720	-86.728860
25737		0.886524	19.438055	-86.792396
25738		0.847452	19.479436	-86.844619
25739		0.798343	19.509336	-86.895967
25740		0.768676	19.536652	-86.940637
25741		0.751514	19.567619	-86.981953
25742		0.763880	19.592937	-87.020010
25743		0.788289	19.613157	-87.057951
25744		0.816679	19.633167	-87.086962
25745		0.842035	19.654264	-87.111226
25746		0.852502	19.675537	-87.130422
25747		0.854195	19.693819	-87.151981
25748		0.847195	19.709530	-87.173954
25749		0.843380	19.728794	-87.201560
25750		0.847441	19.743108	-87.230996
25751		0.858597	19.748450	-87.261816
25752		0.873663	19.750984	-87.289783
25753		0.899939	19.748497	-87.310632
25754		0.928663	19.754638	-87.321992
25755		0.965425	19.752621	-87.332151
25756		1.018004	19.740563	-87.335892
25757		1.103010	19.720062	-87.338340
25758		1.227752	19.688235	-87.332448
25759		1.376270	19.654130	-87.324451
25760		1.544653	19.632957	-87.303182
25761		1.662809	19.633774	-87.266644
25762		1.595225	19.660179	-87.233234
25763		1.435174	19.708654	-87.198767
25764		1.239704	19.751146	-87.167716
25765		1.027576	19.785479	-87.156523
25766		0.855123	19.823212	-87.158229
25767		0.752430	19.855239	-87.166488
25768		0.749605	19.872635	-87.172527
25769		0.806789	19.875206	-87.184248
25770		0.889715	19.866144	-87.206934
25771		1.012360	19.847523	-87.239745
25772		1.164071	19.825363	-87.272528
25773		1.304576	19.800694	-87.305546
25774		1.420603	19.787514	-87.334587
25775		1.503054	19.786263	-87.365208
25776		1.537074	19.794303	-87.396425
25777		1.509831	19.817838	-87.439552
25778		1.442488	19.838061	-87.494703
25779		1.349426	19.849409	-87.562657
25780		1.262855	19.868196	-87.631748
25781		1.189380	19.898009	-87.700042
25782		1.142505	19.927738	-87.759167
25783		1.136953	19.946221	-87.807115
25784		1.172659	19.955964	-87.845678
25785		1.247141	19.960311	-87.880319
25786		1.338248	19.960300	-87.918642
25787		1.399072	19.964291	-87.964552
25788		1.430299	19.977016	-88.010429
25789		1.417954	19.998143	-88.059341
25790		1.371752	20.028621	-88.099015
25791		1.317847	20.066069	-88.133929
25792		1.260463	20.106184	-88.161291
25793		1.196649	20.137590	-88.191864
25794		1.130583	20.163638	-88.226772
25795		1.075079	20.187095	-88.270536
25796		1.038787	20.206638	-88.315051
25797		1.024177	20.221797	-88.362339
25798		1.036647	20.240099	-88.403213
25799		1.064188	20.248286	-88.442222
25800		1.095283	20.248123	-88.479532
25801		1.143133	20.242664	-88.524065
25802		1.172744	20.235424	-88.578995
25803		1.176496	20.233439	-88.646421
25804		1.158669	20.241951	-88.710548
25805		1.126585	20.262492	-88.766593
25806		1.078339	20.294923	-88.814952
25807		1.004378	20.322742	-88.870751
25808		0.935319	20.334266	-88.933265
25809		0.882768	20.333629	-89.001926
25810		0.848381	20.332973	-89.068020
25811		0.816966	20.344709	-89.121149
25812		0.788678	20.363472	-89.165151
25813		0.761355	20.377588	-89.206222
25814		0.744621	20.383412	-89.247536
25815		0.756265	20.376985	-89.296514
25816		0.794527	20.362842	-89.345232
25817		0.824307	20.358503	-89.389161
25818		0.831881	20.374221	-89.417642
25819		0.810005	20.396214	-89.446249
25820		0.765340	20.406115	-89.473197
25821		0.712307	20.407208	-89.507531
25822		0.685232	20.403143	-89.544275
25823		0.684937	20.404037	-89.579417
25824		0.704930	20.410921	-89.610943
25825		0.700335	20.415467	-89.642319
25826		0.692259	20.414804	-89.675042
25827		0.706645	20.405352	-89.703996
25828		0.733056	20.404010	-89.728635
25829		0.745333	20.414249	-89.747650
25830		0.741169	20.426537	-89.764486
25831		0.742347	20.434004	-89.786266
25832		0.748799	20.434848	-89.804054
25833		0.743323	20.439273	-89.825910
25834		0.741556	20.449925	-89.833969
25835		0.732658	20.462445	-89.839365
25836		0.727386	20.477408	-89.836913
25837		0.696719	20.489911	-89.834210
25838		0.664114	20.503335	-89.829637
25839		0.642628	20.512732	-89.827976
25840		0.633106	20.519760	-89.830607
25841		0.631260	20.522892	-89.825820
25842		0.645726	20.522918	-89.811639
25843		0.691315	20.518827	-89.799155
25844		0.750203	20.520686	-89.783569
25845		0.803646	20.522504	-89.766874
25846		0.818563	20.519710	-89.746698
25847		0.796809	20.512385	-89.730065
25848		0.749288	20.506144	-89.713768
25849		0.703422	20.496627	-89.701386
25850		0.675670	20.490492	-89.687758
25851		0.659601	20.483971	-89.672377
25852		0.666487	20.475633	-89.657176
25853		0.693033	20.462475	-89.645875
25854		0.729857	20.448001	-89.640034
25855		0.752038	20.435693	-89.631571
25856		0.743833	20.431903	-89.616574
25857		0.700715	20.429199	-89.601176
25858		0.660154	20.425047	-89.584127
25859		0.628529	20.417467	-89.572814
25860		0.606746	20.412817	-89.559885
25861		0.606440	20.407402	-89.545499
25862		0.632235	20.401987	-89.528908
25863		0.668664	20.391232	-89.507945
25864		0.711456	20.389311	-89.478558
25865		0.742001	20.392264	-89.435738
25866		0.738746	20.402506	-89.389350
25867		0.723114	20.410937	-89.337394
25868		0.688474	20.413318	-89.286058
25869		0.649332	20.420962	-89.241724
25870		0.625776	20.433089	-89.192231
25871		0.611112	20.445977	-89.136759
25872		0.616376	20.453372	-89.065963
25873		0.638027	20.454429	-88.993188
25874		0.648364	20.449789	-88.916029
25875		0.635824	20.444797	-88.835838
25876		0.609013	20.441380	-88.748840
25877		0.579960	20.436535	-88.654027
25878		0.550793	20.434188	-88.550196
25879		0.534968	20.425457	-88.444842
25880		0.549226	20.401417	-88.337755
25881		0.592543	20.367822	-88.226523
25882		0.638094	20.330756	-88.111824
25883		0.686217	20.298509	-87.980859
25884		0.735940	20.264743	-87.835737
25885		0.781596	20.231584	-87.680159
25886		0.834124	20.201287	-87.509616
25887		0.882112	20.174171	-87.328684
25888		0.944106	20.155170	-87.128450
25889		1.031535	20.143433	-86.901780
25890		1.124062	20.146508	-86.644125
25891		1.223529	20.182078	-86.359915
25892		1.310119	20.237590	-86.074095
25893		1.400441	20.277204	-85.811090
25894		1.536755	20.291346	-85.569888
25895		1.664543	20.306854	-85.341769
25896		1.744728	20.350371	-85.110225
25897		1.770271	20.425721	-84.866653
25898		1.758695	20.522151	-84.599709
25899		1.713412	20.622573	-84.313832
25900		1.664081	20.718989	-84.017070
25901		1.653261	20.790203	-83.723997
25902		1.695300	20.834526	-83.436657
25903		1.782836	20.867290	-83.154727
25904		1.916340	20.897042	-82.859842
25905		2.045239	20.940551	-82.547247
25906		2.128947	21.010681	-82.220250
25907		2.197764	21.106324	-81.877117
25908		2.279138	21.207645	-81.527823
25909		2.358788	21.288217	-81.184085
25910		2.457199	21.337040	-80.835491
25911		2.564618	21.349780	-80.483390
25912		2.662262	21.349680	-80.124951
25913		2.724669	21.354009	-79.760322
25914		2.740190	21.377499	-79.368140
25915		2.772375	21.428159	-78.942919
25916		2.836538	21.505756	-78.483524
25917		2.948768	21.590011	-78.004965
25918		3.101857	21.658626	-77.514424
25919		3.256139	21.722480	-77.028755
25920		3.411888	21.770991	-76.560470
25921		3.514523	21.805378	-76.113921
25922		3.601464	21.851530	-75.668232
25923		3.682160	21.920925	-75.197950
25924		3.762270	22.005121	-74.692542
25925		3.866069	22.080349	-74.148794
25926		3.984817	22.135297	-73.568192
25927		4.133415	22.175384	-72.973012
25928		4.372869	22.189114	-72.374765
25929		4.679786	22.180232	-71.787174
25930		5.033448	22.160490	-71.217417
25931		5.371469	22.133836	-70.659840
25932		5.614910	22.132629	-70.110241
25933		5.786929	22.162272	-69.561975
25934		5.898106	22.215243	-68.997353
25935		5.932152	22.291045	-68.421183
25936		5.946131	22.365931	-67.836166
25937		5.981807	22.402536	-67.254748
25938		6.044651	22.392367	-66.678749
25939		6.126380	22.347039	-66.106540
25940		6.218463	22.302172	-65.519643
25941		6.308372	22.278577	-64.915242
25942		6.405818	22.275104	-64.288246
25943		6.527498	22.283455	-63.655156
25944		6.714866	22.283940	-63.023267
25945		6.952599	22.269079	-62.400809
25946		7.231432	22.246286	-61.778022
25947		7.508263	22.220226	-61.160856
25948		7.743789	22.209217	-60.542134
25949		7.912154	22.214505	-59.920961
25950		8.009350	22.238675	-59.298998
25951		8.044081	22.283542	-58.676492
25952		8.030125	22.357538	-58.045709
25953		8.029592	22.431022	-57.422107
25954		8.048384	22.482078	-56.805761
25955		8.066477	22.502846	-56.202137
25956		8.080290	22.500134	-55.607984
25957		8.077052	22.492627	-55.013465
25958		8.050091	22.509566	-54.403960
25959		8.011623	22.562893	-53.773920
25960		7.975914	22.634581	-53.127192
25961		7.965254	22.681423	-52.483095
25962		7.988750	22.689342	-51.852285
25963		8.046063	22.661108	-51.230402
25964		8.148697	22.617126	-50.608771
25965		8.266153	22.589990	-49.983045
25966		8.369123	22.601742	-49.351694
25967		8.455432	22.626555	-48.722747
25968		8.539444	22.642087	-48.097246
25969		8.622349	22.644370	-47.483685
25970		8.691107	22.636960	-46.876978
25971		8.747402	22.598886	-46.286355
25972		8.786508	22.534769	-45.702315
25973		8.796988	22.474469	-45.121504
25974		8.793794	22.435532	-44.534363
25975		8.808676	22.396831	-43.939039
25976		8.848421	22.358811	-43.327644
25977		8.915165	22.314043	-42.699376
25978		9.032459	22.250941	-42.062545
25979		9.206959	22.159496	-41.417585
25980		9.409352	22.060237	-40.764552
25981		9.627391	21.956616	-40.115707
25982		9.854279	21.861722	-39.467373
25983		10.078973	21.785339	-38.814156
25984		10.292080	21.727464	-38.153181
25985		10.484360	21.683633	-37.482220
25986		10.618847	21.670405	-36.793963
25987		10.675643	21.698008	-36.096270
25988		10.641900	21.758928	-35.385833
25989		10.482484	21.811733	-34.689326
25990		10.199010	21.851872	-34.022645
25991		9.812715	21.908932	-33.389242
25992		9.368655	21.999203	-32.766810
25993		8.896200	22.126781	-32.134142
25994		8.367497	22.276934	-31.486616
25995		7.783045	22.397228	-30.843148
25996		7.188791	22.455081	-30.211129
25997		6.631670	22.456425	-29.597878
25998		6.168172	22.444032	-28.987638
25999		5.845006	22.457998	-28.367232
26000		5.678026	22.499609	-27.722222
26001		5.627943	22.547195	-27.042517
26002		5.631820	22.563197	-26.348588
26003		5.674793	22.505806	-25.659577
26004		5.760776	22.398111	-24.983784
26005		5.871066	22.297400	-24.326564
26006		6.021989	22.227444	-23.664361
26007		6.212923	22.190426	-22.985867
26008		6.408528	22.185669	-22.286860
26009		6.568910	22.191798	-21.575503
26010		6.680829	22.156641	-20.871592
26011		6.742485	22.067746	-20.193563
26012		6.751344	21.977550	-19.547506
26013		6.720969	21.928597	-18.920723
26014		6.659975	21.934548	-18.288902
26015		6.540678	21.987373	-17.644814
26016		6.357390	22.052375	-16.990310
26017		6.130523	22.082852	-16.340168
26018		5.882261	22.064616	-15.707705
26019		5.616415	22.028556	-15.101151
26020		5.336999	22.020933	-14.519268
26021		5.079934	22.058251	-13.939285
26022		4.861037	22.128448	-13.335757
26023		4.660805	22.196514	-12.711439
26024		4.466743	22.234181	-12.076524
26025		4.293795	22.231125	-11.447393
26026		4.139784	22.207892	-10.831632
26027		4.010050	22.190888	-10.225491
26028		3.902467	22.205418	-9.623455
26029		3.797831	22.252048	-9.018859
26030		3.681920	22.308190	-8.409211
26031		3.541744	22.347747	-7.803029
26032		3.378272	22.361847	-7.200290
26033		3.185722	22.360051	-6.617010
26034		2.968880	22.351700	-6.050915
26035		2.758806	22.363265	-5.499237
26036		2.569878	22.399791	-4.956199
26037		2.411816	22.446177	-4.411376
26038		2.272742	22.510221	-3.858349
26039		2.122127	22.572719	-3.302274
26040		1.952011	22.612435	-2.749313
26041		1.762281	22.625922	-2.217505
26042		1.550695	22.616337	-1.728288
26043		1.358352	22.612410	-1.274563
26044		1.200521	22.644586	-0.842827
26045		1.087783	22.710978	-0.409420
26046		1.009071	22.785341	0.045073
26047		0.949009	22.837901	0.518928
26048		0.919265	22.866878	1.012011
26049		0.905446	22.862587	1.510171
26050		0.899181	22.832370	2.000558
26051		0.878608	22.793598	2.459392
26052		0.844083	22.783225	2.874356
26053		0.801479	22.822423	3.254269
26054		0.750979	22.891732	3.624044
26055		0.674603	22.944060	3.995040
26056		0.571057	22.952573	4.368712
26057		0.445185	22.931534	4.737169
26058		0.319628	22.891490	5.100588
26059		0.205116	22.846298	5.451410
26060		0.114063	22.810676	5.784747
26061		0.071100	22.778097	6.107634
26062		0.101855	22.746979	6.435308
26063		0.201101	22.709322	6.777312
26064		0.347253	22.655230	7.132332
26065		0.514585	22.580919	7.497250
26066		0.685748	22.503200	7.861211
26067		0.862044	22.429397	8.223063
26068		1.054054	22.356919	8.594192
26069		1.258297	22.284525	8.980922
26070		1.455044	22.226321	9.382060
26071		1.634773	22.181607	9.792277
26072		1.795727	22.134365	10.199058
26073		1.911972	22.085509	10.590983
26074		1.967661	22.031192	10.961095
26075		1.947173	21.983044	11.300788
26076		1.835037	21.949099	11.614897
26077		1.647765	21.937896	11.905375
26078		1.413960	21.950742	12.179678
26079		1.161747	21.975520	12.441883
26080		0.934757	21.998108	12.703683
26081		0.750846	22.009683	12.958581
26082		0.619017	22.010379	13.206835
26083		0.522505	22.019091	13.444816
26084		0.436714	22.041666	13.673049
26085		0.344979	22.072181	13.892216
26086		0.255434	22.107081	14.105673
26087		0.162468	22.138101	14.307089
26088		0.053627	22.154793	14.491512
26089		-0.073035	22.159991	14.647907
26090		-0.202425	22.173626	14.766298
26091		-0.329806	22.218603	14.844390
26092		-0.483779	22.308888	14.887684
26093		-0.679615	22.421034	14.901945
26094		-0.909363	22.534110	14.899326
26095		-1.174396	22.652436	14.875876
26096		-1.477749	22.774882	14.828742
26097		-1.801938	22.899534	14.764411
26098		-2.112887	23.023233	14.700963
26099		-2.400242	23.134131	14.646299
26100		-2.641904	23.220207	14.600958
26101		-2.835332	23.281511	14.565473
26102		-2.975687	23.332565	14.539414
26103		-3.056027	23.383261	14.526786
26104		-3.076148	23.442130	14.523371
26105		-3.054313	23.496732	14.519576
26106		-2.994659	23.542109	14.505530
26107		-2.890756	23.565775	14.481378
26108		-2.743072	23.578909	14.454788
26109		-2.577139	23.587964	14.426389
26110		-2.412375	23.587039	14.399595
26111		-2.284944	23.577879	14.365554
26112		-2.209336	23.568034	14.317412
26113		-2.182621	23.567436	14.269384
26114		-2.189739	23.579527	14.225607
26115		-2.231570	23.595882	14.188634
26116		-2.301394	23.610186	14.158952
26117		-2.408423	23.612708	14.129575
26118		-2.546431	23.606799	14.095534
26119		-2.701977	23.594608	14.054307
26120		-2.856682	23.585109	14.008582
26121		-2.984408	23.583613	13.963435
26122		-3.075073	23.589772	13.927663
26123		-3.120072	23.583928	13.906507
26124		-3.124823	23.562367	13.895385
26125		-3.102173	23.525725	13.887989
26126		-3.063326	23.486645	13.877017
26127		-3.020611	23.453254	13.861873
26128		-2.971842	23.423564	13.845266
26129		-2.921408	23.389610	13.827043
26130		-2.876456	23.353844	13.812481
26131		-2.857989	23.322077	13.792847
26132		-2.877055	23.292284	13.769339
26133		-2.938075	23.265386	13.738113
26134		-3.036494	23.241197	13.700899
26135		-3.155624	23.214331	13.658151
26136		-3.278665	23.188997	13.609313
26137		-3.397272	23.169739	13.552327
26138		-3.487202	23.152671	13.494037
26139		-3.538434	23.136280	13.435664
26140		-3.547480	23.121027	13.384914
26141		-3.530446	23.097287	13.338561
26142		-3.510521	23.064158	13.287684
26143		-3.501018	23.029476	13.230426
26144		-3.499463	22.996606	13.165996
26145		-3.503618	22.970583	13.102694
26146		-3.514475	22.951396	13.040570
26147		-3.541026	22.932153	12.980962
26148		-3.591589	22.904339	12.919722
26149		-3.669076	22.867977	12.852296
26150		-3.765899	22.832701	12.770923
26151		-3.867543	22.803803	12.675297
26152		-3.960479	22.780831	12.563930
26153		-4.027230	22.756593	12.442487
26154		-4.055138	22.719521	12.324452
26155		-4.057094	22.663227	12.216681
26156		-4.047806	22.596547	12.114056
26157		-4.042593	22.533833	12.010410
26158		-4.052541	22.488977	11.897376
26159		-4.076335	22.454217	11.772885
26160		-4.103596	22.425814	11.639839
26161		-4.120165	22.391028	11.505150
26162		-4.115891	22.346553	11.380722
26163		-4.111357	22.291096	11.262321
26164		-4.115163	22.214283	11.148925
26165		-4.136285	22.128684	11.027019
26166		-4.178802	22.057227	10.886845
26167		-4.233800	22.002503	10.728873
26168		-4.270453	21.955085	10.561693
26169		-4.297468	21.911022	10.391703
26170		-4.302775	21.849777	10.229648
26171		-4.296966	21.768334	10.078866
26172		-4.297747	21.668223	9.938636
26173		-4.312920	21.564157	9.807347
26174		-4.352736	21.479585	9.673874
26175		-4.422382	21.424516	9.531326
26176		-4.501825	21.396575	9.383990
26177		-4.569669	21.383029	9.239463
26178		-4.615165	21.365961	9.111562
26179		-4.649141	21.341022	9.002615
26180		-4.699831	21.299008	8.895135
26181		-4.772606	21.245093	8.784310
26182		-4.840880	21.187801	8.669315
26183		-4.898461	21.138064	8.544360
26184		-4.930764	21.100265	8.414296
26185		-4.934858	21.061278	8.274398
26186		-4.917189	21.018260	8.130218
26187		-4.890946	20.968830	7.975654
26188		-4.863798	20.920932	7.813117
26189		-4.846336	20.879561	7.642702
26190		-4.827054	20.843578	7.465727
26191		-4.809702	20.819174	7.283426
26192		-4.800021	20.811970	7.098705
26193		-4.806506	20.801709	6.916429
26194		-4.839195	20.778959	6.728147
26195		-4.898755	20.745554	6.527051
26196		-4.985219	20.725022	6.315043
26197		-5.095289	20.718401	6.091072
26198		-5.223035	20.722381	5.861115
26199		-5.353263	20.719914	5.624737
26200		-5.461657	20.715710	5.390983
26201		-5.536119	20.708835	5.156570
26202		-5.579595	20.698729	4.919947
26203		-5.591137	20.681314	4.673124
26204		-5.569663	20.674931	4.413714
26205		-5.531452	20.683445	4.133687
26206		-5.458842	20.683893	3.844862
26207		-5.348284	20.666961	3.565127
26208		-5.194771	20.642954	3.309652
26209		-5.042990	20.601512	3.064267
26210		-4.923040	20.546350	2.816237
26211		-4.831386	20.495010	2.549783
26212		-4.756143	20.474574	2.270973
26213		-4.688028	20.486529	1.979148
26214		-4.608138	20.514987	1.680744
26215		-4.509905	20.539085	1.384995
26216		-4.406997	20.557613	1.103687
26217		-4.338547	20.564415	0.825985
26218		-4.342540	20.559232	0.538489
26219		-4.423016	20.543629	0.233389
26220		-4.558130	20.530914	-0.088730
26221		-4.716907	20.533445	-0.424724
26222		-4.893392	20.564703	-0.778122
26223		-5.064985	20.609874	-1.148832
26224		-5.211240	20.647715	-1.529785
26225		-5.330943	20.661266	-1.914735
26226		-5.438427	20.655676	-2.293966
26227		-5.553216	20.624407	-2.670040
26228		-5.659357	20.577546	-3.048596
26229		-5.738211	20.531083	-3.440985
26230		-5.760634	20.506587	-3.850994
26231		-5.701062	20.496334	-4.263581
26232		-5.565729	20.493425	-4.671891
26233		-5.359884	20.479299	-5.060558
26234		-5.114690	20.446328	-5.435823
26235		-4.872875	20.407443	-5.797931
26236		-4.657489	20.371594	-6.149681
26237		-4.505977	20.333132	-6.504666
26238		-4.422293	20.289762	-6.878691
26239		-4.385814	20.246059	-7.274041
26240		-4.379587	20.215156	-7.694341
26241		-4.375872	20.193225	-8.122049
26242		-4.361204	20.187556	-8.544201
26243		-4.341919	20.186283	-8.954328
26244		-4.337663	20.181135	-9.351571
26245		-4.361110	20.160497	-9.743332
26246		-4.406664	20.128084	-10.139519
26247		-4.457311	20.087483	-10.549310
26248		-4.490446	20.064839	-10.970176
26249		-4.502324	20.064528	-11.406976
26250		-4.485987	20.080216	-11.846295
26251		-4.449776	20.095478	-12.283691
26252		-4.403202	20.095308	-12.716547
26253		-4.368836	20.076347	-13.142920
26254		-4.335647	20.048853	-13.560516
26255		-4.307688	20.016781	-13.977660
26256		-4.272970	19.996958	-14.395150
26257		-4.241714	19.993940	-14.818277
26258		-4.202851	20.009023	-15.250336
26259		-4.163440	20.031996	-15.701496
26260		-4.101557	20.042212	-16.159808
26261		-4.017257	20.027416	-16.615462
26262		-3.929919	19.996604	-17.060536
26263		-3.852915	19.952284	-17.500314
26264		-3.787712	19.914453	-17.934114
26265		-3.743447	19.889334	-18.383430
26266		-3.702138	19.871289	-18.846696
26267		-3.654344	19.851584	-19.321652
26268		-3.586909	19.834121	-19.793697
26269		-3.501824	19.813378	-20.258749
26270		-3.415882	19.784167	-20.718312
26271		-3.343875	19.746236	-21.183082
26272		-3.293654	19.708105	-21.658686
26273		-3.251414	19.673956	-22.145593
26274		-3.206871	19.644084	-22.635778
26275		-3.164183	19.615986	-23.128477
26276		-3.118519	19.590756	-23.611169
26277		-3.084795	19.567016	-24.086786
26278		-3.085913	19.564033	-24.565815
26279		-3.111463	19.578896	-25.053990
26280		-3.143789	19.606018	-25.546834
26281		-3.200662	19.625796	-26.054754
26282		-3.258470	19.635196	-26.571001
26283		-3.363399	19.640002	-27.091979
26284		-3.546298	19.654388	-27.607667
26285		-3.783952	19.656912	-28.117107
26286		-4.025221	19.627603	-28.616684
26287		-4.236976	19.571680	-29.123987
26288		-4.347763	19.508805	-29.641058
26289		-4.295203	19.441612	-30.174112
26290		-4.123073	19.381773	-30.718161
26291		-3.868318	19.330622	-31.269521
26292		-3.594006	19.283419	-31.815583
26293		-3.340699	19.220355	-32.351119
26294		-3.117028	19.145944	-32.865473
26295		-2.933235	19.077706	-33.370302
26296		-2.803160	19.022598	-33.884665
26297		-2.710213	18.968840	-34.425401
26298		-2.657137	18.901928	-35.002971
26299		-2.624377	18.818897	-35.613083
26300		-2.600530	18.734896	-36.233669
26301		-2.571087	18.670129	-36.851442
26302		-2.540814	18.626366	-37.455238
26303		-2.515604	18.585696	-38.048555
26304		-2.497906	18.532621	-38.638461
26305		-2.457936	18.455050	-39.237959
26306		-2.373393	18.369272	-39.849052
26307		-2.276518	18.292151	-40.479341
26308		-2.187676	18.228753	-41.114088
26309		-2.123843	18.180268	-41.748760
26310		-2.093351	18.142157	-42.380379
26311		-2.072342	18.100036	-43.010490
26312		-2.030046	18.050211	-43.635630
26313		-1.954294	17.998739	-44.263483
26314		-1.861283	17.968860	-44.892999
26315		-1.764025	17.972575	-45.519015
26316		-1.716526	18.007444	-46.141880
26317		-1.798408	18.034618	-46.771353
26318		-2.030555	18.033021	-47.420153
26319		-2.353098	18.039454	-48.095171
26320		-2.673964	18.085614	-48.780945
26321		-2.928775	18.174625	-49.473307
26322		-3.130861	18.277314	-50.157549
26323		-3.323288	18.362387	-50.836486
26324		-3.506153	18.430354	-51.498257
26325		-3.676037	18.485194	-52.139529
26326		-3.785261	18.525783	-52.754876
26327		-3.800330	18.553555	-53.351559
26328		-3.742604	18.579508	-53.940573
26329		-3.602678	18.597078	-54.527411
26330		-3.390327	18.615508	-55.108082
26331		-3.141170	18.630680	-55.683193
26332		-2.888875	18.661358	-56.250052
26333		-2.631856	18.714715	-56.814888
26334		-2.374418	18.784663	-57.380281
26335		-2.112246	18.851213	-57.967136
26336		-1.837734	18.888270	-58.569555
26337		-1.588364	18.884912	-59.168640
26338		-1.416909	18.873862	-59.748952
26339		-1.393699	18.913428	-60.309097
26340		-1.489681	19.012193	-60.855109
26341		-1.643687	19.124985	-61.403701
26342		-1.810192	19.198589	-61.962693
26343		-1.976660	19.218576	-62.553930
26344		-2.116532	19.224321	-63.161474
26345		-2.240027	19.247772	-63.763455
26346		-2.376884	19.300174	-64.332297
26347		-2.537034	19.380850	-64.883922
26348		-2.740653	19.474251	-65.438227
26349		-2.972747	19.563935	-66.007216
26350		-3.155956	19.635669	-66.578027
26351		-3.225780	19.665323	-67.134388
26352		-3.159491	19.652176	-67.650765
26353		-2.986498	19.630159	-68.118806
26354		-2.788427	19.636153	-68.547953
26355		-2.604743	19.653410	-68.963303
26356		-2.378282	19.651728	-69.370939
26357		-2.079981	19.611917	-69.781785
26358		-1.682956	19.533966	-70.192900
26359		-1.207110	19.427804	-70.603855
26360		-0.705637	19.331315	-70.995118
26361		-0.243574	19.276712	-71.360411
26362		0.138437	19.261929	-71.697342
26363		0.451204	19.262761	-72.022457
26364		0.737792	19.261198	-72.345352
26365		1.016715	19.234664	-72.685738
26366		1.300635	19.167890	-73.044957
26367		1.615975	19.068256	-73.413500
26368		1.927516	18.989900	-73.760120
26369		2.202349	18.979779	-74.074099
26370		2.438347	19.025525	-74.351264
26371		2.622606	19.096855	-74.608880
26372		2.766808	19.154196	-74.867589
26373		2.889136	19.159742	-75.150610
26374		2.980610	19.119354	-75.466063
26375		3.035925	19.077076	-75.802098
26376		3.044650	19.074687	-76.133797
26377		2.960665	19.130666	-76.455281
26378		2.806728	19.227780	-76.784190
26379		2.621831	19.332783	-77.143412
26380		2.401743	19.441266	-77.552936
26381		2.189640	19.540570	-78.022553
26382		2.012925	19.601170	-78.548759
26383		1.863552	19.603618	-79.114070
26384		1.755099	19.597502	-79.664055
26385		1.606049	19.635064	-80.146411
26386		1.381518	19.724779	-80.556917
26387		1.146007	19.835804	-80.917836
26388		0.953553	19.906547	-81.263044
26389		0.868210	19.902392	-81.617222
26390		0.869577	19.854608	-82.001958
26391		0.962273	19.792609	-82.424532
26392		1.086616	19.720171	-82.874265
26393		1.183336	19.683633	-83.322988
26394		1.201637	19.726555	-83.726221
26395		1.105126	19.818494	-84.089600
26396		0.938368	19.891714	-84.433193
26397		0.718640	19.917059	-84.780969
26398		0.470463	19.907852	-85.140030
26399		0.225497	19.902102	-85.513503
26400		0.008301	19.926139	-85.885317
26401		-0.148777	19.961917	-86.249419
26402		-0.228162	19.995865	-86.581644
26403		-0.270342	20.021177	-86.875048
26404		-0.279667	20.038294	-87.130444
26405		-0.276990	20.049956	-87.364028
26406		-0.261646	20.052594	-87.596277
26407		-0.200305	20.045121	-87.836013
26408		-0.091074	20.034998	-88.075776
26409		0.027278	20.038088	-88.309920
26410		0.140102	20.061230	-88.535765
26411		0.227705	20.092347	-88.764243
26412		0.255400	20.117949	-88.998488
26413		0.236696	20.147658	-89.232170
26414		0.159592	20.191342	-89.448525
26415		0.041916	20.237554	-89.640390
26416		-0.059039	20.275479	-89.807359
26417		-0.110683	20.292584	-89.948904
26418		-0.129350	20.310485	-90.057821
26419		-0.072145	20.343706	-90.136949
26420		0.000629	20.390477	-90.192255
26421		0.100285	20.443455	-90.250188
26422		0.265054	20.469905	-90.314886
26423		0.470083	20.457633	-90.397473
26424		0.734443	20.422353	-90.483828
26425		1.007608	20.392822	-90.561466
26426		1.190686	20.393199	-90.628428
26427		1.263351	20.406628	-90.691813
26428		1.263354	20.410897	-90.761936
26429		1.230087	20.403041	-90.842674
26430		1.160254	20.396026	-90.927054
26431		1.040053	20.402223	-91.013730
26432		0.865460	20.418845	-91.102782
26433		0.681359	20.424281	-91.194265
26434		0.554849	20.424298	-91.280156
26435		0.499479	20.415396	-91.363188
26436		0.491555	20.395187	-91.453008
26437		0.538749	20.358721	-91.545164
26438		0.610875	20.308419	-91.640990
26439		0.688140	20.272244	-91.736950
26440		0.733167	20.274254	-91.820641
26441		0.743913	20.300688	-91.901219
26442		0.743666	20.317455	-91.986412
26443		0.744205	20.307072	-92.090904
26444		0.738842	20.283245	-92.207749
26445		0.715838	20.265719	-92.326449
26446		0.666489	20.262275	-92.438942
26447		0.635207	20.275260	-92.545067
26448		0.658523	20.298854	-92.649937
26449		0.723594	20.312165	-92.765435
26450		0.825701	20.306840	-92.900375
26451		0.948668	20.281092	-93.058226
26452		1.037886	20.254176	-93.228136
26453		1.059390	20.249978	-93.394849
26454		1.032802	20.273838	-93.542055
26455		1.024279	20.307448	-93.673988
26456		1.027480	20.342961	-93.799314
26457		1.027017	20.378292	-93.921649
26458		1.041021	20.400077	-94.044248
26459		1.055448	20.389311	-94.181627
26460		1.072194	20.372262	-94.324713
26461		1.082516	20.380877	-94.458977
26462		1.051504	20.418192	-94.570802
26463		0.989729	20.467873	-94.663227
26464		0.919314	20.514048	-94.747050
26465		0.878160	20.533519	-94.837283
26466		0.882432	20.534055	-94.930878
26467		0.926402	20.526797	-95.028580
26468		0.997491	20.527776	-95.116652
26469		1.067723	20.542406	-95.188292
26470		1.113212	20.566088	-95.242155
26471		1.136055	20.598876	-95.291122
26472		1.158058	20.632231	-95.339075
26473		1.196485	20.646831	-95.386760
26474		1.225959	20.654064	-95.435137
26475		1.248150	20.659004	-95.484501
26476		1.244955	20.675236	-95.528956
26477		1.212686	20.705744	-95.561135
26478		1.168641	20.741079	-95.578017
26479		1.135035	20.774438	-95.590434
26480		1.171534	20.787971	-95.603651
26481		1.214983	20.789424	-95.629378
26482		1.262327	20.789771	-95.664057
26483		1.301866	20.795517	-95.700052
26484		1.299882	20.820097	-95.737226
26485		1.239234	20.861960	-95.770958
26486		1.129816	20.905981	-95.803193
26487		1.034855	20.937658	-95.841087
26488		0.985342	20.951285	-95.886496
26489		0.983131	20.964428	-95.931193
26490		1.009281	20.987217	-95.972745
26491		1.027145	21.009855	-96.011897
26492		1.021527	21.027897	-96.050146
26493		1.023681	21.033347	-96.093676
26494		1.032496	21.027068	-96.141290
26495		1.030088	21.031920	-96.187294
26496		1.000499	21.048612	-96.217692
26497		0.957245	21.059847	-96.238262
26498		0.896043	21.071049	-96.255877
26499		0.841855	21.075934	-96.280420
26500		0.795716	21.076436	-96.305569
26501		0.758331	21.073262	-96.327238
26502		0.733024	21.065691	-96.344782
26503		0.720997	21.066004	-96.358117
26504		0.713870	21.073835	-96.377302
26505		0.686914	21.078189	-96.395744
26506		0.672408	21.083082	-96.408580
26507		0.669342	21.079198	-96.417602
26508		0.671483	21.077957	-96.419296
26509		0.674815	21.081513	-96.412389
26510		0.672461	21.089716	-96.402380
26511		0.682083	21.093470	-96.392588
26512		0.683241	21.094232	-96.388088
26513		0.686059	21.100008	-96.385119
26514		0.691286	21.107908	-96.379443
26515		0.700463	21.117932	-96.375387
26516		0.715150	21.122505	-96.363488
26517		0.711642	21.130933	-96.344139
26518		0.687513	21.140665	-96.319755
26519		0.648301	21.156351	-96.301840
26520		0.589101	21.177784	-96.292722
26521		0.508009	21.201881	-96.296069
26522		0.413909	21.215493	-96.319074
26523		0.320127	21.222318	-96.346093
26524		0.235010	21.234128	-96.368653
26525		0.179064	21.250831	-96.379517
26526		0.148885	21.266657	-96.379973
26527		0.165433	21.284875	-96.375277
26528		0.221387	21.297018	-96.376632
26529		0.294074	21.288305	-96.385052
26530		0.367816	21.272460	-96.382657
26531		0.406294	21.262852	-96.378249
26532		0.421587	21.267654	-96.368687
26533		0.416817	21.285375	-96.363257
26534		0.389497	21.312182	-96.365775
26535		0.339187	21.327678	-96.373548
26536		0.284287	21.335504	-96.380275
26537		0.245212	21.343172	-96.381891
26538		0.233823	21.348267	-96.374050
26539		0.236714	21.349864	-96.357418
26540		0.261302	21.344248	-96.337719
26541		0.303963	21.334573	-96.319238
26542		0.356074	21.323442	-96.303218
26543		0.403795	21.308749	-96.290654
26544		0.438372	21.291989	-96.278911
26545		0.440253	21.287951	-96.256170
26546		0.417481	21.285805	-96.228338
26547		0.386527	21.278544	-96.203631
26548		0.352654	21.262289	-96.184306
26549		0.333074	21.235643	-96.174571
26550		0.325659	21.201321	-96.169002
26551		0.344921	21.158831	-96.161131
26552		0.382321	21.113212	-96.143239
26553		0.396273	21.065104	-96.121122
26554		0.376835	21.029482	-96.091172
26555		0.335089	21.001900	-96.070101
26556		0.293987	20.976756	-96.057009
26557		0.263111	20.948520	-96.045691
26558		0.246338	20.924784	-96.032062
26559		0.244753	20.904563	-96.016183
26560		0.253978	20.891854	-96.004403
26561		0.273048	20.884416	-95.997457
26562		0.277473	20.889707	-95.990982
26563		0.264063	20.897847	-95.978554
26564		0.235952	20.905029	-95.955764
26565		0.225174	20.902227	-95.921100
26566		0.229747	20.888328	-95.875982
26567		0.247197	20.871460	-95.823310
26568		0.296361	20.853289	-95.771152
26569		0.371800	20.826985	-95.719245
26570		0.467955	20.799262	-95.664158
26571		0.571797	20.773856	-95.598277
26572		0.659218	20.758588	-95.527596
26573		0.718952	20.743956	-95.454967
26574		0.747541	20.734723	-95.378682
26575		0.739560	20.730554	-95.299629
26576		0.725171	20.722155	-95.211334
26577		0.716102	20.705738	-95.112079
26578		0.699245	20.687315	-94.996001
26579		0.694303	20.663637	-94.855482
26580		0.709217	20.638037	-94.687122
26581		0.747448	20.599305	-94.492923
26582		0.827687	20.543712	-94.272980
26583		0.977698	20.479946	-94.036402
26584		1.151568	20.413172	-93.799521
26585		1.387020	20.322403	-93.579168
26586		1.651434	20.225721	-93.378209
26587		1.874319	20.148337	-93.176577
26588		1.998194	20.104805	-92.977829
26589		2.036793	20.090681	-92.773745
26590		2.002519	20.087242	-92.571441
26591		1.943616	20.071558	-92.377314
26592		1.883787	20.042206	-92.192012
26593		1.830117	20.004764	-92.007127
26594		1.783249	19.970907	-91.822227
26595		1.739661	19.950791	-91.624777
26596		1.714833	19.939464	-91.422175
26597		1.716471	19.919442	-91.214331
26598		1.758383	19.879380	-91.002643
26599		1.852317	19.830923	-90.783213
26600		1.967922	19.786410	-90.552278
26601		2.079569	19.750798	-90.309923
26602		2.190839	19.717637	-90.051656
26603		2.305980	19.672439	-89.777041
26604		2.403371	19.628004	-89.485081
26605		2.489941	19.580584	-89.188540
26606		2.571522	19.527283	-88.893944
26607		2.670481	19.471547	-88.604992
26608		2.804791	19.411958	-88.313444
26609		2.981365	19.349236	-88.012249
26610		3.187770	19.290567	-87.680405
26611		3.403040	19.235200	-87.315358
26612		3.594429	19.194340	-86.903663
26613		3.754846	19.184755	-86.462153
26614		3.891017	19.171808	-86.018845
26615		4.016105	19.133399	-85.597858
26616		4.168055	19.079624	-85.207492
26617		4.332674	19.038516	-84.842463
26618		4.478217	19.018149	-84.490059
26619		4.579200	19.011230	-84.143794
26620		4.631866	19.021005	-83.777570
26621		4.615076	19.043001	-83.381295
26622		4.523601	19.069692	-82.958116
26623		4.413666	19.080443	-82.536155
26624		4.326395	19.058069	-82.126812
26625		4.301994	19.008774	-81.727804
26626		4.346271	18.946455	-81.327249
26627		4.436527	18.882104	-80.924223
26628		4.530498	18.820344	-80.512531
26629		4.591903	18.766281	-80.098250
26630		4.661965	18.725802	-79.684248
26631		4.742206	18.692646	-79.269818
26632		4.835912	18.673551	-78.854090
26633		4.959589	18.642741	-78.436440
26634		5.091549	18.593644	-78.014232
26635		5.209814	18.533839	-77.582273
26636		5.300007	18.472708	-77.143119
26637		5.374826	18.411832	-76.685057
26638		5.459507	18.359710	-76.201187
26639		5.578494	18.315286	-75.694924
26640		5.749154	18.266519	-75.183232
26641		5.959204	18.204139	-74.678672
26642		6.184560	18.137385	-74.190398
26643		6.415493	18.057444	-73.720601
26644		6.627981	17.978030	-73.265807
26645		6.803190	17.916643	-72.810785
26646		6.919119	17.890285	-72.339233
26647		6.958673	17.889521	-71.862144
26648		6.943616	17.903600	-71.387038
26649		6.893418	17.909140	-70.928130
26650		6.809504	17.900674	-70.489732
26651		6.724185	17.866831	-70.074349
26652		6.629047	17.825276	-69.673776
26653		6.525105	17.792988	-69.277176
26654		6.429426	17.780979	-68.870672
26655		6.356973	17.778844	-68.443647
26656		6.306238	17.772860	-67.990133
26657		6.283829	17.741823	-67.518747
26658		6.323239	17.666507	-67.034114
26659		6.441609	17.556289	-66.547441
26660		6.629282	17.440643	-66.049299
26661		6.855390	17.332320	-65.542552
26662		7.088433	17.231486	-65.028147
26663		7.305747	17.133577	-64.510098
26664		7.501430	17.047732	-63.981776
26665		7.667792	16.970500	-63.445383
26666		7.787608	16.901319	-62.897100
26667		7.859801	16.826645	-62.348549
26668		7.894019	16.741501	-61.808016
26669		7.874303	16.669464	-61.278244
26670		7.800249	16.632823	-60.749223
26671		7.692944	16.619588	-60.218235
26672		7.572583	16.622136	-59.679478
26673		7.458035	16.626075	-59.124736
26674		7.365026	16.627589	-58.543056
26675		7.291666	16.623728	-57.935397
26676		7.242875	16.614927	-57.305026
26677		7.210149	16.603904	-56.659185
26678		7.164978	16.603991	-56.000092
26679		7.077994	16.610330	-55.336786
26680		6.927963	16.612279	-54.681722
26681		6.720762	16.603981	-54.044535
26682		6.479863	16.605051	-53.425702
26683		6.251551	16.622500	-52.808757
26684		6.070698	16.663744	-52.179085
26685		5.926950	16.709439	-51.535794
26686		5.783425	16.744581	-50.875646
26687		5.627119	16.752443	-50.190569
26688		5.446911	16.763062	-49.457964
26689		5.273789	16.797632	-48.693054
26690		5.113086	16.863787	-47.888077
26691		4.967614	16.931144	-47.088199
26692		4.795030	16.978612	-46.325756
26693		4.630930	16.972962	-45.621154
26694		4.470735	16.918914	-44.970463
26695		4.270057	16.848894	-44.360004
26696		3.991730	16.807749	-43.764284
26697		3.623893	16.836802	-43.152467
26698		3.175430	16.932768	-42.513293
26699		2.678736	17.040563	-41.847147
26700		2.185930	17.118184	-41.155466
26701		1.755981	17.141961	-40.443980
26702		1.404843	17.093940	-39.718141
26703		1.142328	16.973023	-39.004399
26704		1.031550	16.816744	-38.323327
26705		1.128860	16.685637	-37.665134
26706		1.356617	16.613580	-36.996246
26707		1.621462	16.554438	-36.317939
26708		1.851790	16.466667	-35.633143
26709		2.003337	16.349995	-34.951561
26710		2.067661	16.230278	-34.275142
26711		2.060906	16.127175	-33.608426
26712		1.999907	16.057221	-32.946288
26713		1.916975	16.014988	-32.287360
26714		1.827999	15.993936	-31.623567
26715		1.701374	15.967929	-30.958981
26716		1.513065	15.925735	-30.293805
26717		1.268108	15.858011	-29.634902
26718		0.999947	15.784836	-28.979014
26719		0.730860	15.731054	-28.330073
26720		0.481039	15.701951	-27.675866
26721		0.272082	15.696488	-27.023055
26722		0.053538	15.706881	-26.375052
26723		-0.186856	15.713635	-25.734105
26724		-0.451425	15.713480	-25.104806
26725		-0.743775	15.726915	-24.486512
26726		-1.051653	15.755071	-23.869698
26727		-1.345118	15.781528	-23.252601
26728		-1.613980	15.801282	-22.627789
26729		-1.870459	15.805443	-22.008375
26730		-2.097493	15.795849	-21.397147
26731		-2.292544	15.792987	-20.801752
26732		-2.424695	15.817460	-20.214405
26733		-2.494098	15.879517	-19.616015
26734		-2.560733	15.976880	-19.000856
26735		-2.655106	16.086007	-18.379151
26736		-2.787184	16.178066	-17.765350
26737		-2.933751	16.235370	-17.172290
26738		-3.088342	16.277538	-16.608444
26739		-3.244726	16.343336	-16.083929
26740		-3.391211	16.445345	-15.587185
26741		-3.532401	16.577110	-15.101309
26742		-3.696817	16.716509	-14.616916
26743		-3.889936	16.834462	-14.132080
26744		-4.098800	16.907273	-13.643286
26745		-4.298027	16.946584	-13.147383
26746		-4.490665	16.988033	-12.655038
26747		-4.672731	17.051575	-12.177950
26748		-4.835045	17.144019	-11.707613
26749		-5.000067	17.253983	-11.246356
26750		-5.182224	17.368949	-10.790291
26751		-5.373712	17.467258	-10.339311
26752		-5.559304	17.545021	-9.882503
26753		-5.743038	17.604310	-9.435922
26754		-5.916459	17.656922	-9.002871
26755		-6.083490	17.719700	-8.592002
26756		-6.246399	17.796385	-8.195942
26757		-6.415195	17.879203	-7.809287
26758		-6.578594	17.947226	-7.416866
26759		-6.718940	17.996368	-7.011886
26760		-6.830484	18.043619	-6.594512
26761		-6.900866	18.093469	-6.165545
26762		-6.936894	18.140778	-5.731767
26763		-6.951962	18.181036	-5.302133
26764		-6.971861	18.211476	-4.885692
26765		-7.007171	18.232058	-4.491045
26766		-7.058410	18.252926	-4.110660
26767		-7.111238	18.277800	-3.741089
26768		-7.158570	18.304217	-3.377577
26769		-7.186539	18.330011	-3.011411
26770		-7.194741	18.353943	-2.647638
26771		-7.196521	18.375789	-2.297753
26772		-7.195614	18.400412	-1.956739
26773		-7.203612	18.429451	-1.626351
26774		-7.220686	18.458703	-1.297971
26775		-7.241430	18.482451	-0.969990
26776		-7.270127	18.497610	-0.639999
26777		-7.300566	18.506805	-0.309871
26778		-7.327867	18.516608	0.014997
26779		-7.356515	18.533875	0.331383
26780		-7.392318	18.563615	0.630074
26781		-7.425917	18.593844	0.915239
26782		-7.455562	18.623118	1.187075
26783		-7.489751	18.652945	1.445037
26784		-7.517514	18.676879	1.698702
26785		-7.539145	18.695278	1.952065
26786		-7.556022	18.715284	2.204507
26787		-7.569113	18.738180	2.453002
26788		-7.580408	18.774869	2.694635
26789		-7.599182	18.813679	2.928071
26790		-7.626399	18.847428	3.154746
26791		-7.653028	18.876463	3.377257
26792		-7.673732	18.905207	3.603519
26793		-7.689653	18.934081	3.833360
26794		-7.697124	18.964655	4.072259
26795		-7.702588	18.998781	4.317858
26796		-7.720617	19.039661	4.559919
26797		-7.743169	19.079077	4.786532
26798		-7.760306	19.126057	4.994605
26799		-7.758537	19.178974	5.187277
26800		-7.730878	19.229815	5.371992
26801		-7.679133	19.268146	5.564615
26802		-7.610476	19.290723	5.764219
26803		-7.539152	19.306488	5.964319
26804		-7.481896	19.327370	6.158784
26805		-7.452161	19.356068	6.337244
26806		-7.450741	19.399709	6.493334
26807		-7.466472	19.454204	6.627769
26808		-7.480138	19.516765	6.751843
26809		-7.480061	19.572533	6.870123
26810		-7.448116	19.616392	6.995337
26811		-7.388480	19.651731	7.128936
26812		-7.318241	19.679488	7.263452
26813		-7.261269	19.706329	7.382877
26814		-7.223848	19.732902	7.483541
26815		-7.209139	19.762199	7.565877
26816		-7.200721	19.795617	7.641627
26817		-7.192982	19.827218	7.719895
26818		-7.175818	19.858411	7.800262
26819		-7.153021	19.883740	7.882231
26820		-7.132915	19.907640	7.956947
26821		-7.120968	19.934102	8.025257
26822		-7.119424	19.965282	8.087104
26823		-7.127146	19.996024	8.144806
26824		-7.131494	20.021247	8.203382
26825		-7.134024	20.046326	8.263891
26826		-7.119331	20.067037	8.322348
26827		-7.093490	20.079377	8.382119
26828		-7.062450	20.092039	8.441515
26829		-7.035954	20.110722	8.498348
26830		-7.027001	20.131783	8.545824
26831		-7.036001	20.154314	8.586800
26832		-7.060681	20.175402	8.626470
26833		-7.096250	20.199321	8.657591
26834		-7.124722	20.226142	8.686816
26835		-7.133073	20.250698	8.711185
26836		-7.120545	20.275426	8.733144
26837		-7.105509	20.289555	8.746928
26838		-7.098058	20.300284	8.751447
26839		-7.110593	20.309686	8.747078
26840		-7.142432	20.321737	8.734511
26841		-7.186743	20.330751	8.716751
26842		-7.223559	20.336823	8.694027
26843		-7.238086	20.337067	8.677513
26844		-7.222298	20.333940	8.670376
26845		-7.194050	20.328098	8.666956
26846		-7.177190	20.322206	8.661757
26847		-7.181284	20.315682	8.653481
26848		-7.198515	20.314312	8.643961
26849		-7.224395	20.319782	8.626994
26850		-7.242051	20.326568	8.612297
26851		-7.239998	20.318918	8.596268
26852		-7.218072	20.308346	8.580666
26853		-7.186261	20.296218	8.560993
26854		-7.150420	20.285957	8.531885
26855		-7.124638	20.277003	8.494312
26856		-7.118482	20.273876	8.443465
26857		-7.132612	20.270678	8.380687
26858		-7.154798	20.265504	8.313471
26859		-7.188786	20.263305	8.240164
26860		-7.234576	20.268364	8.156251
26861		-7.287332	20.276091	8.063474
26862		-7.337461	20.280447	7.966183
26863		-7.380409	20.273705	7.871149
26864		-7.411135	20.259037	7.778822
26865		-7.431587	20.245197	7.688285
26866		-7.442610	20.238589	7.599884
26867		-7.450101	20.239187	7.505560
26868		-7.455738	20.249585	7.399423
26869		-7.459800	20.261098	7.287416
26870		-7.451831	20.259278	7.182413
26871		-7.421674	20.243027	7.087979
26872		-7.368880	20.222337	7.001805
26873		-7.309642	20.212032	6.916794
26874		-7.247924	20.213746	6.827932
26875		-7.194022	20.221034	6.724043
26876		-7.140515	20.224451	6.612168
26877		-7.087078	20.221863	6.494855
26878		-7.037770	20.211358	6.379012
26879		-6.999296	20.189417	6.269838
26880		-6.971271	20.170737	6.158515
26881		-6.952018	20.158925	6.042924
26882		-6.939524	20.159846	5.923213
26883		-6.936688	20.168841	5.794925
26884		-6.934054	20.172132	5.661534
26885		-6.927311	20.164120	5.527048
26886		-6.931538	20.151553	5.389022
26887		-6.946694	20.136548	5.249764
26888		-6.955508	20.131313	5.111756
26889		-6.950542	20.128140	4.977769
26890		-6.931590	20.129428	4.852544
26891		-6.924194	20.128593	4.727815
26892		-6.942132	20.121699	4.597352
26893		-6.989168	20.112456	4.450703
26894		-7.061047	20.103240	4.286557
26895		-7.140262	20.096300	4.114312
26896		-7.216800	20.095941	3.943154
26897		-7.276862	20.099101	3.771401
26898		-7.315964	20.110666	3.604768
26899		-7.337582	20.116469	3.441203
26900		-7.343103	20.116009	3.280350
26901		-7.323959	20.103058	3.126298
26902		-7.281205	20.073690	2.975181
26903		-7.232872	20.032823	2.819656
26904		-7.190271	19.987901	2.654946
26905		-7.162311	19.953148	2.478233
26906		-7.151193	19.933324	2.283869
26907		-7.145575	19.927318	2.075945
26908		-7.142812	19.929594	1.864255
26909		-7.141053	19.921147	1.652692
26910		-7.137943	19.895572	1.450216
26911		-7.142306	19.856335	1.246196
26912		-7.162667	19.812764	1.037132
26913		-7.204189	19.776302	0.823364
26914		-7.255866	19.749510	0.600469
26915		-7.310620	19.730259	0.368011
26916		-7.356711	19.712795	0.127230
26917		-7.386801	19.686168	-0.120582
26918		-7.393488	19.644554	-0.362422
26919		-7.398136	19.583060	-0.610651
26920		-7.394257	19.507328	-0.867315
26921		-7.372908	19.436301	-1.139605
26922		-7.319269	19.386662	-1.417248
26923		-7.236185	19.360847	-1.693859
26924		-7.139834	19.352954	-1.955194
26925		-7.046955	19.354929	-2.202217
26926		-6.969298	19.353764	-2.440417
26927		-6.905388	19.332619	-2.682733
26928		-6.848512	19.292953	-2.929884
26929		-6.794520	19.238001	-3.186460
26930		-6.742157	19.174952	-3.443974
26931		-6.688859	19.118778	-3.706310
26932		-6.655330	19.090585	-3.970133
26933		-6.651852	19.086019	-4.245198
26934		-6.671743	19.091495	-4.528271
26935		-6.708588	19.101071	-4.827028
26936		-6.748777	19.108137	-5.139374
26937		-6.770474	19.102174	-5.449033
26938		-6.767586	19.075698	-5.739234
26939		-6.752758	19.023753	-6.010808
26940		-6.746706	18.974308	-6.274275
26941		-6.768816	18.946293	-6.545152
26942		-6.807950	18.945398	-6.831143
26943		-6.846491	18.958993	-7.136487
26944		-6.884505	18.982860	-7.453817
26945		-6.918590	18.995527	-7.788620
26946		-6.947439	18.997383	-8.137976
26947		-6.972805	18.988717	-8.506875
26948		-6.969579	18.973684	-8.884028
26949		-6.933914	18.952794	-9.253471
26950		-6.878281	18.937065	-9.611389
26951		-6.827353	18.921274	-9.962097
26952		-6.811386	18.906698	-10.322800
26953		-6.817759	18.897188	-10.708364
26954		-6.816945	18.895416	-11.115055
26955		-6.786147	18.901451	-11.546413
26956		-6.698444	18.905308	-11.997367
26957		-6.542571	18.898722	-12.455636
26958		-6.309462	18.875537	-12.913943
26959		-6.012550	18.843952	-13.377452
26960		-5.693272	18.826524	-13.840292
26961		-5.387537	18.823241	-14.305144
26962		-5.118937	18.837667	-14.757253
26963		-4.917374	18.867985	-15.216132
26964		-4.781737	18.895467	-15.687705
26965		-4.693524	18.905607	-16.182729
26966		-4.632135	18.906523	-16.699474
26967		-4.594989	18.909457	-17.240430
26968		-4.577748	18.931599	-17.792189
26969		-4.587209	18.964565	-18.352601
26970		-4.641734	18.999676	-18.918822
26971		-4.753780	19.036866	-19.488260
26972		-4.888905	19.060961	-20.059805
26973		-5.036162	19.072837	-20.627851
26974		-5.170569	19.077477	-21.189895
26975		-5.269307	19.073831	-21.749915
26976		-5.335589	19.074571	-22.311878
26977		-5.374882	19.088558	-22.887602
26978		-5.384922	19.110586	-23.463724
26979		-5.386813	19.123950	-24.047216
26980		-5.364715	19.124281	-24.627092
26981		-5.319544	19.107312	-25.201859
26982		-5.250841	19.086005	-25.775224
26983		-5.159772	19.071203	-26.355524
26984		-5.045166	19.059030	-26.941623
26985		-4.908132	19.038796	-27.536392
26986		-4.746496	19.000294	-28.132134
26987		-4.554470	18.925990	-28.723132
26988		-4.332931	18.816718	-29.299604
26989		-4.087879	18.677336	-29.873368
26990		-3.809966	18.519689	-30.446908
26991		-3.477207	18.355026	-31.025769
26992		-3.047265	18.201970	-31.596132
26993		-2.549298	18.066372	-32.164918
26994		-2.018150	17.933478	-32.740551
26995		-1.482997	17.789166	-33.338639
26996		-0.979088	17.661057	-33.961036
26997		-0.534877	17.565217	-34.613302
26998		-0.152867	17.484927	-35.281673
26999		0.172043	17.415791	-35.953945
27000		0.451860	17.338794	-36.619968
27001		0.637405	17.264592	-37.271267
27002		0.728816	17.195223	-37.908633
27003		0.716558	17.132515	-38.545034
27004		0.622560	17.095608	-39.192269
27005		0.457103	17.086985	-39.861525
27006		0.259978	17.100656	-40.547713
27007		0.045205	17.122100	-41.255610
27008		-0.177803	17.147112	-41.979610
27009		-0.394690	17.163897	-42.716921
27010		-0.595552	17.171212	-43.454821
27011		-0.778372	17.165587	-44.188256
27012		-0.919275	17.147417	-44.902752
27013		-1.010389	17.120702	-45.601925
27014		-1.055999	17.098657	-46.275150
27015		-1.059882	17.087381	-46.931025
27016		-1.038179	17.087192	-47.578772
27017		-1.001573	17.097121	-48.234775
27018		-0.950615	17.098926	-48.906687
27019		-0.880476	17.077156	-49.610104
27020		-0.771602	17.043457	-50.324004
27021		-0.606360	17.004961	-51.024139
27022		-0.405903	16.981390	-51.679891
27023		-0.245259	16.982195	-52.296284
27024		-0.181605	17.008349	-52.884811
27025		-0.230111	17.044692	-53.467015
27026		-0.356253	17.073989	-54.050017
27027		-0.533068	17.081684	-54.658534
27028		-0.728131	17.073461	-55.296711
27029		-0.888815	17.050876	-55.945089
27030		-0.961200	17.044428	-56.569410
27031		-0.971423	17.071519	-57.154371
27032		-1.021940	17.116811	-57.718269
27033		-1.130594	17.150695	-58.284593
27034		-1.245303	17.152030	-58.850933
27035		-1.334127	17.117195	-59.415600
27036		-1.301698	17.049542	-59.963658
27037		-1.161809	16.990058	-60.486403
27038		-0.973758	16.970382	-60.975379
27039		-0.800887	16.982998	-61.445797
27040		-0.663808	17.019153	-61.924557
27041		-0.507051	17.044145	-62.426252
27042		-0.283904	17.033595	-62.947484
27043		-0.007877	16.995599	-63.494073
27044		0.325588	16.935979	-64.048277
27045		0.680855	16.872809	-64.595823
27046		0.995187	16.839362	-65.109771
27047		1.204950	16.863655	-65.594657
27048		1.317400	16.939539	-66.064828
27049		1.368241	17.031410	-66.547489
27050		1.396119	17.111427	-67.049297
27051		1.421526	17.147655	-67.574482
27052		1.452320	17.128291	-68.121738
27053		1.525272	17.091925	-68.666979
27054		1.610557	17.099484	-69.175698
27055		1.668869	17.185782	-69.652359
27056		1.726027	17.322363	-70.104034
27057		1.792568	17.462081	-70.556220
27058		1.914013	17.571042	-71.015249
27059		2.103593	17.637096	-71.490528
27060		2.315759	17.665141	-71.984656
27061		2.497092	17.687199	-72.489906
27062		2.619162	17.747098	-72.972822
27063		2.657725	17.856475	-73.415697
27064		2.634527	18.003991	-73.820184
27065		2.550467	18.159415	-74.211320
27066		2.433830	18.301899	-74.611249
27067		2.339472	18.411367	-75.026812
27068		2.256768	18.489584	-75.450574
27069		2.203775	18.550080	-75.871258
27070		2.172822	18.618337	-76.271009
27071		2.144787	18.708893	-76.646461
27072		2.108744	18.816430	-76.997643
27073		2.074186	18.928612	-77.337477
27074		2.063250	19.028530	-77.672160
27075		2.076982	19.105098	-78.012274
27076		2.115977	19.171941	-78.347979
27077		2.175173	19.242038	-78.666351
27078		2.243903	19.324408	-78.972428
27079		2.294978	19.410946	-79.271430
27080		2.293230	19.498266	-79.575057
27081		2.242409	19.573407	-79.883471
27082		2.163583	19.632863	-80.209591
27083		2.062269	19.682547	-80.536607
27084		1.990799	19.740353	-80.855099
27085		1.940605	19.800781	-81.153411
27086		1.878732	19.851304	-81.434651
27087		1.844309	19.870817	-81.703580
27088		1.877030	19.832476	-81.967896
27089		1.997111	19.744707	-82.221588
27090		2.227454	19.646004	-82.452845
27091		2.538736	19.567489	-82.651590
27092		2.913994	19.509405	-82.816363
27093		3.319092	19.457086	-82.966888
27094		3.684004	19.402515	-83.121254
27095		3.951965	19.348061	-83.295447
27096		4.120984	19.308631	-83.485399
27097		4.191169	19.292147	-83.682742
27098		4.168516	19.296709	-83.881264
27099		4.053702	19.314753	-84.080524
27100		3.863192	19.340721	-84.276030
27101		3.683937	19.366631	-84.463046
27102		3.556188	19.380516	-84.639392
27103		3.448900	19.378038	-84.812492
27104		3.381459	19.363933	-84.987011
27105		3.334784	19.351066	-85.150799
27106		3.293957	19.342601	-85.301054
27107		3.248366	19.345192	-85.440575
27108		3.214622	19.348696	-85.565089
27109		3.209436	19.338269	-85.678479
27110		3.243609	19.314760	-85.778954
27111		3.304404	19.278559	-85.866965
27112		3.369220	19.245364	-85.946600
27113		3.419826	19.216686	-86.030648
27114		3.432167	19.196511	-86.109472
27115		3.415898	19.180161	-86.198264
27116		3.385803	19.173616	-86.278206
27117		3.349437	19.178326	-86.346112
27118		3.307134	19.197198	-86.397398
27119		3.262518	19.224611	-86.433230
27120		3.203964	19.252008	-86.469641
27121		3.172599	19.264555	-86.518466
27122		3.175133	19.260771	-86.586752
27123		3.218654	19.255904	-86.662364
27124		3.271181	19.272388	-86.729082
27125		3.311597	19.313369	-86.776221
27126		3.297353	19.362657	-86.803371
27127		3.235993	19.407936	-86.829299
27128		3.181675	19.442407	-86.862861
27129		3.159324	19.456892	-86.913786
27130		3.170480	19.470585	-86.966549
27131		3.204910	19.492697	-87.019877
27132		3.213937	19.531950	-87.065432
27133		3.184457	19.584396	-87.105755
27134		3.151818	19.630791	-87.146084
27135		3.137012	19.659781	-87.198426
27136		3.135760	19.674552	-87.258040
27137		3.159908	19.680551	-87.323402
27138		3.195754	19.699628	-87.375982
27139		3.217867	19.732817	-87.412292
27140		3.235199	19.776830	-87.445952
27141		3.262183	19.819929	-87.482781
27142		3.316799	19.843470	-87.531835
27143		3.412057	19.842729	-87.596106
27144		3.536628	19.837273	-87.654673
27145		3.647829	19.860633	-87.697536
27146		3.727313	19.917814	-87.717603
27147		3.723753	19.984109	-87.717694
27148		3.632126	20.051574	-87.699054
27149		3.517934	20.102238	-87.667633
27150		3.407059	20.129038	-87.636186
27151		3.323060	20.144823	-87.614544
27152		3.287914	20.163519	-87.596001
27153		3.294107	20.198933	-87.579014
27154		3.322058	20.240306	-87.558234
27155		3.352923	20.277355	-87.548347
27156		3.382815	20.299103	-87.545205
27157		3.419699	20.302625	-87.548067
27158		3.441111	20.316705	-87.544390
27159		3.444171	20.347490	-87.529386
27160		3.409450	20.376006	-87.508943
27161		3.342526	20.391449	-87.486187
27162		3.268971	20.395046	-87.465527
27163		3.194130	20.389859	-87.452861
27164		3.138466	20.386999	-87.447515
27165		3.104763	20.392831	-87.451138
27166		3.086485	20.407504	-87.461708
27167		3.086394	20.412894	-87.470956
27168		3.104690	20.413048	-87.472770
27169		3.134250	20.413951	-87.465454
27170		3.157939	20.415697	-87.448587
27171		3.166308	20.414818	-87.430967
27172		3.144421	20.416138	-87.417342
27173		3.113671	20.417011	-87.413679
27174		3.092676	20.415571	-87.418509
27175		3.077978	20.413480	-87.422019
27176		3.067793	20.418959	-87.418352
27177		3.056397	20.426354	-87.404973
27178		3.043242	20.432786	-87.391036
27179		3.031388	20.430105	-87.384510
27180		3.020147	20.426806	-87.387728
27181		3.017084	20.426267	-87.395640
27182		3.021174	20.427615	-87.399495
27183		3.037317	20.432243	-87.398475
27184		3.051246	20.437510	-87.388041
27185		3.073307	20.435144	-87.373851
27186		3.072319	20.429412	-87.361395
27187		3.061351	20.427070	-87.357847
27188		3.038583	20.428690	-87.362210
27189		3.011192	20.437996	-87.370264
27190		2.975778	20.448199	-87.375137
27191		2.933058	20.460825	-87.373165
27192		2.910624	20.474370	-87.363638
27193		2.898993	20.480135	-87.354706
27194		2.896712	20.481881	-87.342186
27195		2.896941	20.484066	-87.331909
27196		2.883398	20.481528	-87.322255
27197		2.875930	20.472435	-87.311739
27198		2.866096	20.465825	-87.297450
27199		2.859562	20.457975	-87.275998
27200		2.852238	20.445208	-87.247243
27201		2.832237	20.435747	-87.217319
27202		2.794770	20.435551	-87.186876
27203		2.759790	20.429465	-87.169876
27204		2.723114	20.423198	-87.155961
27205		2.700259	20.414771	-87.137934
27206		2.685875	20.406811	-87.107370
27207		2.653148	20.402348	-87.067322
27208		2.594310	20.407936	-87.025420
27209		2.520332	20.416298	-86.989963
27210		2.443762	20.418896	-86.966441
27211		2.385081	20.424803	-86.951082
27212		2.346566	20.437871	-86.943816
27213		2.322239	20.463058	-86.938046
27214		2.301348	20.505301	-86.926790
27215		2.265517	20.550118	-86.914475
27216		2.216108	20.579238	-86.898400
27217		2.164226	20.595440	-86.878844
27218		2.106877	20.610665	-86.852887
27219		2.061177	20.624918	-86.817043
27220		2.047385	20.633266	-86.776678
27221		2.058383	20.640930	-86.736321
27222		2.086094	20.652805	-86.696583
27223		2.122068	20.668643	-86.659269
27224		2.157955	20.685320	-86.616749
27225		2.173134	20.707719	-86.567329
27226		2.153090	20.736980	-86.507693
27227		2.111843	20.770404	-86.439873
27228		2.058684	20.801975	-86.371371
27229		2.009266	20.815061	-86.309661
27230		1.975593	20.812007	-86.250335
27231		1.963867	20.801175	-86.185988
27232		1.962757	20.795985	-86.104094
27233		1.958820	20.793076	-86.011288
27234		1.948056	20.795886	-85.911333
27235		1.925687	20.806076	-85.812425
27236		1.904328	20.811632	-85.715007
27237		1.897589	20.802467	-85.613807
27238		1.899979	20.792327	-85.506006
27239		1.896185	20.787892	-85.383481
27240		1.876095	20.801074	-85.252332
27241		1.844509	20.823231	-85.124085
27242		1.810069	20.841742	-85.003114
27243		1.778349	20.848444	-84.890023
27244		1.775207	20.853067	-84.767920
27245		1.801890	20.861328	-84.622222
27246		1.827399	20.877278	-84.445208
27247		1.841697	20.897479	-84.242229
27248		1.839326	20.914165	-84.019261
27249		1.811824	20.927930	-83.797555
27250		1.779606	20.935181	-83.581156
27251		1.746105	20.937993	-83.370404
27252		1.724313	20.943500	-83.154420
27253		1.725022	20.953821	-82.917077
27254		1.730473	20.972749	-82.650119
27255		1.734810	20.997224	-82.346643
27256		1.733937	21.032858	-82.010353
27257		1.707548	21.077034	-81.658107
27258		1.650153	21.119179	-81.299139
27259		1.568121	21.155876	-80.947780
27260		1.475123	21.188900	-80.600555
27261		1.392836	21.222476	-80.259274
27262		1.293515	21.263077	-79.916911
27263		1.170205	21.310228	-79.573441
27264		1.045259	21.351171	-79.229698
27265		0.939949	21.376145	-78.911342
27266		0.903995	21.381618	-78.613930
27267		0.957018	21.363373	-78.329053
27268		1.083956	21.324316	-78.047092
27269		1.272414	21.279376	-77.744943
27270		1.511478	21.241147	-77.412282
27271		1.742169	21.228833	-77.049863
27272		1.895242	21.255967	-76.657376
27273		1.997809	21.290937	-76.249858
27274		2.063970	21.306042	-75.844832
27275		2.116600	21.289300	-75.453062
27276		2.176494	21.249963	-75.069427
27277		2.243210	21.209091	-74.691409
27278		2.290909	21.183851	-74.312032
27279		2.290073	21.175629	-73.932795
27280		2.246358	21.181219	-73.547082
27281		2.194946	21.187669	-73.145833
27282		2.169795	21.189029	-72.721750
27283		2.164147	21.171623	-72.279854
27284		2.154035	21.133712	-71.830992
27285		2.151354	21.072558	-71.378893
27286		2.155340	20.998195	-70.923917
27287		2.167899	20.922173	-70.461853
27288		2.198001	20.863040	-69.980838
27289		2.260703	20.822911	-69.481412
27290		2.351620	20.799244	-68.972841
27291		2.441083	20.775634	-68.458739
27292		2.527105	20.723336	-67.944696
27293		2.603422	20.642115	-67.427912
27294		2.655507	20.552008	-66.900884
27295		2.693936	20.464174	-66.356363
27296		2.733498	20.384316	-65.787392
27297		2.795957	20.308223	-65.195246
27298		2.889395	20.238986	-64.585580
27299		3.017568	20.175793	-63.971962
27300		3.206122	20.112044	-63.361287
27301		3.434344	20.025181	-62.766079
27302		3.649394	19.930698	-62.185308
27303		3.823404	19.854688	-61.616330
27304		3.903359	19.824462	-61.044759
27305		3.882650	19.836224	-60.465423
27306		3.768305	19.877708	-59.871404
27307		3.559536	19.924837	-59.269320
27308		3.305255	19.954152	-58.669497
27309		3.017572	19.967932	-58.077777
27310		2.701109	19.989099	-57.488152
27311		2.401985	20.009806	-56.893282
27312		2.084334	20.056589	-56.286873
27313		1.700984	20.155507	-55.675317
27314		1.236636	20.288236	-55.064035
27315		0.708565	20.420367	-54.458488
27316		0.135956	20.523290	-53.856013
27317		-0.436746	20.590050	-53.265937
27318		-0.971715	20.640096	-52.669658
27319		-1.461197	20.699552	-52.054228
27320		-1.931795	20.788477	-51.425312
27321		-2.402050	20.884218	-50.795968
27322		-2.864780	20.968730	-50.160133
27323		-3.289950	21.019587	-49.523867
27324		-3.653557	21.039518	-48.874907
27325		-3.936932	21.046455	-48.210836
27326		-4.177715	21.071250	-47.530422
27327		-4.384097	21.107126	-46.835370
27328		-4.568034	21.128158	-46.126764
27329		-4.723069	21.112144	-45.412434
27330		-4.783374	21.052464	-44.684541
27331		-4.710169	20.998767	-43.943848
27332		-4.552678	20.983657	-43.185599
27333		-4.360060	20.984467	-42.420722
27334		-4.181511	20.975247	-41.661699
27335		-4.063555	20.943140	-40.923587
27336		-3.994439	20.900928	-40.197781
27337		-3.938764	20.863977	-39.471727
27338		-3.879298	20.860013	-38.731110
27339		-3.843224	20.901446	-37.968339
27340		-3.863811	20.970256	-37.191236
27341		-3.937931	21.020820	-36.411466
27342		-4.070016	21.049276	-35.641430
27343		-4.244224	21.058761	-34.888130
27344		-4.418034	21.053904	-34.145880
27345		-4.535500	21.042339	-33.415196
27346		-4.603998	21.059483	-32.684686
27347		-4.666258	21.120875	-31.955200
27348		-4.757124	21.208188	-31.225892
27349		-4.876218	21.275054	-30.501751
27350		-5.018246	21.312695	-29.781197
27351		-5.146920	21.324637	-29.064993
27352		-5.226810	21.329411	-28.341777
27353		-5.228379	21.337140	-27.623845
27354		-5.168233	21.371784	-26.909107
27355		-5.077860	21.432589	-26.200316
27356		-4.987866	21.493874	-25.495820
27357		-4.910978	21.534793	-24.800651
27358		-4.861224	21.553101	-24.113164
27359		-4.821334	21.546163	-23.437616
27360		-4.773516	21.527599	-22.777085
27361		-4.687802	21.514133	-22.141705
27362		-4.517525	21.521594	-21.518991
27363		-4.279320	21.555046	-20.904874
27364		-4.037027	21.613770	-20.287615
27365		-3.867708	21.683110	-19.684459
27366		-3.832992	21.753442	-19.099831
27367		-3.923695	21.811576	-18.538514
27368		-4.086359	21.860579	-17.985578
27369		-4.289036	21.912667	-17.443926
27370		-4.512350	21.979265	-16.915281
27371		-4.736868	22.058570	-16.396685
27372		-4.979045	22.149208	-15.878625
27373		-5.232809	22.233050	-15.368800
27374		-5.507364	22.304319	-14.867120
27375		-5.814144	22.358896	-14.384043
27376		-6.137654	22.400829	-13.912668
27377		-6.442702	22.437277	-13.444869
27378		-6.713529	22.486962	-12.972230
27379		-6.925774	22.550263	-12.490012
27380		-7.089382	22.621585	-12.000056
27381		-7.213778	22.687060	-11.509795
27382		-7.298754	22.725334	-11.019015
27383		-7.346617	22.728835	-10.532958
27384		-7.360247	22.710883	-10.056140
27385		-7.326602	22.672700	-9.581391
27386		-7.241813	22.633487	-9.103648
27387		-7.126981	22.600101	-8.623723
27388		-7.015148	22.578419	-8.143086
27389		-6.934485	22.563076	-7.671754
27390		-6.891221	22.547168	-7.210009
27391		-6.883281	22.521533	-6.764465
27392		-6.901969	22.495842	-6.334079
27393		-6.935246	22.458541	-5.927383
27394		-6.958793	22.419578	-5.534011
27395		-6.977057	22.389408	-5.145556
27396		-7.007327	22.370328	-4.760182
27397		-7.052352	22.349338	-4.374542
27398		-7.105064	22.322783	-3.987201
27399		-7.169186	22.290639	-3.610191
27400		-7.226935	22.252220	-3.241174
27401		-7.274078	22.225755	-2.883768
27402		-7.299079	22.212264	-2.528425
27403		-7.313038	22.204290	-2.161304
27404		-7.335087	22.191236	-1.781491
27405		-7.372424	22.157530	-1.395703
27406		-7.423165	22.110124	-1.011247
27407		-7.483006	22.070275	-0.640013
27408		-7.550581	22.046110	-0.287948
27409		-7.628399	22.030249	0.048614
27410		-7.714477	22.014008	0.366017
27411		-7.803528	21.997241	0.670436
27412		-7.893701	21.984508	0.962115
27413		-7.980711	21.975053	1.248068
27414		-8.056485	21.969236	1.536373
27415		-8.124476	21.956294	1.819416
27416		-8.181163	21.933686	2.097464
27417		-8.237532	21.916493	2.360606
27418		-8.288047	21.904846	2.608544
27419		-8.326467	21.899477	2.840938
27420		-8.346954	21.899217	3.071849
27421		-8.353397	21.903963	3.303050
27422		-8.359706	21.906653	3.532279
27423		-8.360554	21.895429	3.767121
27424		-8.348735	21.879167	3.999943
27425		-8.328587	21.873305	4.224710
27426		-8.316049	21.879735	4.440235
27427		-8.316935	21.894290	4.640426
27428		-8.326339	21.911248	4.829341
27429		-8.339960	21.926087	5.013789
27430		-8.345383	21.937747	5.197520
27431		-8.337593	21.949400	5.382131
27432		-8.323161	21.959757	5.563856
27433		-8.305330	21.967506	5.741178
27434		-8.279902	21.975742	5.916001
27435		-8.259537	21.983464	6.080624
27436		-8.247808	21.990278	6.234339
27437		-8.248657	22.004815	6.371939
27438		-8.261956	22.035078	6.494845
27439		-8.285358	22.074158	6.606403
27440		-8.317338	22.115142	6.711424
27441		-8.352748	22.148495	6.814377
27442		-8.393224	22.167340	6.909941
27443		-8.424645	22.171724	6.998708
27444		-8.438187	22.172344	7.083338
27445		-8.436610	22.179585	7.164392
27446		-8.415116	22.198599	7.243162
27447		-8.383685	22.220658	7.319476
27448		-8.354800	22.238355	7.391327
27449		-8.326255	22.249985	7.458268
27450		-8.286849	22.248135	7.527333
27451		-8.236731	22.240144	7.594825
27452		-8.165262	22.236681	7.657086
27453		-8.085123	22.240241	7.708620
27454		-8.010781	22.248188	7.749706
27455		-7.947159	22.253089	7.781810
27456		-7.895505	22.253849	7.810806
27457		-7.845442	22.244225	7.843189
27458		-7.793547	22.229558	7.875536
27459		-7.737926	22.215181	7.907674
27460		-7.683245	22.213895	7.932105
27461		-7.645572	22.220523	7.942391
27462		-7.628446	22.230027	7.944127
27463		-7.635935	22.239255	7.940843
27464		-7.670285	22.241250	7.934525
27465		-7.711535	22.237571	7.930364
27466		-7.735641	22.229144	7.933571
27467		-7.744255	22.223989	7.939749
27468		-7.736208	22.220356	7.943348
27469		-7.724536	22.216765	7.936243
27470		-7.716101	22.213066	7.921401
27471		-7.713951	22.210198	7.902696
27472		-7.716075	22.204282	7.884224
27473		-7.719166	22.200790	7.863395
27474		-7.711905	22.196230	7.839410
27475		-7.693539	22.190128	7.815524
27476		-7.676848	22.190561	7.786097
27477		-7.669056	22.193575	7.748279
27478		-7.675733	22.197797	7.707621
27479		-7.696699	22.194735	7.662160
27480		-7.727063	22.187338	7.616117
27481		-7.762983	22.182614	7.567638
27482		-7.792023	22.176938	7.524621
27483		-7.809610	22.173535	7.487472
27484		-7.821937	22.171645	7.453218
27485		-7.827888	22.172143	7.414158
27486		-7.833376	22.178069	7.368536
27487		-7.856947	22.185515	7.309836
27488		-7.895210	22.190958	7.244320
27489		-7.936190	22.183513	7.173080
27490		-7.959535	22.171980	7.103225
27491		-7.966133	22.161213	7.030474
27492		-7.956650	22.154684	6.959408
27493		-7.936991	22.148600	6.890246
27494		-7.923093	22.151906	6.817799
27495		-7.920777	22.157022	6.744704
27496		-7.940857	22.158007	6.664397
27497		-7.981449	22.150030	6.574666
27498		-8.033930	22.142129	6.470072
27499		-8.087332	22.132609	6.349909
27500		-8.135970	22.120762	6.218054
27501		-8.180114	22.099121	6.070202
27502		-8.213897	22.068530	5.910254
27503		-8.236305	22.028767	5.742655
27504		-8.244040	21.987438	5.569925
27505		-8.235425	21.938401	5.394987
27506		-8.206027	21.883633	5.216639
27507		-8.175089	21.825257	5.027096
27508		-8.144084	21.769936	4.830643
27509		-8.120986	21.718915	4.628595
27510		-8.123695	21.678172	4.411439
27511		-8.160452	21.638189	4.181585
27512		-8.211985	21.591948	3.951292
27513		-8.268862	21.531923	3.717012
27514		-8.326891	21.470263	3.472816
27515		-8.393674	21.407643	3.210003
27516		-8.457912	21.344962	2.934510
27517		-8.521204	21.279766	2.644746
27518		-8.569847	21.213276	2.350436
27519		-8.592726	21.140599	2.056198
27520		-8.594628	21.071637	1.758642
27521		-8.574730	21.002339	1.457141
27522		-8.533448	20.933451	1.150896
27523		-8.467801	20.860124	0.834952
27524		-8.379166	20.779617	0.512038
27525		-8.278273	20.696229	0.178401
27526		-8.169793	20.616205	-0.165411
27527		-8.063847	20.547118	-0.519553
27528		-7.968055	20.491456	-0.884177
27529		-7.886728	20.444071	-1.258547
27530		-7.809409	20.396114	-1.638335
27531		-7.733342	20.343813	-2.027900
27532		-7.665466	20.295740	-2.427746
27533		-7.618513	20.255308	-2.849858
27534		-7.594099	20.226742	-3.303341
27535		-7.587710	20.211182	-3.795089
27536		-7.576043	20.211979	-4.321295
27537		-7.525401	20.207656	-4.871042
27538		-7.387269	20.187524	-5.424790
27539		-7.146710	20.149257	-5.970003
27540		-6.835127	20.102996	-6.498338
27541		-6.480935	20.051290	-7.008741
27542		-6.107614	19.997887	-7.503487
27543		-5.758987	19.960018	-7.987279
27544		-5.453842	19.945052	-8.474849
27545		-5.195197	19.938398	-8.966667
27546		-4.959674	19.931977	-9.470421
27547		-4.725302	19.915637	-9.983382
27548		-4.487249	19.895298	-10.489593
27549		-4.251748	19.867922	-10.986101
27550		-4.035075	19.842580	-11.474525
27551		-3.862713	19.825361	-11.966493
27552		-3.739481	19.819041	-12.473392
27553		-3.666589	19.822804	-12.989784
27554		-3.613020	19.832380	-13.505979
27555		-3.564615	19.841194	-14.008330
27556		-3.490214	19.853867	-14.496349
27557		-3.406201	19.873013	-14.986919
27558		-3.350624	19.903911	-15.484872
27559		-3.337859	19.947257	-15.999233
27560		-3.331229	19.994962	-16.517769
27561		-3.313721	20.027374	-17.046051
27562		-3.289789	20.030205	-17.591481
27563		-3.289933	20.018859	-18.160073
27564		-3.316551	20.007572	-18.753555
27565		-3.365430	20.012490	-19.367195
27566		-3.410007	20.050016	-19.994450
27567		-3.424311	20.109642	-20.619886
27568		-3.383441	20.163869	-21.221418
27569		-3.283115	20.185748	-21.790740
27570		-3.160321	20.174330	-22.336742
27571		-3.036698	20.144772	-22.885963
27572		-2.924503	20.113856	-23.447308
27573		-2.840386	20.092235	-24.029857
27574		-2.774409	20.080377	-24.631054
27575		-2.698987	20.069800	-25.232058
27576		-2.606396	20.064242	-25.817030
27577		-2.526972	20.058305	-26.395781
27578		-2.485231	20.049852	-26.971276
27579		-2.478243	20.040616	-27.556562
27580		-2.478717	20.024147	-28.143424
27581		-2.490866	19.999496	-28.738680
27582		-2.508140	19.969921	-29.334053
27583		-2.536465	19.938495	-29.936193
27584		-2.559743	19.914083	-30.536366
27585		-2.567089	19.892331	-31.137595
27586		-2.552565	19.857358	-31.728676
27587		-2.512506	19.803738	-32.303931
27588		-2.444533	19.728924	-32.852611
27589		-2.355514	19.643044	-33.385139
27590		-2.263800	19.572168	-33.907307
27591		-2.182949	19.516788	-34.436063
27592		-2.097965	19.471962	-34.968575
27593		-1.997008	19.418740	-35.505362
27594		-1.889184	19.361259	-36.039141
27595		-1.796515	19.288994	-36.572967
27596		-1.727132	19.202783	-37.102761
27597		-1.686028	19.115849	-37.641605
27598		-1.663985	19.048792	-38.194217
27599		-1.654578	18.998851	-38.765822
27600		-1.625412	18.953841	-39.348841
27601		-1.579956	18.910191	-39.934822
27602		-1.525323	18.865110	-40.507458
27603		-1.495148	18.816510	-41.060730
27604		-1.499466	18.765299	-41.595441
27605		-1.537096	18.713692	-42.123572
27606		-1.621008	18.671312	-42.655051
27607		-1.719147	18.630073	-43.209711
27608		-1.791309	18.591681	-43.769382
27609		-1.817602	18.547662	-44.329456
27610		-1.804045	18.511221	-44.872083
27611		-1.781091	18.472246	-45.392593
27612		-1.784550	18.425699	-45.898395
27613		-1.831540	18.374496	-46.413315
27614		-1.880773	18.327730	-46.947663
27615		-1.897728	18.286880	-47.507231
27616		-1.840641	18.245946	-48.077570
27617		-1.724116	18.221535	-48.641754
27618		-1.614526	18.232775	-49.180528
27619		-1.598077	18.266519	-49.712923
27620		-1.701001	18.305538	-50.246049
27621		-1.900238	18.333180	-50.796698
27622		-2.150765	18.340935	-51.367633
27623		-2.399429	18.327467	-51.959084
27624		-2.602284	18.297117	-52.555424
27625		-2.726056	18.264254	-53.140794
27626		-2.801240	18.250619	-53.699601
27627		-2.856482	18.256248	-54.232231
27628		-2.903421	18.272877	-54.746920
27629		-2.932587	18.277724	-55.266073
27630		-2.929218	18.255588	-55.789492
27631		-2.839181	18.198623	-56.318812
27632		-2.651132	18.121825	-56.836547
27633		-2.388699	18.061992	-57.321393
27634		-2.112273	18.042307	-57.761867
27635		-1.888013	18.060424	-58.178928
27636		-1.705182	18.099051	-58.602024
27637		-1.564156	18.131884	-59.045662
27638		-1.455690	18.159276	-59.495685
27639		-1.387450	18.191174	-59.935377
27640		-1.422691	18.247837	-60.346946
27641		-1.642215	18.343650	-60.729820
27642		-2.091600	18.465460	-61.109437
27643		-2.671969	18.602076	-61.504899
27644		-3.279079	18.728933	-61.909932
27645		-3.808605	18.798770	-62.325227
27646		-4.232324	18.781634	-62.753299
27647		-4.582076	18.706535	-63.201659
27648		-4.818173	18.632351	-63.652606
27649		-4.877405	18.607323	-64.083950
27650		-4.753000	18.641954	-64.485856
27651		-4.498434	18.694970	-64.872428
27652		-4.140415	18.717947	-65.254519
27653		-3.708647	18.667183	-65.651504
27654		-3.195451	18.523307	-66.062148
27655		-2.559017	18.326614	-66.467865
27656		-1.851189	18.164896	-66.844146
27657		-1.143721	18.105044	-67.195929
27658		-0.483414	18.119211	-67.541593
27659		0.129868	18.135526	-67.895223
27660		0.717345	18.104535	-68.267629
27661		1.277424	18.000373	-68.659724
27662		1.711483	17.857536	-69.058230
27663		1.995422	17.764118	-69.434042
27664		2.083896	17.783290	-69.765528
27665		1.964093	17.896543	-70.079711
27666		1.718321	18.018876	-70.411158
27667		1.426531	18.089065	-70.773456
27668		1.132727	18.107067	-71.167473
27669		0.810398	18.073232	-71.583077
27670		0.421018	18.035169	-72.004633
27671		-0.021662	18.055619	-72.414893
27672		-0.494693	18.141811	-72.803984
27673		-0.930712	18.246535	-73.175267
27674		-1.283422	18.329695	-73.533685
27675		-1.513113	18.337183	-73.881389
27676		-1.574288	18.258035	-74.216674
27677		-1.419796	18.144913	-74.531698
27678		-1.109652	18.056200	-74.825690
27679		-0.664082	18.013444	-75.094346
27680		-0.086211	17.998849	-75.334189
27681		0.583636	17.965997	-75.576289
27682		1.269481	17.885425	-75.847345
27683		1.823873	17.785964	-76.149569
27684		2.130907	17.716125	-76.469463
27685		2.243756	17.701878	-76.792420
27686		2.188934	17.748278	-77.106456
27687		1.991105	17.843096	-77.432028
27688		1.748642	17.946035	-77.774453
27689		1.510306	18.000743	-78.142775
27690		1.273278	17.994240	-78.527017
27691		1.055221	17.989219	-78.904870
27692		0.853019	18.033413	-79.258648
27693		0.671714	18.111127	-79.591016
27694		0.535665	18.198436	-79.915563
27695		0.469806	18.277870	-80.241289
27696		0.464402	18.312465	-80.573351
27697		0.540286	18.300908	-80.912327
27698		0.664061	18.288299	-81.233201
27699		0.786064	18.318670	-81.506872
27700		0.885876	18.392498	-81.720408
27701		1.019027	18.494238	-81.893857
27702		1.190051	18.595266	-82.054037
27703		1.415398	18.652449	-82.241511
27704		1.618233	18.633076	-82.470781
27705		1.658318	18.582343	-82.728945
27706		1.493518	18.572827	-82.981082
27707		1.126184	18.666020	-83.201740
27708		0.683779	18.841124	-83.393442
27709		0.280510	19.023644	-83.581074
27710		0.040079	19.128373	-83.781006
27711		-0.023351	19.121597	-84.004214
27712		0.045438	19.052320	-84.236929
27713		0.205382	18.989953	-84.449523
27714		0.375436	18.974542	-84.624066
27715		0.551582	18.994380	-84.759178
27716		0.748481	19.027175	-84.872073
27717		0.982741	19.023894	-85.000237
27718		1.190151	18.962570	-85.167458
27719		1.293145	18.885384	-85.372014
27720		1.272434	18.849745	-85.587639
27721		1.147331	18.859788	-85.786811
27722		0.983180	18.885386	-85.962771
27723		0.804308	18.906479	-86.126045
27724		0.689014	18.908616	-86.279169
27725		0.688876	18.877473	-86.431179
27726		0.744066	18.843173	-86.577043
27727		0.828500	18.823297	-86.718890
27728		0.907624	18.824754	-86.852240
27729		0.976513	18.840858	-86.981745
27730		1.049868	18.846621	-87.110207
27731		1.123825	18.828704	-87.240712
27732		1.191247	18.810657	-87.371725
27733		1.214457	18.814806	-87.500755
27734		1.188199	18.841932	-87.628377
27735		1.140575	18.879599	-87.749968
27736		1.102089	18.913345	-87.862626
27737		1.097578	18.932515	-87.970953
27738		1.119607	18.944436	-88.068285
27739		1.151248	18.970696	-88.159627
27740		1.169341	19.020633	-88.249226
27741		1.182777	19.074484	-88.345194
27742		1.218031	19.106745	-88.449647
27743		1.269646	19.133399	-88.556586
27744		1.312427	19.170097	-88.649533
27745		1.323298	19.225806	-88.709862
27746		1.297570	19.293056	-88.745713
27747		1.279177	19.352144	-88.769371
27748		1.311598	19.388906	-88.793917
27749		1.385261	19.409630	-88.820143
27750		1.488225	19.434873	-88.839552
27751		1.576860	19.489401	-88.855274
27752		1.642682	19.579965	-88.862131
27753		1.665069	19.680312	-88.879982
27754		1.667425	19.776151	-88.903969
27755		1.676509	19.855931	-88.928984
27756		1.678701	19.943173	-88.939134
27757		1.666565	20.055106	-88.933024
27758		1.651427	20.170704	-88.922307
27759		1.651016	20.258945	-88.922722
27760		1.660440	20.327119	-88.933121
27761		1.683974	20.405307	-88.937629
27762		1.719666	20.500625	-88.927390
27763		1.762482	20.602486	-88.904774
27764		1.813447	20.705197	-88.880429
27765		1.867219	20.790876	-88.863795
27766		1.904803	20.855168	-88.847186
27767		1.907604	20.909369	-88.829287
27768		1.869781	20.971786	-88.801122
27769		1.798248	21.045448	-88.769853
27770		1.711215	21.113777	-88.746183
27771		1.655182	21.162680	-88.731162
27772		1.643713	21.184100	-88.725711
27773		1.673276	21.186113	-88.720933
27774		1.717183	21.203533	-88.708871
27775		1.738994	21.242400	-88.684340
27776		1.729141	21.274176	-88.652491
27777		1.719266	21.289438	-88.620827
27778		1.705251	21.289405	-88.605616
27779		1.703130	21.280206	-88.600195
27780		1.711414	21.268778	-88.598524
27781		1.719144	21.267750	-88.595965
27782		1.708347	21.275369	-88.589280
27783		1.685542	21.285865	-88.580467
27784		1.667606	21.288629	-88.577738
27785		1.647825	21.281667	-88.580333
27786		1.636777	21.271983	-88.583400
27787		1.622051	21.269650	-88.579736
27788		1.590692	21.274492	-88.568503
27789		1.546836	21.279311	-88.557786
27790		1.524120	21.278607	-88.552171
27791		1.525967	21.277489	-88.555360
27792		1.551328	21.269484	-88.559613
27793		1.601687	21.253982	-88.555652
27794		1.635969	21.250362	-88.541858
27795		1.651713	21.259576	-88.511580
27796		1.634591	21.271784	-88.471137
27797		1.602969	21.278524	-88.429538
27798		1.577120	21.275638	-88.397665
27799		1.580548	21.270064	-88.376485
27800		1.627643	21.261217	-88.364157
27801		1.705857	21.255987	-88.356283
27802		1.786507	21.262822	-88.350187
27803		1.834494	21.279704	-88.348702
27804		1.850628	21.302199	-88.347530
27805		1.839594	21.325281	-88.351716
27806		1.811623	21.349299	-88.359565
27807		1.765605	21.379811	-88.367951
27808		1.705178	21.411284	-88.377763
27809		1.649000	21.428915	-88.389712
27810		1.596639	21.452133	-88.395480
27811		1.541205	21.483720	-88.391689
27812		1.501124	21.520600	-88.384996
27813		1.494444	21.539800	-88.377196
27814		1.503306	21.548035	-88.371628
27815		1.513533	21.553933	-88.370561
27816		1.506951	21.562794	-88.362038
27817		1.475527	21.574185	-88.344869
27818		1.425403	21.588703	-88.318849
27819		1.368049	21.601013	-88.291695
27820		1.297214	21.605894	-88.259865
27821		1.212504	21.605129	-88.226808
27822		1.127699	21.606573	-88.193835
27823		1.060192	21.600305	-88.164809
27824		0.999235	21.585324	-88.137256
27825		0.954383	21.565383	-88.106504
27826		0.921026	21.541694	-88.062128
27827		0.890417	21.519940	-87.998888
27828		0.838211	21.502166	-87.920914
27829		0.766422	21.485700	-87.837885
27830		0.688026	21.458903	-87.760343
27831		0.627012	21.415842	-87.688041
27832		0.598010	21.362113	-87.611294
27833		0.589087	21.306769	-87.523995
27834		0.588983	21.254338	-87.414220
27835		0.579466	21.212139	-87.292130
27836		0.559807	21.172851	-87.159941
27837		0.532070	21.119909	-87.027860
27838		0.512457	21.051627	-86.898255
27839		0.512060	20.979400	-86.763527
27840		0.527249	20.910983	-86.608463
27841		0.542921	20.864441	-86.431501
27842		0.549773	20.837003	-86.230770
27843		0.526038	20.809662	-86.026776
27844		0.470787	20.772651	-85.814399
27845		0.384544	20.732178	-85.596335
27846		0.240030	20.700811	-85.373281
27847		0.050039	20.682427	-85.151769
27848		-0.155396	20.673415	-84.929746
27849		-0.343297	20.662620	-84.723111
27850		-0.478431	20.631357	-84.520014
27851		-0.565964	20.583031	-84.316148
27852		-0.616099	20.534878	-84.105164
27853		-0.620492	20.490552	-83.890705
27854		-0.606781	20.456204	-83.673071
27855		-0.553839	20.423028	-83.453624
27856		-0.454192	20.383771	-83.217250
27857		-0.323771	20.329237	-82.969658
27858		-0.195040	20.271477	-82.710319
27859		-0.084843	20.209814	-82.441861
27860		-0.022325	20.155268	-82.168016
27861		0.015384	20.107912	-81.893514
27862		0.038049	20.065039	-81.621181
27863		0.056750	20.020587	-81.348979
27864		0.081616	19.974170	-81.072648
27865		0.117473	19.924445	-80.776772
27866		0.142040	19.882334	-80.461341
27867		0.145188	19.844810	-80.123608
27868		0.132657	19.803935	-79.778466
27869		0.126939	19.753945	-79.429099
27870		0.146637	19.688590	-79.076264
27871		0.198538	19.611567	-78.716452
27872		0.281569	19.530807	-78.333258
27873		0.394944	19.456478	-77.917838
27874		0.508911	19.401409	-77.466827
27875		0.599431	19.366232	-77.001619
27876		0.672945	19.333670	-76.531922
27877		0.738704	19.279511	-76.076238
27878		0.814574	19.204408	-75.633335
27879		0.917321	19.113471	-75.188982
27880		1.040407	19.030524	-74.719453
27881		1.108902	18.982503	-74.224355
27882		1.125599	18.970053	-73.701003
27883		1.116132	18.960470	-73.156142
27884		1.070274	18.941333	-72.601224
27885		1.046696	18.889547	-72.055725
27886		1.076638	18.810071	-71.519511
27887		1.135880	18.727753	-70.983075
27888		1.218997	18.657095	-70.434083
27889		1.313072	18.598424	-69.862226
27890		1.369491	18.569722	-69.269562
27891		1.381671	18.559432	-68.660008
27892		1.364793	18.551296	-68.052340
27893		1.365090	18.513550	-67.468752
27894		1.390514	18.441080	-66.911760
27895		1.445103	18.359406	-66.373946
27896		1.514281	18.295935	-65.832729
27897		1.554187	18.265506	-65.283785
27898		1.532479	18.271675	-64.720470
27899		1.459037	18.274368	-64.149956
27900		1.362045	18.250393	-63.587335
27901		1.297050	18.193350	-63.031408
27902		1.297720	18.117089	-62.476217
27903		1.348059	18.040754	-61.917809
27904		1.411443	17.978493	-61.348883
27905		1.469774	17.937454	-60.771157
27906		1.492726	17.904348	-60.178706
27907		1.478631	17.870012	-59.585671
27908		1.454517	17.833974	-58.993994
27909		1.455664	17.785375	-58.401782
27910		1.485015	17.735214	-57.801073
27911		1.519732	17.688033	-57.192828
27912		1.529767	17.649754	-56.571333
