// General information: 
//  MT Manager version: 2022.2.0 
//  XDA version: 2022.2.0 build 7381 rev 124627 built on 2023-07-19
// Device information: 
//  DeviceId: 00B447FA
//  ProductCode: MTW2-3A7G6
//  Firmware Version: 4.3.5
//  Hardware Version: 2.0.0
// Device settings: 
//  Filter Profile: human(46.1)
//  Option Flags: Orientation Smoother Disabled, Position/Velocity Smoother Disabled, Continuous Zero Rotation Update Disabled, AHS Disabled, ICC Disabled
// Coordinate system: ENU
PacketCounter	SampleTimeFine	Roll	Pitch	Yaw
24680		22.363252	9.622144	2.887879
24681		22.354536	9.633084	2.891305
24682		22.347901	9.639663	2.886999
24683		22.356222	9.645042	2.883761
24684		22.338332	9.649962	2.878352
24685		22.315810	9.653999	2.877341
24686		22.321492	9.653514	2.878146
24687		22.331765	9.650605	2.883709
24688		22.338835	9.652430	2.884560
24689		22.327332	9.655910	2.883391
24690		22.313293	9.660619	2.881688
24691		22.320665	9.662389	2.878319
24692		22.332651	9.667992	2.874911
24693		22.328357	9.675941	2.868031
24694		22.334649	9.685845	2.862085
24695		22.365752	9.692651	2.856476
24696		22.371755	9.699309	2.853724
24697		22.339990	9.705299	2.851168
24698		22.312788	9.707923	2.851893
24699		22.290245	9.710474	2.855093
24700		22.269252	9.712129	2.856189
24701		22.241365	9.712125	2.857313
24702		22.223175	9.717067	2.856696
24703		22.241795	9.718781	2.855432
24704		22.243012	9.720208	2.849328
24705		22.231402	9.727474	2.841508
24706		22.232690	9.737294	2.832629
24707		22.257652	9.744230	2.822841
24708		22.259212	9.751457	2.811365
24709		22.243061	9.759276	2.800414
24710		22.240462	9.766740	2.790025
24711		22.239724	9.774965	2.784254
24712		22.214967	9.779958	2.777428
24713		22.174568	9.789888	2.767460
24714		22.156211	9.797281	2.763629
24715		22.154799	9.804740	2.762284
24716		22.148651	9.814021	2.757807
24717		22.132834	9.823445	2.750324
24718		22.102354	9.832099	2.742938
24719		22.073509	9.840649	2.734423
24720		22.063513	9.848168	2.726430
24721		22.072654	9.850546	2.719080
24722		22.076493	9.851892	2.708678
24723		22.070176	9.855157	2.698814
24724		22.057914	9.859417	2.688747
24725		22.041579	9.864731	2.685097
24726		22.042968	9.870874	2.683442
24727		22.058548	9.877134	2.688399
24728		22.058993	9.885021	2.688322
24729		22.058145	9.888664	2.684168
24730		22.042175	9.890031	2.675584
24731		22.017898	9.891334	2.666698
24732		22.004499	9.890064	2.655991
24733		21.992684	9.887977	2.646006
24734		21.980914	9.887760	2.634553
24735		21.976603	9.890411	2.626538
24736		21.994070	9.890752	2.614170
24737		22.019739	9.889563	2.605460
24738		22.059827	9.887367	2.590193
24739		22.108054	9.884148	2.569067
24740		22.156673	9.885892	2.543509
24741		22.224564	9.889639	2.515419
24742		22.299264	9.890918	2.479766
24743		22.360562	9.887385	2.437154
24744		22.382695	9.887907	2.383080
24745		22.387674	9.887875	2.325046
24746		22.389690	9.893921	2.264389
24747		22.372706	9.895313	2.204250
24748		22.357059	9.896539	2.141434
24749		22.346331	9.897912	2.077413
24750		22.353918	9.901971	2.009451
24751		22.363430	9.902653	1.934077
24752		22.380401	9.905012	1.853747
24753		22.419282	9.908332	1.771369
24754		22.440952	9.907250	1.683719
24755		22.487317	9.907861	1.594713
24756		22.561758	9.902928	1.502051
24757		22.616050	9.892447	1.404538
24758		22.657219	9.882194	1.303669
24759		22.710840	9.871496	1.196129
24760		22.799212	9.861699	1.081075
24761		22.910994	9.847831	0.943575
24762		22.931315	9.827943	0.784610
24763		22.871646	9.824758	0.613002
24764		22.827706	9.824442	0.430326
24765		22.812984	9.820673	0.245463
24766		22.829041	9.821385	0.056294
24767		22.896342	9.817356	-0.138076
24768		22.970225	9.813615	-0.341190
24769		23.020395	9.808460	-0.557589
24770		23.068439	9.802767	-0.780844
24771		23.088818	9.800843	-1.012290
24772		23.094895	9.806565	-1.251680
24773		23.115961	9.807731	-1.501012
24774		23.149241	9.808588	-1.759465
24775		23.180894	9.810253	-2.033940
24776		23.210968	9.808765	-2.318922
24777		23.253218	9.801669	-2.622921
24778		23.242173	9.789625	-2.940699
24779		23.160205	9.782113	-3.267311
24780		23.110939	9.773221	-3.598491
24781		23.072664	9.765159	-3.927680
24782		23.053914	9.759437	-4.257565
24783		23.077436	9.747717	-4.589775
24784		23.109905	9.725943	-4.924442
24785		23.165538	9.705780	-5.256448
24786		23.201683	9.687176	-5.592604
24787		23.238251	9.670096	-5.930825
24788		23.298036	9.650091	-6.273157
24789		23.340892	9.627758	-6.618598
24790		23.396169	9.606722	-6.968438
24791		23.403886	9.581792	-7.330020
24792		23.365737	9.565678	-7.688349
24793		23.367076	9.546295	-8.057970
24794		23.383728	9.519716	-8.438206
24795		23.314202	9.484270	-8.827136
24796		23.215213	9.462054	-9.209452
24797		23.140979	9.446820	-9.583529
24798		23.132483	9.431807	-9.949873
24799		23.211259	9.411558	-10.306866
24800		23.341624	9.388472	-10.662098
24801		23.438008	9.362417	-11.023973
24802		23.408102	9.340364	-11.398300
24803		23.284253	9.335710	-11.771503
24804		23.144729	9.335136	-12.139240
24805		23.025370	9.331749	-12.499094
24806		22.928624	9.326992	-12.851079
24807		22.929907	9.317041	-13.200410
24808		23.092884	9.292746	-13.559094
24809		23.260943	9.258904	-13.935411
24810		23.387125	9.233975	-14.334983
24811		23.465737	9.210956	-14.759287
24812		23.530265	9.199644	-15.192463
24813		23.602734	9.183943	-15.629958
24814		23.637306	9.166025	-16.072667
24815		23.672867	9.148074	-16.516860
24816		23.741928	9.129598	-16.958241
24817		23.772177	9.114897	-17.407924
24818		23.748687	9.103074	-17.877291
24819		23.670200	9.098123	-18.371685
24820		23.580937	9.096634	-18.885216
24821		23.512870	9.092967	-19.413290
24822		23.525252	9.084835	-19.960733
24823		23.604919	9.064509	-20.523943
24824		23.726997	9.043461	-21.109770
24825		23.852048	9.017116	-21.719982
24826		23.937049	8.994385	-22.352745
24827		24.008879	8.972760	-23.007030
24828		24.060780	8.956660	-23.679116
24829		24.115712	8.945615	-24.377427
24830		24.196243	8.919257	-25.090790
24831		24.256327	8.890416	-25.814238
24832		24.303898	8.868274	-26.543245
24833		24.419353	8.845377	-27.282052
24834		24.561321	8.806380	-28.021815
24835		24.694094	8.770298	-28.766612
24836		24.854334	8.727934	-29.520799
24837		24.948490	8.687793	-30.275254
24838		25.063341	8.653150	-31.037614
24839		25.228762	8.613521	-31.811498
24840		25.392955	8.569938	-32.581157
24841		25.531991	8.525777	-33.362773
24842		25.689305	8.479729	-34.151113
24843		25.859930	8.439064	-34.945221
24844		26.042326	8.401489	-35.733293
24845		26.184406	8.370766	-36.518355
24846		26.320202	8.345932	-37.298830
24847		26.500929	8.324692	-38.076190
24848		26.746365	8.300365	-38.848567
24849		27.025056	8.268593	-39.628961
24850		27.291373	8.236516	-40.407044
24851		27.548034	8.215242	-41.191364
24852		27.818034	8.192010	-41.977993
24853		28.064505	8.165765	-42.766884
24854		28.282123	8.132113	-43.566612
24855		28.364013	8.095257	-44.368312
24856		28.316513	8.069057	-45.165021
24857		28.222586	8.043695	-45.962029
24858		28.166384	8.012236	-46.750068
24859		28.209657	7.964767	-47.536361
24860		28.281257	7.909709	-48.321599
24861		28.340473	7.869234	-49.113370
24862		28.455646	7.828946	-49.914060
24863		28.622975	7.792167	-50.720851
24864		28.847254	7.766305	-51.525040
24865		29.132322	7.726324	-52.330160
24866		29.395264	7.677586	-53.128311
24867		29.520255	7.636656	-53.919774
24868		29.603946	7.599644	-54.705666
24869		29.695460	7.559609	-55.493932
24870		29.730593	7.531708	-56.270632
24871		29.734723	7.509712	-57.045662
24872		29.716213	7.487164	-57.819549
24873		29.646054	7.470673	-58.592744
24874		29.602400	7.458189	-59.362771
24875		29.621304	7.438294	-60.129252
24876		29.648893	7.417877	-60.890905
24877		29.664925	7.396849	-61.657155
24878		29.674553	7.383873	-62.417155
24879		29.694049	7.384874	-63.178464
24880		29.825001	7.393758	-63.946579
24881		30.081674	7.398571	-64.719627
24882		30.404136	7.400293	-65.480948
24883		30.770108	7.396765	-66.257529
24884		31.070102	7.401683	-67.024535
24885		31.299314	7.404008	-67.803855
24886		31.496202	7.410782	-68.576490
24887		31.662060	7.440898	-69.337433
24888		31.927548	7.470407	-70.086817
24889		32.313134	7.473495	-70.831336
24890		32.683022	7.488620	-71.574672
24891		32.960129	7.521780	-72.311737
24892		33.232947	7.561536	-73.039427
24893		33.448008	7.606028	-73.767546
24894		33.520501	7.680792	-74.486435
24895		33.573150	7.773749	-75.214914
24896		33.717072	7.873220	-75.943788
24897		34.008018	7.966343	-76.665612
24898		34.455179	8.046528	-77.372613
24899		34.956006	8.109016	-78.076114
24900		35.402907	8.163104	-78.760009
24901		35.745820	8.217764	-79.444363
24902		35.961178	8.266562	-80.133608
24903		36.153756	8.309596	-80.823322
24904		36.346872	8.327417	-81.500684
24905		36.500115	8.336426	-82.171399
24906		36.580850	8.349811	-82.842127
24907		36.634736	8.402085	-83.500302
24908		36.771907	8.459673	-84.159250
24909		36.882206	8.535192	-84.809092
24910		36.917203	8.613961	-85.479882
24911		36.874094	8.689880	-86.160844
24912		36.810495	8.759518	-86.829266
24913		36.724620	8.829531	-87.474808
24914		36.668599	8.901348	-88.098891
24915		36.623742	8.983932	-88.709820
24916		36.597624	9.075056	-89.312352
24917		36.566303	9.164061	-89.905330
24918		36.539433	9.261360	-90.475757
24919		36.522513	9.355826	-91.027489
24920		36.548289	9.448114	-91.560374
24921		36.629234	9.534152	-92.075250
24922		36.728759	9.617674	-92.563937
24923		36.803634	9.710946	-93.023715
24924		36.863698	9.808768	-93.464759
24925		36.912257	9.902951	-93.894225
24926		36.945059	9.998172	-94.307213
24927		36.965162	10.098704	-94.697333
24928		36.972650	10.202707	-95.066971
24929		36.997573	10.306965	-95.421853
24930		37.046845	10.403001	-95.767355
24931		37.125497	10.496100	-96.101418
24932		37.177781	10.581822	-96.432482
24933		37.167712	10.674127	-96.764081
24934		37.120044	10.764364	-97.096770
24935		37.089818	10.858032	-97.417175
24936		37.101553	10.952744	-97.723228
24937		37.159456	11.048634	-98.030196
24938		37.299458	11.138624	-98.335843
24939		37.437154	11.213106	-98.643085
24940		37.465758	11.288270	-98.948713
24941		37.405931	11.366126	-99.264163
24942		37.365636	11.434124	-99.580216
24943		37.412057	11.497076	-99.895345
24944		37.541292	11.554019	-100.205136
24945		37.675203	11.613983	-100.504383
24946		37.777153	11.656587	-100.802824
24947		37.820328	11.701080	-101.101288
24948		37.829512	11.748639	-101.412585
24949		37.872275	11.782800	-101.737109
24950		37.938265	11.811554	-102.069236
24951		38.004814	11.838599	-102.406245
24952		38.095539	11.880469	-102.729753
24953		38.188766	11.930982	-103.051707
24954		38.332842	11.987443	-103.374073
24955		38.506379	12.060182	-103.692122
24956		38.717974	12.129560	-104.022698
24957		38.952168	12.188936	-104.354239
24958		39.188414	12.240897	-104.668416
24959		39.407415	12.291578	-104.954908
24960		39.560832	12.352889	-105.221789
24961		39.671075	12.417798	-105.487356
24962		39.816089	12.481836	-105.743500
24963		39.936399	12.545363	-105.991397
24964		39.996560	12.606552	-106.231654
24965		39.995885	12.669901	-106.454735
24966		40.035434	12.727899	-106.649914
24967		40.078840	12.785965	-106.812350
24968		40.086293	12.851637	-106.956318
24969		40.071114	12.916145	-107.102550
24970		40.031045	12.987289	-107.245573
24971		39.974306	13.059528	-107.389364
24972		39.920889	13.144011	-107.521971
24973		39.901684	13.232794	-107.646522
24974		39.932381	13.326120	-107.772860
24975		39.987794	13.426485	-107.891856
24976		40.083062	13.508627	-108.019291
24977		40.165940	13.580345	-108.145478
24978		40.267348	13.652540	-108.257068
24979		40.449278	13.714390	-108.353316
24980		40.679363	13.768592	-108.442711
24981		40.883470	13.829358	-108.519693
24982		41.047609	13.903509	-108.579439
24983		41.127096	13.990083	-108.624553
24984		41.165726	14.085832	-108.656135
24985		41.191400	14.173191	-108.681996
24986		41.187739	14.266601	-108.694214
24987		41.188972	14.357028	-108.704456
24988		41.235411	14.446526	-108.724488
24989		41.330323	14.534547	-108.746891
24990		41.416546	14.624660	-108.764954
24991		41.473271	14.712087	-108.780462
24992		41.499646	14.796256	-108.794154
24993		41.550735	14.881561	-108.803818
24994		41.656832	14.957444	-108.802878
24995		41.792616	15.031739	-108.791692
24996		41.948312	15.105439	-108.778263
24997		42.084976	15.171517	-108.755033
24998		42.187436	15.234560	-108.736211
24999		42.205886	15.295443	-108.726406
25000		42.154044	15.348751	-108.722702
25001		42.065792	15.395568	-108.713267
25002		41.987838	15.432837	-108.696571
25003		41.958620	15.460511	-108.669022
25004		41.969834	15.488057	-108.633340
25005		42.005432	15.511503	-108.596091
25006		42.052898	15.534433	-108.568057
25007		42.104309	15.558028	-108.546994
25008		42.111830	15.580178	-108.531692
25009		42.137010	15.596010	-108.515567
25010		42.215332	15.599383	-108.501183
25011		42.337500	15.601437	-108.486645
25012		42.492738	15.601591	-108.471336
25013		42.620053	15.600436	-108.456097
25014		42.704420	15.598427	-108.446350
25015		42.754146	15.600190	-108.443882
25016		42.771238	15.601959	-108.444319
25017		42.761680	15.601417	-108.449723
25018		42.735368	15.604756	-108.452824
25019		42.725034	15.603297	-108.453228
25020		42.740257	15.606217	-108.450814
25021		42.745813	15.611153	-108.450973
25022		42.754275	15.615752	-108.455235
25023		42.792859	15.608768	-108.463674
25024		42.821118	15.604716	-108.473721
25025		42.831441	15.606606	-108.478350
25026		42.856462	15.611731	-108.497643
25027		42.855183	15.616607	-108.524696
25028		42.820226	15.623602	-108.556845
25029		42.792438	15.631316	-108.581398
25030		42.776323	15.648472	-108.600640
25031		42.796457	15.660666	-108.617624
25032		42.797415	15.666383	-108.631990
25033		42.752002	15.676022	-108.641506
25034		42.724010	15.680719	-108.653334
25035		42.742960	15.680014	-108.662473
25036		42.773566	15.678632	-108.668499
25037		42.781639	15.682390	-108.670217
25038		42.770178	15.686738	-108.671852
25039		42.759784	15.683225	-108.673442
25040		42.754755	15.684958	-108.669621
25041		42.762509	15.685640	-108.665396
25042		42.780973	15.683354	-108.659620
25043		42.781586	15.680045	-108.651163
25044		42.752886	15.676082	-108.646175
25045		42.699475	15.669683	-108.642386
25046		42.638683	15.664628	-108.641965
25047		42.610260	15.651631	-108.642455
25048		42.614382	15.639244	-108.650620
25049		42.628260	15.628864	-108.657661
25050		42.620725	15.622174	-108.660604
25051		42.601990	15.609936	-108.659736
25052		42.569032	15.595619	-108.658969
25053		42.564001	15.571853	-108.657113
25054		42.556728	15.551245	-108.648810
25055		42.533988	15.531061	-108.641270
25056		42.531116	15.511870	-108.634932
25057		42.538832	15.496446	-108.628094
25058		42.537473	15.480812	-108.630512
25059		42.523750	15.465441	-108.637180
25060		42.487406	15.450574	-108.642519
25061		42.455787	15.437043	-108.641604
25062		42.429904	15.425914	-108.638796
25063		42.413647	15.409981	-108.634492
25064		42.402433	15.394060	-108.632925
25065		42.378498	15.381489	-108.632194
25066		42.363671	15.371185	-108.636159
25067		42.355310	15.360009	-108.641067
25068		42.341122	15.355463	-108.648492
25069		42.315984	15.352306	-108.653364
25070		42.294829	15.347396	-108.657209
25071		42.294001	15.342292	-108.650183
25072		42.311804	15.340881	-108.641262
25073		42.315121	15.332842	-108.629336
25074		42.312254	15.326207	-108.617430
25075		42.302142	15.323981	-108.604897
25076		42.268564	15.328534	-108.591744
25077		42.225314	15.326982	-108.577531
25078		42.169635	15.325406	-108.557648
25079		42.120969	15.321187	-108.535531
25080		42.079907	15.308489	-108.505959
25081		42.042388	15.294106	-108.470641
25082		42.015031	15.282483	-108.434552
25083		41.997868	15.266691	-108.398724
25084		41.953535	15.258683	-108.366345
25085		41.917601	15.246356	-108.330459
25086		41.922004	15.231748	-108.291312
25087		41.939259	15.212846	-108.249680
25088		41.979538	15.190421	-108.203824
25089		42.025872	15.160958	-108.158451
25090		42.028862	15.132374	-108.107453
25091		42.018397	15.103053	-108.049346
25092		41.996800	15.070627	-107.985724
25093		41.933107	15.036184	-107.917762
25094		41.876138	14.998533	-107.850544
25095		41.854903	14.957936	-107.777356
25096		41.806598	14.924293	-107.706681
25097		41.750628	14.889266	-107.631796
25098		41.703739	14.862600	-107.550737
25099		41.681056	14.831235	-107.473883
25100		41.658568	14.803980	-107.393420
25101		41.670506	14.767914	-107.313034
25102		41.670140	14.732295	-107.230300
25103		41.636486	14.698651	-107.139760
25104		41.591022	14.669654	-107.048393
25105		41.543392	14.636870	-106.962169
25106		41.479908	14.612867	-106.880958
25107		41.442403	14.584281	-106.797287
25108		41.407429	14.555410	-106.710892
25109		41.366371	14.533241	-106.622211
25110		41.340470	14.518970	-106.531290
25111		41.325223	14.502765	-106.438179
25112		41.287156	14.497808	-106.343135
25113		41.258855	14.493910	-106.246818
25114		41.232776	14.497342	-106.153418
25115		41.221604	14.499945	-106.059797
25116		41.189294	14.502549	-105.966014
25117		41.114134	14.504323	-105.871239
25118		41.036253	14.503583	-105.774401
25119		40.994803	14.494135	-105.674818
25120		40.969871	14.475147	-105.572240
25121		40.934176	14.454663	-105.464109
25122		40.889303	14.433789	-105.353227
25123		40.835903	14.402975	-105.240238
25124		40.743173	14.381616	-105.120529
25125		40.657972	14.353897	-104.993553
25126		40.602507	14.322412	-104.863902
25127		40.567136	14.289126	-104.727771
25128		40.559185	14.258692	-104.586702
25129		40.571266	14.225145	-104.443366
25130		40.580917	14.189007	-104.293624
25131		40.544293	14.163535	-104.128576
25132		40.501481	14.139259	-103.961037
25133		40.478316	14.109075	-103.788418
25134		40.445758	14.081318	-103.608802
25135		40.436974	14.044619	-103.422233
25136		40.405962	14.005153	-103.227310
25137		40.365049	13.964419	-103.026999
25138		40.342469	13.916839	-102.817925
25139		40.344621	13.862937	-102.601416
25140		40.329160	13.810636	-102.378294
25141		40.284844	13.761958	-102.137762
25142		40.241504	13.712470	-101.896353
25143		40.190419	13.657221	-101.648335
25144		40.113140	13.609530	-101.393388
25145		40.047405	13.560908	-101.129786
25146		39.978764	13.517105	-100.864077
25147		39.924448	13.472219	-100.598425
25148		39.891569	13.433215	-100.321370
25149		39.872641	13.389081	-100.035597
25150		39.826134	13.348826	-99.741698
25151		39.756101	13.319231	-99.438956
25152		39.712306	13.286893	-99.140639
25153		39.681922	13.246441	-98.838482
25154		39.639506	13.215718	-98.524653
25155		39.599498	13.181269	-98.207093
25156		39.537687	13.156835	-97.875627
25157		39.453701	13.137179	-97.540676
25158		39.390372	13.113437	-97.214611
25159		39.350301	13.087626	-96.885205
25160		39.281430	13.075658	-96.544856
25161		39.227821	13.066702	-96.204062
25162		39.208566	13.059265	-95.861173
25163		39.154906	13.063736	-95.500863
25164		39.061032	13.074906	-95.139839
25165		38.966205	13.080629	-94.773519
25166		38.880121	13.089473	-94.396555
25167		38.828082	13.091712	-94.015190
25168		38.826830	13.093637	-93.629719
25169		38.817969	13.088768	-93.246470
25170		38.801156	13.080897	-92.872627
25171		38.792713	13.067882	-92.499739
25172		38.774455	13.067678	-92.106564
25173		38.813367	13.067159	-91.689315
25174		38.895624	13.063266	-91.256130
25175		38.993646	13.052076	-90.806827
25176		39.105556	13.038606	-90.350980
25177		39.228232	13.020540	-89.880081
25178		39.402725	13.002194	-89.402803
25179		39.615551	12.991488	-88.907464
25180		39.787577	13.005310	-88.389783
25181		39.894695	13.030318	-87.861598
25182		39.945624	13.050586	-87.342805
25183		39.954766	13.050205	-86.839890
25184		39.925244	13.053364	-86.343346
25185		39.882669	13.049703	-85.849698
25186		39.858449	13.048235	-85.360606
25187		39.822810	13.055187	-84.885059
25188		39.809840	13.067935	-84.433275
25189		39.797185	13.081227	-83.990617
25190		39.725073	13.122702	-83.530518
25191		39.664115	13.160812	-83.068874
25192		39.671207	13.188980	-82.601588
25193		39.722604	13.223959	-82.103759
25194		39.788158	13.258037	-81.587091
25195		39.864753	13.281415	-81.060847
25196		39.954445	13.294590	-80.540071
25197		40.054556	13.306000	-80.008342
25198		40.164016	13.321623	-79.467984
25199		40.298477	13.326440	-78.913688
25200		40.458295	13.334410	-78.335658
25201		40.668215	13.338027	-77.747028
25202		40.915594	13.331110	-77.155759
25203		41.122793	13.329705	-76.554512
25204		41.313801	13.321756	-75.953550
25205		41.528012	13.296670	-75.347310
25206		41.784403	13.267677	-74.733075
25207		42.081663	13.218915	-74.105755
25208		42.409183	13.164155	-73.450138
25209		42.768350	13.087646	-72.790817
25210		43.084866	12.990093	-72.126045
25211		43.295882	12.886829	-71.462658
25212		43.395033	12.782440	-70.798974
25213		43.404781	12.673088	-70.144969
25214		43.337103	12.565921	-69.488946
25215		43.219139	12.456686	-68.840391
25216		43.058461	12.343312	-68.206399
25217		42.809778	12.229957	-67.581846
25218		42.522431	12.128601	-66.961066
25219		42.221640	12.018698	-66.346221
25220		41.831913	11.911775	-65.724370
25221		41.336986	11.788592	-65.112320
25222		40.726780	11.658315	-64.477358
25223		39.944842	11.510281	-63.798437
25224		38.792053	11.381784	-63.030932
25225		37.450878	11.288067	-62.207031
25226		36.436768	11.133740	-61.390807
25227		35.729736	10.966843	-60.552208
25228		35.187706	10.798512	-59.727481
25229		34.754126	10.644612	-58.939461
25230		34.438299	10.510951	-58.187975
25231		34.233384	10.393277	-57.474838
25232		34.058975	10.300750	-56.779412
25233		33.871983	10.234014	-56.098928
25234		33.700075	10.181672	-55.412629
25235		33.599359	10.136796	-54.718465
25236		33.589698	10.084837	-54.015230
25237		33.531694	10.019623	-53.304285
25238		33.404171	9.948596	-52.580106
25239		33.180155	9.875578	-51.832346
25240		32.914620	9.816344	-51.051222
25241		32.727073	9.739905	-50.251853
25242		32.667462	9.658701	-49.420002
25243		32.769849	9.574816	-48.580971
25244		32.937141	9.484252	-47.751738
25245		33.038027	9.407379	-46.930728
25246		33.091015	9.349869	-46.117706
25247		33.162183	9.306414	-45.315042
25248		33.293440	9.266232	-44.520899
25249		33.429822	9.228967	-43.737281
25250		33.508747	9.200639	-42.953356
25251		33.483812	9.186953	-42.171238
25252		33.391987	9.189899	-41.383957
25253		33.294809	9.202742	-40.604544
25254		33.181893	9.204310	-39.836218
25255		32.961989	9.200235	-39.076334
25256		32.669569	9.193776	-38.329202
25257		32.315143	9.181662	-37.584282
25258		31.898573	9.189192	-36.813074
25259		31.599727	9.209985	-36.036212
25260		31.505367	9.235166	-35.247899
25261		31.591050	9.234259	-34.472300
25262		31.727044	9.216032	-33.717019
25263		31.777356	9.183218	-32.990450
25264		31.644107	9.158736	-32.258019
25265		31.385989	9.161844	-31.519501
25266		31.160508	9.164385	-30.779610
25267		31.125768	9.157855	-30.043258
25268		31.224995	9.134158	-29.315762
25269		31.342489	9.102980	-28.607980
25270		31.449857	9.075870	-27.914602
25271		31.532829	9.052736	-27.225641
25272		31.586397	9.045344	-26.532288
25273		31.562429	9.046229	-25.841734
25274		31.425859	9.054802	-25.147106
25275		31.262076	9.060582	-24.474042
25276		31.062223	9.056137	-23.808615
25277		30.811480	9.047732	-23.152473
25278		30.537962	9.025379	-22.511874
25279		30.199290	9.011635	-21.868067
25280		29.736494	9.026910	-21.198362
25281		29.280581	9.072939	-20.528688
25282		29.020955	9.102209	-19.877219
25283		28.935380	9.101255	-19.239786
25284		28.939421	9.076316	-18.619164
25285		28.984147	9.038804	-18.011015
25286		28.963804	9.018545	-17.396673
25287		28.771567	9.031794	-16.767116
25288		28.523722	9.067993	-16.123537
25289		28.357164	9.098099	-15.483584
25290		28.198686	9.123310	-14.845212
25291		27.954165	9.144110	-14.209071
25292		27.581555	9.170246	-13.585450
25293		27.100537	9.206737	-12.980037
25294		26.573415	9.242927	-12.389587
25295		25.943226	9.285642	-11.800750
25296		25.216940	9.353233	-11.188245
25297		24.601242	9.427171	-10.565902
25298		24.256854	9.476212	-9.932497
25299		24.159101	9.501499	-9.301228
25300		24.220730	9.499467	-8.684075
25301		24.312165	9.494627	-8.090838
25302		24.339585	9.499536	-7.522015
25303		24.316745	9.509552	-6.983030
25304		24.237219	9.531894	-6.468021
25305		24.212262	9.567671	-5.972975
25306		24.375152	9.595508	-5.500051
25307		24.702123	9.607812	-5.056022
25308		25.048562	9.610835	-4.651514
25309		25.338271	9.621218	-4.276118
25310		25.648857	9.631003	-3.922572
25311		25.949782	9.645127	-3.568517
25312		26.217265	9.661886	-3.216053
25313		26.422522	9.670038	-2.864178
25314		26.537351	9.671991	-2.509703
25315		26.546158	9.668096	-2.146899
25316		26.482984	9.661534	-1.777862
25317		26.358165	9.662300	-1.397943
25318		26.195272	9.676468	-1.009768
25319		25.980057	9.693095	-0.630468
25320		25.658527	9.709434	-0.270200
25321		25.212277	9.725366	0.063582
25322		24.700509	9.742916	0.383600
25323		24.232829	9.768120	0.697178
25324		23.890232	9.779808	0.995030
25325		23.553162	9.787453	1.273159
25326		23.183949	9.806646	1.531724
25327		22.824528	9.829782	1.776939
25328		22.455906	9.850675	2.019940
25329		22.058986	9.874607	2.272065
25330		21.682005	9.889493	2.532468
25331		21.343650	9.904437	2.802547
25332		21.112231	9.917847	3.076379
25333		21.001194	9.927947	3.340173
25334		20.904347	9.943285	3.582691
25335		20.808772	9.967137	3.808208
25336		20.741221	9.981505	4.011783
25337		20.629049	10.004531	4.202463
25338		20.505769	10.032962	4.389902
25339		20.451800	10.054245	4.575539
25340		20.470053	10.063287	4.749639
25341		20.480822	10.066371	4.910469
25342		20.454013	10.067570	5.046245
25343		20.364042	10.080931	5.171565
25344		20.273947	10.095556	5.298321
25345		20.142240	10.117902	5.418365
25346		19.923175	10.150349	5.524947
25347		19.664175	10.191884	5.629343
25348		19.470301	10.230041	5.719967
25349		19.300519	10.266444	5.789677
25350		19.107280	10.303835	5.847302
25351		18.962030	10.337914	5.877636
25352		18.894628	10.364317	5.898666
25353		18.897730	10.383304	5.926672
25354		18.950992	10.401180	5.959854
25355		19.004392	10.415141	5.989715
25356		18.981166	10.421852	6.016997
25357		18.925147	10.439528	6.046714
25358		18.855716	10.456545	6.069807
25359		18.772235	10.475051	6.094112
25360		18.727683	10.485147	6.115534
25361		18.652853	10.500870	6.133728
25362		18.549480	10.512099	6.148921
25363		18.451680	10.527270	6.158547
25364		18.383952	10.533783	6.159103
25365		18.304724	10.537615	6.149979
25366		18.201652	10.544522	6.129492
25367		18.132639	10.559061	6.105582
25368		18.151412	10.567350	6.073036
25369		18.199760	10.577944	6.037890
25370		18.259177	10.587075	5.994760
25371		18.286715	10.585259	5.945295
25372		18.279297	10.580786	5.893823
25373		18.273055	10.578500	5.846020
25374		18.279232	10.574205	5.802251
25375		18.322184	10.569971	5.768864
25376		18.415270	10.558064	5.736295
25377		18.493069	10.551327	5.697783
25378		18.545347	10.541734	5.652589
25379		18.569479	10.534932	5.607456
25380		18.591450	10.527869	5.559594
25381		18.588403	10.522649	5.514033
25382		18.583712	10.514054	5.466866
25383		18.576032	10.502124	5.424907
25384		18.575726	10.490947	5.387944
25385		18.590170	10.479492	5.348512
25386		18.568515	10.465643	5.306624
25387		18.491710	10.461330	5.266198
25388		18.428863	10.457073	5.225098
25389		18.400195	10.451493	5.187938
25390		18.390299	10.446799	5.149950
25391		18.422001	10.446531	5.112717
25392		18.493404	10.440795	5.074955
25393		18.561926	10.442299	5.036790
25394		18.633159	10.446165	4.996514
25395		18.683958	10.452134	4.956537
25396		18.691406	10.461642	4.909061
25397		18.676918	10.474084	4.862977
25398		18.667744	10.482895	4.820035
25399		18.652156	10.486399	4.780192
25400		18.621584	10.489035	4.738727
25401		18.595655	10.494373	4.697330
25402		18.588164	10.493549	4.659285
25403		18.595877	10.494842	4.627580
25404		18.604237	10.494349	4.597695
25405		18.611507	10.494222	4.568170
25406		18.627982	10.492522	4.537250
25407		18.629750	10.495839	4.510035
25408		18.629553	10.497256	4.482976
25409		18.646029	10.497919	4.459104
25410		18.661200	10.487183	4.433337
25411		18.659132	10.479645	4.407748
25412		18.649176	10.465672	4.384117
25413		18.635054	10.457660	4.361750
25414		18.615141	10.449984	4.335996
25415		18.603257	10.447743	4.313068
25416		18.619801	10.448016	4.281899
25417		18.632996	10.446912	4.248532
25418		18.620663	10.441895	4.208288
25419		18.595106	10.439200	4.160221
25420		18.601232	10.431637	4.109611
25421		18.611860	10.414788	4.059407
25422		18.600368	10.399873	4.009270
25423		18.573156	10.393401	3.955972
25424		18.530586	10.384296	3.897424
25425		18.490315	10.373664	3.830516
25426		18.513751	10.363008	3.752875
25427		18.534647	10.347803	3.669555
25428		18.536925	10.338305	3.567845
25429		18.530337	10.331784	3.454901
25430		18.543975	10.324330	3.334871
25431		18.559054	10.324310	3.212836
25432		18.559894	10.324561	3.087043
25433		18.568932	10.321959	2.963052
25434		18.597275	10.323804	2.835161
25435		18.595593	10.324322	2.707287
25436		18.578971	10.326696	2.580654
25437		18.574405	10.330545	2.457308
25438		18.591253	10.335075	2.329776
25439		18.649389	10.340097	2.206605
25440		18.748504	10.342333	2.081634
25441		18.853581	10.353575	1.949402
25442		18.939520	10.359336	1.807840
25443		19.032689	10.369197	1.654284
25444		19.095416	10.371199	1.492252
25445		19.093810	10.385517	1.331880
25446		19.103382	10.403655	1.177347
25447		19.127139	10.429477	1.034945
25448		19.192463	10.455602	0.893436
25449		19.303162	10.480456	0.763033
25450		19.426206	10.501061	0.620956
25451		19.507270	10.520196	0.471215
25452		19.582969	10.544383	0.303264
25453		19.624457	10.565317	0.117424
25454		19.636665	10.587767	-0.077345
25455		19.653684	10.614469	-0.275600
25456		19.707206	10.638803	-0.466849
25457		19.764536	10.659805	-0.651530
25458		19.812020	10.677928	-0.827476
25459		19.883735	10.698440	-1.001109
25460		19.968459	10.704343	-1.180812
25461		20.023157	10.708907	-1.372966
25462		20.035888	10.705721	-1.586274
25463		20.004976	10.710065	-1.809258
25464		19.979420	10.716424	-2.042756
25465		19.985319	10.729622	-2.279042
25466		20.040195	10.731903	-2.515126
25467		20.105446	10.734574	-2.753698
25468		20.172126	10.739509	-2.999250
25469		20.214299	10.741578	-3.251133
25470		20.261436	10.752042	-3.506109
25471		20.353444	10.757824	-3.771828
25472		20.436825	10.759314	-4.051486
25473		20.462537	10.752614	-4.342942
25474		20.528451	10.749045	-4.637480
25475		20.621549	10.747474	-4.929163
25476		20.696566	10.747165	-5.220322
25477		20.752030	10.748098	-5.507780
25478		20.812336	10.748398	-5.790474
25479		20.895300	10.747489	-6.073507
25480		20.992126	10.748330	-6.359167
25481		21.050351	10.748976	-6.642964
25482		21.097177	10.753824	-6.932759
25483		21.158454	10.751785	-7.228095
25484		21.204109	10.747407	-7.527494
25485		21.254423	10.747410	-7.827945
25486		21.335135	10.739247	-8.123427
25487		21.389088	10.725766	-8.418263
25488		21.456414	10.710649	-8.715378
25489		21.492710	10.698318	-9.017489
25490		21.472119	10.684225	-9.324057
25491		21.457643	10.675559	-9.641345
25492		21.441147	10.662045	-9.974252
25493		21.361724	10.655752	-10.312512
25494		21.306534	10.650963	-10.660806
25495		21.252232	10.645802	-11.008333
25496		21.214386	10.642571	-11.353921
25497		21.264487	10.634071	-11.696868
25498		21.366435	10.624467	-12.045893
25499		21.451819	10.617141	-12.397945
25500		21.570750	10.615911	-12.755859
25501		21.722688	10.614830	-13.110335
25502		21.925948	10.613193	-13.466721
25503		22.150241	10.607670	-13.830078
25504		22.401416	10.596147	-14.195998
25505		22.669214	10.580989	-14.574791
25506		22.905468	10.573164	-14.952535
25507		23.146779	10.571680	-15.336051
25508		23.427428	10.570819	-15.722085
25509		23.689347	10.571103	-16.103798
25510		23.925584	10.571471	-16.490459
25511		24.103849	10.572921	-16.882384
25512		24.184817	10.576527	-17.271022
25513		24.203325	10.593129	-17.654585
25514		24.202763	10.612090	-18.032918
25515		24.230843	10.627555	-18.408261
25516		24.272339	10.629501	-18.782655
25517		24.319004	10.634538	-19.167584
25518		24.404632	10.634971	-19.563254
25519		24.495810	10.639205	-19.967638
25520		24.641889	10.647382	-20.381002
25521		24.763604	10.653858	-20.807856
25522		24.809051	10.669895	-21.239623
25523		24.839980	10.690595	-21.671382
25524		24.889318	10.706956	-22.091509
25525		24.957510	10.722478	-22.500969
25526		25.088220	10.732374	-22.895963
25527		25.255541	10.733891	-23.289725
25528		25.371105	10.739033	-23.686524
25529		25.452726	10.744249	-24.088747
25530		25.577990	10.751876	-24.501212
25531		25.690075	10.768613	-24.920857
25532		25.742284	10.796233	-25.347042
25533		25.818955	10.823685	-25.785135
25534		25.936241	10.849997	-26.236023
25535		25.985522	10.886470	-26.702187
25536		25.982790	10.931284	-27.184542
25537		25.986942	10.987598	-27.673701
25538		26.028252	11.049681	-28.168870
25539		26.054139	11.111063	-28.662896
25540		26.096119	11.166956	-29.153950
25541		26.183193	11.212903	-29.657759
25542		26.244549	11.258721	-30.164176
25543		26.232709	11.303848	-30.673679
25544		26.246813	11.343907	-31.183836
25545		26.271168	11.372986	-31.696378
25546		26.243680	11.399982	-32.204019
25547		26.209146	11.424116	-32.702769
25548		26.240373	11.443323	-33.190725
25549		26.284360	11.459466	-33.665904
25550		26.392778	11.473202	-34.137973
25551		26.524539	11.480215	-34.617866
25552		26.593749	11.498588	-35.109297
25553		26.611875	11.514661	-35.620880
25554		26.627566	11.532322	-36.138945
25555		26.588726	11.549286	-36.660854
25556		26.521725	11.568743	-37.177891
25557		26.513276	11.580776	-37.689282
25558		26.574497	11.580878	-38.188575
25559		26.693885	11.571581	-38.695249
25560		26.819603	11.563275	-39.211810
25561		26.906537	11.554545	-39.754131
25562		26.986139	11.547514	-40.315013
25563		27.022373	11.553285	-40.888555
25564		27.075483	11.563742	-41.460253
25565		27.195258	11.561393	-42.025634
25566		27.382225	11.550664	-42.572475
25567		27.629681	11.525372	-43.114200
25568		27.919575	11.493039	-43.648557
25569		28.200665	11.460852	-44.178472
25570		28.483585	11.440001	-44.700503
25571		28.741813	11.425998	-45.219614
25572		28.976477	11.421341	-45.730449
25573		29.188145	11.408217	-46.236095
25574		29.369954	11.395186	-46.730850
25575		29.522427	11.378838	-47.223934
25576		29.604725	11.364438	-47.701128
25577		29.667157	11.357656	-48.182989
25578		29.703709	11.350497	-48.667318
25579		29.676359	11.354878	-49.162605
25580		29.573152	11.365054	-49.655385
25581		29.466673	11.381186	-50.151214
25582		29.415879	11.391707	-50.649766
25583		29.422048	11.404215	-51.142284
25584		29.493688	11.410610	-51.638065
25585		29.640215	11.408113	-52.154452
25586		29.765008	11.417538	-52.670828
25587		29.857283	11.435027	-53.200329
25588		29.946180	11.449979	-53.726518
25589		30.012654	11.470716	-54.250509
25590		30.114470	11.483771	-54.786646
25591		30.160442	11.505871	-55.319496
25592		30.052231	11.531654	-55.850892
25593		29.843275	11.550078	-56.372609
25594		29.638518	11.572476	-56.865032
25595		29.438148	11.588028	-57.326853
25596		29.311152	11.595037	-57.762696
25597		29.369816	11.578129	-58.190481
25598		29.583808	11.549499	-58.623601
25599		29.777078	11.539573	-59.068515
25600		29.894587	11.545091	-59.530809
25601		29.955050	11.559187	-60.014671
25602		29.952181	11.583297	-60.493860
25603		29.892944	11.597978	-60.974864
25604		29.810812	11.616540	-61.435617
25605		29.765699	11.642432	-61.881137
25606		29.871054	11.667608	-62.319612
25607		30.018068	11.716903	-62.748695
25608		30.085737	11.780861	-63.197484
25609		30.021821	11.873197	-63.661199
25610		29.910049	11.973558	-64.122447
25611		29.820603	12.061412	-64.570239
25612		29.761584	12.137594	-64.977089
25613		29.782632	12.201965	-65.344418
25614		29.984434	12.246645	-65.684958
25615		30.307033	12.269782	-66.017376
25616		30.558322	12.290890	-66.355950
25617		30.656562	12.323115	-66.704686
25618		30.770426	12.361084	-67.061112
25619		30.999316	12.392203	-67.432423
25620		31.307716	12.436932	-67.811064
25621		31.616665	12.499817	-68.204717
25622		31.916773	12.586012	-68.620676
25623		32.160170	12.699364	-69.062176
25624		32.319656	12.820991	-69.529985
25625		32.405966	12.950401	-70.014331
25626		32.480047	13.090252	-70.479146
25627		32.606379	13.222721	-70.921649
25628		32.824084	13.347235	-71.337668
25629		33.134710	13.445899	-71.744886
25630		33.497613	13.522106	-72.144499
25631		33.822648	13.588133	-72.545762
25632		34.032520	13.661733	-72.917611
25633		34.135509	13.738247	-73.264968
25634		34.187368	13.801695	-73.593052
25635		34.220444	13.854288	-73.899665
25636		34.274369	13.899295	-74.183204
25637		34.339958	13.938702	-74.453951
25638		34.381871	13.983641	-74.724135
25639		34.411770	14.037571	-75.015275
25640		34.408807	14.108335	-75.313586
25641		34.356047	14.188301	-75.632740
25642		34.263861	14.280146	-75.956565
25643		34.168256	14.369779	-76.274855
25644		34.110565	14.452486	-76.595469
25645		34.141705	14.530204	-76.926281
25646		34.298865	14.603439	-77.272574
25647		34.608079	14.670460	-77.642933
25648		34.947846	14.732126	-78.023531
25649		35.127881	14.808593	-78.403010
25650		35.192318	14.885609	-78.783035
25651		35.235574	14.951393	-79.158756
25652		35.223808	15.012681	-79.527426
25653		35.206708	15.078849	-79.893495
25654		35.251329	15.139998	-80.248297
25655		35.283406	15.191152	-80.597602
25656		35.298056	15.253013	-80.943855
25657		35.333216	15.306910	-81.292984
25658		35.398818	15.358045	-81.628147
25659		35.482500	15.390180	-81.974002
25660		35.576563	15.413369	-82.332790
25661		35.724948	15.436107	-82.695223
25662		35.887421	15.452009	-83.053717
25663		35.963851	15.474121	-83.418350
25664		35.906727	15.486506	-83.789972
25665		35.758971	15.493527	-84.156863
25666		35.623376	15.484858	-84.517723
25667		35.549378	15.451403	-84.868333
25668		35.475480	15.416186	-85.204837
25669		35.432435	15.385039	-85.538030
25670		35.450950	15.347801	-85.873004
25671		35.475941	15.301515	-86.215536
25672		35.469839	15.261783	-86.555385
25673		35.453742	15.226822	-86.898002
25674		35.438989	15.192221	-87.255561
25675		35.468026	15.161598	-87.614540
25676		35.509650	15.141272	-87.971420
25677		35.471615	15.140910	-88.317827
25678		35.368168	15.144187	-88.667296
25679		35.259074	15.145992	-89.022230
25680		35.196043	15.143382	-89.376507
25681		35.176170	15.141509	-89.722025
25682		35.209940	15.134434	-90.059752
25683		35.275541	15.125365	-90.381797
25684		35.322060	15.124264	-90.698046
25685		35.342212	15.129742	-91.021185
25686		35.377130	15.146971	-91.341376
25687		35.462312	15.150170	-91.663743
25688		35.585917	15.144808	-91.982429
25689		35.735952	15.133755	-92.280542
25690		35.903772	15.132556	-92.562328
25691		36.080975	15.142698	-92.841790
25692		36.242590	15.155319	-93.131039
25693		36.336510	15.183238	-93.407190
25694		36.401050	15.217651	-93.678403
25695		36.493019	15.241666	-93.953200
25696		36.612460	15.274179	-94.221167
25697		36.756854	15.306005	-94.483345
25698		36.916193	15.327913	-94.740444
25699		37.054793	15.362557	-94.974621
25700		37.195206	15.412752	-95.190651
25701		37.318641	15.463538	-95.387844
25702		37.423993	15.511810	-95.573680
25703		37.507012	15.553962	-95.750437
25704		37.593310	15.587942	-95.933301
25705		37.663781	15.608561	-96.111384
25706		37.701085	15.617882	-96.293995
25707		37.718424	15.605003	-96.482472
25708		37.726915	15.598415	-96.665122
25709		37.773108	15.582512	-96.849311
25710		37.825697	15.554361	-97.032000
25711		37.806503	15.525025	-97.209288
25712		37.756460	15.508298	-97.382025
25713		37.754853	15.494886	-97.557385
25714		37.813657	15.482433	-97.725084
25715		37.854358	15.476028	-97.890553
25716		37.860965	15.479238	-98.065621
25717		37.880668	15.479114	-98.247523
25718		37.945353	15.477446	-98.430687
25719		38.020059	15.483412	-98.610077
25720		38.059245	15.506398	-98.778928
25721		38.031573	15.544077	-98.949702
25722		38.013560	15.589869	-99.135978
25723		38.085490	15.616731	-99.316788
25724		38.195451	15.634157	-99.488369
25725		38.282386	15.659410	-99.645937
25726		38.384784	15.685041	-99.794500
25727		38.482743	15.705852	-99.932134
25728		38.564276	15.730281	-100.067164
25729		38.633281	15.748333	-100.197801
25730		38.675626	15.766371	-100.324007
25731		38.692625	15.792728	-100.429436
25732		38.712243	15.818034	-100.512434
25733		38.700289	15.842763	-100.576989
25734		38.646973	15.882184	-100.634528
25735		38.631272	15.918552	-100.699614
25736		38.673681	15.935530	-100.772230
25737		38.668249	15.959192	-100.832973
25738		38.644878	15.989213	-100.889235
25739		38.639546	16.015035	-100.940688
25740		38.624808	16.050072	-100.985936
25741		38.614865	16.083120	-101.030260
25742		38.622439	16.115759	-101.073977
25743		38.631773	16.143576	-101.121933
25744		38.639300	16.175428	-101.175947
25745		38.647524	16.201514	-101.228459
25746		38.668323	16.228894	-101.268493
25747		38.740390	16.247645	-101.300858
25748		38.812358	16.272885	-101.317196
25749		38.906891	16.302927	-101.327751
25750		39.074260	16.316188	-101.355527
25751		39.227641	16.324531	-101.392479
25752		39.275451	16.340770	-101.425028
25753		39.286485	16.352562	-101.444872
25754		39.317276	16.358794	-101.440256
25755		39.396920	16.361516	-101.406976
25756		39.514695	16.357910	-101.337645
25757		39.629626	16.349131	-101.218706
25758		39.749107	16.342328	-101.079688
25759		39.865441	16.331041	-100.961707
25760		39.891198	16.349473	-100.884318
25761		39.843195	16.370086	-100.847803
25762		39.623093	16.391746	-100.842844
25763		39.176684	16.443863	-100.854975
25764		38.685393	16.498249	-100.876853
25765		38.299229	16.541084	-100.895013
25766		38.134556	16.568914	-100.925631
25767		38.150436	16.593226	-100.965597
25768		38.218619	16.629211	-101.012747
25769		38.359575	16.651015	-101.076967
25770		38.565854	16.664159	-101.153702
25771		38.768763	16.683222	-101.228731
25772		38.986581	16.695614	-101.299416
25773		39.263086	16.688283	-101.366013
25774		39.499604	16.682052	-101.426628
25775		39.619120	16.692650	-101.483845
25776		39.639014	16.710444	-101.554608
25777		39.585470	16.737370	-101.641559
25778		39.548435	16.758905	-101.739939
25779		39.568110	16.761810	-101.831555
25780		39.557446	16.768582	-101.910476
25781		39.541855	16.778658	-101.978707
25782		39.557967	16.791371	-102.037787
25783		39.611509	16.795587	-102.085096
25784		39.630505	16.809522	-102.123730
25785		39.559257	16.834758	-102.163049
25786		39.492559	16.859100	-102.205956
25787		39.480359	16.879151	-102.253144
25788		39.454102	16.905098	-102.292770
25789		39.360370	16.932938	-102.331919
25790		39.151779	16.973310	-102.375099
25791		38.860725	17.025394	-102.418417
25792		38.559137	17.076407	-102.477858
25793		38.358699	17.101711	-102.552650
25794		38.248172	17.117259	-102.625017
25795		38.181418	17.132041	-102.696240
25796		38.167458	17.147439	-102.773021
25797		38.214506	17.157163	-102.839215
25798		38.271757	17.165668	-102.900947
25799		38.284584	17.171181	-102.970047
25800		38.242898	17.182660	-103.033283
25801		38.217817	17.194627	-103.092547
25802		38.232425	17.189992	-103.152050
25803		38.260433	17.184413	-103.218985
25804		38.253781	17.183497	-103.284112
25805		38.195336	17.190909	-103.348088
25806		38.090988	17.209015	-103.416714
25807		37.966996	17.225912	-103.487908
25808		37.803686	17.247701	-103.567224
25809		37.660808	17.262985	-103.653105
25810		37.603605	17.266173	-103.735451
25811		37.572489	17.272812	-103.808526
25812		37.559499	17.278667	-103.879686
25813		37.565349	17.280019	-103.942135
25814		37.577845	17.283821	-103.992789
25815		37.612700	17.284346	-104.034582
25816		37.657712	17.284528	-104.074940
25817		37.662356	17.282658	-104.113144
25818		37.619761	17.291689	-104.156563
25819		37.567550	17.300699	-104.207542
25820		37.520995	17.298475	-104.261010
25821		37.483012	17.292678	-104.301762
25822		37.481905	17.289797	-104.330212
25823		37.479244	17.294936	-104.359152
25824		37.506941	17.310053	-104.381766
25825		37.539033	17.309171	-104.411110
25826		37.510168	17.314124	-104.435820
25827		37.507371	17.321390	-104.455395
25828		37.607596	17.312599	-104.480400
25829		37.724832	17.297723	-104.499484
25830		37.794470	17.286779	-104.509684
25831		37.774521	17.289089	-104.520442
25832		37.734060	17.291845	-104.523005
25833		37.700586	17.288241	-104.515519
25834		37.634436	17.294513	-104.504450
25835		37.550656	17.303077	-104.497210
25836		37.504709	17.310794	-104.489997
25837		37.481983	17.301649	-104.488643
25838		37.412361	17.307538	-104.480896
25839		37.355624	17.320142	-104.469020
25840		37.349722	17.322410	-104.454237
25841		37.354071	17.322395	-104.428172
25842		37.371299	17.326986	-104.394375
25843		37.400212	17.327472	-104.356155
25844		37.386418	17.332655	-104.325171
25845		37.353078	17.339676	-104.301798
25846		37.320323	17.342626	-104.287453
25847		37.293519	17.340118	-104.274769
25848		37.261629	17.335264	-104.266645
25849		37.267601	17.324760	-104.257082
25850		37.328223	17.307414	-104.238946
25851		37.384946	17.281121	-104.216415
25852		37.404128	17.260182	-104.184984
25853		37.401745	17.238131	-104.149431
25854		37.376666	17.225491	-104.116549
25855		37.346176	17.215284	-104.090812
25856		37.317651	17.197499	-104.073743
25857		37.254475	17.182197	-104.058836
25858		37.180991	17.179249	-104.046571
25859		37.175416	17.165574	-104.027284
25860		37.222468	17.148890	-104.004218
25861		37.283093	17.134190	-103.969782
25862		37.349685	17.123840	-103.931925
25863		37.391757	17.117793	-103.893911
25864		37.384990	17.123508	-103.858617
25865		37.381023	17.122081	-103.831215
25866		37.343140	17.120140	-103.805267
25867		37.295361	17.123273	-103.768178
25868		37.298724	17.127811	-103.717250
25869		37.343086	17.134075	-103.650162
25870		37.407676	17.135938	-103.572225
25871		37.459282	17.132620	-103.485578
25872		37.443164	17.146411	-103.389065
25873		37.388058	17.157552	-103.289181
25874		37.331800	17.158393	-103.184638
25875		37.315957	17.154457	-103.075666
25876		37.312607	17.152482	-102.967541
25877		37.306995	17.140266	-102.859878
25878		37.304843	17.123134	-102.753011
25879		37.306225	17.102137	-102.638209
25880		37.323324	17.079268	-102.517163
25881		37.375668	17.044916	-102.379191
25882		37.444997	17.006401	-102.230607
25883		37.522918	16.967523	-102.076568
25884		37.597427	16.927550	-101.921539
25885		37.608819	16.895871	-101.764416
25886		37.613736	16.874209	-101.605848
25887		37.640140	16.854759	-101.451018
25888		37.684604	16.843943	-101.300006
25889		37.751718	16.822473	-101.141511
25890		37.756859	16.805747	-100.964802
25891		37.568034	16.834586	-100.737334
25892		37.334098	16.880678	-100.483551
25893		37.196760	16.921608	-100.227218
25894		37.072821	16.977544	-99.955249
25895		36.967549	17.035254	-99.677185
25896		36.852946	17.097756	-99.397290
25897		36.671063	17.165679	-99.114392
25898		36.493044	17.234487	-98.820614
25899		36.339316	17.304903	-98.496931
25900		36.199170	17.381805	-98.156187
25901		36.069635	17.462928	-97.803256
25902		35.997369	17.532930	-97.456848
25903		35.968684	17.586870	-97.115113
25904		35.957004	17.654860	-96.784654
25905		36.019370	17.717100	-96.453062
25906		36.058296	17.781723	-96.112556
25907		35.907621	17.876543	-95.753613
25908		35.690610	17.981580	-95.401984
25909		35.508970	18.046012	-95.054217
25910		35.335801	18.113021	-94.700312
25911		35.218839	18.170603	-94.340408
25912		35.198375	18.209701	-93.976189
25913		35.199257	18.245067	-93.604804
25914		35.198703	18.292532	-93.210427
25915		35.208959	18.351354	-92.785044
25916		35.236093	18.402986	-92.356129
25917		35.260312	18.456544	-91.909197
25918		35.236539	18.500563	-91.459667
25919		35.094360	18.569374	-90.977137
25920		34.931615	18.648131	-90.494925
25921		34.850880	18.714741	-90.002440
25922		34.899964	18.790333	-89.498734
25923		35.123724	18.850284	-88.991038
25924		35.482703	18.902138	-88.474536
25925		35.886027	18.960049	-87.941143
25926		36.295802	19.017534	-87.378827
25927		36.663879	19.095437	-86.767196
25928		37.006726	19.166601	-86.160994
25929		37.376423	19.214784	-85.558988
25930		37.699175	19.269410	-84.939999
25931		37.883285	19.316681	-84.322227
25932		37.939982	19.376226	-83.711854
25933		37.914681	19.441952	-83.102433
25934		37.831671	19.501075	-82.498802
25935		37.704135	19.560744	-81.890162
25936		37.591206	19.623412	-81.285943
25937		37.614262	19.662885	-80.694842
25938		37.778431	19.690257	-80.111856
25939		37.986493	19.709522	-79.520817
25940		38.210887	19.733549	-78.927949
25941		38.454275	19.767173	-78.328688
25942		38.732407	19.807817	-77.721199
25943		39.003100	19.854309	-77.102835
25944		39.221886	19.887258	-76.502957
25945		39.392937	19.908861	-75.909452
25946		39.527628	19.935602	-75.320301
25947		39.632636	19.954017	-74.732195
25948		39.700886	19.975113	-74.145906
25949		39.724974	20.015644	-73.541992
25950		39.759761	20.068078	-72.919621
25951		39.806920	20.115759	-72.293974
25952		39.828171	20.168064	-71.650881
25953		39.851368	20.207452	-71.016010
25954		39.864696	20.246353	-70.379054
25955		39.898186	20.287555	-69.736676
25956		40.003934	20.324026	-69.092807
25957		40.106522	20.351716	-68.455861
25958		40.129892	20.388952	-67.812775
25959		40.070254	20.432228	-67.155925
25960		40.021268	20.472936	-66.486101
25961		40.027325	20.497482	-65.806949
25962		40.059293	20.519377	-65.111940
25963		40.061681	20.545467	-64.415871
25964		40.069173	20.565873	-63.722559
25965		40.081331	20.572546	-63.034538
25966		40.050020	20.588716	-62.332862
25967		39.976672	20.616725	-61.622117
25968		39.920302	20.641841	-60.916837
25969		39.904070	20.631728	-60.242814
25970		39.877722	20.615039	-59.558225
25971		39.852294	20.591442	-58.881285
25972		39.825925	20.560725	-58.209289
25973		39.767393	20.523602	-57.539468
25974		39.725198	20.491054	-56.855075
25975		39.773826	20.446112	-56.176559
25976		39.886821	20.394190	-55.497855
25977		40.041065	20.340244	-54.816086
25978		40.216853	20.289685	-54.137410
25979		40.378196	20.236035	-53.466544
25980		40.519331	20.183091	-52.784657
25981		40.666333	20.127524	-52.096817
25982		40.825053	20.066963	-51.400336
25983		40.999140	20.000415	-50.701522
25984		41.137700	19.935738	-50.003725
25985		41.186653	19.872215	-49.316536
25986		41.125360	19.810387	-48.631303
25987		40.912904	19.759344	-47.939271
25988		40.486778	19.721404	-47.214363
25989		39.995596	19.685837	-46.474027
25990		39.535232	19.648424	-45.714057
25991		39.078882	19.605825	-44.953026
25992		38.635173	19.552490	-44.207432
25993		38.176978	19.468120	-43.492357
25994		37.633698	19.395006	-42.768963
25995		37.024777	19.350162	-42.032465
25996		36.459850	19.325276	-41.288295
25997		36.036924	19.294006	-40.545086
25998		35.808262	19.234485	-39.819115
25999		35.695278	19.158171	-39.103259
26000		35.610707	19.079010	-38.396835
26001		35.512457	18.997414	-37.687400
26002		35.336352	18.948110	-36.948236
26003		35.257538	18.901115	-36.217644
26004		35.312367	18.839499	-35.489875
26005		35.389886	18.768506	-34.774274
26006		35.485891	18.696548	-34.070347
26007		35.625858	18.617851	-33.379722
26008		35.754937	18.533732	-32.683314
26009		35.818950	18.476995	-31.954961
26010		35.890481	18.436338	-31.211161
26011		36.072689	18.378935	-30.487552
26012		36.266976	18.301709	-29.782177
26013		36.315405	18.229483	-29.096868
26014		36.267706	18.153532	-28.420835
26015		36.222924	18.078577	-27.755334
26016		36.099422	18.021426	-27.062263
26017		35.919949	17.974931	-26.349885
26018		35.779714	17.929315	-25.639262
26019		35.666635	17.872159	-24.945754
26020		35.462914	17.811212	-24.264675
26021		35.136909	17.756468	-23.597782
26022		34.744466	17.707073	-22.934643
26023		34.302945	17.661019	-22.260827
26024		33.866399	17.630617	-21.566787
26025		33.486401	17.603292	-20.866294
26026		33.147879	17.578309	-20.158649
26027		32.841218	17.532130	-19.459464
26028		32.517331	17.483269	-18.761611
26029		32.186454	17.434430	-18.074221
26030		31.858732	17.390480	-17.377218
26031		31.552800	17.357323	-16.666928
26032		31.335304	17.322922	-15.957531
26033		31.112091	17.287568	-15.238708
26034		30.956516	17.245062	-14.527941
26035		30.883513	17.179767	-13.833315
26036		30.758420	17.119571	-13.142107
26037		30.577247	17.059902	-12.470401
26038		30.291526	17.000722	-11.814814
26039		29.838490	16.971812	-11.157041
26040		29.362194	16.951218	-10.499526
26041		28.922505	16.928652	-9.828199
26042		28.524791	16.905295	-9.151230
26043		28.239118	16.858975	-8.486124
26044		28.026254	16.788460	-7.836341
26045		27.806702	16.708350	-7.201330
26046		27.584544	16.628531	-6.583784
26047		27.366528	16.559838	-5.979320
26048		27.123704	16.512423	-5.367471
26049		26.896409	16.483229	-4.749051
26050		26.693262	16.459662	-4.120820
26051		26.571015	16.431580	-3.500780
26052		26.516766	16.384978	-2.900478
26053		26.345102	16.330411	-2.318940
26054		26.007470	16.284208	-1.753953
26055		25.613987	16.233175	-1.214209
26056		25.195356	16.166975	-0.702961
26057		24.772264	16.106182	-0.197108
26058		24.403637	16.050385	0.308458
26059		24.151612	15.983740	0.802541
26060		23.935136	15.917135	1.289913
26061		23.738215	15.844947	1.748386
26062		23.595919	15.765597	2.164770
26063		23.503050	15.689904	2.547141
26064		23.475415	15.620361	2.902282
26065		23.536739	15.557158	3.241953
26066		23.664157	15.495542	3.558560
26067		23.818991	15.443121	3.868504
26068		23.997178	15.398946	4.171535
26069		24.205585	15.356124	4.463319
26070		24.376765	15.301631	4.746676
26071		24.480001	15.258097	5.028601
26072		24.532602	15.218797	5.298663
26073		24.528119	15.187559	5.568608
26074		24.474804	15.161449	5.842199
26075		24.440302	15.134270	6.138331
26076		24.471496	15.101277	6.444177
26077		24.537042	15.060340	6.763880
26078		24.620499	15.017438	7.094092
26079		24.723323	14.979712	7.424417
26080		24.767666	14.941018	7.746602
26081		24.751251	14.915279	8.059614
26082		24.702471	14.890494	8.359567
26083		24.552843	14.869520	8.649380
26084		24.326431	14.853845	8.923344
26085		24.122863	14.838851	9.178487
26086		23.961743	14.816374	9.412156
26087		23.786492	14.802551	9.631181
26088		23.609556	14.796559	9.829775
26089		23.423878	14.792623	10.016069
26090		23.252100	14.778506	10.189607
26091		23.128489	14.763662	10.341590
26092		22.985314	14.742434	10.466406
26093		22.795380	14.731796	10.563560
26094		22.580177	14.720171	10.626630
26095		22.280343	14.725681	10.669447
26096		21.944141	14.756362	10.691335
26097		21.665272	14.806029	10.699888
26098		21.426211	14.876550	10.697886
26099		21.201899	14.968148	10.683820
26100		21.052060	15.075267	10.655627
26101		20.980274	15.186444	10.613520
26102		20.931124	15.295389	10.554063
26103		20.864737	15.402291	10.487412
26104		20.810181	15.504570	10.410683
26105		20.779266	15.603494	10.336148
26106		20.772545	15.684788	10.263902
26107		20.764819	15.750991	10.199670
26108		20.759045	15.799306	10.139144
26109		20.742486	15.841674	10.089224
26110		20.748231	15.873589	10.055383
26111		20.766501	15.893610	10.033330
26112		20.767693	15.909675	10.013755
26113		20.739622	15.918820	9.997226
26114		20.702380	15.920460	9.975463
26115		20.624900	15.918095	9.943749
26116		20.500404	15.913750	9.904140
26117		20.378600	15.916134	9.862173
26118		20.278096	15.923673	9.812332
26119		20.159690	15.933829	9.765237
26120		20.047274	15.939123	9.721494
26121		19.990363	15.934545	9.685426
26122		19.993939	15.918386	9.656073
26123		20.040969	15.886642	9.634808
26124		20.105324	15.850071	9.615538
26125		20.170508	15.806958	9.600623
26126		20.224995	15.763835	9.589666
26127		20.254728	15.727372	9.586646
26128		20.270088	15.688534	9.583131
26129		20.273501	15.650074	9.577961
26130		20.233874	15.614575	9.568894
26131		20.154986	15.580860	9.556820
26132		20.086747	15.544192	9.542301
26133		20.022709	15.506879	9.527633
26134		19.974884	15.471795	9.509536
26135		19.961725	15.434011	9.492863
26136		19.961267	15.394585	9.467496
26137		19.944579	15.358449	9.444034
26138		19.955985	15.325248	9.408914
26139		19.962347	15.294577	9.368994
26140		19.912807	15.269072	9.316249
26141		19.860185	15.250402	9.259880
26142		19.848965	15.227676	9.194208
26143		19.829128	15.207862	9.122093
26144		19.802015	15.186731	9.045032
26145		19.778983	15.164249	8.956298
26146		19.753381	15.136510	8.857170
26147		19.726991	15.111260	8.757625
26148		19.745340	15.082053	8.646900
26149		19.766059	15.049254	8.537216
26150		19.795882	15.016143	8.425439
26151		19.826872	14.976890	8.317522
26152		19.836529	14.936781	8.215502
26153		19.843679	14.898000	8.115211
26154		19.852552	14.852972	8.011985
26155		19.820249	14.806934	7.909855
26156		19.780058	14.761525	7.811446
26157		19.794227	14.714556	7.711834
26158		19.823327	14.670648	7.611062
26159		19.852241	14.623948	7.506301
26160		19.906313	14.577278	7.389215
26161		19.973497	14.530843	7.251839
26162		20.021347	14.479859	7.101699
26163		20.043796	14.440965	6.940797
26164		20.095149	14.401697	6.769250
26165		20.180159	14.359513	6.596183
26166		20.208481	14.320050	6.414947
26167		20.134586	14.283485	6.240664
26168		20.072229	14.228626	6.068494
26169		19.982138	14.161613	5.898648
26170		19.762101	14.096853	5.737497
26171		19.466288	14.030391	5.586279
26172		19.247310	13.957645	5.447174
26173		19.101085	13.884644	5.318008
26174		18.998125	13.810978	5.195347
26175		18.962045	13.736365	5.079865
26176		19.014666	13.662543	4.964802
26177		19.140590	13.595501	4.846696
26178		19.335560	13.530151	4.712735
26179		19.591237	13.468875	4.568501
26180		19.860344	13.413232	4.409880
26181		20.109423	13.367738	4.235074
26182		20.353202	13.326511	4.046751
26183		20.582044	13.290208	3.843118
26184		20.742141	13.260777	3.629612
26185		20.862820	13.224654	3.415384
26186		20.961809	13.188935	3.205689
26187		20.975772	13.151604	2.989324
26188		20.952497	13.117509	2.776199
26189		20.917429	13.082135	2.563968
26190		20.854824	13.047094	2.342834
26191		20.731134	13.010915	2.107655
26192		20.518964	12.976449	1.854934
26193		20.183923	12.962034	1.587276
26194		19.802183	12.954277	1.305983
26195		19.398641	12.953794	1.006926
26196		18.912321	12.961066	0.700093
26197		18.349406	12.979529	0.389082
26198		17.805592	13.010196	0.083756
26199		17.368605	13.044179	-0.202492
26200		17.136227	13.072563	-0.468624
26201		17.091739	13.093671	-0.712314
26202		17.204783	13.107154	-0.944994
26203		17.447040	13.106815	-1.180103
26204		17.713862	13.104674	-1.425728
26205		17.939977	13.096782	-1.678501
26206		18.228744	13.088588	-1.949937
26207		18.545839	13.072647	-2.258090
26208		18.730794	13.061828	-2.589052
26209		18.807887	13.074456	-2.931369
26210		18.928527	13.095583	-3.283996
26211		19.036054	13.112519	-3.633623
26212		19.111091	13.130907	-3.979774
26213		19.192323	13.146071	-4.320558
26214		19.278261	13.159623	-4.660857
26215		19.359554	13.167287	-5.009394
26216		19.399948	13.163472	-5.373059
26217		19.383477	13.164175	-5.744681
26218		19.332176	13.174831	-6.123925
26219		19.254119	13.186949	-6.507753
26220		19.136420	13.200485	-6.892048
26221		19.024212	13.211417	-7.281708
26222		18.906347	13.216716	-7.676196
26223		18.741594	13.220837	-8.078571
26224		18.552969	13.232742	-8.492385
26225		18.367175	13.248159	-8.917354
26226		18.185940	13.257177	-9.344911
26227		18.068172	13.273669	-9.765868
26228		18.088158	13.282779	-10.171180
26229		18.204227	13.277850	-10.561120
26230		18.378023	13.272563	-10.939078
26231		18.584029	13.269964	-11.319299
26232		18.773215	13.260595	-11.705498
26233		18.918300	13.255032	-12.096803
26234		19.043753	13.251774	-12.504418
26235		19.119373	13.245978	-12.927904
26236		19.154298	13.243078	-13.354689
26237		19.234872	13.242819	-13.777336
26238		19.358536	13.238954	-14.194875
26239		19.488465	13.231783	-14.604830
26240		19.631464	13.220807	-15.010722
26241		19.771444	13.211077	-15.425154
26242		19.864728	13.196011	-15.847249
26243		19.925080	13.188494	-16.283260
26244		19.957918	13.179658	-16.720195
26245		19.995088	13.179248	-17.152981
26246		20.059597	13.184151	-17.573774
26247		20.185476	13.187035	-17.992288
26248		20.359139	13.183869	-18.407765
26249		20.461660	13.186067	-18.828249
26250		20.512280	13.188378	-19.258003
26251		20.537682	13.192328	-19.693647
26252		20.542305	13.208026	-20.136447
26253		20.565496	13.220979	-20.587192
26254		20.629768	13.236388	-21.043882
26255		20.726687	13.246782	-21.510136
26256		20.853083	13.256136	-21.983213
26257		21.014630	13.260621	-22.467713
26258		21.218247	13.266913	-22.952651
26259		21.444344	13.286295	-23.441641
26260		21.679307	13.312288	-23.946936
26261		21.888721	13.330051	-24.466683
26262		22.027481	13.348087	-24.988671
26263		22.126088	13.370930	-25.510881
26264		22.259781	13.387435	-26.020455
26265		22.429800	13.397765	-26.516404
26266		22.663803	13.396828	-27.004965
26267		22.909574	13.391142	-27.492791
26268		23.114593	13.380832	-27.983457
26269		23.255878	13.370510	-28.477411
26270		23.376574	13.362886	-28.974974
26271		23.499022	13.356793	-29.469568
26272		23.628241	13.344686	-29.959625
26273		23.754752	13.331368	-30.456696
26274		23.892621	13.313585	-30.962214
26275		23.967782	13.302515	-31.479320
26276		24.002013	13.299203	-32.007729
26277		24.006006	13.297324	-32.549070
26278		23.980135	13.296938	-33.099818
26279		23.918077	13.298337	-33.665363
26280		23.847799	13.299070	-34.245900
26281		23.800326	13.289440	-34.858368
26282		23.783131	13.255655	-35.524118
26283		23.721450	13.200160	-36.237321
26284		23.547138	13.149737	-36.964986
26285		23.327750	13.107424	-37.668955
26286		23.161108	13.081604	-38.325384
26287		23.076689	13.057473	-38.935090
26288		23.106383	13.032368	-39.500719
26289		23.311840	12.999825	-40.043869
26290		23.652792	12.952645	-40.572772
26291		23.932155	12.905937	-41.102670
26292		24.050381	12.862420	-41.646585
26293		24.042849	12.832400	-42.210665
26294		24.037224	12.807022	-42.786482
26295		24.051830	12.784053	-43.366908
26296		24.069538	12.767825	-43.950451
26297		24.116883	12.757983	-44.525844
26298		24.287119	12.743923	-45.101252
26299		24.501388	12.722392	-45.685375
26300		24.678650	12.697092	-46.281350
26301		24.799403	12.664852	-46.891559
26302		24.919300	12.621821	-47.507340
26303		25.009821	12.583926	-48.122321
26304		25.087418	12.551065	-48.738143
26305		25.234009	12.504362	-49.362316
26306		25.358163	12.454334	-49.996651
26307		25.411360	12.409618	-50.646246
26308		25.412741	12.373466	-51.303685
26309		25.413854	12.342068	-51.963043
26310		25.435232	12.320002	-52.619540
26311		25.508446	12.302739	-53.274615
26312		25.691988	12.277070	-53.924194
26313		25.912421	12.237832	-54.581706
26314		26.062694	12.196612	-55.243721
26315		26.028451	12.159026	-55.917388
26316		25.806672	12.150302	-56.581433
26317		25.541875	12.151726	-57.245728
26318		25.353880	12.142875	-57.889411
26319		25.210178	12.141045	-58.524260
26320		25.087838	12.148852	-59.157942
26321		25.014472	12.171060	-59.791562
26322		24.989582	12.220186	-60.422691
26323		24.909471	12.289536	-61.055680
26324		24.702468	12.390871	-61.677777
26325		24.501794	12.516162	-62.291800
26326		24.494318	12.636734	-62.890521
26327		24.663069	12.746995	-63.481010
26328		24.915186	12.860700	-64.078034
26329		25.156840	12.980347	-64.690235
26330		25.331361	13.111081	-65.314460
26331		25.462599	13.232415	-65.960981
26332		25.564614	13.344877	-66.601405
26333		25.686523	13.440839	-67.233362
26334		25.840729	13.520988	-67.850822
26335		26.012002	13.594858	-68.483531
26336		26.249307	13.667492	-69.121791
26337		26.556820	13.716375	-69.771697
26338		26.657689	13.753068	-70.411330
26339		26.347673	13.821766	-71.030249
26340		25.885815	13.898963	-71.616722
26341		25.566207	13.977052	-72.169959
26342		25.529635	14.037743	-72.681001
26343		25.831438	14.064516	-73.188359
26344		26.239393	14.080974	-73.715482
26345		26.395422	14.121350	-74.280194
26346		26.196483	14.204915	-74.864158
26347		25.831797	14.321693	-75.459225
26348		25.494927	14.439515	-76.041818
26349		25.306779	14.550072	-76.603309
26350		25.311637	14.654303	-77.145311
26351		25.497750	14.749176	-77.695653
26352		25.844901	14.817651	-78.253131
26353		26.036582	14.894115	-78.812790
26354		26.036145	14.978275	-79.368531
26355		26.108100	15.057903	-79.884684
26356		26.419336	15.110904	-80.367825
26357		26.968038	15.132012	-80.825852
26358		27.702907	15.147327	-81.269756
26359		28.569935	15.161183	-81.716637
26360		29.427269	15.172652	-82.179104
26361		30.107542	15.214289	-82.653877
26362		30.635258	15.270422	-83.140008
26363		31.097097	15.342517	-83.613729
26364		31.560146	15.418043	-84.066683
26365		32.080513	15.492466	-84.501307
26366		32.669428	15.572773	-84.908278
26367		33.253165	15.652499	-85.295704
26368		33.765640	15.733703	-85.691765
26369		34.103400	15.832178	-86.075039
26370		34.280063	15.933390	-86.439173
26371		34.393820	16.012400	-86.793530
26372		34.476712	16.074883	-87.123759
26373		34.562355	16.120790	-87.426563
26374		34.688817	16.148122	-87.706680
26375		34.781009	16.177406	-87.967437
26376		34.768343	16.205509	-88.231849
26377		34.661775	16.248250	-88.480394
26378		34.506963	16.301617	-88.724065
26379		34.331017	16.325916	-88.984633
26380		34.142576	16.331317	-89.256935
26381		34.002904	16.317707	-89.554003
26382		34.133298	16.284523	-89.900546
26383		34.559933	16.250824	-90.294326
26384		34.969041	16.230212	-90.741428
26385		35.140452	16.247369	-91.261802
26386		35.108377	16.301310	-91.814215
26387		35.119645	16.353769	-92.374196
26388		35.234803	16.370044	-92.914957
26389		35.346319	16.365253	-93.415197
26390		35.437473	16.358674	-93.863486
26391		35.632947	16.327761	-94.278270
26392		35.963145	16.259981	-94.665642
26393		36.177636	16.196133	-95.037524
26394		36.026403	16.171588	-95.420969
26395		35.669193	16.177780	-95.814783
26396		35.413142	16.171141	-96.216187
26397		35.274857	16.147557	-96.597862
26398		35.142912	16.127015	-96.951643
26399		35.050402	16.114702	-97.272492
26400		35.064528	16.093757	-97.574168
26401		35.181888	16.084197	-97.878884
26402		35.296884	16.092218	-98.206151
26403		35.285881	16.133710	-98.542628
26404		35.180268	16.199513	-98.881403
26405		35.156611	16.244330	-99.217387
26406		35.209862	16.280390	-99.523513
26407		35.300704	16.312040	-99.791163
26408		35.404743	16.336176	-100.046513
26409		35.512302	16.354060	-100.292989
26410		35.621852	16.370403	-100.527914
26411		35.708260	16.375525	-100.778021
26412		35.730638	16.397672	-101.036544
26413		35.658725	16.446477	-101.294449
26414		35.573555	16.498529	-101.567755
26415		35.518567	16.562715	-101.838718
26416		35.559939	16.619168	-102.119130
26417		35.710099	16.663966	-102.399618
26418		35.930293	16.709728	-102.666959
26419		36.122001	16.790816	-102.895279
26420		36.356711	16.870911	-103.093985
26421		36.670750	16.938081	-103.253656
26422		37.012995	16.991851	-103.379096
26423		37.353600	17.036502	-103.486193
26424		37.694405	17.066479	-103.572318
26425		37.970590	17.072038	-103.630271
26426		38.122640	17.072618	-103.653562
26427		38.151471	17.068554	-103.665690
26428		38.127782	17.054353	-103.689348
26429		38.108420	17.024554	-103.726850
26430		38.072985	16.990318	-103.771263
26431		38.005462	16.960111	-103.827813
26432		37.976724	16.927815	-103.897195
26433		38.044872	16.891303	-103.954880
26434		38.142793	16.871511	-104.013185
26435		38.289901	16.841676	-104.094977
26436		38.477968	16.802302	-104.191838
26437		38.648787	16.773959	-104.297779
26438		38.823598	16.749316	-104.406849
26439		39.003272	16.729297	-104.503772
26440		39.105451	16.721788	-104.592116
26441		39.130327	16.733393	-104.685972
26442		39.161131	16.753159	-104.804065
26443		39.239078	16.763457	-104.941599
26444		39.274545	16.787161	-105.081550
26445		39.249248	16.824591	-105.221527
26446		39.258916	16.865503	-105.355858
26447		39.279525	16.920175	-105.479338
26448		39.307195	16.966294	-105.607424
26449		39.315974	16.996326	-105.754684
26450		39.269690	17.028758	-105.925358
26451		39.236336	17.053163	-106.103875
26452		39.207292	17.078496	-106.288622
26453		39.180998	17.097028	-106.467522
26454		39.136349	17.123548	-106.636551
26455		39.142016	17.146062	-106.791578
26456		39.194150	17.155369	-106.946464
26457		39.179167	17.179728	-107.089494
26458		39.138391	17.207555	-107.230802
26459		39.127262	17.218874	-107.382045
26460		39.087728	17.245141	-107.526511
26461		39.057542	17.279574	-107.672727
26462		39.075048	17.306068	-107.828924
26463		39.087251	17.338224	-107.972642
26464		39.085843	17.374681	-108.096246
26465		39.084348	17.406949	-108.220054
26466		39.122546	17.438469	-108.334581
26467		39.238565	17.453492	-108.447644
26468		39.347052	17.468697	-108.549532
26469		39.406133	17.487913	-108.633619
26470		39.423702	17.506673	-108.705219
26471		39.410023	17.531903	-108.755649
26472		39.380660	17.567127	-108.799288
26473		39.380961	17.597087	-108.847914
26474		39.412970	17.618788	-108.905688
26475		39.387085	17.650407	-108.971123
26476		39.363444	17.684953	-109.032572
26477		39.368385	17.713497	-109.087392
26478		39.391091	17.737507	-109.129846
26479		39.359963	17.768249	-109.159024
26480		39.346847	17.803285	-109.185168
26481		39.430364	17.806151	-109.216883
26482		39.529136	17.801873	-109.241669
26483		39.557589	17.806747	-109.258840
26484		39.503906	17.828992	-109.280180
26485		39.440375	17.848355	-109.307147
26486		39.323068	17.866423	-109.332633
26487		39.208833	17.887714	-109.361176
26488		39.160708	17.903344	-109.388712
26489		39.190287	17.918006	-109.408240
26490		39.249846	17.928037	-109.425229
26491		39.333759	17.936703	-109.438940
26492		39.400901	17.938925	-109.448194
26493		39.461647	17.941222	-109.459514
26494		39.581888	17.930538	-109.478317
26495		39.657157	17.908066	-109.500686
26496		39.631505	17.894877	-109.523964
26497		39.565967	17.888962	-109.538820
26498		39.502943	17.875795	-109.549261
26499		39.422745	17.871521	-109.558268
26500		39.368824	17.860652	-109.559563
26501		39.330459	17.844673	-109.561485
26502		39.315319	17.831513	-109.560254
26503		39.300643	17.824346	-109.551234
26504		39.303127	17.819192	-109.544882
26505		39.323792	17.805633	-109.540870
26506		39.326150	17.808656	-109.526820
26507		39.344973	17.807308	-109.517675
26508		39.387642	17.807911	-109.512468
26509		39.423733	17.806921	-109.501043
26510		39.447923	17.811644	-109.492762
26511		39.518951	17.816634	-109.485702
26512		39.579325	17.816969	-109.482809
26513		39.602736	17.827072	-109.464414
26514		39.615170	17.836086	-109.443290
26515		39.623584	17.844105	-109.427181
26516		39.616307	17.848612	-109.412848
26517		39.552134	17.854327	-109.404585
26518		39.431174	17.862649	-109.399781
26519		39.291199	17.870563	-109.395176
26520		39.171509	17.868383	-109.386562
26521		39.087966	17.858842	-109.370640
26522		39.078283	17.845874	-109.350794
26523		39.167986	17.822829	-109.320898
26524		39.323310	17.804816	-109.302959
26525		39.514079	17.786691	-109.300313
26526		39.710144	17.775396	-109.304843
26527		39.832916	17.778558	-109.309116
26528		39.892487	17.795395	-109.316760
26529		39.916110	17.812162	-109.324188
26530		39.897245	17.825884	-109.336994
26531		39.798026	17.841721	-109.343682
26532		39.631443	17.863370	-109.346259
26533		39.472885	17.883140	-109.349669
26534		39.340685	17.900509	-109.354605
26535		39.252949	17.903649	-109.358144
26536		39.205023	17.903386	-109.363086
26537		39.225542	17.904172	-109.360985
26538		39.329822	17.897288	-109.352888
26539		39.439620	17.886684	-109.338309
26540		39.518578	17.881301	-109.316864
26541		39.625996	17.870740	-109.285094
26542		39.761621	17.858981	-109.238188
26543		39.915993	17.841442	-109.185747
26544		40.077314	17.819762	-109.130644
26545		40.229509	17.791669	-109.065036
26546		40.366929	17.757493	-108.993653
26547		40.543282	17.709252	-108.901610
26548		40.800505	17.645845	-108.782652
26549		41.164191	17.566960	-108.633855
26550		41.655772	17.463546	-108.496177
26551		42.229259	17.358815	-108.415745
26552		42.725998	17.271718	-108.403590
26553		42.978040	17.189169	-108.437750
26554		42.772204	17.155787	-108.474801
26555		42.284805	17.148327	-108.503818
26556		41.814146	17.138528	-108.519678
26557		41.388462	17.113617	-108.512610
26558		40.978298	17.097192	-108.480717
26559		40.598369	17.091808	-108.444241
26560		40.285088	17.094374	-108.407832
26561		40.072161	17.090580	-108.372208
26562		39.947871	17.094238	-108.333485
26563		39.942051	17.084972	-108.288906
26564		40.091725	17.068586	-108.238211
26565		40.388366	17.042225	-108.178676
26566		40.749936	17.009344	-108.113668
26567		41.071312	16.984482	-108.036133
26568		41.326777	16.969265	-107.973792
26569		41.528680	16.944308	-107.918069
26570		41.643686	16.925489	-107.859135
26571		41.641212	16.912856	-107.785380
26572		41.608124	16.902522	-107.700396
26573		41.570649	16.887641	-107.607013
26574		41.491773	16.872106	-107.504102
26575		41.362956	16.857626	-107.397912
26576		41.224621	16.844067	-107.289133
26577		41.133877	16.823003	-107.179667
26578		41.084151	16.794559	-107.073636
26579		41.093565	16.768902	-106.956847
26580		41.167132	16.752916	-106.812832
26581		41.314177	16.729602	-106.641989
26582		41.483264	16.709492	-106.419835
26583		41.660368	16.684777	-106.162769
26584		41.891649	16.622907	-105.911534
26585		42.140674	16.551945	-105.647736
26586		42.327413	16.470958	-105.383824
26587		42.472642	16.382789	-105.129784
26588		42.480297	16.311158	-104.870320
26589		42.418331	16.238529	-104.631732
26590		42.341084	16.170037	-104.411383
26591		42.214498	16.112931	-104.194382
26592		42.053285	16.065621	-103.975152
26593		41.879241	16.034918	-103.737718
26594		41.708682	16.008218	-103.491381
26595		41.567226	15.981349	-103.233356
26596		41.509402	15.958403	-102.965480
26597		41.516460	15.920666	-102.689891
26598		41.547439	15.894341	-102.397967
26599		41.584253	15.869178	-102.099895
26600		41.648209	15.828151	-101.810573
26601		41.722368	15.782910	-101.521288
26602		41.780188	15.739891	-101.231885
26603		41.812195	15.698778	-100.930995
26604		41.833263	15.666242	-100.611966
26605		41.898988	15.633015	-100.265859
26606		42.016490	15.585804	-99.914258
26607		42.116701	15.541079	-99.539223
26608		42.181888	15.491846	-99.163521
26609		42.229957	15.437972	-98.785621
26610		42.256149	15.390498	-98.409427
26611		42.284262	15.354404	-98.017599
26612		42.286945	15.343186	-97.586121
26613		42.263517	15.368167	-97.097565
26614		42.271135	15.374983	-96.600713
26615		42.266515	15.350129	-96.099720
26616		42.176203	15.333744	-95.585764
26617		42.036012	15.306054	-95.078914
26618		41.859477	15.284219	-94.597572
26619		41.627199	15.269447	-94.148301
26620		41.313415	15.259388	-93.734724
26621		40.945622	15.257640	-93.336208
26622		40.570098	15.282416	-92.916818
26623		40.285463	15.307097	-92.481929
26624		40.191720	15.300904	-92.067450
26625		40.215375	15.278014	-91.652120
26626		40.286547	15.254019	-91.237778
26627		40.370779	15.224892	-90.843694
26628		40.440725	15.202385	-90.466847
26629		40.492287	15.195331	-90.079942
26630		40.550851	15.196389	-89.689171
26631		40.630281	15.163473	-89.316400
26632		40.664562	15.136464	-88.940199
26633		40.686795	15.103046	-88.555951
26634		40.716429	15.064089	-88.170278
26635		40.724462	15.030650	-87.778234
26636		40.725226	15.008862	-87.383941
26637		40.763505	14.998405	-86.980035
26638		40.822551	15.006293	-86.555607
26639		40.912871	15.023754	-86.104127
26640		41.052104	15.045677	-85.640284
26641		41.210101	15.043688	-85.168942
26642		41.314975	15.055766	-84.677719
26643		41.427327	15.050593	-84.188378
26644		41.543109	15.040028	-83.708961
26645		41.626418	15.021976	-83.234581
26646		41.660043	15.004389	-82.766843
26647		41.622906	14.982372	-82.303065
26648		41.502800	14.966898	-81.828007
26649		41.361970	14.922778	-81.369697
26650		41.177191	14.874110	-80.904206
26651		40.970550	14.816801	-80.432889
26652		40.755124	14.753431	-79.965837
26653		40.558532	14.691675	-79.504758
26654		40.377676	14.641440	-79.048482
26655		40.234324	14.599424	-78.600145
26656		40.139249	14.563697	-78.148742
26657		40.108038	14.537581	-77.687860
26658		40.156790	14.503510	-77.224154
26659		40.276267	14.464978	-76.755745
26660		40.385684	14.427250	-76.286670
26661		40.484142	14.392752	-75.802992
26662		40.612058	14.354604	-75.315195
26663		40.733514	14.313356	-74.826009
26664		40.845040	14.264326	-74.337061
26665		40.915870	14.209529	-73.849005
26666		40.924931	14.163081	-73.350157
26667		40.871270	14.111597	-72.843053
26668		40.770607	14.046782	-72.328306
26669		40.597902	13.980243	-71.795038
26670		40.384953	13.916168	-71.236149
26671		40.206981	13.847220	-70.662034
26672		40.094647	13.778810	-70.073298
26673		40.039511	13.712327	-69.474664
26674		40.017482	13.663370	-68.867019
26675		39.985114	13.625133	-68.256891
26676		39.925721	13.607024	-67.648722
26677		39.832280	13.587359	-67.054159
26678		39.686001	13.585539	-66.446624
26679		39.477824	13.598942	-65.823997
26680		39.240461	13.620441	-65.175271
26681		39.015429	13.639609	-64.506110
26682		38.851116	13.646319	-63.821046
26683		38.752492	13.624101	-63.142293
26684		38.671617	13.586771	-62.460726
26685		38.611585	13.532338	-61.783402
26686		38.507956	13.484275	-61.092333
26687		38.362301	13.435726	-60.407101
26688		38.145611	13.385030	-59.702707
26689		37.711700	13.350093	-58.910816
26690		37.083312	13.333647	-58.056000
26691		36.437088	13.275104	-57.189229
26692		35.923661	13.192026	-56.311814
26693		35.539027	13.078152	-55.441474
26694		35.209848	12.973670	-54.577807
26695		34.867472	12.876446	-53.758112
26696		34.517908	12.792496	-52.997825
26697		34.160212	12.702378	-52.293531
26698		33.751862	12.632854	-51.619979
26699		33.248727	12.574762	-50.962212
26700		32.667628	12.531643	-50.301112
26701		32.145816	12.492174	-49.611421
26702		31.741639	12.448859	-48.862000
26703		31.473497	12.388260	-48.070007
26704		31.429494	12.289272	-47.285487
26705		31.484610	12.139446	-46.530679
26706		31.361057	11.983913	-45.786258
26707		31.099424	11.818829	-45.048661
26708		30.822260	11.659869	-44.285694
26709		30.538669	11.493680	-43.489755
26710		30.365181	11.314390	-42.662668
26711		30.359853	11.117382	-41.818682
26712		30.394268	10.918522	-40.959868
26713		30.473462	10.731342	-40.109895
26714		30.590283	10.550632	-39.278578
26715		30.659303	10.383911	-38.471670
26716		30.676629	10.237436	-37.681341
26717		30.677571	10.104619	-36.907056
26718		30.676872	9.978890	-36.139256
26719		30.632991	9.867093	-35.372294
26720		30.586660	9.768561	-34.608979
26721		30.533213	9.669345	-33.857763
26722		30.390198	9.579990	-33.112157
26723		30.175252	9.500562	-32.388630
26724		29.897043	9.425121	-31.674207
26725		29.529116	9.352921	-30.975317
26726		29.089332	9.299547	-30.272062
26727		28.672149	9.252189	-29.559009
26728		28.277962	9.216498	-28.822062
26729		27.938410	9.186934	-28.070201
26730		27.735794	9.148521	-27.309321
26731		27.675633	9.095785	-26.558191
26732		27.629933	9.050219	-25.824067
26733		27.461029	9.020720	-25.108115
26734		27.189259	9.003989	-24.394970
26735		26.891809	9.011284	-23.660520
26736		26.658177	9.036340	-22.887725
26737		26.564394	9.062264	-22.102037
26738		26.508161	9.076297	-21.316587
26739		26.344856	9.094297	-20.535008
26740		26.153887	9.111553	-19.761180
26741		25.926537	9.138228	-18.993540
26742		25.638286	9.171671	-18.232799
26743		25.259966	9.216942	-17.476749
26744		24.832691	9.252486	-16.724183
26745		24.457338	9.264216	-15.980520
26746		24.169564	9.258300	-15.245727
26747		23.896948	9.252226	-14.524948
26748		23.583214	9.253717	-13.815622
26749		23.239855	9.262944	-13.123501
26750		22.881414	9.286732	-12.448069
26751		22.539319	9.320016	-11.792662
26752		22.226817	9.354302	-11.143677
26753		21.941840	9.385443	-10.501643
26754		21.730831	9.407004	-9.873797
26755		21.598157	9.426006	-9.250816
26756		21.512425	9.444859	-8.637985
26757		21.414230	9.469996	-8.037700
26758		21.320612	9.495102	-7.459432
26759		21.268823	9.508654	-6.910108
26760		21.257146	9.514992	-6.383387
26761		21.278472	9.523354	-5.874801
26762		21.354549	9.536562	-5.382524
26763		21.477913	9.558536	-4.902073
26764		21.582159	9.584173	-4.429341
26765		21.653021	9.615060	-3.971472
26766		21.694780	9.639633	-3.534277
26767		21.673563	9.656291	-3.110508
26768		21.622207	9.674559	-2.693002
26769		21.615224	9.686599	-2.276765
26770		21.644809	9.698664	-1.857082
26771		21.678048	9.722965	-1.435647
26772		21.687923	9.748126	-1.020759
26773		21.688434	9.761507	-0.624382
26774		21.690548	9.767782	-0.238936
26775		21.708503	9.775630	0.139639
26776		21.752247	9.782085	0.516466
26777		21.837340	9.785414	0.892075
26778		21.942438	9.787650	1.257353
26779		22.035354	9.788290	1.615027
26780		22.081016	9.804120	1.968941
26781		22.060830	9.830543	2.317114
26782		21.973339	9.857743	2.658057
26783		21.808268	9.894703	3.003794
26784		21.622782	9.922089	3.351056
26785		21.467441	9.940970	3.699032
26786		21.326563	9.960390	4.051801
26787		21.203058	9.978223	4.399291
26788		21.064661	9.998996	4.745032
26789		20.946857	10.026431	5.081762
26790		20.865271	10.050161	5.404312
26791		20.797615	10.070141	5.709081
26792		20.719741	10.085677	5.994480
26793		20.662966	10.103953	6.264860
26794		20.663779	10.122474	6.525759
26795		20.725257	10.145347	6.786831
26796		20.801967	10.175420	7.048573
26797		20.919724	10.208429	7.305504
26798		21.011707	10.248319	7.550725
26799		21.016535	10.292517	7.782706
26800		20.954850	10.336136	7.997728
26801		20.841562	10.385010	8.189939
26802		20.709443	10.437168	8.372597
26803		20.598871	10.489293	8.543259
26804		20.524321	10.536292	8.704189
26805		20.429169	10.587540	8.866257
26806		20.335852	10.639161	9.030678
26807		20.296170	10.686985	9.198599
26808		20.309547	10.727228	9.363292
26809		20.357446	10.771077	9.518529
26810		20.414569	10.806317	9.662726
26811		20.426241	10.842971	9.794314
26812		20.376443	10.882730	9.915428
26813		20.320932	10.922235	10.030420
26814		20.282437	10.957566	10.137656
26815		20.231595	10.999428	10.237454
26816		20.180372	11.041764	10.327254
26817		20.132355	11.083923	10.406547
26818		20.058903	11.124938	10.473459
26819		19.951394	11.169931	10.533659
26820		19.856164	11.212449	10.587011
26821		19.787948	11.252476	10.636095
26822		19.718355	11.290948	10.686768
26823		19.667554	11.332761	10.740571
26824		19.669644	11.366591	10.791083
26825		19.683129	11.395447	10.838676
26826		19.654515	11.427580	10.878084
26827		19.574283	11.473353	10.920517
26828		19.513569	11.500876	10.953085
26829		19.419718	11.534690	10.994089
26830		19.322937	11.566251	11.039693
26831		19.268184	11.588251	11.096033
26832		19.266298	11.602950	11.164954
26833		19.303578	11.613095	11.243492
26834		19.335086	11.621441	11.328101
26835		19.347976	11.623539	11.411652
26836		19.348630	11.621383	11.492132
26837		19.343823	11.615814	11.568563
26838		19.338793	11.610609	11.637454
26839		19.312847	11.608003	11.699928
26840		19.274859	11.607241	11.756751
26841		19.251513	11.615190	11.803086
26842		19.233645	11.621049	11.833462
26843		19.181866	11.630546	11.841947
26844		19.117211	11.638175	11.828556
26845		19.052069	11.644835	11.799830
26846		18.977097	11.648982	11.757831
26847		18.912775	11.649586	11.709297
26848		18.909097	11.646770	11.656543
26849		18.953291	11.645867	11.602504
26850		19.018855	11.639319	11.544782
26851		19.102127	11.635736	11.485821
26852		19.183614	11.628979	11.423239
26853		19.244624	11.625039	11.359053
26854		19.288766	11.619313	11.295072
26855		19.323575	11.613938	11.234578
26856		19.347650	11.609037	11.176431
26857		19.359564	11.604518	11.119650
26858		19.368892	11.596119	11.065645
26859		19.396488	11.583362	11.016383
26860		19.438862	11.570645	10.964676
26861		19.458366	11.560749	10.911595
26862		19.464133	11.552044	10.847924
26863		19.467137	11.545616	10.772831
26864		19.455276	11.541731	10.681919
26865		19.440608	11.537201	10.578071
26866		19.429818	11.534109	10.469503
26867		19.449020	11.527791	10.358928
26868		19.500344	11.516317	10.239247
26869		19.557964	11.509750	10.113218
26870		19.638266	11.500917	9.971795
26871		19.721427	11.495078	9.815378
26872		19.783617	11.506906	9.646356
26873		19.845790	11.524262	9.465662
26874		19.892038	11.541911	9.276983
26875		19.923559	11.571096	9.082332
26876		19.945749	11.603522	8.877805
26877		19.919844	11.635030	8.666517
26878		19.873683	11.668179	8.452557
26879		19.856218	11.699536	8.240527
26880		19.875196	11.717903	8.037117
26881		19.906197	11.730763	7.843753
26882		19.938244	11.732373	7.659551
26883		19.997926	11.729546	7.482347
26884		20.076965	11.720587	7.314977
26885		20.167622	11.708809	7.161354
26886		20.266677	11.695965	7.017956
26887		20.346593	11.686471	6.880715
26888		20.404086	11.671411	6.742813
26889		20.424384	11.661446	6.596462
26890		20.398991	11.652464	6.442554
26891		20.356958	11.641479	6.280944
26892		20.355455	11.634115	6.117591
26893		20.366162	11.626145	5.957342
26894		20.368581	11.619004	5.793242
26895		20.374931	11.607012	5.632861
26896		20.404376	11.595907	5.467266
26897		20.458577	11.584396	5.302710
26898		20.541971	11.569512	5.136983
26899		20.640554	11.557564	4.961882
26900		20.722674	11.544789	4.775499
26901		20.773627	11.535346	4.575936
26902		20.808124	11.527803	4.360799
26903		20.818937	11.519997	4.134948
26904		20.854472	11.509109	3.904857
26905		20.915570	11.497451	3.676930
26906		21.003582	11.474859	3.454203
26907		21.109471	11.455011	3.227423
26908		21.198347	11.430394	2.991530
26909		21.261228	11.404177	2.742650
26910		21.292702	11.383964	2.483294
26911		21.265752	11.365231	2.213350
26912		21.238329	11.349835	1.932826
26913		21.205545	11.332540	1.643366
26914		21.153608	11.313668	1.347864
26915		21.119551	11.293291	1.045212
26916		21.143929	11.269793	0.734779
26917		21.193471	11.240966	0.406765
26918		21.253885	11.211914	0.068143
26919		21.320516	11.195287	-0.280190
26920		21.393875	11.181026	-0.635293
26921		21.472946	11.170763	-0.998280
26922		21.539704	11.171385	-1.371243
26923		21.539227	11.174093	-1.749511
26924		21.521083	11.179067	-2.141980
26925		21.464028	11.186360	-2.543800
26926		21.396858	11.199100	-2.942107
26927		21.400985	11.204828	-3.342910
26928		21.485983	11.202442	-3.742857
26929		21.600621	11.198305	-4.145850
26930		21.744638	11.188370	-4.550803
26931		21.901040	11.172516	-4.949165
26932		22.034950	11.156141	-5.331941
26933		22.175179	11.135753	-5.701430
26934		22.340555	11.107320	-6.050471
26935		22.501366	11.077298	-6.388177
26936		22.635369	11.051177	-6.726969
26937		22.710997	11.027741	-7.073838
26938		22.744314	11.013637	-7.430640
26939		22.777698	11.001602	-7.799989
26940		22.810621	10.993267	-8.178457
26941		22.834213	10.985355	-8.564212
26942		22.879903	10.976478	-8.955644
26943		22.963334	10.965573	-9.350077
26944		23.050376	10.952156	-9.732490
26945		23.159133	10.938207	-10.112001
26946		23.303716	10.926904	-10.487252
26947		23.438379	10.918112	-10.858765
26948		23.562022	10.914632	-11.244052
26949		23.629948	10.918716	-11.653616
26950		23.620604	10.927503	-12.077977
26951		23.601323	10.942161	-12.521564
26952		23.570691	10.961407	-12.964136
26953		23.540852	10.978896	-13.404918
26954		23.578351	10.983991	-13.847994
26955		23.687993	10.980652	-14.301070
26956		23.811652	10.984723	-14.763785
26957		23.878558	10.990105	-15.239718
26958		23.915702	11.008349	-15.722970
26959		23.979430	11.042159	-16.217939
26960		24.108577	11.083026	-16.728522
26961		24.246341	11.133852	-17.261573
26962		24.352248	11.185387	-17.813499
26963		24.445353	11.248800	-18.377940
26964		24.559925	11.308517	-18.952898
26965		24.673350	11.363204	-19.535058
26966		24.789791	11.418106	-20.126735
26967		24.866689	11.466313	-20.728514
26968		24.883603	11.514525	-21.335912
26969		24.885383	11.553202	-21.941587
26970		24.927077	11.589665	-22.544713
26971		24.974446	11.622080	-23.148310
26972		25.036766	11.652954	-23.752852
26973		25.099909	11.681412	-24.359586
26974		25.145140	11.708325	-24.970531
26975		25.191075	11.729414	-25.590835
26976		25.248134	11.744320	-26.218603
26977		25.295496	11.755456	-26.846312
26978		25.364587	11.763888	-27.471099
26979		25.455866	11.775552	-28.093330
26980		25.584265	11.787289	-28.708340
26981		25.769845	11.796810	-29.319929
26982		26.007912	11.803014	-29.931509
26983		26.245987	11.810268	-30.545014
26984		26.488304	11.824662	-31.166490
26985		26.767947	11.833631	-31.811096
26986		27.044657	11.834991	-32.480721
26987		27.289767	11.833707	-33.170397
26988		27.582127	11.820243	-33.880064
26989		27.933346	11.800695	-34.601000
26990		28.316927	11.779312	-35.325055
26991		28.733781	11.755700	-36.059285
26992		29.152307	11.720857	-36.785819
26993		29.516973	11.679772	-37.499144
26994		29.871159	11.630137	-38.189728
26995		30.230036	11.562435	-38.863985
26996		30.596236	11.496998	-39.515292
26997		30.979510	11.427022	-40.159543
26998		31.404631	11.355219	-40.809551
26999		31.790118	11.288779	-41.490368
27000		32.028093	11.238416	-42.205142
27001		32.022678	11.213403	-42.949935
27002		31.840040	11.225453	-43.702057
27003		31.611468	11.249663	-44.447047
27004		31.461419	11.269538	-45.175715
27005		31.348940	11.283584	-45.886883
27006		31.310440	11.284035	-46.579150
27007		31.332161	11.266416	-47.265852
27008		31.386681	11.238856	-47.949445
27009		31.380706	11.208268	-48.638663
27010		31.324187	11.195340	-49.337979
27011		31.233338	11.189242	-50.043227
27012		31.142184	11.183596	-50.758363
27013		31.019213	11.193921	-51.477022
27014		30.868988	11.207737	-52.176040
27015		30.723904	11.217381	-52.861902
27016		30.574528	11.229193	-53.518072
27017		30.419222	11.241188	-54.144903
27018		30.380899	11.234156	-54.752823
27019		30.475593	11.212052	-55.345871
27020		30.629015	11.185208	-55.942556
27021		30.712807	11.175378	-56.566492
27022		30.688840	11.176557	-57.219110
27023		30.524120	11.190331	-57.889733
27024		30.239990	11.222701	-58.554240
27025		29.908535	11.266224	-59.195287
27026		29.715250	11.296878	-59.804297
27027		29.749257	11.302031	-60.381004
27028		29.986150	11.278158	-60.970917
27029		30.282283	11.272685	-61.604785
27030		30.458108	11.282801	-62.267526
27031		30.534987	11.306959	-62.971929
27032		30.589355	11.354857	-63.689554
27033		30.685283	11.399199	-64.424220
27034		30.837592	11.456425	-65.155004
27035		31.069949	11.525807	-65.896483
27036		31.393391	11.599394	-66.644568
27037		31.667503	11.675084	-67.404655
27038		31.774061	11.764497	-68.161726
27039		31.774354	11.846105	-68.911618
27040		31.809247	11.922135	-69.612915
27041		31.947973	11.962742	-70.272878
27042		32.234554	11.973396	-70.879984
27043		32.702085	11.970567	-71.466035
27044		33.293931	11.977207	-72.049609
27045		33.845648	12.017504	-72.650984
27046		34.292125	12.079212	-73.288355
27047		34.549328	12.172894	-73.938529
27048		34.636187	12.297831	-74.580378
27049		34.689534	12.405370	-75.219549
27050		34.827834	12.489356	-75.844420
27051		35.101317	12.568391	-76.467655
27052		35.404371	12.688037	-77.072630
27053		35.637460	12.813442	-77.707181
27054		35.761150	12.942764	-78.355218
27055		35.809513	13.087891	-78.994226
27056		35.874686	13.213309	-79.597048
27057		36.004517	13.312355	-80.156076
27058		36.157955	13.404293	-80.673353
27059		36.345060	13.464290	-81.182011
27060		36.537426	13.549057	-81.670095
27061		36.615489	13.679773	-82.169521
27062		36.543863	13.826465	-82.709127
27063		36.287910	13.990721	-83.271119
27064		35.957089	14.160557	-83.825488
27065		35.699102	14.317252	-84.348413
27066		35.574288	14.460042	-84.839291
27067		35.570411	14.593395	-85.292244
27068		35.681936	14.722433	-85.730339
27069		35.859545	14.848447	-86.174845
27070		35.969922	14.985652	-86.626507
27071		35.974991	15.133948	-87.095820
27072		35.970995	15.263869	-87.571548
27073		36.011863	15.378683	-88.027543
27074		36.088990	15.482479	-88.458873
27075		36.182612	15.570290	-88.874098
27076		36.260798	15.662375	-89.260139
27077		36.314371	15.752441	-89.651337
27078		36.296383	15.839749	-90.057493
27079		36.181884	15.924316	-90.467540
27080		36.027817	15.999699	-90.868655
27081		35.882026	16.082374	-91.235518
27082		35.865320	16.158206	-91.584237
27083		35.967131	16.218748	-91.929040
27084		36.083369	16.283015	-92.267743
27085		36.210579	16.330983	-92.605090
27086		36.335021	16.370741	-92.914918
27087		36.517037	16.409663	-93.184010
27088		36.849110	16.432498	-93.411139
27089		37.297565	16.444886	-93.603947
27090		37.793858	16.433886	-93.782417
27091		38.251910	16.419622	-93.962088
27092		38.597802	16.403484	-94.142943
27093		38.810556	16.383222	-94.337449
27094		38.938101	16.370860	-94.547956
27095		39.001251	16.366016	-94.761450
27096		39.008724	16.366865	-94.973365
27097		38.958487	16.385815	-95.180083
27098		38.923483	16.401330	-95.387432
27099		38.963505	16.408961	-95.595897
27100		39.001938	16.409672	-95.802254
27101		38.984982	16.418912	-96.004864
27102		38.965158	16.416863	-96.215209
27103		38.948753	16.399896	-96.422067
27104		38.974643	16.388383	-96.617017
27105		39.001247	16.383787	-96.790136
27106		39.028010	16.385531	-96.955774
27107		39.068816	16.386628	-97.115432
27108		39.145686	16.379630	-97.273269
27109		39.213700	16.368554	-97.428730
27110		39.273170	16.356477	-97.579212
27111		39.367893	16.335314	-97.721331
27112		39.458111	16.315910	-97.848538
27113		39.503425	16.305641	-97.969597
27114		39.551453	16.295653	-98.091711
27115		39.634356	16.288877	-98.211386
27116		39.722287	16.276516	-98.319011
27117		39.795733	16.267199	-98.430138
27118		39.837798	16.262734	-98.528671
27119		39.878591	16.263693	-98.617227
27120		39.919859	16.278264	-98.679779
27121		39.933327	16.306830	-98.723986
27122		39.981327	16.331574	-98.766868
27123		40.117691	16.339449	-98.815569
27124		40.195554	16.356720	-98.865591
27125		40.207012	16.385370	-98.924235
27126		40.219355	16.403227	-98.989205
27127		40.217931	16.440362	-99.036556
27128		40.246313	16.478304	-99.082073
27129		40.347605	16.505861	-99.125262
27130		40.486224	16.536686	-99.181628
27131		40.616838	16.564138	-99.243497
27132		40.701333	16.584086	-99.299651
27133		40.718049	16.610193	-99.353483
27134		40.742249	16.638639	-99.402195
27135		40.817602	16.656993	-99.443089
27136		40.920776	16.671743	-99.473755
27137		41.099625	16.695566	-99.498243
27138		41.361921	16.703513	-99.516015
27139		41.609820	16.707350	-99.515524
27140		41.760215	16.723669	-99.490160
27141		41.900373	16.733669	-99.450074
27142		42.072276	16.732548	-99.390590
27143		42.257792	16.735869	-99.314478
27144		42.517241	16.732673	-99.237317
27145		42.783260	16.736933	-99.173565
27146		43.011505	16.761411	-99.147763
27147		43.195665	16.792513	-99.156725
27148		43.233240	16.857683	-99.180321
27149		43.176264	16.944598	-99.212433
27150		43.176937	17.027867	-99.237670
27151		43.238599	17.095877	-99.248210
27152		43.277303	17.153118	-99.231766
27153		43.298237	17.201136	-99.203384
27154		43.321030	17.231213	-99.175483
27155		43.326628	17.245287	-99.146453
27156		43.316814	17.251572	-99.125651
27157		43.309728	17.245177	-99.104697
27158		43.230378	17.240854	-99.079289
27159		43.096568	17.251278	-99.060191
27160		42.972625	17.252686	-99.060360
27161		42.847477	17.258510	-99.062890
27162		42.731247	17.273675	-99.063799
27163		42.669561	17.284497	-99.050238
27164		42.682288	17.289131	-99.033976
27165		42.757046	17.276489	-99.014897
27166		42.850470	17.255717	-99.000094
27167		42.925015	17.233332	-98.991300
27168		42.944081	17.218213	-98.981350
27169		42.918681	17.211129	-98.976595
27170		42.872956	17.213882	-98.974513
27171		42.820895	17.220834	-98.962855
27172		42.763182	17.229620	-98.952182
27173		42.713835	17.239903	-98.933042
27174		42.695667	17.248846	-98.918409
27175		42.710034	17.248709	-98.909153
27176		42.702238	17.247050	-98.907157
27177		42.677321	17.249755	-98.903752
27178		42.669117	17.253945	-98.895234
27179		42.687283	17.240555	-98.889561
27180		42.682177	17.234380	-98.880511
27181		42.671758	17.224158	-98.866183
27182		42.677796	17.213896	-98.854323
27183		42.695898	17.206826	-98.843015
27184		42.678354	17.210922	-98.837944
27185		42.646821	17.217692	-98.837777
27186		42.609460	17.223419	-98.840981
27187		42.570531	17.228470	-98.833115
27188		42.559024	17.227900	-98.828208
27189		42.559928	17.223757	-98.818820
27190		42.553179	17.219384	-98.808158
27191		42.527662	17.214747	-98.795894
27192		42.495944	17.222234	-98.786407
27193		42.435343	17.226913	-98.771842
27194		42.358292	17.233405	-98.761313
27195		42.272202	17.234398	-98.750135
27196		42.164637	17.233382	-98.737740
27197		42.085074	17.230892	-98.721265
27198		42.043009	17.220025	-98.704062
27199		41.988515	17.212160	-98.676461
27200		41.928844	17.199692	-98.649078
27201		41.869043	17.182921	-98.601837
27202		41.780699	17.162489	-98.539324
27203		41.707433	17.129894	-98.471686
27204		41.640981	17.088702	-98.407363
27205		41.562168	17.051310	-98.348404
27206		41.486902	17.017457	-98.300703
27207		41.367741	16.993592	-98.259370
27208		41.214720	16.983089	-98.220878
27209		41.085817	16.966674	-98.176728
27210		40.978869	16.947730	-98.126764
27211		40.884557	16.929218	-98.065664
27212		40.814718	16.904793	-98.001040
27213		40.737781	16.877925	-97.942247
27214		40.616616	16.862250	-97.897718
27215		40.469037	16.861348	-97.864622
27216		40.327318	16.876917	-97.835208
27217		40.204468	16.905225	-97.804480
27218		40.114904	16.933364	-97.773905
27219		40.077314	16.964106	-97.730721
27220		40.090932	16.986646	-97.677896
27221		40.140081	17.000103	-97.611718
27222		40.170600	17.011659	-97.529939
27223		40.154122	17.019161	-97.446305
27224		40.112460	17.024479	-97.368341
27225		40.016509	17.020075	-97.289441
27226		39.842394	17.021995	-97.206152
27227		39.653058	17.031506	-97.108837
27228		39.536753	17.032040	-97.004973
27229		39.456292	17.025522	-96.886543
27230		39.394921	17.026070	-96.758752
27231		39.355507	17.017428	-96.624848
27232		39.309885	17.007817	-96.482203
27233		39.223244	16.994398	-96.318246
27234		39.121164	16.967952	-96.142294
27235		39.000581	16.928423	-95.953231
27236		38.872831	16.876874	-95.750108
27237		38.768683	16.813977	-95.530073
27238		38.660649	16.750378	-95.300611
27239		38.527078	16.692962	-95.053331
27240		38.389492	16.643313	-94.793616
27241		38.280104	16.587052	-94.524460
27242		38.185525	16.531197	-94.250109
27243		38.110051	16.476756	-93.976892
27244		38.086906	16.429991	-93.710262
27245		38.095739	16.392957	-93.459927
27246		38.056251	16.381956	-93.223048
27247		37.954737	16.394593	-93.000867
27248		37.831274	16.419311	-92.796549
27249		37.703399	16.449411	-92.585189
27250		37.592669	16.483308	-92.369604
27251		37.534158	16.519049	-92.146241
27252		37.551440	16.554330	-91.934125
27253		37.593540	16.588744	-91.734636
27254		37.590574	16.637206	-91.554855
27255		37.543561	16.706704	-91.392250
27256		37.447717	16.796784	-91.240804
27257		37.321627	16.893655	-91.094672
27258		37.198504	16.994155	-90.943729
27259		37.087338	17.092736	-90.788572
27260		37.010215	17.196661	-90.639441
27261		36.976953	17.302529	-90.494295
27262		36.968332	17.398774	-90.340590
27263		36.966450	17.493469	-90.155491
27264		36.967315	17.563693	-89.938478
27265		37.004782	17.603152	-89.670162
27266		37.110706	17.616587	-89.339972
27267		37.295566	17.597053	-88.957932
27268		37.497592	17.559022	-88.532058
27269		37.690563	17.505675	-88.083850
27270		37.861826	17.438174	-87.631415
27271		37.952629	17.369445	-87.169080
27272		37.914383	17.330641	-86.695097
27273		37.846724	17.307247	-86.201255
27274		37.786987	17.288473	-85.695524
27275		37.772964	17.263094	-85.194601
27276		37.790598	17.233013	-84.701823
27277		37.865284	17.206044	-84.212121
27278		37.970118	17.190919	-83.727120
27279		38.000113	17.182588	-83.249646
27280		37.900130	17.179846	-82.788031
27281		37.804737	17.176884	-82.337357
27282		37.795726	17.151266	-81.896208
27283		37.840655	17.103222	-81.460870
27284		37.891591	17.050715	-81.024771
27285		37.958585	16.993612	-80.574474
27286		38.069055	16.932343	-80.111013
27287		38.241831	16.871006	-79.633226
27288		38.460673	16.824824	-79.130718
27289		38.722190	16.788281	-78.610065
27290		39.023034	16.741201	-78.096418
27291		39.359978	16.691601	-77.586361
27292		39.713924	16.647745	-77.079609
27293		40.060876	16.601789	-76.568368
27294		40.362296	16.564272	-76.064650
27295		40.632803	16.534749	-75.554584
27296		40.845279	16.502604	-75.027386
27297		41.059166	16.459859	-74.489002
27298		41.311908	16.398009	-73.923026
27299		41.550741	16.326980	-73.317566
27300		41.788274	16.258050	-72.688438
27301		42.050651	16.159711	-72.076766
27302		42.196229	16.072091	-71.458361
27303		42.098636	16.003941	-70.841989
27304		41.781608	15.956285	-70.232784
27305		41.359287	15.917612	-69.628910
27306		40.883631	15.883840	-69.007779
27307		40.374199	15.858192	-68.359805
27308		39.877184	15.813188	-67.710200
27309		39.353881	15.763389	-67.051295
27310		38.777076	15.728947	-66.377407
27311		38.150831	15.683788	-65.708061
27312		37.375399	15.647348	-65.017676
27313		36.494401	15.617377	-64.310566
27314		35.595263	15.585165	-63.565975
27315		34.757283	15.541837	-62.786276
27316		34.031043	15.473490	-61.993939
27317		33.371748	15.397357	-61.193806
27318		32.669520	15.330322	-60.376760
27319		31.956067	15.270953	-59.542567
27320		31.310462	15.212530	-58.697546
27321		30.818706	15.142942	-57.854484
27322		30.527404	15.074518	-57.017518
27323		30.367799	15.007797	-56.197851
27324		30.249459	14.928446	-55.408332
27325		30.077474	14.835874	-54.654860
27326		29.818452	14.760360	-53.916044
27327		29.615213	14.684482	-53.177014
27328		29.557012	14.608410	-52.417316
27329		29.630892	14.530225	-51.646361
27330		29.776306	14.455029	-50.877521
27331		29.924865	14.374722	-50.109455
27332		30.009148	14.310094	-49.337282
27333		30.023827	14.247080	-48.555987
27334		30.026521	14.188215	-47.760294
27335		30.037550	14.131428	-46.955497
27336		30.021045	14.087654	-46.140738
27337		30.006708	14.048423	-45.332428
27338		30.047612	14.021108	-44.532146
27339		30.050300	13.998449	-43.732595
27340		29.933449	13.998198	-42.930543
27341		29.761643	14.003343	-42.133152
27342		29.609567	13.999036	-41.330497
27343		29.493949	14.002150	-40.513642
27344		29.421081	14.002291	-39.690366
27345		29.408995	13.999811	-38.889810
27346		29.310627	13.990570	-38.110297
27347		29.011530	13.998702	-37.344917
27348		28.572212	14.032946	-36.569161
27349		28.141140	14.063053	-35.786515
27350		27.838961	14.084040	-35.001368
27351		27.637564	14.109538	-34.201362
27352		27.517536	14.131832	-33.397185
27353		27.534659	14.150420	-32.619645
27354		27.546645	14.163580	-31.863954
27355		27.439990	14.182813	-31.132587
27356		27.295961	14.214527	-30.405398
27357		27.189627	14.247873	-29.663017
27358		27.176905	14.281777	-28.892829
27359		27.335782	14.300117	-28.104526
27360		27.625544	14.305207	-27.296228
27361		27.971140	14.298888	-26.492589
27362		28.233357	14.291364	-25.705825
27363		28.247863	14.293371	-24.951748
27364		28.021387	14.308158	-24.237415
27365		27.608902	14.333569	-23.543695
27366		27.023762	14.376246	-22.840085
27367		26.340931	14.430813	-22.127221
27368		25.723006	14.482369	-21.415854
27369		25.303388	14.516719	-20.706803
27370		25.002626	14.543105	-20.004994
27371		24.687465	14.579825	-19.316464
27372		24.281414	14.617407	-18.652510
27373		23.833101	14.659851	-18.012317
27374		23.379382	14.696915	-17.372168
27375		22.986824	14.725211	-16.722962
27376		22.712815	14.735601	-16.065529
27377		22.534224	14.733262	-15.407817
27378		22.417121	14.727036	-14.751866
27379		22.387565	14.714033	-14.111876
27380		22.395349	14.695384	-13.487455
27381		22.367927	14.687842	-12.881528
27382		22.329998	14.680192	-12.284765
27383		22.370537	14.661767	-11.704080
27384		22.473723	14.630487	-11.134549
27385		22.564602	14.595815	-10.588241
27386		22.617968	14.568261	-10.064332
27387		22.625556	14.551120	-9.561223
27388		22.564591	14.526678	-9.075132
27389		22.463925	14.504405	-8.596075
27390		22.359593	14.476230	-8.109842
27391		22.311855	14.434486	-7.618753
27392		22.306090	14.386044	-7.120104
27393		22.334785	14.328996	-6.624580
27394		22.412661	14.273095	-6.141009
27395		22.483602	14.216689	-5.669167
27396		22.504246	14.163602	-5.206359
27397		22.482166	14.118481	-4.756609
27398		22.432102	14.079315	-4.305724
27399		22.378083	14.043681	-3.853250
27400		22.356998	13.996842	-3.406202
27401		22.322865	13.945596	-2.970315
27402		22.254596	13.896850	-2.551294
27403		22.213313	13.856719	-2.145105
27404		22.147081	13.818664	-1.753560
27405		22.026016	13.791210	-1.375467
27406		21.867441	13.768608	-1.006709
27407		21.685908	13.745327	-0.641331
27408		21.531451	13.713421	-0.272356
27409		21.425957	13.675355	0.098426
27410		21.371685	13.636386	0.474392
27411		21.314491	13.599445	0.851585
27412		21.212832	13.568795	1.224995
27413		21.106238	13.535961	1.585579
27414		20.989406	13.503829	1.939076
27415		20.873166	13.476162	2.292393
27416		20.780478	13.452761	2.642962
27417		20.699888	13.425041	2.993070
27418		20.639907	13.400785	3.335578
27419		20.589257	13.376146	3.672683
27420		20.504577	13.356537	3.998322
27421		20.381930	13.345584	4.313917
27422		20.241628	13.342721	4.622495
27423		20.138172	13.335847	4.917204
27424		20.070963	13.319088	5.197379
27425		20.022467	13.304620	5.474307
27426		20.003709	13.288006	5.746955
27427		20.020607	13.278808	6.012463
27428		20.044373	13.271111	6.268600
27429		20.072270	13.268278	6.510446
27430		20.111008	13.270966	6.732844
27431		20.129561	13.278391	6.938688
27432		20.123151	13.290328	7.127719
27433		20.099590	13.309987	7.303547
27434		20.079593	13.335633	7.467153
27435		20.025336	13.369484	7.623548
27436		19.938310	13.409963	7.769472
27437		19.822599	13.454306	7.907828
27438		19.665203	13.497196	8.044029
27439		19.487941	13.539534	8.180135
27440		19.293664	13.570559	8.313032
27441		19.134863	13.597860	8.451825
27442		19.045401	13.623705	8.594715
27443		19.016221	13.638966	8.737592
27444		19.004766	13.649432	8.873364
27445		19.002658	13.656066	9.004058
27446		19.023424	13.658856	9.125495
27447		19.068887	13.657377	9.232222
27448		19.118681	13.653405	9.324340
27449		19.162481	13.655673	9.400016
27450		19.220623	13.661277	9.464607
27451		19.272614	13.669085	9.513055
27452		19.313592	13.677839	9.550382
27453		19.343600	13.689011	9.583135
27454		19.375537	13.697853	9.611988
27455		19.415543	13.707359	9.635876
27456		19.455131	13.713123	9.651961
27457		19.472361	13.721992	9.665332
27458		19.496344	13.726947	9.673249
27459		19.525558	13.731638	9.678476
27460		19.528178	13.733692	9.681998
27461		19.530408	13.735825	9.684856
27462		19.548025	13.733429	9.686886
27463		19.575528	13.729861	9.690239
27464		19.600539	13.724612	9.688212
27465		19.628431	13.729545	9.678262
27466		19.664149	13.730281	9.661139
27467		19.674760	13.732136	9.640427
27468		19.668778	13.734264	9.615937
27469		19.680456	13.736647	9.589813
27470		19.704244	13.731582	9.560914
27471		19.714878	13.728062	9.537169
27472		19.741721	13.723313	9.513013
27473		19.785255	13.717273	9.487367
27474		19.799995	13.712507	9.461715
27475		19.798981	13.706250	9.432935
27476		19.793227	13.703483	9.392083
27477		19.757914	13.705669	9.348614
27478		19.737651	13.708532	9.293398
27479		19.737934	13.715045	9.232569
27480		19.753701	13.718131	9.164190
27481		19.758565	13.726485	9.088558
27482		19.738607	13.743460	9.004565
27483		19.702673	13.754777	8.917139
27484		19.680928	13.760029	8.826722
27485		19.681548	13.762829	8.741206
27486		19.708675	13.762922	8.658446
27487		19.756752	13.760475	8.578593
27488		19.807770	13.756777	8.495004
27489		19.833021	13.754359	8.411742
27490		19.847264	13.754836	8.327285
27491		19.871674	13.752796	8.246001
27492		19.900005	13.746710	8.163417
27493		19.940472	13.735955	8.078409
27494		19.996181	13.726991	7.987068
27495		20.052325	13.719937	7.891124
27496		20.126628	13.715445	7.788727
27497		20.197957	13.706130	7.677824
27498		20.256546	13.694790	7.563895
27499		20.290703	13.683675	7.446904
27500		20.310607	13.664356	7.324626
27501		20.305905	13.642622	7.203196
27502		20.291564	13.625237	7.081175
27503		20.277277	13.603091	6.958266
27504		20.235569	13.579762	6.831637
27505		20.186246	13.550209	6.705919
27506		20.162865	13.509851	6.573342
27507		20.155036	13.454488	6.441666
27508		20.149756	13.390211	6.305724
27509		20.175286	13.317411	6.166388
27510		20.251584	13.236931	6.020680
27511		20.335912	13.159459	5.855439
27512		20.395834	13.076683	5.667966
27513		20.439098	13.000735	5.462938
27514		20.498973	12.924057	5.239581
27515		20.547804	12.846142	4.995595
27516		20.588679	12.768843	4.734487
27517		20.610455	12.689740	4.454405
27518		20.625444	12.614880	4.159708
27519		20.646945	12.538561	3.857207
27520		20.696166	12.464448	3.541352
27521		20.772631	12.394697	3.216144
27522		20.876301	12.323719	2.879972
27523		20.992072	12.256153	2.532385
27524		21.135240	12.193114	2.175518
27525		21.297214	12.126053	1.806710
27526		21.475457	12.058312	1.427284
27527		21.635782	11.994236	1.040883
27528		21.781678	11.934921	0.648470
27529		21.923906	11.879736	0.249119
27530		22.082066	11.822238	-0.157618
27531		22.235603	11.764818	-0.567088
27532		22.370700	11.708052	-0.980443
27533		22.504556	11.650897	-1.393355
27534		22.651878	11.597027	-1.797659
27535		22.791786	11.542496	-2.188790
27536		22.960520	11.489215	-2.571481
27537		23.180760	11.441678	-2.967758
27538		23.414460	11.399936	-3.377603
27539		23.633195	11.374036	-3.818591
27540		23.820782	11.366900	-4.297869
27541		23.968331	11.374185	-4.814796
27542		24.097797	11.405091	-5.361719
27543		24.170489	11.438927	-5.939196
27544		24.172862	11.486904	-6.527401
27545		24.180603	11.543810	-7.121754
27546		24.247832	11.591362	-7.720119
27547		24.338635	11.639851	-8.334251
27548		24.408139	11.690907	-8.966173
27549		24.427719	11.749102	-9.617645
27550		24.475698	11.806161	-10.280925
27551		24.597741	11.860642	-10.953414
27552		24.755577	11.910601	-11.627951
27553		24.919594	11.964094	-12.306378
27554		25.070226	12.019884	-12.986695
27555		25.210124	12.070719	-13.678072
27556		25.382556	12.119609	-14.373528
27557		25.552868	12.178577	-15.062905
27558		25.740289	12.243295	-15.740361
27559		25.948835	12.312993	-16.421449
27560		26.141520	12.379381	-17.109744
27561		26.265213	12.451724	-17.798827
27562		26.315367	12.518162	-18.482836
27563		26.302980	12.575651	-19.159847
27564		26.292683	12.615557	-19.813754
27565		26.287142	12.638114	-20.440924
27566		26.318102	12.652447	-21.052481
27567		26.388046	12.671540	-21.670142
27568		26.409420	12.691274	-22.297315
27569		26.372659	12.719987	-22.941265
27570		26.327429	12.755109	-23.585666
27571		26.324786	12.786747	-24.230127
27572		26.404828	12.809349	-24.865183
27573		26.549504	12.815255	-25.488750
27574		26.722370	12.815047	-26.106718
27575		26.896774	12.813377	-26.735877
27576		27.061589	12.810369	-27.375662
27577		27.200956	12.808117	-28.031827
27578		27.307333	12.812459	-28.701968
27579		27.353169	12.828283	-29.387206
27580		27.381133	12.843368	-30.083061
27581		27.438459	12.850915	-30.792568
27582		27.528637	12.852647	-31.504997
27583		27.616113	12.858701	-32.222736
27584		27.693935	12.858867	-32.949509
27585		27.774450	12.858064	-33.692288
27586		27.868085	12.866825	-34.447860
27587		27.892819	12.882851	-35.216736
27588		27.943670	12.896175	-35.995994
27589		28.079481	12.904550	-36.777549
27590		28.262427	12.907513	-37.543146
27591		28.475016	12.899804	-38.297897
27592		28.706765	12.889446	-39.040504
27593		28.939382	12.864602	-39.795512
27594		29.122853	12.839581	-40.545344
27595		29.204311	12.819581	-41.283119
27596		29.262470	12.797940	-41.996761
27597		29.365720	12.766602	-42.689134
27598		29.468214	12.735521	-43.340797
27599		29.610861	12.695469	-43.975963
27600		29.803106	12.641562	-44.607502
27601		29.900105	12.584305	-45.241709
27602		29.850878	12.543399	-45.874691
27603		29.685447	12.515069	-46.502368
27604		29.465110	12.496006	-47.107408
27605		29.283160	12.470010	-47.693640
27606		29.187666	12.440944	-48.240093
27607		29.230012	12.393004	-48.771556
27608		29.376157	12.343098	-49.297406
27609		29.517829	12.293004	-49.844991
27610		29.584472	12.257602	-50.404280
27611		29.618379	12.230675	-50.979585
27612		29.668870	12.212466	-51.550889
27613		29.756222	12.193385	-52.117235
27614		29.898752	12.167947	-52.671844
27615		30.075970	12.135998	-53.238859
27616		30.256434	12.113733	-53.832155
27617		30.285623	12.095377	-54.453955
27618		30.048521	12.110446	-55.095658
27619		29.591064	12.143567	-55.748589
27620		29.103773	12.170470	-56.384079
27621		28.751991	12.181680	-57.001767
27622		28.539115	12.177006	-57.583121
27623		28.426126	12.166998	-58.148214
27624		28.485642	12.157072	-58.718047
27625		28.715955	12.139021	-59.322934
27626		28.886145	12.139417	-59.941372
27627		29.007573	12.149271	-60.587150
27628		29.212216	12.158609	-61.232240
27629		29.477641	12.174339	-61.872844
27630		29.812836	12.188765	-62.517947
27631		30.239299	12.211891	-63.180841
27632		30.671802	12.238467	-63.860776
27633		30.878557	12.290919	-64.551722
27634		30.816773	12.363261	-65.231968
27635		30.707255	12.422596	-65.905030
27636		30.695120	12.465154	-66.554550
27637		30.712311	12.486551	-67.187226
27638		30.681372	12.497049	-67.802424
27639		30.591144	12.512123	-68.416873
27640		30.426949	12.544338	-69.008996
27641		30.236287	12.592262	-69.591405
27642		30.038161	12.637554	-70.165228
27643		29.801745	12.683917	-70.729325
27644		29.640283	12.721621	-71.268850
27645		29.603742	12.756404	-71.766864
27646		29.823962	12.797633	-72.215968
27647		30.283471	12.820245	-72.633728
27648		30.755074	12.852904	-73.046470
27649		31.105381	12.885598	-73.470827
27650		31.363930	12.937558	-73.905298
27651		31.659658	12.991839	-74.360138
27652		32.043781	13.054000	-74.814135
27653		32.565447	13.121790	-75.287662
27654		33.347215	13.188453	-75.774989
27655		34.258058	13.251232	-76.270926
27656		35.103827	13.314226	-76.773188
27657		35.846737	13.395240	-77.272924
27658		36.565832	13.465452	-77.769527
27659		37.373427	13.513992	-78.299651
27660		38.296949	13.543364	-78.849292
27661		39.271258	13.543785	-79.385802
27662		40.242711	13.506931	-79.917780
27663		40.864369	13.486362	-80.409456
27664		40.764977	13.553814	-80.809926
27665		40.297761	13.644141	-81.166810
27666		39.920297	13.660932	-81.528260
27667		39.654071	13.622420	-81.890012
27668		39.243184	13.577974	-82.215266
27669		38.651568	13.554658	-82.510292
27670		37.977162	13.562760	-82.784866
27671		37.288467	13.599405	-83.079092
27672		36.699388	13.665839	-83.427220
27673		36.328335	13.729630	-83.815734
27674		36.184650	13.777927	-84.230247
27675		36.212546	13.823003	-84.656774
27676		36.377757	13.881678	-85.063490
27677		36.737006	13.918907	-85.447180
27678		37.141203	13.940673	-85.796906
27679		37.541739	13.959115	-86.135623
27680		38.018277	13.952675	-86.480655
27681		38.522526	13.945161	-86.834056
27682		39.015126	13.935177	-87.190381
27683		39.383655	13.926219	-87.573276
27684		39.541410	13.941964	-87.966687
27685		39.523555	13.991844	-88.347618
27686		39.425313	14.041463	-88.736989
27687		39.246343	14.089879	-89.114813
27688		38.973575	14.142019	-89.486155
27689		38.713543	14.180779	-89.855893
27690		38.459856	14.199806	-90.212350
27691		38.116020	14.238306	-90.544513
27692		37.764584	14.292262	-90.883421
27693		37.542879	14.329321	-91.236438
27694		37.375438	14.368996	-91.586923
27695		37.188411	14.410280	-91.958209
27696		37.103890	14.444261	-92.344590
27697		37.174621	14.485427	-92.727798
27698		37.326904	14.530888	-93.122204
27699		37.512820	14.603068	-93.538632
27700		37.668875	14.693486	-93.946001
27701		37.722686	14.817613	-94.309682
27702		37.763478	14.941814	-94.668871
27703		37.856178	15.060962	-94.996502
27704		38.001538	15.158767	-95.276725
27705		38.104034	15.251760	-95.518597
27706		38.073950	15.364589	-95.738762
27707		37.818757	15.504355	-95.919795
27708		37.463232	15.622747	-96.104765
27709		37.127824	15.694763	-96.311788
27710		36.827847	15.743006	-96.524195
27711		36.629144	15.752476	-96.737513
27712		36.463436	15.751130	-96.943753
27713		36.282711	15.760014	-97.130269
27714		36.239440	15.745028	-97.320489
27715		36.334984	15.718508	-97.505444
27716		36.414741	15.696730	-97.704670
27717		36.473148	15.674752	-97.913227
27718		36.571187	15.641998	-98.119423
27719		36.710490	15.612381	-98.305693
27720		36.838899	15.600694	-98.480782
27721		36.950559	15.604075	-98.640721
27722		37.018410	15.601335	-98.805448
27723		37.005403	15.585189	-98.983021
27724		36.923833	15.562428	-99.147939
27725		36.883103	15.525276	-99.290925
27726		36.869930	15.482810	-99.410936
27727		36.877041	15.458875	-99.495627
27728		36.891927	15.433870	-99.568632
27729		36.875853	15.427973	-99.660628
27730		36.858543	15.414207	-99.777862
27731		36.827763	15.405996	-99.898593
27732		36.740446	15.427058	-100.020999
27733		36.712894	15.436378	-100.158418
27734		36.744222	15.446590	-100.283070
27735		36.783226	15.475142	-100.391495
27736		36.893876	15.490845	-100.501379
27737		37.087221	15.510918	-100.601651
27738		37.264146	15.543564	-100.679700
27739		37.318325	15.597788	-100.753717
27740		37.314663	15.655732	-100.834496
27741		37.283063	15.710480	-100.923922
27742		37.232935	15.766302	-101.011376
27743		37.183603	15.820534	-101.106259
27744		37.222574	15.867928	-101.196584
27745		37.353029	15.909315	-101.268235
27746		37.494272	15.963930	-101.312454
27747		37.638476	16.029874	-101.336969
27748		37.883594	16.084669	-101.344378
27749		38.191003	16.115776	-101.333224
27750		38.460704	16.141779	-101.305811
27751		38.646160	16.164966	-101.267271
27752		38.752414	16.193058	-101.222495
27753		38.810712	16.240822	-101.168966
27754		38.837990	16.319827	-101.121870
27755		38.827289	16.408710	-101.094671
27756		38.773094	16.500918	-101.080062
27757		38.680786	16.617303	-101.062632
27758		38.635096	16.745434	-101.042869
27759		38.716540	16.864280	-101.010244
27760		38.852400	16.972285	-100.964659
27761		38.932150	17.082208	-100.907035
27762		38.982123	17.181746	-100.849155
27763		39.003935	17.266425	-100.794967
27764		38.976256	17.346809	-100.749850
27765		38.917658	17.419090	-100.710624
27766		38.886831	17.491145	-100.679087
27767		38.886145	17.557504	-100.649043
27768		38.864570	17.624296	-100.614919
27769		38.831728	17.687317	-100.581466
27770		38.813658	17.734433	-100.551748
27771		38.772203	17.768236	-100.517255
27772		38.723452	17.795731	-100.475276
27773		38.718395	17.811807	-100.432101
27774		38.716931	17.825792	-100.392811
27775		38.679427	17.839916	-100.361387
27776		38.629039	17.851979	-100.341977
27777		38.616501	17.859863	-100.321487
27778		38.649840	17.858529	-100.301946
27779		38.728163	17.851828	-100.278288
27780		38.809077	17.842995	-100.256856
27781		38.847273	17.836138	-100.228906
27782		38.859705	17.826298	-100.206682
27783		38.828518	17.816153	-100.190124
27784		38.793826	17.799642	-100.177370
27785		38.780462	17.781977	-100.165146
27786		38.781276	17.769572	-100.158637
27787		38.788286	17.762267	-100.153626
27788		38.803075	17.752986	-100.149692
27789		38.810523	17.745786	-100.139128
27790		38.823583	17.737554	-100.116611
27791		38.872097	17.717170	-100.092023
27792		38.946371	17.699579	-100.060829
27793		39.038730	17.678338	-100.034876
27794		39.088638	17.669870	-100.016095
27795		39.097733	17.671954	-100.000393
27796		39.085988	17.680964	-99.977393
27797		39.075759	17.698201	-99.936353
27798		39.086687	17.714326	-99.882173
27799		39.135803	17.720605	-99.822613
27800		39.230250	17.716794	-99.762366
27801		39.284651	17.720635	-99.700657
27802		39.273407	17.734606	-99.649540
27803		39.220062	17.750343	-99.611864
27804		39.143002	17.765068	-99.585508
27805		39.054703	17.778154	-99.572475
27806		38.984270	17.787389	-99.569195
27807		38.927820	17.790419	-99.568549
27808		38.870793	17.806782	-99.566995
27809		38.848047	17.827289	-99.566714
27810		38.847843	17.847052	-99.565494
27811		38.851192	17.868073	-99.558333
27812		38.845380	17.894600	-99.540168
27813		38.852979	17.914371	-99.515173
27814		38.867485	17.924552	-99.491781
27815		38.867652	17.925175	-99.469201
27816		38.849758	17.921104	-99.444912
27817		38.815584	17.912311	-99.423240
27818		38.777792	17.909997	-99.405314
27819		38.742007	17.904953	-99.389635
27820		38.706811	17.897887	-99.372812
27821		38.671274	17.880381	-99.348643
27822		38.629746	17.859494	-99.309085
27823		38.627226	17.822471	-99.256063
27824		38.657156	17.783204	-99.188284
27825		38.673625	17.737510	-99.117691
27826		38.669164	17.690729	-99.043452
27827		38.606062	17.648030	-98.962088
27828		38.494922	17.605564	-98.868416
27829		38.389172	17.557578	-98.750044
27830		38.325353	17.497787	-98.613093
27831		38.318081	17.422209	-98.454239
27832		38.357959	17.335277	-98.287389
27833		38.401050	17.247963	-98.110715
27834		38.419929	17.158819	-97.934132
27835		38.430887	17.073216	-97.750342
27836		38.424007	16.993103	-97.556352
27837		38.410873	16.905562	-97.351382
27838		38.431162	16.815529	-97.134878
27839		38.495465	16.719205	-96.905410
27840		38.542819	16.622975	-96.668757
27841		38.502996	16.540102	-96.429680
27842		38.437140	16.458205	-96.214469
27843		38.336925	16.382960	-96.023166
27844		38.162427	16.332443	-95.847105
27845		37.976666	16.287304	-95.691629
27846		37.810103	16.248108	-95.546162
27847		37.666511	16.220138	-95.390101
27848		37.572289	16.207352	-95.221834
27849		37.557014	16.185601	-95.050828
27850		37.594294	16.150986	-94.867480
27851		37.621554	16.117557	-94.666637
27852		37.605771	16.090516	-94.451728
27853		37.587106	16.047673	-94.228056
